time,seconds_elapsed,z,y,x
1727009940984990000,0.013989990234375,-0.624420166015625,-0.7015533447265625,-0.0467987060546875
1727009940995027700,0.02402783203125,-0.4204864501953125,-0.7494964599609375,-0.01971435546875
1727009941005066000,0.03406591796875,-0.5897369384765625,-0.7476654052734375,0.0211029052734375
1727009941015103700,0.044103759765625,-0.5076904296875,-0.79461669921875,-0.0074310302734375
1727009941025141800,0.054141845703125,-0.7929229736328125,-0.7901458740234375,-0.088623046875
1727009941035179800,0.0641796875,-0.737274169921875,-0.84478759765625,-0.1973724365234375
1727009941045216800,0.074216796875,-0.545654296875,-0.7522430419921875,-0.1365203857421875
1727009941055254800,0.0842548828125,-0.56793212890625,-0.7652740478515625,0.009918212890625
1727009941065292800,0.094292724609375,-0.6579132080078125,-0.7552642822265625,0.0879058837890625
1727009941075330800,0.104330810546875,-0.686248779296875,-0.76416015625,0.0547637939453125
1727009941085368800,0.114368896484375,-0.5717620849609375,-0.71417236328125,0.0192413330078125
1727009941095405800,0.12440576171875,-0.5977325439453125,-0.7498931884765625,-0.04302978515625
1727009941105443800,0.13444384765625,-0.514801025390625,-0.7681732177734375,-0.13238525390625
1727009941115481900,0.14448193359375,-0.5902862548828125,-0.8049163818359375,-0.2089385986328125
1727009941125520000,0.154519775390625,-0.5131988525390625,-0.8497772216796875,-0.2668304443359375
1727009941135558000,0.164557861328125,-0.533294677734375,-0.842437744140625,-0.2509307861328125
1727009941145596000,0.174595947265625,-0.5962982177734375,-0.8648529052734375,-0.23785400390625
1727009941155632600,0.184632568359375,-0.546630859375,-0.8153228759765625,-0.2184600830078125
1727009941165671000,0.1946708984375,-0.487762451171875,-0.8069915771484375,-0.1630096435546875
1727009941175708700,0.204708740234375,-0.5177154541015625,-0.798187255859375,-0.107147216796875
1727009941185747000,0.214746826171875,-0.481231689453125,-0.866485595703125,-0.0463714599609375
1727009941195784700,0.22478466796875,-0.8502197265625,-0.9568023681640625,0.014617919921875
1727009941205821700,0.23482177734375,-0.785400390625,-0.9683837890625,0.051239013671875
1727009941215860000,0.24485986328125,-0.6327972412109375,-0.8540802001953125,0.0816650390625
1727009941225897700,0.254897705078125,-0.3658294677734375,-0.80389404296875,0.0194854736328125
1727009941235935700,0.264935791015625,-0.5688323974609375,-0.7596435546875,-0.0473175048828125
1727009941245973800,0.274973876953125,-0.5822906494140625,-0.79095458984375,-0.029052734375
1727009941256010800,0.2850107421875,-0.5019683837890625,-0.7314453125,0.0510406494140625
1727009941266049000,0.295049072265625,-0.477447509765625,-0.8226165771484375,0.0779876708984375
1727009941276086800,0.305086669921875,-0.453399658203125,-0.887542724609375,0.0279998779296875
1727009941286124800,0.315124755859375,-0.7852783203125,-0.95086669921875,-0.0244903564453125
1727009941296162800,0.325162841796875,-0.6698150634765625,-0.8593902587890625,-0.069915771484375
1727009941306200800,0.335200927734375,-0.49755859375,-0.7454833984375,-0.127105712890625
1727009941316237600,0.345237548828125,-0.4530792236328125,-0.6820831298828125,-0.1755218505859375
1727009941326275800,0.35527587890625,-0.5840301513671875,-0.6353302001953125,-0.1922454833984375
1727009941336313600,0.365313720703125,-0.5930328369140625,-0.78857421875,-0.1682281494140625
1727009941346351900,0.375351806640625,-0.639190673828125,-0.8089599609375,-0.0868988037109375
1727009941356390000,0.385389892578125,-0.674591064453125,-0.9014739990234375,0.0067291259765625
1727009941366426600,0.395426513671875,-0.6381988525390625,-0.9171600341796875,0.033172607421875
1727009941376465000,0.40546484375,-0.47625732421875,-0.9529876708984375,-0.0074462890625
1727009941386502700,0.415502685546875,-0.45361328125,-0.868499755859375,-0.0392608642578125
1727009941396541000,0.425541015625,-0.625946044921875,-0.8056793212890625,-0.069671630859375
1727009941406578700,0.43557861328125,-0.433746337890625,-0.8054962158203125,-0.116668701171875
1727009941416615700,0.44561572265625,-0.6129302978515625,-0.824951171875,-0.10784912109375
1727009941426654000,0.455654052734375,-0.645782470703125,-0.8784942626953125,-0.0648345947265625
1727009941436691700,0.465691650390625,-0.6713409423828125,-0.880401611328125,-0.040283203125
1727009941446730000,0.47572998046875,-0.3788299560546875,-0.9418182373046875,-0.05535888671875
1727009941456767700,0.485767822265625,-0.5775299072265625,-0.85369873046875,-0.09033203125
1727009941466805800,0.4958056640625,-0.437744140625,-0.9025421142578125,-0.169708251953125
1727009941476843000,0.505843017578125,-0.551971435546875,-0.7956695556640625,-0.21435546875
1727009941486880800,0.515880859375,-0.4762115478515625,-0.8175811767578125,-0.217437744140625
1727009941496919000,0.5259189453125,-0.4575653076171875,-0.7867889404296875,-0.2073211669921875
1727009941506956800,0.535956787109375,-0.5462188720703125,-0.84295654296875,-0.18524169921875
1727009941516994800,0.545994873046875,-0.6933746337890625,-0.89837646484375,-0.123687744140625
1727009941527031800,0.55603173828125,-0.644256591796875,-0.9059906005859375,-0.0831146240234375
1727009941537069800,0.56606982421875,-0.40325927734375,-0.9085235595703125,-0.1216888427734375
1727009941547107600,0.576107666015625,-0.33905029296875,-0.8952789306640625,-0.1932525634765625
1727009941557145900,0.586145751953125,-0.67547607421875,-0.8483123779296875,-0.2375640869140625
1727009941567183600,0.59618359375,-0.576080322265625,-0.852874755859375,-0.24853515625
1727009941577222100,0.60622216796875,-0.5147247314453125,-0.834381103515625,-0.196990966796875
1727009941587259400,0.61625927734375,-0.3751068115234375,-0.8578338623046875,-0.0981903076171875
1727009941597297200,0.626297119140625,-0.390289306640625,-0.8834686279296875,-0.020660400390625
1727009941607335200,0.636335205078125,-0.448883056640625,-1.0059661865234375,-0.0191802978515625
1727009941617373200,0.646373291015625,-0.577728271484375,-1.030731201171875,-0.07904052734375
1727009941627411200,0.6564111328125,-0.663970947265625,-1.0198822021484375,-0.155975341796875
1727009941637448200,0.6664482421875,-0.608856201171875,-0.9396514892578125,-0.1801300048828125
1727009941647486200,0.676486328125,-0.461273193359375,-0.885711669921875,-0.1487579345703125
1727009941657524200,0.686524169921875,-0.46160888671875,-0.7781524658203125,-0.1068267822265625
1727009941667562200,0.696562255859375,-0.1786346435546875,-0.811859130859375,-0.1049957275390625
1727009941677600300,0.706600341796875,-0.543548583984375,-0.7894287109375,-0.101287841796875
1727009941687637000,0.716636962890625,-0.5716400146484375,-0.92041015625,-0.1170654296875
1727009941697675300,0.72667529296875,-0.6356201171875,-0.8249664306640625,-0.1025238037109375
1727009941707713000,0.736713134765625,-0.5221710205078125,-0.7996063232421875,-0.0974884033203125
1727009941717751300,0.746751220703125,-0.5558624267578125,-0.717529296875,-0.1148529052734375
1727009941727789000,0.7567890625,-0.4660491943359375,-0.7618865966796875,-0.107025146484375
1727009941737827000,0.7668271484375,-0.7159881591796875,-0.7036285400390625,-0.0273284912109375
1727009941747864300,0.7768642578125,-0.8652801513671875,-0.7574920654296875,0.0386810302734375
1727009941757902000,0.786902099609375,-0.6759185791015625,-0.72979736328125,0.038726806640625
1727009941767940400,0.7969404296875,-0.5460205078125,-0.755859375,-0.036651611328125
1727009941777978000,0.80697802734375,-0.541290283203125,-0.8095703125,-0.1254119873046875
1727009941788016000,0.81701611328125,-0.693115234375,-0.839324951171875,-0.147796630859375
1727009941798053400,0.827053466796875,-0.748138427734375,-0.7989349365234375,-0.092742919921875
1727009941808091100,0.837091064453125,-0.6358184814453125,-0.7381591796875,-0.046630859375
1727009941818129200,0.847129150390625,-0.651397705078125,-0.767852783203125,-0.0734710693359375
1727009941828167200,0.857167236328125,-0.6027679443359375,-0.771331787109375,-0.134246826171875
1727009941838205200,0.867205078125,-0.599945068359375,-0.793243408203125,-0.1713409423828125
1727009941848243200,0.8772431640625,-0.6199188232421875,-0.8714447021484375,-0.1479644775390625
1727009941858280200,0.8872802734375,-0.5534515380859375,-0.839447021484375,-0.082275390625
1727009941868318200,0.897318115234375,-0.5450592041015625,-0.8829345703125,-0.039337158203125
1727009941878356200,0.907356201171875,-0.5037841796875,-0.885101318359375,-0.05584716796875
1727009941888394200,0.917394287109375,-0.567962646484375,-0.9064483642578125,-0.114990234375
1727009941898432300,0.927432373046875,-0.6025543212890625,-0.8985137939453125,-0.1522369384765625
1727009941908469200,0.93746923828125,-0.510772705078125,-0.90301513671875,-0.135589599609375
1727009941918507000,0.947507080078125,-0.57489013671875,-0.853118896484375,-0.0916748046875
1727009941928545300,0.957545166015625,-0.458526611328125,-0.8134613037109375,-0.0745086669921875
1727009941938583000,0.9675830078125,-0.2881011962890625,-0.7961883544921875,-0.076385498046875
1727009941948621300,0.977621337890625,-0.558135986328125,-0.795257568359375,-0.0980224609375
1727009941958659000,0.9876591796875,-0.799224853515625,-0.784393310546875,-0.17840576171875
1727009941968696000,0.997696044921875,-0.8191680908203125,-0.83087158203125,-0.26104736328125
1727009941978734300,1.007734375,-0.7119903564453125,-0.7957000732421875,-0.2734527587890625
1727009941988772000,1.017772216796875,-0.3318328857421875,-0.7799530029296875,-0.2256011962890625
1727009941998810400,1.027810302734375,-0.465087890625,-0.7848358154296875,-0.1297607421875
1727009942008848100,1.03784814453125,-0.6339111328125,-0.7807464599609375,-0.0695648193359375
1727009942018885000,1.047885009765625,-0.6336517333984375,-0.787017822265625,-0.1115875244140625
1727009942028923400,1.05792333984375,-0.6562347412109375,-0.8248443603515625,-0.232208251953125
1727009942038961200,1.067961181640625,-0.66217041015625,-0.7497711181640625,-0.3373565673828125
1727009942048999200,1.077999267578125,-0.6311492919921875,-0.8089752197265625,-0.36859130859375
1727009942059037200,1.088037109375,-0.541900634765625,-0.7758941650390625,-0.3083038330078125
1727009942069075200,1.0980751953125,-0.4639892578125,-0.7885894775390625,-0.1927032470703125
1727009942079112200,1.1081123046875,-0.482147216796875,-0.830413818359375,-0.092926025390625
1727009942089150200,1.118150146484375,-0.5572357177734375,-0.9001922607421875,-0.0441131591796875
1727009942099188000,1.12818798828125,-0.5609130859375,-0.93994140625,-0.04052734375
1727009942109226200,1.138226318359375,-0.491485595703125,-0.94903564453125,-0.0773773193359375
1727009942119264000,1.148263916015625,-0.4690704345703125,-0.9542083740234375,-0.1298065185546875
1727009942129301000,1.158301025390625,-0.5847320556640625,-0.92364501953125,-0.167572021484375
1727009942139339300,1.16833935546875,-0.454742431640625,-0.9205169677734375,-0.192413330078125
1727009942149377000,1.178376953125,-0.5506439208984375,-0.8084259033203125,-0.19622802734375
1727009942159415300,1.188415283203125,-0.2380828857421875,-0.8378753662109375,-0.24798583984375
1727009942169453000,1.198453125,-0.56439208984375,-0.814117431640625,-0.30670166015625
1727009942179491300,1.2084912109375,-0.3133392333984375,-0.92626953125,-0.38128662109375
1727009942189528300,1.2185283203125,-0.4716796875,-0.9413604736328125,-0.372283935546875
1727009942199566000,1.228566162109375,-0.3945770263671875,-1.027587890625,-0.2914886474609375
1727009942209604400,1.238604248046875,-0.5157623291015625,-0.92938232421875,-0.17315673828125
1727009942219642000,1.24864208984375,-0.4495086669921875,-0.9392547607421875,-0.0989532470703125
1727009942229680000,1.25868017578125,-0.485321044921875,-0.791107177734375,-0.083465576171875
1727009942239718100,1.26871826171875,-0.4931640625,-0.807586669921875,-0.119476318359375
1727009942249755100,1.278755126953125,-0.5567779541015625,-0.766998291015625,-0.1651458740234375
1727009942259793400,1.28879345703125,-0.7621612548828125,-0.82244873046875,-0.2151641845703125
1727009942269831200,1.2988310546875,-0.6306610107421875,-0.7309417724609375,-0.2750091552734375
1727009942279869200,1.308869140625,-0.6043548583984375,-0.79266357421875,-0.3253326416015625
1727009942289907200,1.3189072265625,-0.515045166015625,-0.75848388671875,-0.3300933837890625
1727009942299944200,1.328944091796875,-0.69781494140625,-0.7669677734375,-0.267608642578125
1727009942309982000,1.33898193359375,-0.609405517578125,-0.8069915771484375,-0.2072906494140625
1727009942320020200,1.349020263671875,-0.5759735107421875,-0.792999267578125,-0.16827392578125
1727009942330058000,1.35905810546875,-0.600860595703125,-0.8274993896484375,-0.1654052734375
1727009942340096300,1.36909619140625,-0.5399322509765625,-0.871978759765625,-0.1972198486328125
1727009942350134000,1.379134033203125,-0.53863525390625,-0.8353424072265625,-0.2392730712890625
1727009942360171000,1.3891708984375,-0.6075897216796875,-0.7908172607421875,-0.2841644287109375
1727009942370209300,1.399209228515625,-0.611785888671875,-0.784576416015625,-0.316925048828125
1727009942380247000,1.4092470703125,-0.5093231201171875,-0.7346038818359375,-0.291717529296875
1727009942390285300,1.419285400390625,-0.5575103759765625,-0.6655426025390625,-0.2032928466796875
1727009942400323000,1.429322998046875,-0.596038818359375,-0.7312469482421875,-0.1016387939453125
1727009942410361300,1.439361328125,-0.656982421875,-0.753997802734375,-0.013641357421875
1727009942420398300,1.4493984375,-0.7063446044921875,-0.781280517578125,0.0234375
1727009942430436000,1.45943603515625,-0.627349853515625,-0.8128662109375,-0.0050201416015625
1727009942440474400,1.469474365234375,-0.4979248046875,-0.84710693359375,-0.0582733154296875
1727009942450512100,1.47951220703125,-0.653106689453125,-0.807159423828125,-0.0640716552734375
1727009942460550100,1.489550048828125,-0.7310638427734375,-0.799713134765625,-0.011383056640625
1727009942470588200,1.499588134765625,-0.6970367431640625,-0.7084503173828125,0.0722808837890625
1727009942480625200,1.509625244140625,-0.4394683837890625,-0.731658935546875,0.111846923828125
1727009942490663200,1.5196630859375,-0.4472808837890625,-0.7521209716796875,0.1371307373046875
1727009942500701200,1.529701171875,-0.570159912109375,-0.8139801025390625,0.1551513671875
1727009942510739200,1.5397392578125,-0.594207763671875,-0.912506103515625,0.1220245361328125
1727009942520777200,1.549777099609375,-0.7265472412109375,-0.9262542724609375,0.0390167236328125
1727009942530814200,1.559814208984375,-0.714752197265625,-0.902740478515625,-0.0648345947265625
1727009942540852000,1.56985205078125,-0.4359130859375,-0.816009521484375,-0.1338348388671875
1727009942550890200,1.57989013671875,-0.4533233642578125,-0.769378662109375,-0.139862060546875
1727009942560928000,1.589927978515625,-0.48089599609375,-0.715362548828125,-0.0977783203125
1727009942570966300,1.59996630859375,-0.62652587890625,-0.793365478515625,-0.0471649169921875
1727009942581007400,1.61000732421875,-0.7165679931640625,-0.85302734375,-0.005950927734375
1727009942591044400,1.62004443359375,-0.5133514404296875,-0.897674560546875,-0.001129150390625
1727009942601082600,1.63008251953125,-0.50091552734375,-0.9184112548828125,-0.010467529296875
1727009942611120400,1.640120361328125,-0.593048095703125,-0.8866119384765625,-0.03704833984375
1727009942621158400,1.650158447265625,-0.441802978515625,-0.86474609375,-0.067535400390625
1727009942631196400,1.660196533203125,-0.5991668701171875,-0.740478515625,-0.04705810546875
1727009942641234400,1.670234375,-0.501708984375,-0.7635345458984375,-0.0017852783203125
1727009942651271700,1.680271728515625,-0.419219970703125,-0.728485107421875,0.0314788818359375
1727009942661309400,1.690309326171875,-0.5727386474609375,-0.8095245361328125,0.026763916015625
1727009942671347500,1.700347412109375,-0.621185302734375,-0.9049224853515625,0.0089263916015625
1727009942681385500,1.710385498046875,-0.7157440185546875,-0.92755126953125,-0.0011749267578125
1727009942691423500,1.720423583984375,-0.5188446044921875,-0.9070587158203125,-0.0283660888671875
1727009942701461500,1.73046142578125,-0.221527099609375,-0.9013519287109375,-0.0894622802734375
1727009942711498500,1.74049853515625,-0.6016082763671875,-0.8090362548828125,-0.0865936279296875
1727009942721536500,1.75053662109375,-0.756378173828125,-0.8377838134765625,-0.0336456298828125
1727009942731574500,1.760574462890625,-0.7440032958984375,-0.8352813720703125,-0.0114898681640625
1727009942741612500,1.770612548828125,-0.4582366943359375,-0.79937744140625,-0.05535888671875
1727009942751650600,1.780650634765625,-0.5655364990234375,-0.8067779541015625,-0.1406707763671875
1727009942761688600,1.7906884765625,-0.194610595703125,-0.8699798583984375,-0.2534332275390625
1727009942771725300,1.800725341796875,-0.4468536376953125,-0.900115966796875,-0.266448974609375
1727009942781763600,1.810763671875,-0.8993682861328125,-0.8811187744140625,-0.1264801025390625
1727009942791801300,1.82080126953125,-0.7010955810546875,-0.803009033203125,0.0298919677734375
1727009942801839400,1.83083935546875,-0.4598236083984375,-0.77264404296875,0.099578857421875
1727009942811877400,1.84087744140625,-0.3922882080078125,-0.7725982666015625,0.0441741943359375
1727009942821915400,1.850915283203125,-0.3816680908203125,-0.9163055419921875,-0.051788330078125
1727009942831952600,1.86095263671875,-0.7940826416015625,-0.877593994140625,-0.073333740234375
1727009942841990400,1.870990478515625,-0.424072265625,-0.9294281005859375,-0.047607421875
1727009942852028400,1.8810283203125,-0.352508544921875,-0.87298583984375,0.03399658203125
1727009942862066400,1.89106640625,-0.567352294921875,-0.878936767578125,0.126068115234375
1727009942872104400,1.9011044921875,-0.8289642333984375,-0.804779052734375,0.185760498046875
1727009942882142500,1.911142578125,-0.634124755859375,-0.91558837890625,0.1420745849609375
1727009942892179500,1.921179443359375,-0.29083251953125,-0.8551483154296875,0.009918212890625
1727009942902217500,1.931217529296875,-0.4563140869140625,-0.9501495361328125,-0.0962066650390625
1727009942912255500,1.94125537109375,-0.511444091796875,-1.04736328125,-0.1568145751953125
1727009942922293500,1.95129345703125,-0.5575103759765625,-0.9969329833984375,-0.168304443359375
1727009942932331500,1.96133154296875,-0.683929443359375,-0.9024200439453125,-0.1667938232421875
1727009942942369500,1.97136962890625,-0.554931640625,-0.819976806640625,-0.224639892578125
1727009942952407300,1.9814072265625,-0.63397216796875,-0.7833404541015625,-0.2983856201171875
1727009942962444500,1.991444580078125,-0.6006927490234375,-0.743682861328125,-0.3342437744140625
1727009942972482600,2.001482666015625,-0.5738067626953125,-0.7769622802734375,-0.306640625
1727009942982520600,2.0115205078125,-0.5552520751953125,-0.8228759765625,-0.2128448486328125
1727009942992558600,2.02155859375,-0.601654052734375,-0.8392333984375,-0.08074951171875
1727009943002596400,2.031596435546875,-0.6180419921875,-0.832000732421875,0.01849365234375
1727009943012634600,2.041634521484375,-0.5291595458984375,-0.7434539794921875,0.0366058349609375
1727009943022671400,2.05167138671875,-0.3388214111328125,-0.7159576416015625,-0.0457305908203125
1727009943032709400,2.06170947265625,-0.3768463134765625,-0.706268310546875,-0.1541900634765625
1727009943042747400,2.071747314453125,-0.7587127685546875,-0.7926025390625,-0.222198486328125
1727009943052785400,2.081785400390625,-0.8869781494140625,-0.803863525390625,-0.2166900634765625
1727009943062823400,2.091823486328125,-0.8370513916015625,-0.7905120849609375,-0.153228759765625
1727009943072861400,2.101861328125,-0.65301513671875,-0.8303680419921875,-0.0956573486328125
1727009943082898400,2.1118984375,-0.5896759033203125,-0.7940521240234375,-0.0961761474609375
1727009943092936400,2.1219365234375,-0.4887542724609375,-0.8263702392578125,-0.1599578857421875
1727009943102974500,2.131974365234375,-0.7037353515625,-0.803497314453125,-0.252838134765625
1727009943113012500,2.142012451171875,-0.563507080078125,-0.7445220947265625,-0.3309478759765625
1727009943123050500,2.152050537109375,-0.4821624755859375,-0.7093353271484375,-0.3065338134765625
1727009943133088300,2.162088134765625,-0.576019287109375,-0.7462615966796875,-0.2154388427734375
1727009943143125500,2.17212548828125,-0.6315765380859375,-0.777862548828125,-0.1160736083984375
1727009943153163500,2.18216357421875,-0.5045166015625,-0.8644561767578125,-0.0783843994140625
1727009943163201500,2.192201416015625,-0.6662139892578125,-0.9205780029296875,-0.092559814453125
1727009943173239600,2.202239501953125,-0.4184112548828125,-0.975830078125,-0.0713958740234375
1727009943183277300,2.21227734375,-0.484832763671875,-0.874267578125,0.0230712890625
1727009943193315600,2.222315673828125,-0.5995941162109375,-0.7814178466796875,0.1088104248046875
1727009943203353300,2.232353271484375,-0.436492919921875,-0.7126617431640625,0.1122894287109375
1727009943213390300,2.242390380859375,-0.612579345703125,-0.6836700439453125,0.016265869140625
1727009943223428600,2.2524287109375,-0.637115478515625,-0.772247314453125,-0.1358642578125
1727009943233466400,2.26246630859375,-0.4538726806640625,-0.8533935546875,-0.211181640625
1727009943243504600,2.272504638671875,-0.658050537109375,-0.8684539794921875,-0.1676483154296875
1727009943253542400,2.28254248046875,-0.434051513671875,-0.916259765625,-0.0743560791015625
1727009943263580700,2.29258056640625,-0.7574920654296875,-0.8441009521484375,0.005950927734375
1727009943273617400,2.302617431640625,-0.475860595703125,-0.8562774658203125,-0.031585693359375
1727009943283655400,2.312655517578125,-0.54193115234375,-0.7932281494140625,-0.126312255859375
1727009943293693400,2.322693359375,-0.575103759765625,-0.720062255859375,-0.21649169921875
1727009943303731500,2.3327314453125,-0.59259033203125,-0.7200164794921875,-0.239013671875
1727009943313769500,2.34276953125,-0.47845458984375,-0.8579254150390625,-0.169921875
1727009943323807500,2.352807373046875,-0.577880859375,-0.8036346435546875,-0.0481719970703125
1727009943333845500,2.362845458984375,-0.4968414306640625,-0.926971435546875,0.052520751953125
1727009943343882500,2.372882568359375,-0.4998321533203125,-1.0036163330078125,0.054931640625
1727009943353920500,2.38292041015625,-0.672210693359375,-0.967681884765625,-0.0214996337890625
1727009943363958300,2.392958251953125,-0.7227325439453125,-0.8974761962890625,-0.1178436279296875
1727009943373996500,2.40299658203125,-0.559173583984375,-0.8366241455078125,-0.15087890625
1727009943384034300,2.413034423828125,-0.41070556640625,-0.6875,-0.1027069091796875
1727009943394072600,2.423072509765625,-0.36920166015625,-0.6959381103515625,-0.064300537109375
1727009943404110300,2.4331103515625,-0.6145172119140625,-0.81439208984375,-0.0564117431640625
1727009943414147300,2.443147216796875,-0.7312469482421875,-0.91259765625,-0.0682525634765625
1727009943424185600,2.453185546875,-0.6082763671875,-0.9627532958984375,-0.0793914794921875
1727009943434223400,2.463223388671875,-0.414581298828125,-0.918182373046875,-0.098358154296875
1727009943444261600,2.47326171875,-0.4891815185546875,-0.8592987060546875,-0.091949462890625
1727009943454299400,2.48329931640625,-0.37554931640625,-0.763153076171875,-0.0420684814453125
1727009943464337400,2.49333740234375,-0.7799224853515625,-0.720794677734375,-0.0024261474609375
1727009943474374700,2.503374755859375,-0.6923370361328125,-0.8328704833984375,-0.015289306640625
1727009943484412400,2.513412353515625,-0.5314483642578125,-0.8131866455078125,-0.0590972900390625
1727009943494450700,2.52345068359375,-0.4418487548828125,-0.91766357421875,-0.11370849609375
1727009943504488400,2.533488525390625,-0.4454498291015625,-1.0013580322265625,-0.1516571044921875
1727009943514526500,2.5435263671875,-0.7524871826171875,-0.9279022216796875,-0.14996337890625
1727009943524564500,2.553564453125,-0.7887115478515625,-0.8004302978515625,-0.1568145751953125
1727009943534602500,2.5636025390625,-0.763763427734375,-0.7194671630859375,-0.1852264404296875
1727009943544639200,2.57363916015625,-0.4792938232421875,-0.6341705322265625,-0.214019775390625
1727009943554677500,2.583677490234375,-0.470977783203125,-0.7128448486328125,-0.2166595458984375
1727009943564715300,2.59371533203125,-0.5538482666015625,-0.7720489501953125,-0.175750732421875
1727009943574753500,2.60375341796875,-0.5862884521484375,-0.8667755126953125,-0.1336517333984375
1727009943584791800,2.613791748046875,-0.6837921142578125,-0.965423583984375,-0.124725341796875
1727009943594830000,2.623830078125,-0.549957275390625,-0.8695220947265625,-0.0908203125
1727009943604867800,2.633867919921875,-0.5565338134765625,-0.7480926513671875,-0.019287109375
1727009943614904800,2.64390478515625,-0.566131591796875,-0.684906005859375,0.0448760986328125
1727009943624943000,2.653943115234375,-0.6668701171875,-0.643890380859375,0.0635528564453125
1727009943634980900,2.66398095703125,-0.70184326171875,-0.71759033203125,0.0215606689453125
1727009943645019000,2.674018798828125,-0.5688629150390625,-0.8336639404296875,-0.0752105712890625
1727009943655057000,2.684056884765625,-0.34326171875,-0.92095947265625,-0.1596221923828125
1727009943665095000,2.694094970703125,-0.448883056640625,-0.928863525390625,-0.1512451171875
1727009943675133000,2.7041328125,-0.374420166015625,-0.86773681640625,-0.075164794921875
1727009943685170000,2.714169921875,-0.603515625,-0.790740966796875,0.026275634765625
1727009943695208000,2.7242080078125,-0.873931884765625,-0.7052001953125,0.0915069580078125
1727009943705246000,2.734245849609375,-0.8931732177734375,-0.748626708984375,0.0792694091796875
1727009943715284000,2.744283935546875,-0.5865478515625,-0.7815399169921875,0.0229339599609375
1727009943725322000,2.754322021484375,-0.446685791015625,-0.845489501953125,-0.07177734375
1727009943735360000,2.764360107421875,-0.270538330078125,-1.0146636962890625,-0.1582183837890625
1727009943745397800,2.774397705078125,-0.4774627685546875,-0.94830322265625,-0.1461639404296875
1727009943755435000,2.78443505859375,-0.5829315185546875,-0.99700927734375,-0.062652587890625
1727009943765472800,2.79447265625,-0.693756103515625,-0.8133697509765625,0.067352294921875
1727009943775511000,2.804510986328125,-0.8168182373046875,-0.7080841064453125,0.117218017578125
1727009943785548800,2.814548828125,-0.481353759765625,-0.723724365234375,0.0561676025390625
1727009943795586800,2.8245869140625,-0.575408935546875,-0.7093505859375,-0.0364227294921875
1727009943805625000,2.834625,-0.7167510986328125,-0.832977294921875,-0.0966644287109375
1727009943815662800,2.844662841796875,-0.4443206787109375,-0.94287109375,-0.058807373046875
1727009943825699800,2.854699951171875,-0.6143341064453125,-0.877716064453125,0.06463623046875
1727009943835737900,2.86473779296875,-0.4099884033203125,-0.97381591796875,0.1480255126953125
1727009943845776000,2.87477587890625,-0.8711090087890625,-0.8519287109375,0.15350341796875
1727009943855814000,2.88481396484375,-0.705902099609375,-0.8056182861328125,0.0538482666015625
1727009943865852000,2.894851806640625,-0.2996826171875,-0.74102783203125,-0.0670928955078125
1727009943875890000,2.904889892578125,-0.3623809814453125,-0.7307281494140625,-0.158599853515625
1727009943885927000,2.914927001953125,-0.336669921875,-0.7919464111328125,-0.1679840087890625
1727009943895965000,2.92496484375,-0.70404052734375,-0.8824310302734375,-0.07562255859375
1727009943906003000,2.9350029296875,-0.8681793212890625,-0.895599365234375,0.0563812255859375
1727009943916041000,2.945041015625,-0.5055999755859375,-0.832366943359375,0.1655731201171875
1727009943926079000,2.955078857421875,-0.3867950439453125,-0.8399200439453125,0.1827392578125
1727009943936117000,2.965116943359375,-0.3609619140625,-0.773468017578125,0.0822906494140625
1727009943946154800,2.97515478515625,-0.5689849853515625,-0.7938232421875,-0.053375244140625
1727009943956192000,2.98519189453125,-0.8598480224609375,-0.860992431640625,-0.1333465576171875
1727009943966230000,2.99522998046875,-0.6493377685546875,-0.859375,-0.1068115234375
1727009943976267800,3.005267822265625,-0.518890380859375,-0.77813720703125,0.013031005859375
1727009943986306000,3.01530615234375,-0.570526123046875,-0.814056396484375,0.1129302978515625
1727009943996343800,3.02534375,-0.6497039794921875,-0.7891387939453125,0.1173553466796875
1727009944006382000,3.035382080078125,-0.686004638671875,-0.8139190673828125,0.039215087890625
1727009944016419800,3.045419921875,-0.625274658203125,-0.8305511474609375,-0.040008544921875
1727009944026458000,3.0554580078125,-0.4436187744140625,-0.8212738037109375,-0.0620269775390625
1727009944036494800,3.065494873046875,-0.464599609375,-0.777130126953125,-0.0421600341796875
1727009944046532900,3.075532958984375,-0.642059326171875,-0.7859039306640625,-0.0271148681640625
1727009944056571000,3.08557080078125,-0.8361053466796875,-0.751922607421875,-0.01666259765625
1727009944066609000,3.09560888671875,-0.723052978515625,-0.7180023193359375,0.0035247802734375
1727009944076647200,3.105647216796875,-0.601806640625,-0.67401123046875,0.00042724609375
1727009944086685000,3.115684814453125,-0.55255126953125,-0.720184326171875,-0.0398406982421875
1727009944096723000,3.125722900390625,-0.4188079833984375,-0.74310302734375,-0.081024169921875
1727009944106760000,3.135760009765625,-0.487060546875,-0.8631439208984375,-0.13006591796875
1727009944116798000,3.1457978515625,-0.67791748046875,-0.955902099609375,-0.1537933349609375
1727009944126835700,3.155835693359375,-0.9385223388671875,-0.9316558837890625,-0.108001708984375
1727009944136874000,3.1658740234375,-0.811126708984375,-0.8161163330078125,-0.0675048828125
1727009944146911700,3.175911865234375,-0.285491943359375,-0.6638336181640625,-0.0881195068359375
1727009944156950000,3.185949951171875,-0.4580841064453125,-0.6442108154296875,-0.117279052734375
1727009944166987000,3.195987060546875,-0.7142181396484375,-0.66949462890625,-0.11041259765625
1727009944177024800,3.206024658203125,-0.7588653564453125,-0.722259521484375,-0.080291748046875
1727009944187063000,3.21606298828125,-0.582183837890625,-0.767120361328125,-0.05133056640625
1727009944197100800,3.226100830078125,-0.3123016357421875,-0.803619384765625,-0.06964111328125
1727009944207139000,3.23613916015625,-0.5075836181640625,-0.9558563232421875,-0.1548004150390625
1727009944217176800,3.2461767578125,-0.637054443359375,-0.9730682373046875,-0.2315216064453125
1727009944227214800,3.25621484375,-0.594818115234375,-0.8847808837890625,-0.219573974609375
1727009944237252900,3.2662529296875,-0.5834503173828125,-0.835235595703125,-0.13916015625
1727009944247289900,3.276289794921875,-0.4253387451171875,-0.7851104736328125,-0.027435302734375
1727009944257328000,3.286328125,-0.58026123046875,-0.737091064453125,0.07958984375
1727009944267366000,3.296365966796875,-0.7508544921875,-0.7989959716796875,0.09912109375
1727009944277404000,3.30640380859375,-0.5594329833984375,-0.7785491943359375,0.0057830810546875
1727009944287442000,3.31644189453125,-0.6944427490234375,-0.8582611083984375,-0.1513824462890625
1727009944297480000,3.32647998046875,-0.60308837890625,-0.87152099609375,-0.2825775146484375
1727009944307518000,3.33651806640625,-0.750946044921875,-0.811492919921875,-0.31640625
1727009944317555000,3.346554931640625,-0.7143707275390625,-0.7393951416015625,-0.291473388671875
1727009944327593000,3.356593017578125,-0.4840545654296875,-0.7098846435546875,-0.278900146484375
1727009944337631000,3.366630859375,-0.4139862060546875,-0.7398834228515625,-0.2784576416015625
1727009944347669000,3.3766689453125,-0.55792236328125,-0.8681793212890625,-0.2306365966796875
1727009944357707000,3.38670703125,-0.6189422607421875,-0.9136962890625,-0.1316680908203125
1727009944367745000,3.3967451171875,-0.6846160888671875,-0.9602203369140625,-0.03515625
1727009944377782800,3.40678271484375,-0.4224700927734375,-1.0422821044921875,-0.0115203857421875
1727009944387820000,3.416820068359375,-0.396026611328125,-0.999053955078125,-0.050048828125
1727009944397857800,3.42685791015625,-0.4722442626953125,-1.0407562255859375,-0.118682861328125
1727009944407896000,3.43689599609375,-0.456207275390625,-0.9970703125,-0.1688995361328125
1727009944417933800,3.446933837890625,-0.5142364501953125,-0.9423675537109375,-0.2077484130859375
1727009944427971800,3.456971923828125,-0.6196746826171875,-0.8975677490234375,-0.234130859375
1727009944438009900,3.467009765625,-0.5719757080078125,-0.8906707763671875,-0.2197723388671875
1727009944448047900,3.4770478515625,-0.5802764892578125,-0.8345489501953125,-0.1586151123046875
1727009944458084900,3.4870849609375,-0.2460174560546875,-0.81732177734375,-0.141571044921875
1727009944468123000,3.497122802734375,-0.181488037109375,-0.7631988525390625,-0.195648193359375
1727009944478161000,3.507160888671875,-0.6320343017578125,-0.872314453125,-0.275146484375
1727009944488199000,3.517198974609375,-1.026458740234375,-0.90185546875,-0.2606048583984375
1727009944498237000,3.52723681640625,-1.0101470947265625,-0.8033599853515625,-0.1848602294921875
1727009944508275000,3.53727490234375,-0.5281829833984375,-0.7624664306640625,-0.1654510498046875
1727009944518313000,3.54731298828125,-0.2567138671875,-0.7295379638671875,-0.2364349365234375
1727009944528350000,3.557349853515625,-0.407318115234375,-0.8156890869140625,-0.3144683837890625
1727009944538388000,3.567387939453125,-0.70904541015625,-0.91802978515625,-0.2722320556640625
1727009944548426000,3.577426025390625,-0.9322509765625,-0.76922607421875,-0.10467529296875
1727009944558463700,3.587463623046875,-0.849029541015625,-0.7498779296875,0.0394744873046875
1727009944568502000,3.597501953125,-0.51068115234375,-0.5694122314453125,0.06451416015625
1727009944578539800,3.607539794921875,-0.402008056640625,-0.5961151123046875,-0.0166168212890625
1727009944588573400,3.617573486328125,-0.671051025390625,-0.771209716796875,-0.1171875
1727009944598610400,3.6276103515625,-0.6340789794921875,-0.7910919189453125,-0.177978515625
1727009944608648400,3.6376484375,-0.604705810546875,-0.8619384765625,-0.1836395263671875
1727009944618686500,3.6476865234375,-0.426727294921875,-0.89013671875,-0.123870849609375
1727009944628724200,3.65772412109375,-0.590545654296875,-0.8016357421875,-0.0233154296875
1727009944638762500,3.667762451171875,-0.6145782470703125,-0.7375335693359375,0.008758544921875
1727009944648800300,3.67780029296875,-0.3509521484375,-0.6237945556640625,-0.0727386474609375
1727009944658838500,3.687838623046875,-0.5493011474609375,-0.676513671875,-0.1952667236328125
1727009944668875500,3.69787548828125,-1.0574798583984375,-0.831451416015625,-0.241912841796875
1727009944678913300,3.707913330078125,-0.9304962158203125,-0.8356781005859375,-0.1996307373046875
1727009944688951600,3.71795166015625,-0.547393798828125,-0.8412017822265625,-0.1231231689453125
1727009944698989300,3.7279892578125,-0.00994873046875,-0.863555908203125,-0.1331024169921875
1727009944709027600,3.738027587890625,-0.3529510498046875,-0.869140625,-0.213592529296875
1727009944719065300,3.7480654296875,-0.7575225830078125,-0.9661865234375,-0.2622222900390625
1727009944729103400,3.758103271484375,-0.77313232421875,-0.8007965087890625,-0.1971435546875
1727009944739140600,3.768140625,-0.51654052734375,-0.7614593505859375,-0.0947418212890625
1727009944749178400,3.778178466796875,-0.343780517578125,-0.720184326171875,-0.0711212158203125
1727009944759216400,3.78821630859375,-0.51690673828125,-0.7677001953125,-0.1246337890625
1727009944769254400,3.79825439453125,-0.6809234619140625,-0.933502197265625,-0.182342529296875
1727009944779292400,3.80829248046875,-0.4154815673828125,-1.0048828125,-0.1690673828125
1727009944789330400,3.818330322265625,-0.5024566650390625,-0.919281005859375,-0.070159912109375
1727009944799368400,3.828368408203125,-0.540252685546875,-0.95758056640625,0.0023651123046875
1727009944809405400,3.838405517578125,-0.87420654296875,-0.861572265625,-0.00347900390625
1727009944819443500,3.848443359375,-0.74420166015625,-0.8224945068359375,-0.097015380859375
1727009944829481500,3.8584814453125,-0.4163970947265625,-0.757171630859375,-0.218414306640625
1727009944839519500,3.86851953125,-0.2517547607421875,-0.716156005859375,-0.312957763671875
1727009944849557500,3.8785576171875,-0.1711273193359375,-0.8513336181640625,-0.297698974609375
1727009944859595500,3.888595458984375,-0.6917877197265625,-0.869384765625,-0.1165618896484375
1727009944869633500,3.898633544921875,-0.9878997802734375,-0.8514404296875,0.1060943603515625
1727009944879670300,3.908670166015625,-0.37359619140625,-0.945953369140625,0.191619873046875
1727009944889708500,3.91870849609375,-0.4409942626953125,-0.9229278564453125,0.0887603759765625
1727009944899746300,3.928746337890625,-0.4777679443359375,-0.93731689453125,-0.127655029296875
1727009944909784300,3.938784423828125,-0.5711822509765625,-0.914764404296875,-0.273162841796875
1727009944919822300,3.948822265625,-0.1854248046875,-0.833709716796875,-0.266876220703125
1727009944929860400,3.9588603515625,-0.40936279296875,-0.722442626953125,-0.122650146484375
1727009944939898400,3.9688984375,-0.82330322265625,-0.81201171875,0.0296173095703125
1727009944949935400,3.978935302734375,-1.203338623046875,-0.7765655517578125,0.108123779296875
1727009944959973400,3.988973388671875,-0.4976654052734375,-0.8715362548828125,0.0509796142578125
1727009944970011400,3.999011474609375,0.1351318359375,-0.8567047119140625,-0.071258544921875
1727009944980049400,4.00904931640625,-0.5059967041015625,-0.980010986328125,-0.1424407958984375
1727009944990087400,4.01908740234375,-0.66455078125,-1.012237548828125,-0.1329345703125
1727009945000125400,4.02912548828125,-0.6316070556640625,-0.927459716796875,-0.06640625
1727009945010163200,4.0391630859375,-0.329010009765625,-0.793243408203125,-0.0146636962890625
1727009945020201500,4.049201416015625,-0.4320831298828125,-0.760162353515625,-0.033294677734375
1727009945030238500,4.059238525390625,-0.76361083984375,-0.800567626953125,-0.1358795166015625
1727009945040276500,4.0692763671875,-0.701507568359375,-0.832427978515625,-0.289031982421875
1727009945050314500,4.079314453125,-0.548187255859375,-0.77410888671875,-0.391510009765625
1727009945060352300,4.089352294921875,-0.250091552734375,-0.839019775390625,-0.381591796875
1727009945070390500,4.099390625,-0.4628448486328125,-0.8084716796875,-0.2441253662109375
1727009945080428300,4.10942822265625,-0.8053741455078125,-0.796173095703125,-0.07513427734375
1727009945090465300,4.11946533203125,-0.894622802734375,-0.7350921630859375,0.0027313232421875
1727009945100503600,4.129503662109375,-0.658660888671875,-0.769378662109375,-0.0479888916015625
1727009945110541300,4.139541259765625,-0.4947052001953125,-0.7424774169921875,-0.1394805908203125
1727009945120579600,4.14957958984375,-0.5638427734375,-0.8206787109375,-0.17333984375
1727009945130617300,4.159617431640625,-1.1974639892578125,-0.871490478515625,-0.114959716796875
1727009945140655600,4.169655517578125,-0.4022369384765625,-0.7269744873046875,-0.064605712890625
1727009945150693400,4.179693359375,0.1414642333984375,-0.64892578125,-0.034942626953125
1727009945160730400,4.18973046875,-1.1333770751953125,-0.8251495361328125,0.005523681640625
1727009945170768400,4.199768310546875,-0.4268951416015625,-0.6975555419921875,-0.047698974609375
1727009945180806400,4.209806396484375,-0.8143157958984375,-0.757537841796875,-0.1609954833984375
1727009945190844400,4.219844482421875,-0.983154296875,-0.78692626953125,-0.24462890625
1727009945200882400,4.22988232421875,-0.32513427734375,-0.696624755859375,-0.29022216796875
1727009945210920400,4.23992041015625,-0.415069580078125,-0.7901153564453125,-0.216461181640625
1727009945220958500,4.24995849609375,-0.4722137451171875,-0.8372344970703125,-0.0518646240234375
1727009945230995500,4.259995361328125,-0.4467926025390625,-0.669036865234375,0.1081390380859375
1727009945241033200,4.270033203125,-0.668243408203125,-0.8040313720703125,0.132049560546875
1727009945251071500,4.280071533203125,-0.6033935546875,-0.7647247314453125,0.03076171875
1727009945261109200,4.290109130859375,-1.0653228759765625,-0.7991180419921875,-0.1013031005859375
1727009945271147500,4.3001474609375,-0.535858154296875,-0.858795166015625,-0.1997833251953125
1727009945281185300,4.310185302734375,-0.31292724609375,-0.724151611328125,-0.1884765625
1727009945291223600,4.3202236328125,-0.4696044921875,-0.8218536376953125,-0.048614501953125
1727009945301260500,4.330260498046875,-0.5238800048828125,-0.827362060546875,0.1091156005859375
1727009945311298300,4.34029833984375,-1.4867095947265625,-0.8680572509765625,0.197509765625
1727009945321336600,4.350336669921875,-0.80120849609375,-0.755523681640625,0.146240234375
1727009945331374300,4.360374267578125,0.593902587890625,-0.4991302490234375,-0.0555267333984375
1727009945341412400,4.370412353515625,-0.30633544921875,-0.7766571044921875,-0.3309326171875
1727009945351450400,4.380450439453125,-0.4510650634765625,-0.9190216064453125,-0.55194091796875
1727009945361488400,4.39048828125,-0.62725830078125,-1.033294677734375,-0.5484466552734375
1727009945371525600,4.400525634765625,-1.6107330322265625,-1.1132659912109375,-0.18634033203125
1727009945381563400,4.4105634765625,-0.74346923828125,-0.806243896484375,0.154693603515625
1727009945391601400,4.420601318359375,-0.1691741943359375,-0.8670196533203125,0.310333251953125
1727009945401639400,4.430639404296875,-0.0794525146484375,-0.632659912109375,0.3087310791015625
1727009945411677400,4.440677490234375,-0.5479736328125,-0.506317138671875,0.087310791015625
1727009945421715500,4.450715576171875,-0.8729400634765625,-0.745361328125,-0.3123931884765625
1727009945431753500,4.46075341796875,-0.7012176513671875,-0.930877685546875,-0.6317138671875
1727009945441790500,4.47079052734375,-0.439971923828125,-1.0031890869140625,-0.6777496337890625
1727009945451828500,4.480828369140625,-0.4167633056640625,-1.0154266357421875,-0.3569793701171875
1727009945461866500,4.490866455078125,-0.393341064453125,-0.932708740234375,0.16015625
1727009945471904500,4.500904541015625,-0.57781982421875,-0.82720947265625,0.4794769287109375
1727009945481942500,4.510942626953125,-0.786346435546875,-0.795135498046875,0.3719635009765625
1727009945491980300,4.520980224609375,-0.8608856201171875,-0.850372314453125,-0.0220947265625
1727009945502018600,4.5310185546875,-0.58551025390625,-0.787841796875,-0.415985107421875
1727009945512055300,4.54105517578125,-0.5370941162109375,-0.805694580078125,-0.576171875
1727009945522093600,4.551093505859375,-0.350616455078125,-0.9182586669921875,-0.4422607421875
1727009945532131300,4.56113134765625,-0.4768524169921875,-0.81060791015625,-0.160888671875
1727009945542169300,4.57116943359375,-0.770904541015625,-0.940673828125,0.07318115234375
1727009945552207400,4.581207275390625,-0.707550048828125,-0.9125823974609375,0.14154052734375
1727009945562245400,4.591245361328125,-0.626678466796875,-0.8324127197265625,0.060394287109375
1727009945572282400,4.601282470703125,-0.630767822265625,-0.7587890625,-0.087646484375
1727009945582321000,4.61132080078125,-0.4674072265625,-0.6938629150390625,-0.2130126953125
1727009945592359000,4.62135888671875,-0.5084991455078125,-0.7116851806640625,-0.2471771240234375
1727009945602396700,4.631396728515625,-0.426605224609375,-0.747344970703125,-0.169158935546875
1727009945612435000,4.64143505859375,-0.60247802734375,-0.863555908203125,-0.0172271728515625
1727009945622472700,4.65147265625,-0.6848907470703125,-0.91204833984375,0.11236572265625
1727009945632511000,4.661510986328125,-0.631072998046875,-0.923126220703125,0.1585845947265625
1727009945642548000,4.6715478515625,-0.76422119140625,-0.9134979248046875,0.118316650390625
1727009945652585700,4.681585693359375,-0.6405792236328125,-0.8108978271484375,0.011688232421875
1727009945662624000,4.6916240234375,-0.4329681396484375,-0.6985321044921875,-0.1172943115234375
1727009945672661800,4.701661865234375,-0.29229736328125,-0.7923583984375,-0.22784423828125
1727009945682700000,4.711699951171875,-0.1983642578125,-0.8850860595703125,-0.248321533203125
1727009945692737800,4.72173779296875,-1.5994873046875,-0.7837982177734375,-0.0753173828125
1727009945702776000,4.731776123046875,-0.8975982666015625,-0.928863525390625,0.043304443359375
1727009945712812800,4.741812744140625,0.0430145263671875,-0.7275543212890625,0.0040740966796875
1727009945722850800,4.751850830078125,-0.010223388671875,-0.8830108642578125,-0.24896240234375
1727009945732888800,4.761888916015625,-0.75250244140625,-0.704345703125,-0.4495697021484375
1727009945742926800,4.7719267578125,-0.5644073486328125,-1.0449676513671875,-0.5076751708984375
1727009945752964600,4.781964599609375,-0.2684173583984375,-0.98468017578125,-0.3729705810546875
1727009945763003000,4.7920029296875,-0.60467529296875,-0.8030548095703125,-0.0936126708984375
1727009945773041000,4.802041015625,-0.2267608642578125,-1.0851287841796875,0.1508331298828125
1727009945783078000,4.812077880859375,-0.809478759765625,-0.8326568603515625,0.259796142578125
1727009945793116000,4.822115966796875,-0.5396881103515625,-1.0882415771484375,0.0941009521484375
1727009945803153700,4.832153564453125,-0.6020660400390625,-0.7834320068359375,-0.1642608642578125
1727009945813192000,4.84219189453125,-0.429901123046875,-0.9206695556640625,-0.3778533935546875
1727009945823229700,4.852229736328125,-0.5484771728515625,-0.7589874267578125,-0.396209716796875
1727009945833268000,4.86226806640625,-0.6448516845703125,-0.7482452392578125,-0.29156494140625
1727009945843305700,4.8723056640625,-0.218353271484375,-0.82110595703125,-0.17633056640625
1727009945853342700,4.8823427734375,-0.656951904296875,-0.7459259033203125,-0.0540008544921875
1727009945863381000,4.892381103515625,-0.3457489013671875,-1.0343170166015625,0.0027313232421875
1727009945873418800,4.902418701171875,-0.5604705810546875,-1.032928466796875,0.0279693603515625
1727009945883457000,4.91245703125,-0.784576416015625,-0.995513916015625,0.0080413818359375
1727009945893494800,4.922494873046875,-0.2209930419921875,-1.002471923828125,-0.0519866943359375
1727009945903532800,4.93253271484375,-0.3611907958984375,-0.864044189453125,-0.0764617919921875
1727009945913570000,4.942570068359375,-0.5384521484375,-0.8146820068359375,-0.0461273193359375
1727009945923607800,4.95260791015625,-0.4913330078125,-0.8812408447265625,-0.009735107421875
1727009945933645800,4.962645751953125,-0.7327423095703125,-0.724884033203125,0.0334014892578125
1727009945943683800,4.972683837890625,-0.85870361328125,-0.82720947265625,0.011505126953125
1727009945953721900,4.982721923828125,-0.4271392822265625,-0.83172607421875,-0.1072235107421875
1727009945963759900,4.992759765625,-0.41180419921875,-0.7080841064453125,-0.2841644287109375
1727009945973798000,5.0027978515625,-0.3140106201171875,-0.7217559814453125,-0.4351806640625
1727009945983834600,5.012834716796875,-0.4370269775390625,-0.765899658203125,-0.4239654541015625
1727009945993873000,5.022872802734375,-0.8897247314453125,-0.80438232421875,-0.2137451171875
1727009946003910700,5.03291064453125,-0.7806549072265625,-0.810272216796875,0.0441741943359375
1727009946013949000,5.042948974609375,-0.893798828125,-0.7723388671875,0.2310791015625
1727009946023987000,5.052987060546875,-0.50665283203125,-0.759124755859375,0.227783203125
1727009946034025000,5.06302490234375,-0.3756256103515625,-0.7640533447265625,0.063629150390625
1727009946044063000,5.07306298828125,-0.6056976318359375,-0.78253173828125,-0.1374969482421875
1727009946054099700,5.083099609375,-0.6707763671875,-0.7983551025390625,-0.268310546875
1727009946064138000,5.093137939453125,-0.7639007568359375,-0.747802734375,-0.30267333984375
1727009946074175700,5.10317578125,-0.7418975830078125,-0.7315673828125,-0.269683837890625
1727009946084213800,5.1132138671875,-0.409576416015625,-0.725860595703125,-0.1895294189453125
1727009946094251800,5.123251708984375,-0.53070068359375,-0.7299652099609375,-0.072265625
1727009946104289800,5.133289794921875,-0.763275146484375,-0.74298095703125,0.0337066650390625
1727009946114327000,5.1433271484375,-0.73663330078125,-0.76239013671875,0.0572509765625
1727009946124364800,5.15336474609375,-0.54864501953125,-0.7026214599609375,-0.0076141357421875
1727009946134402800,5.16340283203125,-0.3997039794921875,-0.751251220703125,-0.1215667724609375
1727009946144440800,5.17344091796875,-0.464202880859375,-0.8236236572265625,-0.1670074462890625
1727009946154478800,5.183478759765625,-0.8360443115234375,-0.80914306640625,-0.08782958984375
1727009946164516900,5.193516845703125,-0.7884674072265625,-0.83038330078125,0.017608642578125
1727009946174555000,5.203554931640625,-0.5936737060546875,-0.78582763671875,0.0627288818359375
1727009946184592000,5.213591796875,-0.5845947265625,-0.7877349853515625,0.0336151123046875
1727009946194630000,5.2236298828125,-0.3938751220703125,-0.7887725830078125,-0.0211029052734375
1727009946204668000,5.23366796875,-0.4297637939453125,-0.7482452392578125,-0.0294342041015625
1727009946214706000,5.243705810546875,-0.5166473388671875,-0.802703857421875,-0.022613525390625
1727009946224744000,5.253743896484375,-0.73773193359375,-0.8114471435546875,-0.0409698486328125
1727009946234781700,5.26378173828125,-0.928375244140625,-0.905975341796875,-0.089111328125
1727009946244820000,5.273820068359375,-0.4421234130859375,-0.8408660888671875,-0.1182403564453125
1727009946254856700,5.283856689453125,-0.2320404052734375,-0.8124847412109375,-0.0906219482421875
1727009946264894700,5.293894775390625,-0.3028564453125,-0.7263946533203125,-0.029510498046875
1727009946274932700,5.3039326171875,-0.7012786865234375,-0.7722930908203125,-0.02508544921875
1727009946284970800,5.313970703125,-0.8961334228515625,-0.8080291748046875,-0.09967041015625
1727009946295009000,5.324009033203125,-0.7078704833984375,-0.791107177734375,-0.1849517822265625
1727009946305046800,5.334046875,-0.4642486572265625,-0.8193206787109375,-0.208526611328125
1727009946315083800,5.344083740234375,-0.2512969970703125,-0.8184356689453125,-0.141754150390625
1727009946325121800,5.354121826171875,-0.532501220703125,-0.864288330078125,-0.0433349609375
1727009946335159800,5.364159912109375,-0.91546630859375,-0.8640289306640625,0.001251220703125
1727009946345197800,5.37419775390625,-0.80908203125,-0.8524169921875,-0.0629425048828125
1727009946355235800,5.38423583984375,-0.4582977294921875,-0.8095550537109375,-0.1729736328125
1727009946365273900,5.39427392578125,-0.4555816650390625,-0.708648681640625,-0.223541259765625
1727009946375312000,5.404311767578125,-0.4528656005859375,-0.771270751953125,-0.2037200927734375
1727009946385348900,5.414348876953125,-0.461151123046875,-0.7768096923828125,-0.152374267578125
1727009946395387000,5.424386962890625,-0.808868408203125,-0.88067626953125,-0.093353271484375
1727009946405425000,5.4344248046875,-0.73590087890625,-0.9608917236328125,-0.0589447021484375
1727009946415462700,5.444462646484375,-0.7433624267578125,-0.9000244140625,-0.035430908203125
1727009946425501000,5.4545009765625,-0.595428466796875,-0.8762664794921875,-0.016693115234375
1727009946435538700,5.46453857421875,-0.2983551025390625,-0.7479248046875,-0.0388641357421875
1727009946445576000,5.474575927734375,-0.4359588623046875,-0.7761383056640625,-0.103790283203125
1727009946455614000,5.484614013671875,-0.6335296630859375,-0.771392822265625,-0.1764068603515625
1727009946465651700,5.494651611328125,-0.8911590576171875,-0.87945556640625,-0.2052154541015625
1727009946475690000,5.50468994140625,-0.5784454345703125,-0.8234405517578125,-0.1919097900390625
1727009946485727700,5.514727783203125,-0.5748138427734375,-0.9139556884765625,-0.15240478515625
1727009946495766000,5.52476611328125,-0.3203582763671875,-0.7733612060546875,-0.130096435546875
1727009946505803800,5.5348037109375,-0.523193359375,-0.8679046630859375,-0.1248779296875
1727009946515840800,5.5448408203125,-0.485076904296875,-0.828765869140625,-0.1228790283203125
1727009946525878800,5.554878662109375,-0.7734527587890625,-0.8927764892578125,-0.103240966796875
1727009946535916800,5.564916748046875,-0.735076904296875,-0.8641815185546875,-0.0666351318359375
1727009946545954800,5.574954833984375,-0.524810791015625,-0.88287353515625,-0.0500640869140625
1727009946555992800,5.584992919921875,-0.4713134765625,-0.8417816162109375,-0.0472564697265625
1727009946566030800,5.59503076171875,-0.4968414306640625,-0.8413543701171875,-0.0645904541015625
1727009946576067800,5.60506787109375,-0.603912353515625,-0.8816375732421875,-0.1062469482421875
1727009946586106600,5.615106689453125,-0.6743621826171875,-0.79486083984375,-0.1496734619140625
1727009946596144400,5.625144287109375,-0.6583709716796875,-0.81365966796875,-0.1623077392578125
1727009946606182400,5.635182373046875,-0.3934326171875,-0.7556915283203125,-0.1339874267578125
1727009946616220400,5.645220458984375,-0.457000732421875,-0.7690277099609375,-0.0901336669921875
1727009946626258400,5.655258544921875,-0.40765380859375,-0.7880859375,-0.0831756591796875
1727009946636295400,5.66529541015625,-0.4267730712890625,-0.85443115234375,-0.1237030029296875
1727009946646333400,5.67533349609375,-0.618988037109375,-0.95074462890625,-0.16058349609375
1727009946656371500,5.685371337890625,-0.746002197265625,-0.9559478759765625,-0.1572418212890625
1727009946666409500,5.695409423828125,-0.4785614013671875,-0.9539642333984375,-0.147491455078125
1727009946676447500,5.705447509765625,-0.23248291015625,-0.8050994873046875,-0.1372222900390625
1727009946686485500,5.715485595703125,-0.5325927734375,-0.8532867431640625,-0.1202239990234375
1727009946696523500,5.7255234375,-0.968170166015625,-0.86785888671875,-0.091033935546875
1727009946706560300,5.735560302734375,-1.1880340576171875,-0.8021392822265625,-0.0468902587890625
1727009946716598500,5.7455986328125,-0.4357757568359375,-0.8265228271484375,-0.035675048828125
1727009946726636300,5.75563623046875,-0.066192626953125,-0.663818359375,-0.0771942138671875
1727009946736674300,5.76567431640625,-0.0436553955078125,-0.84063720703125,-0.1752471923828125
1727009946746712300,5.77571240234375,-0.5534820556640625,-0.88922119140625,-0.218231201171875
1727009946756750300,5.785750244140625,-0.7549591064453125,-0.989166259765625,-0.1763916015625
1727009946766787600,5.79578759765625,-0.779327392578125,-0.9576873779296875,-0.0951995849609375
1727009946776825300,5.805825439453125,-0.808502197265625,-0.823516845703125,-0.0415496826171875
1727009946786863400,5.81586328125,-0.4717864990234375,-0.82391357421875,-0.0665283203125
1727009946796901400,5.8259013671875,-0.44659423828125,-0.6725616455078125,-0.084686279296875
1727009946806939400,5.835939453125,-0.280059814453125,-0.7412567138671875,-0.0693511962890625
1727009946816977400,5.845977294921875,-0.413299560546875,-0.7984466552734375,-0.0186004638671875
1727009946827015400,5.856015380859375,-0.536102294921875,-0.939361572265625,0.020660400390625
1727009946837052400,5.866052490234375,-0.4943389892578125,-1.0691680908203125,0.05877685546875
1727009946847090400,5.87609033203125,-0.61761474609375,-1.0333099365234375,0.1363983154296875
1727009946857128400,5.88612841796875,-0.5648345947265625,-0.992034912109375,0.19573974609375
1727009946867166500,5.89616650390625,-0.543731689453125,-0.8219451904296875,0.176513671875
1727009946877204500,5.90620458984375,-0.57421875,-0.6962432861328125,0.0711517333984375
1727009946887242200,5.9162421875,-0.5140838623046875,-0.7316741943359375,-0.0694580078125
1727009946897279500,5.926279541015625,-0.50244140625,-0.6981048583984375,-0.1634674072265625
1727009946907317500,5.9363173828125,-0.70306396484375,-0.7614288330078125,-0.1932373046875
1727009946917355500,5.94635546875,-0.67266845703125,-0.8561859130859375,-0.187530517578125
1727009946927393500,5.9563935546875,-0.8013763427734375,-0.852935791015625,-0.168212890625
1727009946937431300,5.966431396484375,-0.90167236328125,-0.805206298828125,-0.14453125
1727009946947469600,5.976469482421875,-0.5604705810546875,-0.698272705078125,-0.127288818359375
1727009946957507300,5.98650732421875,-0.3922882080078125,-0.6501007080078125,-0.1005706787109375
1727009946967544300,5.99654443359375,-0.5178375244140625,-0.641082763671875,-0.0658111572265625
1727009946977582300,6.006582275390625,-0.48162841796875,-0.780242919921875,-0.054656982421875
1727009946987620400,6.016620361328125,-0.7382659912109375,-0.8167572021484375,-0.0232696533203125
1727009946997658400,6.026658447265625,-0.856353759765625,-0.9676513671875,0.007659912109375
1727009947007696400,6.0366962890625,-0.6256256103515625,-0.893402099609375,0.02008056640625
1727009947017734400,6.046734375,-0.424072265625,-0.8501434326171875,-0.0191650390625
1727009947027771400,6.056771484375,-0.54193115234375,-0.76275634765625,-0.0736236572265625
1727009947037809400,6.066809326171875,-0.465576171875,-0.736907958984375,-0.1563873291015625
1727009947047847400,6.076847412109375,-0.5134429931640625,-0.794158935546875,-0.230072021484375
1727009947057885400,6.086885498046875,-0.7340850830078125,-0.8096160888671875,-0.2455596923828125
1727009947067923200,6.096923095703125,-0.6227264404296875,-0.8349761962890625,-0.207366943359375
1727009947077961500,6.10696142578125,-0.5745086669921875,-0.76885986328125,-0.1201171875
1727009947087998500,6.11699853515625,-0.620147705078125,-0.85711669921875,-0.0383453369140625
1727009947098036500,6.127036376953125,-0.67401123046875,-0.72833251953125,-0.002288818359375
1727009947108074500,6.137074462890625,-0.622711181640625,-0.792236328125,-0.0606231689453125
1727009947118112300,6.1471123046875,-0.389373779296875,-0.775299072265625,-0.165374755859375
1727009947128150500,6.157150634765625,-0.492034912109375,-0.8712005615234375,-0.2575836181640625
1727009947138188300,6.167188232421875,-0.4696502685546875,-0.883575439453125,-0.29541015625
1727009947148226600,6.1772265625,-0.546905517578125,-0.9215850830078125,-0.278045654296875
1727009947158263600,6.187263671875,-0.6744232177734375,-0.850738525390625,-0.2242584228515625
1727009947168301300,6.19730126953125,-0.59454345703125,-0.768157958984375,-0.1690521240234375
1727009947178339600,6.207339599609375,-0.5823822021484375,-0.7429046630859375,-0.139923095703125
1727009947188377300,6.21737744140625,-0.4637603759765625,-0.717529296875,-0.1604766845703125
1727009947198415600,6.22741552734375,-0.5160064697265625,-0.7980194091796875,-0.214141845703125
1727009947208453400,6.237453369140625,-0.537109375,-0.8478851318359375,-0.24053955078125
1727009947218490400,6.247490478515625,-0.6287994384765625,-0.9963836669921875,-0.2026824951171875
1727009947228528400,6.2575283203125,-0.7681121826171875,-0.927947998046875,-0.1171112060546875
1727009947238566400,6.26756640625,-0.55224609375,-0.889495849609375,-0.0700531005859375
1727009947248604400,6.2776044921875,-0.4485321044921875,-0.8471832275390625,-0.0831451416015625
1727009947258642400,6.287642333984375,-0.6014556884765625,-0.752288818359375,-0.1074066162109375
1727009947268680400,6.297680419921875,-0.6453399658203125,-0.8377532958984375,-0.1342010498046875
1727009947278717400,6.307717529296875,-0.52325439453125,-0.763824462890625,-0.154144287109375
1727009947288755500,6.31775537109375,-0.540740966796875,-0.8636322021484375,-0.1741790771484375
1727009947298793200,6.327793212890625,-0.4723663330078125,-0.816650390625,-0.1764984130859375
1727009947308831500,6.33783154296875,-0.608154296875,-0.92608642578125,-0.146453857421875
1727009947318869200,6.347869140625,-0.58917236328125,-0.8023834228515625,-0.119384765625
1727009947328907500,6.357907470703125,-0.6634521484375,-0.824005126953125,-0.121917724609375
1727009947338945300,6.3679453125,-0.692291259765625,-0.7742156982421875,-0.1402130126953125
1727009947348982300,6.377982177734375,-0.4702606201171875,-0.7075958251953125,-0.1472625732421875
1727009947359020500,6.3880205078125,-0.6183319091796875,-0.756011962890625,-0.1139068603515625
1727009947369058300,6.398058349609375,-0.6535797119140625,-0.6534881591796875,-0.0585784912109375
1727009947379096600,6.4080966796875,-0.7286224365234375,-0.79339599609375,-0.041778564453125
1727009947389134300,6.41813427734375,-0.603912353515625,-0.7731170654296875,-0.052978515625
1727009947399172400,6.42817236328125,-0.6717529296875,-0.8955841064453125,-0.0682525634765625
1727009947409209600,6.438209716796875,-0.583251953125,-0.8780517578125,-0.0694122314453125
1727009947419247400,6.448247314453125,-0.5752105712890625,-0.8520660400390625,-0.0730438232421875
1727009947429285600,6.45828564453125,-0.4583282470703125,-0.8776702880859375,-0.0988616943359375
1727009947439323400,6.468323486328125,-0.6675872802734375,-0.7647857666015625,-0.103912353515625
1727009947449361400,6.478361328125,-0.7394256591796875,-0.76922607421875,-0.078155517578125
1727009947459399400,6.4883994140625,-0.5097503662109375,-0.6484375,-0.041046142578125
1727009947469436400,6.4984365234375,-0.54339599609375,-0.688446044921875,-0.036590576171875
1727009947479474400,6.508474365234375,-0.504364013671875,-0.7717132568359375,-0.0904083251953125
1727009947489512400,6.518512451171875,-0.5282745361328125,-0.8701324462890625,-0.1563873291015625
1727009947499550500,6.528550537109375,-0.560089111328125,-0.92364501953125,-0.175537109375
1727009947509588500,6.53858837890625,-0.6013641357421875,-0.90985107421875,-0.1489715576171875
1727009947519626500,6.54862646484375,-0.5559539794921875,-0.8576202392578125,-0.119293212890625
1727009947529663200,6.558663330078125,-0.5760498046875,-0.740264892578125,-0.1205291748046875
1727009947539701500,6.568701416015625,-0.537841796875,-0.7679901123046875,-0.137939453125
1727009947549739300,6.5787392578125,-0.3970489501953125,-0.767425537109375,-0.14837646484375
1727009947559777500,6.588777587890625,-0.489501953125,-0.7944183349609375,-0.1282806396484375
1727009947569815300,6.598815185546875,-0.33819580078125,-0.9285736083984375,-0.1060638427734375
1727009947579853600,6.608853515625,-0.6137542724609375,-0.8671722412109375,-0.066558837890625
1727009947589890300,6.618890380859375,-0.7239227294921875,-0.974029541015625,-0.0260772705078125
1727009947599927300,6.62892724609375,-0.7790069580078125,-0.834991455078125,0.0068511962890625
1727009947609965300,6.63896533203125,-0.7158966064453125,-0.8256378173828125,0.0080718994140625
1727009947620003300,6.64900341796875,-0.45330810546875,-0.7336883544921875,-0.0177764892578125
1727009947630041300,6.659041259765625,-0.332794189453125,-0.7739715576171875,-0.0615081787109375
1727009947640079400,6.669079345703125,-0.28204345703125,-0.881072998046875,-0.08349609375
1727009947650117400,6.679117431640625,-0.4586029052734375,-0.9196319580078125,-0.0420989990234375
1727009947660154400,6.689154296875,-0.6507568359375,-0.9485015869140625,0.0515289306640625
1727009947670192000,6.699192138671875,-0.84942626953125,-0.8948974609375,0.127227783203125
1727009947680230400,6.70923046875,-0.68609619140625,-0.8405609130859375,0.1177978515625
1727009947690268200,6.71926806640625,-0.488433837890625,-0.67974853515625,0.034149169921875
1727009947700306400,6.729306396484375,-0.477447509765625,-0.730010986328125,-0.0794219970703125
1727009947710344200,6.73934423828125,-0.701019287109375,-0.745513916015625,-0.1531524658203125
1727009947720381200,6.749381103515625,-0.5729217529296875,-0.859161376953125,-0.168792724609375
1727009947730419500,6.75941943359375,-0.4116668701171875,-0.9415740966796875,-0.0834808349609375
1727009947740457200,6.769457275390625,-0.523223876953125,-0.9566192626953125,0.081207275390625
1727009947750495200,6.7794951171875,-0.56854248046875,-0.9591522216796875,0.2241668701171875
1727009947760533200,6.789533203125,-0.7515869140625,-0.9563140869140625,0.2512969970703125
1727009947770571300,6.7995712890625,-0.97747802734375,-0.817596435546875,0.1515045166015625
1727009947780608500,6.8096083984375,-0.647308349609375,-0.707916259765625,-0.04278564453125
1727009947790646300,6.819646240234375,-0.413726806640625,-0.643402099609375,-0.2242584228515625
1727009947800684300,6.829684326171875,-0.525970458984375,-0.6991424560546875,-0.3227691650390625
1727009947810722300,6.839722412109375,-0.54083251953125,-0.7219085693359375,-0.326263427734375
1727009947820760300,6.84976025390625,-0.5477447509765625,-0.86798095703125,-0.2543487548828125
1727009947830798300,6.85979833984375,-0.6614227294921875,-0.9613800048828125,-0.147491455078125
1727009947840836400,6.86983642578125,-0.722503662109375,-0.951385498046875,-0.0533447265625
1727009947850873300,6.879873291015625,-0.6141510009765625,-0.87506103515625,-0.001556396484375
1727009947860911400,6.889911376953125,-0.467864990234375,-0.737091064453125,-0.0139007568359375
1727009947870949400,6.899949462890625,-0.424713134765625,-0.6463623046875,-0.0990447998046875
1727009947880987400,6.9099873046875,-0.680084228515625,-0.656402587890625,-0.216033935546875
1727009947891025400,6.920025390625,-0.736328125,-0.7486114501953125,-0.2888336181640625
1727009947901063200,6.930063232421875,-0.64501953125,-0.7657623291015625,-0.242156982421875
1727009947911100400,6.940100341796875,-0.4846954345703125,-0.8292236328125,-0.1006622314453125
1727009947921138200,6.95013818359375,-0.451690673828125,-0.8371734619140625,0.019989013671875
1727009947931176200,6.96017626953125,-0.5812225341796875,-0.9027252197265625,0.0125274658203125
1727009947941214200,6.970214111328125,-0.7559814453125,-0.91650390625,-0.1094207763671875
1727009947951252200,6.980252197265625,-0.62158203125,-0.876678466796875,-0.259490966796875
1727009947961290200,6.990290283203125,-0.4946136474609375,-0.7913055419921875,-0.34051513671875
1727009947971327200,7.0003271484375,-0.3753814697265625,-0.7769622802734375,-0.3198089599609375
1727009947981365200,7.010365234375,-0.5740814208984375,-0.7219085693359375,-0.204864501953125
1727009947991403300,7.0204033203125,-0.7978363037109375,-0.7825164794921875,-0.0833892822265625
1727009948001441300,7.030441162109375,-0.7410430908203125,-0.7998199462890625,-0.0257110595703125
1727009948011479300,7.040479248046875,-0.4212799072265625,-0.754486083984375,-0.0624542236328125
1727009948021517300,7.050517333984375,0.1179962158203125,-0.791015625,-0.185699462890625
1727009948031554300,7.06055419921875,-0.4166717529296875,-0.8343048095703125,-0.283111572265625
1727009948041592300,7.07059228515625,-1.168914794921875,-0.9918365478515625,-0.32904052734375
1727009948051630300,7.08063037109375,-0.964080810546875,-0.940185546875,-0.35723876953125
1727009948061668400,7.09066845703125,-0.431396484375,-0.9560394287109375,-0.3395538330078125
1727009948071706400,7.100706298828125,-0.0418548583984375,-0.800506591796875,-0.250762939453125
1727009948081744100,7.110744140625,-0.268646240234375,-0.811737060546875,-0.1265106201171875
1727009948091781400,7.120781494140625,-0.7786865234375,-0.801422119140625,-0.05914306640625
1727009948101819400,7.1308193359375,-1.055206298828125,-0.8768157958984375,-0.1217041015625
1727009948111857400,7.140857421875,-0.7160186767578125,-0.8347320556640625,-0.287261962890625
1727009948121895400,7.1508955078125,-0.4279327392578125,-0.81243896484375,-0.394134521484375
1727009948131933200,7.16093310546875,-0.193817138671875,-0.8336029052734375,-0.3270263671875
1727009948141971500,7.170971435546875,-0.28173828125,-0.8021087646484375,-0.078399658203125
1727009948152008200,7.18100830078125,-0.795166015625,-0.818572998046875,0.1664276123046875
1727009948162046200,7.191046142578125,-0.9134674072265625,-0.805328369140625,0.2303314208984375
1727009948172084200,7.201084228515625,-0.7564697265625,-0.787200927734375,0.103851318359375
1727009948182122200,7.211122314453125,-0.6489410400390625,-0.7514495849609375,-0.085662841796875
1727009948192160300,7.22116015625,-0.5618438720703125,-0.794525146484375,-0.225494384765625
1727009948202198300,7.2311982421875,-0.54254150390625,-0.73016357421875,-0.2422637939453125
1727009948212236300,7.241236328125,-0.543853759765625,-0.80767822265625,-0.152557373046875
1727009948222273300,7.251273193359375,-0.6136016845703125,-0.7800445556640625,-0.0269927978515625
1727009948232311300,7.261311279296875,-0.73541259765625,-0.7883148193359375,0.07415771484375
1727009948242349300,7.271349365234375,-0.55517578125,-0.737274169921875,0.082733154296875
1727009948252387300,7.28138720703125,-0.681976318359375,-0.7768707275390625,0.0115509033203125
1727009948262425000,7.291425048828125,-1.0782012939453125,-0.86334228515625,-0.10986328125
1727009948272463400,7.30146337890625,-0.253997802734375,-0.7516632080078125,-0.20538330078125
1727009948282500400,7.311500244140625,-0.1517181396484375,-0.8262786865234375,-0.17138671875
1727009948292538400,7.321538330078125,-0.2686767578125,-0.7263336181640625,-0.000579833984375
1727009948302576400,7.331576416015625,-1.0510711669921875,-0.91754150390625,0.1055755615234375
1727009948312614100,7.3416142578125,-1.016510009765625,-0.8168487548828125,0.0654449462890625
1727009948322652400,7.35165234375,-0.5288543701171875,-0.703521728515625,-0.1046600341796875
1727009948332690200,7.361690185546875,-0.219390869140625,-0.7841339111328125,-0.294219970703125
1727009948342727200,7.37172705078125,-0.3699951171875,-0.746612548828125,-0.3249969482421875
1727009948352765400,7.381765380859375,-0.7972869873046875,-0.8178558349609375,-0.2147064208984375
1727009948362803200,7.39180322265625,-0.6168975830078125,-0.78912353515625,-0.0903778076171875
1727009948372841500,7.401841552734375,-0.3988494873046875,-0.840606689453125,-0.0290374755859375
1727009948382879200,7.411879150390625,-0.464263916015625,-0.917022705078125,-0.011871337890625
1727009948392917500,7.42191748046875,-0.6717376708984375,-0.98529052734375,-0.0305023193359375
1727009948402954200,7.431954345703125,-0.4530792236328125,-0.8656768798828125,-0.0742645263671875
1727009948412992300,7.4419921875,-0.5706787109375,-0.8977203369140625,-0.100799560546875
1727009948423030300,7.4520302734375,-0.849700927734375,-0.8690643310546875,-0.0963287353515625
1727009948433068300,7.462068359375,-0.4382781982421875,-0.764190673828125,-0.08489990234375
1727009948443106300,7.472106201171875,-0.3812255859375,-0.8684539794921875,-0.042724609375
1727009948453144300,7.482144287109375,-0.5438385009765625,-0.805877685546875,0.01019287109375
1727009948463181300,7.492181396484375,-0.547027587890625,-0.957122802734375,-0.0179443359375
1727009948473219300,7.50221923828125,-0.4427337646484375,-1.0283966064453125,-0.0471038818359375
1727009948483257300,7.51225732421875,-0.576171875,-0.9901580810546875,0.0001373291015625
1727009948493295000,7.522295166015625,-0.6014556884765625,-0.9278717041015625,0.066497802734375
1727009948503333400,7.53233349609375,-0.3037567138671875,-0.8985748291015625,0.070526123046875
1727009948513371100,7.54237109375,-0.1776580810546875,-0.8024444580078125,0.0252838134765625
1727009948523408400,7.552408447265625,-0.4131622314453125,-0.9104461669921875,-0.042022705078125
1727009948533446400,7.5624462890625,-1.0047607421875,-0.94940185546875,-0.0527496337890625
1727009948543484200,7.572484130859375,-0.945343017578125,-0.89599609375,-0.0280914306640625
1727009948553522400,7.5825224609375,-0.352264404296875,-0.8289642333984375,0.002166748046875
1727009948563560200,7.592560302734375,-0.1506500244140625,-0.7331695556640625,0.041168212890625
1727009948573598500,7.602598388671875,-0.586090087890625,-0.8123321533203125,0.048980712890625
1727009948583635500,7.612635498046875,-0.88726806640625,-0.8044281005859375,-0.0161895751953125
1727009948593677600,7.622677490234375,-0.668792724609375,-0.8755645751953125,-0.1326446533203125
1727009948603715300,7.63271533203125,-0.6306304931640625,-0.8458404541015625,-0.189605712890625
1727009948613753300,7.64275341796875,-0.635040283203125,-0.8788299560546875,-0.1387939453125
1727009948623791400,7.652791259765625,-0.4921112060546875,-0.73651123046875,-0.0030975341796875
1727009948633829400,7.662829345703125,-0.722747802734375,-0.6222076416015625,0.127777099609375
1727009948643866600,7.67286669921875,-0.7297210693359375,-0.640869140625,0.130401611328125
1727009948653904400,7.682904296875,-0.6926727294921875,-0.7194976806640625,0.016143798828125
1727009948663942400,7.6929423828125,-0.4202423095703125,-0.7269439697265625,-0.1373748779296875
1727009948673980400,7.70298046875,-0.325347900390625,-0.789947509765625,-0.272705078125
1727009948684018400,7.713018310546875,-0.6152801513671875,-0.8931121826171875,-0.308990478515625
1727009948694056400,7.723056396484375,-0.8541107177734375,-0.92254638671875,-0.281585693359375
1727009948704093400,7.733093505859375,-0.803314208984375,-0.8176116943359375,-0.2373504638671875
1727009948714131500,7.74313134765625,-0.48138427734375,-0.71551513671875,-0.18212890625
1727009948724169500,7.75316943359375,-0.2478790283203125,-0.6218719482421875,-0.1224212646484375
1727009948734207500,7.76320751953125,-0.4989776611328125,-0.671875,-0.0404815673828125
1727009948744245500,7.77324560546875,-0.86981201171875,-0.79248046875,0.0150299072265625
1727009948754283500,7.783283447265625,-0.5817108154296875,-0.9286651611328125,-0.007659912109375
1727009948764321300,7.7933212890625,-0.8080596923828125,-0.8970794677734375,-0.0950469970703125
1727009948774358500,7.803358642578125,-0.8706207275390625,-1.0026702880859375,-0.2224578857421875
1727009948784396300,7.813396240234375,-0.3331146240234375,-0.9088287353515625,-0.2961578369140625
1727009948794434300,7.823434326171875,-0.5067901611328125,-0.767913818359375,-0.230926513671875
1727009948804472300,7.833472412109375,-0.4448394775390625,-0.78240966796875,-0.1268157958984375
1727009948814510300,7.84351025390625,-0.510528564453125,-0.7261199951171875,-0.0865478515625
1727009948824548600,7.853548583984375,-0.4599761962890625,-0.8397979736328125,-0.1455078125
1727009948834585300,7.86358544921875,-0.689300537109375,-0.950531005859375,-0.2108001708984375
1727009948844623400,7.873623291015625,-0.6433868408203125,-1.032958984375,-0.200958251953125
1727009948854661400,7.883661376953125,-0.3958587646484375,-0.8922119140625,-0.1034698486328125
1727009948864699400,7.893699462890625,-0.3625335693359375,-0.832763671875,0.0024566650390625
1727009948874737400,7.9037373046875,-0.46173095703125,-0.791839599609375,0.062835693359375
1727009948884775400,7.913775390625,-0.7465057373046875,-0.741607666015625,0.0472869873046875
1727009948894812400,7.9238125,-0.7344818115234375,-0.8766632080078125,-0.0552520751953125
1727009948904850400,7.933850341796875,-0.8034820556640625,-0.82861328125,-0.148101806640625
1727009948914888400,7.943888427734375,-0.24444580078125,-0.791473388671875,-0.18890380859375
1727009948924926500,7.953926513671875,-0.4530029296875,-0.775848388671875,-0.1242218017578125
1727009948934964500,7.963964599609375,-0.584503173828125,-0.80657958984375,-0.0379180908203125
1727009948945002200,7.974002197265625,-0.75634765625,-0.6907958984375,-0.0162200927734375
1727009948955039500,7.98403955078125,-0.8229217529296875,-0.7954559326171875,-0.074859619140625
1727009948965077500,7.994077392578125,-0.601898193359375,-0.6775665283203125,-0.1418609619140625
1727009948975115500,8.004115478515626,-0.542388916015625,-0.8325958251953125,-0.169921875
1727009948985153500,8.014153564453125,-0.3860626220703125,-0.797393798828125,-0.122802734375
1727009948995191300,8.02419140625,-0.602630615234375,-0.892669677734375,-0.0347900390625
1727009949005229600,8.0342294921875,-0.6679534912109375,-0.8343353271484375,0.02032470703125
1727009949015266300,8.044266357421876,-0.6743011474609375,-0.90753173828125,-0.014617919921875
1727009949025304300,8.05430419921875,-0.698883056640625,-0.766387939453125,-0.1016998291015625
1727009949035342300,8.06434228515625,-0.462432861328125,-0.76513671875,-0.1919403076171875
1727009949045380400,8.07438037109375,-0.727630615234375,-0.773101806640625,-0.22314453125
1727009949055418400,8.08441845703125,-0.6912078857421875,-0.7428741455078125,-0.212493896484375
1727009949065456400,8.094456298828124,-0.3043212890625,-0.7729949951171875,-0.1846160888671875
1727009949075493400,8.104493408203124,-0.3939361572265625,-0.843902587890625,-0.1095428466796875
1727009949085531400,8.114531494140625,-0.7926177978515625,-0.97900390625,-0.0084686279296875
1727009949095569400,8.1245693359375,-1.09490966796875,-0.9144287109375,0.061798095703125
1727009949105607400,8.134607421875,-0.2918701171875,-0.9556884765625,0.036468505859375
1727009949115645400,8.1446455078125,-0.3597412109375,-0.7654571533203125,0.004425048828125
1727009949125683200,8.15468310546875,-0.53375244140625,-0.8662567138671875,-0.027587890625
1727009949135720400,8.164720458984375,-0.487945556640625,-0.7703704833984375,-0.0475616455078125
1727009949145758500,8.174758544921875,-0.67822265625,-0.7691650390625,-0.0516510009765625
1727009949155796500,8.18479638671875,-0.3104705810546875,-0.7926177978515625,-0.0494842529296875
1727009949165834500,8.19483447265625,-0.4995574951171875,-0.84637451171875,-0.02325439453125
1727009949175872300,8.204872314453125,-0.65625,-0.8886871337890625,-0.0228424072265625
1727009949185910500,8.21491064453125,-0.779205322265625,-0.8777618408203125,-0.063629150390625
1727009949195947500,8.224947509765625,-0.543914794921875,-0.871795654296875,-0.1434173583984375
1727009949205985300,8.2349853515625,-0.241241455078125,-0.853179931640625,-0.1950836181640625
1727009949216023600,8.2450234375,-0.3085784912109375,-0.9125823974609375,-0.150787353515625
1727009949226061300,8.255061279296875,-0.7526702880859375,-0.8628692626953125,-0.022186279296875
1727009949236099600,8.265099609375,-0.7323150634765625,-0.886688232421875,0.0635986328125
1727009949246137300,8.275137451171876,-0.5075531005859375,-0.7842864990234375,0.070343017578125
1727009949256174300,8.28517431640625,-0.2178192138671875,-0.8662109375,0.0025787353515625
1727009949266212400,8.29521240234375,-0.505859375,-0.79315185546875,-0.0432281494140625
1727009949276250400,8.30525048828125,-0.7308197021484375,-0.9476776123046875,-0.05389404296875
1727009949286288400,8.315288330078126,-0.5652008056640625,-0.839202880859375,-0.0333404541015625
1727009949296326400,8.325326416015624,-0.308441162109375,-0.9112396240234375,-0.01263427734375
1727009949306364400,8.335364501953125,-0.4536590576171875,-0.8829498291015625,-0.001312255859375
1727009949316401400,8.3454013671875,-0.9347076416015625,-0.84991455078125,-0.0370330810546875
1727009949326439400,8.355439453125,-0.8245086669921875,-0.79571533203125,-0.1005859375
1727009949336477400,8.3654775390625,-0.302154541015625,-0.741790771484375,-0.1346435546875
1727009949346515500,8.375515380859374,-0.1730804443359375,-0.811065673828125,-0.0863037109375
1727009949356553200,8.38555322265625,-0.61651611328125,-0.8285369873046875,0.0075531005859375
1727009949366591500,8.395591552734375,-0.8710174560546875,-0.940460205078125,0.0771026611328125
1727009949376628500,8.40562841796875,-0.867919921875,-0.901336669921875,0.099853515625
1727009949386666500,8.41566650390625,-0.700592041015625,-0.887725830078125,0.0789337158203125
1727009949396704500,8.42570458984375,-0.44561767578125,-0.730682373046875,0.0405426025390625
1727009949406742300,8.4357421875,-0.4519195556640625,-0.6319732666015625,-0.021240234375
1727009949416780500,8.445780517578125,-0.5443572998046875,-0.6074371337890625,-0.1231231689453125
1727009949426818300,8.455818359375,-0.74151611328125,-0.743865966796875,-0.2381744384765625
1727009949436855300,8.465855224609374,-0.7212982177734375,-0.83544921875,-0.280059814453125
1727009949446893600,8.4758935546875,-0.8612213134765625,-0.8484649658203125,-0.216827392578125
1727009949456931300,8.485931396484375,-0.7571258544921875,-0.8404388427734375,-0.0840301513671875
1727009949466969600,8.495969482421875,-0.6709136962890625,-0.6965789794921875,0.0404815673828125
1727009949477007400,8.50600732421875,-0.558319091796875,-0.6944427490234375,0.0756378173828125
1727009949487045600,8.516045654296875,-0.3053436279296875,-0.6884765625,0.022216796875
1727009949497082400,8.526082275390625,-0.6118011474609375,-0.75518798828125,-0.0648345947265625
1727009949507120400,8.536120361328125,-0.8543853759765625,-0.8157196044921875,-0.1315155029296875
1727009949517158400,8.546158447265626,-0.750335693359375,-0.8707275390625,-0.167205810546875
1727009949527196400,8.556196533203124,-0.733795166015625,-0.8321685791015625,-0.12213134765625
1727009949537234400,8.566234375,-0.524169921875,-0.7675323486328125,-0.0493621826171875
1727009949547272400,8.5762724609375,-0.585479736328125,-0.6805267333984375,-0.0060272216796875
1727009949557309400,8.586309326171875,-0.5106201171875,-0.7262725830078125,-0.0723419189453125
1727009949567347500,8.596347412109376,-0.5030364990234375,-0.7691192626953125,-0.1924285888671875
1727009949577385500,8.606385498046874,-0.38037109375,-0.8787689208984375,-0.26953125
1727009949587423000,8.616423095703125,-0.646636962890625,-0.92242431640625,-0.212371826171875
1727009949597461200,8.626461181640625,-0.5606231689453125,-0.897430419921875,-0.1010284423828125
1727009949607499000,8.6364990234375,-0.57696533203125,-0.848907470703125,-0.033447265625
1727009949617536000,8.646535888671876,-0.5522308349609375,-0.8445587158203125,-0.042144775390625
1727009949627574300,8.65657421875,-0.472412109375,-0.8251800537109375,-0.09588623046875
1727009949637612000,8.666612060546875,-0.56298828125,-0.8623046875,-0.1437530517578125
1727009949647650300,8.676650390625,-0.4683837890625,-0.823089599609375,-0.1890106201171875
1727009949657688000,8.68668798828125,-0.3669586181640625,-0.8121490478515625,-0.2341766357421875
1727009949667726300,8.696726318359374,-0.501922607421875,-0.85400390625,-0.2525634765625
1727009949677763300,8.706763427734375,-0.8312530517578125,-0.9419708251953125,-0.2111663818359375
1727009949687801000,8.716801025390625,-0.792816162109375,-0.80731201171875,-0.1303863525390625
1727009949697839400,8.72683935546875,-0.675872802734375,-0.874298095703125,-0.07086181640625
1727009949707877000,8.736877197265626,-0.481475830078125,-0.8175048828125,-0.070343017578125
1727009949717915100,8.7469150390625,-0.5926513671875,-0.8639984130859375,-0.1168365478515625
1727009949727953200,8.756953125,-0.507354736328125,-0.83770751953125,-0.1890106201171875
1727009949737990100,8.766990234375,-0.4577484130859375,-0.8188323974609375,-0.22686767578125
1727009949748028200,8.777028076171876,-0.670440673828125,-0.796844482421875,-0.216156005859375
1727009949758066200,8.787066162109374,-0.711700439453125,-0.7607879638671875,-0.1653900146484375
1727009949768104200,8.797104248046875,-0.3946685791015625,-0.7357177734375,-0.1235809326171875
1727009949778142200,8.80714208984375,-0.3200531005859375,-0.7262725830078125,-0.0937652587890625
1727009949788180200,8.81718017578125,-0.530364990234375,-0.79986572265625,-0.1103363037109375
1727009949798217000,8.827217041015626,-0.9124755859375,-0.8471832275390625,-0.1616973876953125
1727009949808255200,8.837255126953124,-0.707733154296875,-0.89141845703125,-0.2350921630859375
1727009949818293000,8.84729296875,-0.378631591796875,-0.7578125,-0.255584716796875
1727009949828331300,8.857331298828125,-0.462066650390625,-0.814453125,-0.1733856201171875
1727009949838369000,8.867369140625,-0.7193145751953125,-0.692413330078125,-0.053070068359375
1727009949848406000,8.877406005859376,-1.0551910400390625,-0.79547119140625,0.021881103515625
1727009949858444300,8.8874443359375,-0.628204345703125,-0.7010040283203125,0.030670166015625
1727009949868482000,8.89748193359375,-0.2417144775390625,-0.73504638671875,-0.0072784423828125
1727009949878520300,8.907520263671875,-0.4770965576171875,-0.8386383056640625,-0.0419921875
1727009949888558000,8.91755810546875,-0.7294158935546875,-0.963226318359375,-0.04620361328125
1727009949898596400,8.927596435546874,-0.879180908203125,-0.9316864013671875,-0.007537841796875
1727009949908633300,8.93763330078125,-0.6512603759765625,-0.9705657958984375,0.0185546875
1727009949918671000,8.947671142578125,-0.267425537109375,-0.758087158203125,0.0236358642578125
1727009949928709400,8.95770947265625,-0.2193603515625,-0.667022705078125,-0.0039520263671875
1727009949938747100,8.9677470703125,-0.478118896484375,-0.6858978271484375,-0.048095703125
1727009949948785200,8.97778515625,-0.8876800537109375,-0.6956634521484375,-0.103790283203125
1727009949958823200,8.9878232421875,-0.843048095703125,-0.8482666015625,-0.1731109619140625
1727009949968861200,8.997861083984375,-0.5798492431640625,-0.878997802734375,-0.2082366943359375
1727009949978898200,9.007898193359376,-0.3936309814453125,-0.9022216796875,-0.1656494140625
1727009949988936200,9.017936279296874,-0.3065032958984375,-0.9039459228515625,-0.072967529296875
1727009949998974200,9.02797412109375,-0.638702392578125,-0.8845977783203125,-0.0006561279296875
1727009950009012200,9.03801220703125,-0.6930999755859375,-0.8824920654296875,-0.0228729248046875
1727009950019050200,9.04805029296875,-0.8165740966796875,-0.9181060791015625,-0.0963897705078125
1727009950029087000,9.0580869140625,-0.6483154296875,-0.8935394287109375,-0.1700439453125
1727009950039125200,9.068125244140624,-0.3443450927734375,-0.8577117919921875,-0.22137451171875
1727009950049163000,9.0781630859375,-0.2384796142578125,-0.8659210205078125,-0.236480712890625
1727009950059201300,9.088201171875,-0.4283905029296875,-0.9072113037109375,-0.19256591796875
1727009950069239000,9.098239013671876,-0.589019775390625,-0.8675079345703125,-0.110687255859375
1727009950079277300,9.10827734375,-0.532470703125,-0.811767578125,-0.0239410400390625
1727009950089314300,9.118314208984375,-0.5692291259765625,-0.7965240478515625,0.046356201171875
1727009950099352000,9.12835205078125,-0.9632720947265625,-0.822418212890625,0.0750274658203125
1727009950109390300,9.138390380859375,-0.3846893310546875,-0.8264007568359375,0.04827880859375
1727009950119428000,9.148427978515626,-0.39599609375,-0.859130859375,0.00579833984375
1727009950129466000,9.158466064453124,-0.1044769287109375,-0.7789459228515625,-0.01483154296875
1727009950139504000,9.168504150390625,-0.559234619140625,-0.917144775390625,-0.0196685791015625
1727009950149541000,9.178541015625,-0.9517364501953125,-0.90057373046875,-0.012451171875
1727009950159579400,9.188579345703126,-0.9544677734375,-0.8700103759765625,-0.016357421875
1727009950169617200,9.1986171875,-0.631378173828125,-0.832427978515625,-0.014617919921875
1727009950179655200,9.2086552734375,-0.117584228515625,-0.7235565185546875,-0.00811767578125
1727009950189693200,9.218693115234375,-0.188629150390625,-0.7320098876953125,-0.0107574462890625
1727009950199731200,9.228731201171875,-0.40899658203125,-0.772918701171875,-0.0354461669921875
1727009950209768000,9.238767822265626,-0.76593017578125,-0.843353271484375,-0.0626678466796875
1727009950219806200,9.24880615234375,-1.0139007568359375,-0.917449951171875,-0.060394287109375
1727009950229844000,9.258843994140625,-0.7986907958984375,-0.801300048828125,-0.0495452880859375
1727009950239882200,9.26888232421875,-0.554046630859375,-0.7283782958984375,-0.0580902099609375
1727009950249920300,9.278920166015626,-0.69036865234375,-0.5965118408203125,-0.090057373046875
1727009950259958300,9.288958251953124,-0.6086883544921875,-0.6880950927734375,-0.214691162109375
1727009950269995300,9.298995361328124,-0.6488037109375,-0.7418365478515625,-0.3426971435546875
1727009950280033000,9.309032958984375,-0.613677978515625,-0.7974853515625,-0.3968353271484375
1727009950290071300,9.3190712890625,-0.3917999267578125,-0.88031005859375,-0.3240814208984375
1727009950300109000,9.329109130859376,-0.838714599609375,-0.8441009521484375,-0.1131744384765625
1727009950310147300,9.339147216796874,-0.8050689697265625,-0.805511474609375,0.071197509765625
1727009950320184300,9.349184326171875,-0.5840301513671875,-0.7169647216796875,0.129669189453125
1727009950330222000,9.35922216796875,-0.5619964599609375,-0.6692962646484375,0.089691162109375
1727009950340260400,9.36926025390625,-0.509796142578125,-0.763702392578125,-0.016998291015625
1727009950350298000,9.379298095703126,-0.6056671142578125,-0.7805633544921875,-0.0982666015625
1727009950360336100,9.389336181640624,-0.62542724609375,-0.9603271484375,-0.1343994140625
1727009950370374100,9.3993740234375,-0.664459228515625,-0.925323486328125,-0.0870361328125
1727009950380411100,9.4094111328125,-0.749969482421875,-0.8804168701171875,-0.0195159912109375
1727009950390449400,9.419449462890626,-0.4170989990234375,-0.71270751953125,-0.022308349609375
1727009950400487200,9.429487060546874,-0.2895355224609375,-0.685333251953125,-0.121490478515625
1727009950410525200,9.439525146484375,-0.5618133544921875,-0.63433837890625,-0.251312255859375
1727009950420563200,9.449563232421875,-0.5665740966796875,-0.816680908203125,-0.3533172607421875
1727009950430601200,9.459601318359375,-0.782928466796875,-0.9040374755859375,-0.3609771728515625
1727009950440638000,9.469637939453126,-0.7851104736328125,-0.9228363037109375,-0.259368896484375
1727009950450676200,9.47967626953125,-0.4929351806640625,-0.893035888671875,-0.0909881591796875
1727009950460714000,9.4897138671875,-0.362640380859375,-0.825286865234375,0.0549163818359375
1727009950470752300,9.499752197265625,-0.4481964111328125,-0.7543792724609375,0.0693206787109375
1727009950480790000,9.5097900390625,-0.5499267578125,-0.8067169189453125,-0.0709075927734375
1727009950490828300,9.519828369140624,-0.569610595703125,-0.9004364013671875,-0.263641357421875
1727009950500865300,9.529865234375,-0.5421142578125,-0.9414825439453125,-0.372467041015625
1727009950510903000,9.539903076171875,-0.6856842041015625,-0.9969635009765625,-0.2945098876953125
1727009950520941300,9.54994140625,-0.740234375,-0.8766937255859375,-0.10101318359375
1727009950530979000,9.55997900390625,-0.697906494140625,-0.7775115966796875,0.0540618896484375
1727009950541017000,9.57001708984375,-0.231719970703125,-0.6304931640625,0.0782318115234375
1727009950551055000,9.58005517578125,-0.2474822998046875,-0.6727294921875,-0.005096435546875
1727009950561092000,9.590092041015625,-0.7079315185546875,-0.7303619384765625,-0.1072235107421875
1727009950571130400,9.60013037109375,-1.019378662109375,-0.9346466064453125,-0.1955413818359375
1727009950581168000,9.610168212890626,-0.74267578125,-0.9385223388671875,-0.22088623046875
1727009950591202800,9.620202880859376,-0.5218658447265625,-0.982147216796875,-0.1679229736328125
1727009950601240800,9.63024072265625,-0.4287109375,-0.8272247314453125,-0.045257568359375
1727009950611278800,9.64027880859375,-0.6847381591796875,-0.8070068359375,0.0825347900390625
1727009950621315800,9.65031591796875,-0.6473236083984375,-0.697601318359375,0.1078338623046875
1727009950631353900,9.660353759765625,-0.7400665283203125,-0.6871795654296875,-0.0128173828125
1727009950641391900,9.670391845703126,-0.6710052490234375,-0.728424072265625,-0.2081146240234375
1727009950651430000,9.680429931640624,-0.53338623046875,-0.7933807373046875,-0.3664703369140625
1727009950661468000,9.690468017578125,-0.344390869140625,-0.8338775634765625,-0.3866424560546875
1727009950671504600,9.700504638671875,-0.4774017333984375,-0.8801727294921875,-0.2464599609375
1727009950681543000,9.71054296875,-0.654266357421875,-0.8471527099609375,-0.0672607421875
1727009950691580700,9.72058056640625,-0.785919189453125,-0.8647613525390625,0.06854248046875
1727009950701619000,9.730618896484375,-0.779052734375,-0.7659912109375,0.103271484375
1727009950711656700,9.74065673828125,-0.5102996826171875,-0.7736053466796875,0.0128021240234375
1727009950721694700,9.75069482421875,-0.4003143310546875,-0.764862060546875,-0.132080078125
1727009950731732000,9.76073193359375,-0.3759765625,-0.781341552734375,-0.2225189208984375
1727009950741769700,9.770769775390624,-0.4373931884765625,-0.893524169921875,-0.17730712890625
1727009950751807700,9.780807861328125,-0.63623046875,-0.77386474609375,-0.0514984130859375
1727009950761845800,9.790845703125,-0.5829925537109375,-0.83782958984375,0.002166748046875
1727009950771883800,9.8008837890625,-0.578643798828125,-0.800323486328125,-0.0605926513671875
1727009950781921800,9.810921875,-0.692413330078125,-0.8319854736328125,-0.1666259765625
1727009950791958800,9.820958740234374,-0.4213714599609375,-0.8357086181640625,-0.2354736328125
1727009950801996800,9.830996826171875,-0.655914306640625,-0.8303070068359375,-0.2049713134765625
1727009950812034800,9.841034912109375,-0.5024566650390625,-0.8388214111328125,-0.1252899169921875
1727009950822072800,9.85107275390625,-0.298309326171875,-0.8978118896484375,-0.0488128662109375
1727009950832110800,9.86111083984375,-0.455078125,-0.931060791015625,0.018829345703125
1727009950842148900,9.87114892578125,-0.7562103271484375,-0.9747314453125,0.038177490234375
1727009950852185600,9.881185546875,-0.8448638916015625,-0.8885040283203125,-0.0020294189453125
1727009950862224000,9.891223876953125,-0.5417022705078125,-0.881988525390625,-0.096923828125
1727009950872262000,9.901261962890626,-0.4632415771484375,-0.7411956787109375,-0.170379638671875
1727009950882300000,9.9112998046875,-0.22186279296875,-0.7690277099609375,-0.2301483154296875
1727009950892338000,9.921337890625,-0.41253662109375,-0.8069000244140625,-0.230316162109375
1727009950902375700,9.931375732421875,-0.77740478515625,-0.87432861328125,-0.162322998046875
1727009950912413000,9.941412841796875,-0.566131591796875,-0.9863128662109375,-0.0728912353515625
1727009950922450700,9.95145068359375,-0.6458892822265625,-0.95343017578125,0.0496673583984375
1727009950932489000,9.961489013671875,-0.73876953125,-0.9084014892578125,0.11517333984375
1727009950942526700,9.971526611328125,-0.7248992919921875,-0.8423309326171875,0.0659637451171875
1727009950952564700,9.981564697265625,-0.604888916015625,-0.7895355224609375,-0.042205810546875
1727009950962602000,9.99160205078125,-0.190582275390625,-0.7860565185546875,-0.121612548828125
1727009950972639700,10.0016396484375,-0.348785400390625,-0.7816619873046875,-0.1055450439453125
1727009950982677800,10.011677734375,-0.4761199951171875,-0.83343505859375,-0.0440826416015625
1727009950992715800,10.0217158203125,-0.503082275390625,-0.917724609375,0.0077362060546875
1727009951002753800,10.03175390625,-0.755767822265625,-0.8848419189453125,0.040496826171875
1727009951012791800,10.041791748046874,-0.557952880859375,-0.904327392578125,0.0035400390625
1727009951022828800,10.051828857421874,-0.7692718505859375,-0.759735107421875,-0.0804595947265625
1727009951032866800,10.06186669921875,-0.8798980712890625,-0.70965576171875,-0.171875
1727009951042904800,10.07190478515625,-0.961517333984375,-0.6707611083984375,-0.2186431884765625
1727009951052942800,10.08194287109375,-0.776397705078125,-0.594024658203125,-0.2067108154296875
1727009951062980900,10.09198095703125,-0.34967041015625,-0.5590667724609375,-0.195953369140625
1727009951073019000,10.102018798828125,-0.2802886962890625,-0.6985626220703125,-0.1731109619140625
1727009951083055600,10.1120556640625,-0.794342041015625,-0.798065185546875,-0.130615234375
1727009951093094000,10.122093994140625,-0.89794921875,-0.991912841796875,-0.0926361083984375
1727009951103131600,10.132131591796876,-0.6861572265625,-0.9283905029296875,-0.0697784423828125
1727009951113170000,10.142169921875,-0.2704315185546875,-0.81854248046875,-0.096343994140625
1727009951123207700,10.152207763671875,-0.2664794921875,-0.718994140625,-0.1594696044921875
1727009951133244700,10.16224462890625,-0.77581787109375,-0.6753387451171875,-0.1984100341796875
1727009951143283000,10.172282958984376,-0.882293701171875,-0.754119873046875,-0.1937103271484375
1727009951153320700,10.18232080078125,-0.77069091796875,-0.8161773681640625,-0.120880126953125
1727009951163358700,10.192358642578125,-0.058258056640625,-0.8510589599609375,-0.0531158447265625
1727009951173396700,10.202396728515625,-0.2134857177734375,-0.961181640625,-0.01556396484375
1727009951183434800,10.212434814453125,-0.7973785400390625,-0.999481201171875,-0.0059661865234375
1727009951193472000,10.222471923828126,-0.9289093017578125,-0.9597930908203125,-0.0324859619140625
1727009951203509800,10.232509765625,-0.8441162109375,-0.7993621826171875,-0.1200408935546875
1727009951213547800,10.2425478515625,-0.3650970458984375,-0.7030181884765625,-0.2649993896484375
1727009951223585800,10.252585693359375,-0.021514892578125,-0.6615447998046875,-0.39068603515625
1727009951233623800,10.262623779296876,-0.3973541259765625,-0.853729248046875,-0.4006805419921875
1727009951243661800,10.272661865234374,-0.63299560546875,-1.0281219482421875,-0.3087005615234375
1727009951253698800,10.28269873046875,-1.025634765625,-1.0777435302734375,-0.197021484375
1727009951263736800,10.29273681640625,-0.7509918212890625,-1.049407958984375,-0.1477508544921875
1727009951273774800,10.30277490234375,-0.3688201904296875,-0.83612060546875,-0.14788818359375
1727009951283812900,10.312812744140626,-0.2856903076171875,-0.6761627197265625,-0.14178466796875
1727009951293851000,10.322850830078124,-0.373931884765625,-0.6180877685546875,-0.149749755859375
1727009951303889000,10.332888916015625,-0.45086669921875,-0.7133941650390625,-0.1928558349609375
1727009951313925600,10.342925537109375,-0.5943756103515625,-0.833526611328125,-0.2069549560546875
1727009951323964000,10.3529638671875,-0.5364227294921875,-1.0313568115234375,-0.132568359375
1727009951334001700,10.363001708984376,-0.4217071533203125,-1.0322265625,0.05718994140625
1727009951344040000,10.3730400390625,-0.4419708251953125,-0.99078369140625,0.2384796142578125
1727009951354077700,10.38307763671875,-0.753082275390625,-0.8299407958984375,0.256561279296875
1727009951364114700,10.39311474609375,-0.7245635986328125,-0.738983154296875,0.0601959228515625
1727009951374153000,10.403153076171876,-0.4845123291015625,-0.531036376953125,-0.2057342529296875
1727009951384190700,10.413190673828124,-0.48284912109375,-0.5709686279296875,-0.3570404052734375
1727009951394228700,10.423228759765625,-0.8582916259765625,-0.6308441162109375,-0.3319091796875
1727009951404266800,10.433266845703125,-1.06976318359375,-0.715179443359375,-0.21929931640625
1727009951414304800,10.4433046875,-0.63238525390625,-0.7912445068359375,-0.1433563232421875
1727009951424342000,10.453342041015626,-0.5208740234375,-0.679046630859375,-0.097259521484375
1727009951434379800,10.4633798828125,-0.609222412109375,-0.8762054443359375,-0.069976806640625
1727009951444417800,10.473417724609375,-0.7995147705078125,-0.7288055419921875,-0.0450592041015625
1727009951454455800,10.483455810546875,-0.7342529296875,-0.716461181640625,-0.07275390625
1727009951464493800,10.493493896484376,-0.572601318359375,-0.67291259765625,-0.0960693359375
1727009951474531800,10.50353173828125,-0.5851287841796875,-0.75860595703125,-0.1204071044921875
1727009951484568800,10.51356884765625,-0.451904296875,-0.8820648193359375,-0.119171142578125
1727009951494606800,10.52360693359375,-0.496368408203125,-0.97198486328125,-0.0814666748046875
1727009951504644900,10.533644775390625,-0.5294189453125,-1.083465576171875,-0.0307159423828125
1727009951514683000,10.543682861328126,-0.744537353515625,-0.8917694091796875,0.0400543212890625
1727009951524721000,10.553720947265624,-0.5381927490234375,-0.877105712890625,0.07830810546875
1727009951534758000,10.5637578125,-0.6985015869140625,-0.758880615234375,0.1035003662109375
1727009951544795600,10.573795654296875,-0.805908203125,-0.637542724609375,0.1304779052734375
1727009951554834000,10.583833984375,-0.3853302001953125,-0.5898590087890625,0.1168060302734375
1727009951564871700,10.59387158203125,-0.398712158203125,-0.6942138671875,0.0360565185546875
1727009951574909700,10.60390966796875,-0.4835662841796875,-0.8984832763671875,-0.08306884765625
1727009951584947700,10.61394775390625,-0.4686737060546875,-1.0091705322265625,-0.1782073974609375
1727009951594985200,10.623985107421875,-0.6961212158203125,-1.0626068115234375,-0.1693115234375
1727009951605023200,10.634023193359376,-0.5427703857421875,-1.033294677734375,-0.085601806640625
1727009951615061200,10.644061279296874,-0.408538818359375,-0.9618988037109375,0.0044097900390625
1727009951625099300,10.654099365234375,-0.4380645751953125,-0.754974365234375,0.052276611328125
1727009951635137000,10.664136962890625,-0.4267578125,-0.7106475830078125,0.0160675048828125
1727009951645175300,10.67417529296875,-0.56591796875,-0.660736083984375,-0.070587158203125
1727009951655212300,10.68421240234375,-0.60540771484375,-0.792327880859375,-0.163116455078125
1727009951665250000,10.69425,-0.4965667724609375,-0.85589599609375,-0.19683837890625
1727009951675288300,10.704288330078125,-0.3199005126953125,-0.91729736328125,-0.1479644775390625
1727009951685326000,10.714326171875,-0.449615478515625,-1.0260009765625,-0.0402984619140625
1727009951695364400,10.7243642578125,-0.8164825439453125,-1.016693115234375,0.06976318359375
1727009951705401000,10.734401123046876,-0.778289794921875,-0.9774932861328125,0.0756072998046875
1727009951715439000,10.744439208984375,-0.6031646728515625,-0.8833465576171875,-0.0198974609375
1727009951725477000,10.75447705078125,-0.4389495849609375,-0.7751007080078125,-0.1191864013671875
1727009951735515100,10.76451513671875,-0.2625274658203125,-0.7742767333984375,-0.1559295654296875
1727009951745553200,10.77455322265625,-0.391876220703125,-0.756103515625,-0.0959014892578125
1727009951755591200,10.784591064453124,-0.808868408203125,-0.8550872802734375,-0.0118865966796875
1727009951765628200,10.794628173828125,-0.870361328125,-0.9353485107421875,0.0377197265625
1727009951775666200,10.804666259765625,-0.517059326171875,-0.8151702880859375,0.0473175048828125
1727009951785704200,10.8147041015625,-0.1963043212890625,-0.8152313232421875,-0.0135498046875
1727009951795742200,10.8247421875,-0.48870849609375,-0.6803436279296875,-0.1111907958984375
1727009951805780200,10.8347802734375,-0.95806884765625,-0.73370361328125,-0.2249908447265625
1727009951815818000,10.84481787109375,-0.989959716796875,-0.7118682861328125,-0.302001953125
1727009951825855200,10.854855224609375,-0.44232177734375,-0.7228546142578125,-0.3473052978515625
1727009951835893200,10.864893310546876,-0.2697906494140625,-0.6909637451171875,-0.2916412353515625
1727009951845931300,10.87493115234375,-0.6881561279296875,-0.820220947265625,-0.1429443359375
1727009951855969300,10.88496923828125,-0.9022674560546875,-0.820098876953125,0.004425048828125
1727009951866007000,10.895007080078125,-1.000701904296875,-0.838897705078125,0.0724945068359375
1727009951876044300,10.905044189453125,-0.59613037109375,-0.79779052734375,0.062652587890625
1727009951886082000,10.91508203125,-0.318206787109375,-0.695343017578125,0.019287109375
1727009951896120000,10.9251201171875,-0.319610595703125,-0.70147705078125,-0.0395660400390625
1727009951906158300,10.935158447265625,-0.404052734375,-0.790863037109375,-0.1005096435546875
1727009951916196000,10.945196044921875,-0.8235015869140625,-0.8145294189453125,-0.12567138671875
1727009951926234400,10.955234375,-0.82904052734375,-0.8907928466796875,-0.09259033203125
1727009951936271000,10.96527099609375,-0.8078765869140625,-0.7515411376953125,-0.00689697265625
1727009951946309000,10.97530908203125,-0.5818634033203125,-0.7231597900390625,0.0593719482421875
1727009951956347100,10.98534716796875,-0.3798370361328125,-0.6064300537109375,0.0338897705078125
1727009951966385200,10.99538525390625,-0.424591064453125,-0.7148590087890625,-0.0830535888671875
1727009951976423200,11.005423095703126,-0.7010040283203125,-0.7483367919921875,-0.1916351318359375
1727009951986460200,11.015460205078124,-0.585052490234375,-0.8770599365234375,-0.2365570068359375
1727009951996498200,11.025498291015625,-0.504638671875,-0.9014434814453125,-0.1695404052734375
1727009952006536200,11.0355361328125,-0.8386688232421875,-0.9088897705078125,-0.0504302978515625
1727009952016574200,11.04557421875,-0.558197021484375,-0.96185302734375,-0.005401611328125
1727009952026612200,11.0556123046875,-0.6429443359375,-0.84222412109375,-0.0483856201171875
1727009952036650200,11.065650146484375,-0.4311065673828125,-0.886016845703125,-0.163421630859375
1727009952046687200,11.075687255859375,-0.3488006591796875,-0.757049560546875,-0.2842559814453125
1727009952056725200,11.085725341796875,-0.4743499755859375,-0.8099212646484375,-0.36126708984375
1727009952066763300,11.09576318359375,-0.6259307861328125,-0.8144073486328125,-0.35528564453125
1727009952076801000,11.105801025390624,-0.69903564453125,-0.8530426025390625,-0.2498016357421875
1727009952086839300,11.11583935546875,-0.585205078125,-0.8906097412109375,-0.0714874267578125
1727009952096876000,11.1258759765625,-0.4228363037109375,-0.856689453125,0.101104736328125
1727009952106914300,11.135914306640625,-0.540924072265625,-0.850799560546875,0.184722900390625
1727009952116952000,11.1459521484375,-0.8004608154296875,-0.8569793701171875,0.1213531494140625
1727009952126990000,11.155989990234374,-0.8138580322265625,-0.7965240478515625,-0.045684814453125
1727009952137028000,11.166028076171875,-0.50555419921875,-0.7114410400390625,-0.2117156982421875
1727009952147066000,11.176066162109375,-0.6934814453125,-0.7014617919921875,-0.26495361328125
1727009952157103000,11.18610302734375,-0.6942138671875,-0.7682037353515625,-0.18231201171875
1727009952167141000,11.19614111328125,-0.6376495361328125,-0.7543487548828125,-0.05352783203125
1727009952177179100,11.20617919921875,-0.439849853515625,-0.86663818359375,-0.00079345703125
1727009952187217200,11.216217041015625,-0.491455078125,-0.927215576171875,-0.05548095703125
1727009952197255200,11.226255126953125,-0.37384033203125,-0.999237060546875,-0.172119140625
1727009952207293200,11.236293212890626,-0.5430755615234375,-0.9490203857421875,-0.2388916015625
1727009952217330200,11.246330078125,-0.6596832275390625,-0.875030517578125,-0.219635009765625
1727009952227368200,11.2563681640625,-0.714630126953125,-0.6802978515625,-0.1389007568359375
1727009952237406200,11.26640625,-0.69683837890625,-0.623504638671875,-0.037353515625
1727009952247444200,11.2764443359375,-0.32257080078125,-0.454010009765625,0.0532073974609375
1727009952257482200,11.286482177734374,-0.322998046875,-0.57684326171875,0.07598876953125
1727009952267519200,11.296519287109374,-0.817535400390625,-0.7447967529296875,0.035736083984375
1727009952277557200,11.30655712890625,-0.8210906982421875,-0.9904022216796875,-0.0511474609375
1727009952287595300,11.31659521484375,-0.708099365234375,-0.9613800048828125,-0.1305389404296875
1727009952297633300,11.32663330078125,-0.5555267333984375,-1.0917816162109375,-0.1774749755859375
1727009952307671000,11.336671142578124,-0.511871337890625,-0.9083099365234375,-0.17083740234375
1727009952317709300,11.346709228515625,-0.790435791015625,-0.7351226806640625,-0.1356658935546875
1727009952327746000,11.35674609375,-0.658050537109375,-0.68511962890625,-0.1062774658203125
1727009952337784300,11.366784423828125,-0.5157318115234375,-0.51031494140625,-0.05523681640625
1727009952347822000,11.376822021484376,-0.4008026123046875,-0.644378662109375,-0.0070953369140625
1727009952357860000,11.386860107421874,-0.4799957275390625,-0.744354248046875,0.0202178955078125
1727009952367898000,11.396898193359375,-0.897369384765625,-0.9951019287109375,-0.0286407470703125
1727009952377936100,11.40693603515625,-0.584075927734375,-1.124664306640625,-0.1518402099609375
1727009952387973000,11.41697314453125,-0.1102752685546875,-1.13543701171875,-0.25341796875
1727009952398011100,11.42701123046875,-0.2528839111328125,-1.051483154296875,-0.220947265625
1727009952408049200,11.437049072265625,-0.481201171875,-0.8476104736328125,-0.098419189453125
1727009952418087200,11.447087158203125,-0.94012451171875,-0.796234130859375,-0.0242462158203125
1727009952428125200,11.457125244140625,-0.7036285400390625,-0.688995361328125,-0.0771484375
1727009952438162200,11.467162109375,-0.2614593505859375,-0.7605438232421875,-0.2212066650390625
1727009952448200200,11.4772001953125,-0.1351470947265625,-0.78375244140625,-0.3368377685546875
1727009952458238200,11.48723828125,-0.5288848876953125,-1.0156402587890625,-0.3076629638671875
1727009952468276200,11.497276123046875,-0.7871246337890625,-1.0405120849609375,-0.1092529296875
1727009952478314200,11.507314208984376,-0.7946929931640625,-1.036773681640625,0.1525421142578125
1727009952488352000,11.51735205078125,-0.6847991943359375,-0.9442291259765625,0.3148040771484375
1727009952498389200,11.52738916015625,-0.2968902587890625,-0.859649658203125,0.271575927734375
1727009952508427300,11.53742724609375,-0.292938232421875,-0.70648193359375,0.079559326171875
1727009952518465300,11.54746533203125,-0.377532958984375,-0.7431640625,-0.1182708740234375
1727009952528503300,11.55750341796875,-0.5836029052734375,-0.7720794677734375,-0.1827545166015625
1727009952538541000,11.567541015625,-0.703155517578125,-0.82598876953125,-0.11175537109375
1727009952548578300,11.577578369140625,-0.8489837646484375,-0.7678985595703125,0.0107879638671875
1727009952558616000,11.587615966796875,-0.6446075439453125,-0.8083038330078125,0.0630035400390625
1727009952568654000,11.597654052734375,-0.478485107421875,-0.7482452392578125,0.0023345947265625
1727009952578692000,11.607692138671876,-0.41387939453125,-0.8045501708984375,-0.131622314453125
1727009952588733700,11.617733642578125,-0.604156494140625,-0.7354583740234375,-0.2513885498046875
1727009952598771500,11.627771484375,-0.677459716796875,-0.7546844482421875,-0.304840087890625
1727009952608808400,11.637808349609376,-0.71881103515625,-0.7486572265625,-0.259796142578125
1727009952618846700,11.6478466796875,-0.9177093505859375,-0.7618865966796875,-0.123260498046875
1727009952628884500,11.657884521484375,-0.7502899169921875,-0.746978759765625,-0.008453369140625
1727009952638922800,11.6679228515625,-0.54205322265625,-0.743072509765625,0.002410888671875
1727009952648960500,11.67796044921875,-0.4650421142578125,-0.722808837890625,-0.0774383544921875
1727009952658997500,11.68799755859375,-0.4565582275390625,-0.8172607421875,-0.2045745849609375
1727009952669035800,11.698035888671875,-0.7125701904296875,-0.8392333984375,-0.2547607421875
1727009952679073500,11.708073486328125,-0.9159088134765625,-0.924285888671875,-0.195343017578125
1727009952689111800,11.71811181640625,-0.79840087890625,-0.7891845703125,-0.0537872314453125
1727009952699149600,11.728149658203124,-0.5582733154296875,-0.6950531005859375,0.0667877197265625
1727009952709187600,11.7381875,-0.349151611328125,-0.6573028564453125,0.07666015625
1727009952719224600,11.748224609375,-0.4655609130859375,-0.73870849609375,-0.029449462890625
1727009952729262600,11.7582626953125,-0.827239990234375,-0.8044891357421875,-0.1524810791015625
1727009952739300600,11.768300537109376,-0.6172943115234375,-0.8488922119140625,-0.2317657470703125
1727009952749338600,11.778338623046874,-0.326171875,-0.8544158935546875,-0.2197113037109375
1727009952759376600,11.788376708984375,-0.6870880126953125,-0.858306884765625,-0.1143798828125
1727009952769414700,11.79841455078125,-0.8221893310546875,-0.8284912109375,-0.0563201904296875
1727009952779451600,11.80845166015625,-0.7133026123046875,-0.8484344482421875,-0.1020965576171875
1727009952789489400,11.818489501953126,-0.3863067626953125,-0.78387451171875,-0.2257843017578125
1727009952799527700,11.828527587890624,-0.2473602294921875,-0.8349761962890625,-0.354461669921875
1727009952809565400,11.8385654296875,-0.5026092529296875,-0.84124755859375,-0.371917724609375
1727009952819603700,11.848603759765625,-0.7049102783203125,-0.9189605712890625,-0.2534027099609375
1727009952829640700,11.858640625,-0.6797332763671875,-0.8018646240234375,-0.05438232421875
1727009952839678500,11.868678466796876,-0.3914642333984375,-0.7215576171875,0.090789794921875
1727009952849716700,11.878716796875,-0.1764373779296875,-0.7059478759765625,0.1269989013671875
1727009952859754500,11.88875439453125,-0.368804931640625,-0.8029022216796875,0.0511627197265625
1727009952869792800,11.898792724609375,-0.6434783935546875,-0.926025390625,-0.0753631591796875
1727009952879830500,11.90883056640625,-0.862030029296875,-1.0328216552734375,-0.212158203125
1727009952889867500,11.918867431640624,-0.81475830078125,-1.032562255859375,-0.30108642578125
1727009952899905800,11.92890576171875,-0.553924560546875,-0.8828277587890625,-0.281463623046875
1727009952909943600,11.938943603515625,-0.4248046875,-0.750152587890625,-0.1569976806640625
1727009952919981600,11.948981689453126,-0.561798095703125,-0.6792144775390625,-0.0071258544921875
1727009952930019600,11.95901953125,-0.6729888916015625,-0.6761474609375,0.02532958984375
1727009952940057600,11.9690576171875,-0.5062255859375,-0.75616455078125,-0.0554351806640625
1727009952950094600,11.979094482421875,-0.5406646728515625,-0.8800506591796875,-0.20306396484375
1727009952960132600,11.989132568359375,-0.6645050048828125,-1.0575103759765625,-0.258270263671875
1727009952970170600,11.999170654296876,-0.7291717529296875,-0.929443359375,-0.1839599609375
1727009952980208600,12.009208740234374,-0.6727142333984375,-0.8512115478515625,-0.0659332275390625
1727009952990246700,12.01924658203125,-0.307586669921875,-0.6551055908203125,-0.0267181396484375
1727009953000283400,12.029283447265625,-0.183837890625,-0.62286376953125,-0.0725860595703125
1727009953010321700,12.03932177734375,-0.8379669189453125,-0.62469482421875,-0.1346282958984375
1727009953020359400,12.049359375,-1.1098480224609375,-0.806640625,-0.2101593017578125
1727009953030397700,12.059397705078124,-0.969512939453125,-0.8026580810546875,-0.2816925048828125
1727009953040435500,12.069435546875,-0.2794952392578125,-0.875213623046875,-0.3410491943359375
1727009953050473700,12.0794736328125,-0.2065582275390625,-0.8477630615234375,-0.29962158203125
1727009953060510700,12.0895107421875,-0.5767669677734375,-0.8294830322265625,-0.1489105224609375
1727009953070548500,12.099548583984374,-0.8665771484375,-0.8387603759765625,0.0211334228515625
1727009953080586800,12.109586669921875,-0.9563140869140625,-0.7977752685546875,0.107421875
1727009953090624500,12.11962451171875,-0.94647216796875,-0.8136749267578125,0.094696044921875
1727009953100662800,12.129662841796875,-0.6625518798828125,-0.758026123046875,0.032257080078125
1727009953110700500,12.139700439453126,-0.1231536865234375,-0.74700927734375,-0.053924560546875
1727009953120737500,12.149737548828124,-0.050537109375,-0.7309417724609375,-0.0856781005859375
1727009953130775800,12.15977587890625,-0.5318450927734375,-0.8415985107421875,-0.0704803466796875
1727009953140813600,12.1698134765625,-0.8050079345703125,-0.8515167236328125,-0.0675201416015625
1727009953150851600,12.1798515625,-0.62359619140625,-0.8482208251953125,-0.0680999755859375
1727009953160889600,12.1898896484375,-0.5132598876953125,-0.7410736083984375,-0.0253143310546875
1727009953170926600,12.199926513671874,-0.1949005126953125,-0.742645263671875,-0.0099029541015625
1727009953180964600,12.209964599609375,-0.3486480712890625,-0.7800445556640625,-0.0537567138671875
1727009953191002600,12.220002685546875,-0.6024627685546875,-0.894439697265625,-0.12554931640625
1727009953201040400,12.230040283203126,-0.7295074462890625,-0.9281158447265625,-0.1776123046875
1727009953211078700,12.24007861328125,-0.74896240234375,-1.0488128662109375,-0.1937408447265625
1727009953221116400,12.250116455078125,-0.4792938232421875,-0.9008941650390625,-0.189239501953125
1727009953231153400,12.2601533203125,-0.3441009521484375,-0.944671630859375,-0.2065277099609375
1727009953241191700,12.270191650390625,-0.4233245849609375,-0.8419036865234375,-0.2432861328125
1727009953251229400,12.2802294921875,-0.467132568359375,-0.87701416015625,-0.2782745361328125
1727009953261267700,12.290267822265625,-0.3861846923828125,-0.8546600341796875,-0.255767822265625
1727009953271305500,12.300305419921875,-0.5577545166015625,-0.9136810302734375,-0.14483642578125
1727009953281343700,12.31034375,-0.5582733154296875,-0.9388580322265625,-0.0029754638671875
1727009953291380700,12.320380615234376,-0.8297576904296875,-0.970947265625,0.0876617431640625
1727009953301418500,12.33041845703125,-0.5561065673828125,-0.9114990234375,0.070556640625
1727009953311456800,12.340456787109375,-0.3011627197265625,-0.8526458740234375,0.0011138916015625
1727009953321494500,12.35049462890625,-0.55517578125,-0.8122100830078125,-0.0136566162109375
1727009953331532500,12.360532470703125,-0.762969970703125,-0.77984619140625,0.0467987060546875
1727009953341570600,12.370570556640626,-0.6734466552734375,-0.7138519287109375,0.1078338623046875
1727009953351607600,12.380607666015624,-0.3649444580078125,-0.66064453125,0.10931396484375
1727009953361645800,12.390645751953125,-0.660186767578125,-0.769287109375,0.0522003173828125
1727009953371683600,12.40068359375,-0.8870849609375,-0.84979248046875,-0.041595458984375
1727009953381721600,12.4107216796875,-0.69659423828125,-0.8467864990234375,-0.1273193359375
1727009953391759600,12.420759521484374,-0.5908050537109375,-0.8347015380859375,-0.1450958251953125
1727009953401797600,12.430797607421875,-0.5429840087890625,-0.8040008544921875,-0.09674072265625
1727009953411834400,12.44083447265625,-0.760528564453125,-0.684539794921875,-0.02880859375
1727009953421872600,12.45087255859375,-0.6173858642578125,-0.6580047607421875,0.0020294189453125
1727009953431910400,12.460910400390626,-0.59039306640625,-0.57611083984375,0.0254364013671875
1727009953441948700,12.47094873046875,-0.744964599609375,-0.70233154296875,0.0120086669921875
1727009953451986400,12.480986328125,-0.537322998046875,-0.8036956787109375,-0.011444091796875
1727009953462023400,12.4910234375,-0.637725830078125,-0.78155517578125,-0.0354461669921875
1727009953472061700,12.501061767578125,-0.5788726806640625,-0.9469451904296875,-0.0703887939453125
1727009953482099500,12.511099365234376,-0.682220458984375,-0.827545166015625,-0.0896453857421875
1727009953492137700,12.5211376953125,-0.5529327392578125,-0.8345489501953125,-0.1177978515625
1727009953502175500,12.531175537109375,-0.5652923583984375,-0.6745758056640625,-0.1382904052734375
1727009953512213800,12.5412138671875,-0.5501708984375,-0.718292236328125,-0.1766357421875
1727009953522250800,12.551250732421876,-0.6518402099609375,-0.7570037841796875,-0.2126312255859375
1727009953532288500,12.56128857421875,-0.60858154296875,-0.83941650390625,-0.2342529296875
1727009953542326800,12.571326904296875,-0.5010528564453125,-0.838134765625,-0.2275390625
1727009953552364500,12.581364501953125,-0.5851898193359375,-0.895751953125,-0.21728515625
1727009953562402600,12.591402587890625,-0.605194091796875,-0.82952880859375,-0.212860107421875
1727009953572440600,12.601440673828124,-0.6234588623046875,-0.842498779296875,-0.196502685546875
1727009953582477600,12.6114775390625,-0.5550689697265625,-0.8362884521484375,-0.173126220703125
1727009953592512300,12.62151220703125,-0.467559814453125,-0.8584136962890625,-0.161956787109375
1727009953602550300,12.63155029296875,-0.4524383544921875,-0.8944091796875,-0.1646881103515625
1727009953612588300,12.64158837890625,-0.60455322265625,-0.8953704833984375,-0.1617431640625
1727009953622626000,12.6516259765625,-0.60076904296875,-0.8702850341796875,-0.1654510498046875
1727009953632664300,12.661664306640626,-0.48419189453125,-0.8042449951171875,-0.17706298828125
1727009953642701000,12.671701171875,-0.6806182861328125,-0.784576416015625,-0.1654205322265625
1727009953652739300,12.6817392578125,-0.5879974365234375,-0.8179779052734375,-0.1287078857421875
1727009953662777000,12.691777099609375,-0.6212005615234375,-0.839111328125,-0.069854736328125
1727009953672815000,12.701815185546875,-0.5596160888671875,-0.9898834228515625,-0.01434326171875
1727009953682853000,12.71185302734375,-0.59002685546875,-0.9529266357421875,0.0254364013671875
1727009953692891100,12.72189111328125,-0.6942291259765625,-0.9267425537109375,0.0035858154296875
1727009953702928100,12.73192822265625,-0.57098388671875,-0.8011932373046875,-0.0968017578125
1727009953712966100,12.741966064453125,-0.55804443359375,-0.6930999755859375,-0.22052001953125
1727009953723004200,12.752004150390626,-0.45458984375,-0.5820159912109375,-0.3047027587890625
1727009953733042200,12.762042236328124,-0.5596466064453125,-0.6151123046875,-0.2998809814453125
1727009953743080200,12.772080078125,-0.4796142578125,-0.6971435546875,-0.235687255859375
1727009953753117200,12.7821171875,-0.69757080078125,-0.7979583740234375,-0.098724365234375
1727009953763155200,12.7921552734375,-0.7769622802734375,-0.930999755859375,0.030120849609375
1727009953773193200,12.802193115234376,-0.694183349609375,-0.9626617431640625,0.0875091552734375
1727009953783231200,12.812231201171874,-0.4912872314453125,-0.872314453125,0.035308837890625
