time,seconds_elapsed,z,y,x
1727009940995027700,0.02402783203125,1.0957669462382793,0.7999398333460092,0.12654891605190932
1727009941005066000,0.03406591796875,0.03021042934656143,0.8980833967119455,0.7091183564964681
1727009941015103700,0.044103759765625,0.5044178408801555,0.2933984244406223,0.5252857107333838
1727009941025141800,0.054141845703125,-1.4582453366458414,0.4199789777398109,-0.015618205696716904
1727009941035179800,0.0641796875,-2.441017187345028,-0.16141805792450903,-1.1860717057373373
1727009941045216800,0.074216796875,0.11616671131253242,0.49034956803917884,-1.0609612980559469
1727009941055254800,0.0842548828125,-0.1090910738378763,0.6625427024781704,0.36865364497639236
1727009941065292800,0.094292724609375,-0.5291869559556246,0.6608516806513071,1.417353938809037
1727009941075330800,0.104330810546875,-1.4354793780863284,0.5593897865176201,1.286838968670368
1727009941085368800,0.114368896484375,-0.30947043831944465,0.9893927301436662,0.9425243037238716
1727009941095405800,0.12440576171875,-0.3053495589971542,0.9029624009251594,0.49135757603794333
1727009941105443800,0.13444384765625,0.25540742422044277,0.5467652827441692,-0.3488494588319212
1727009941115481900,0.14448193359375,-0.09470540561079978,0.3876373815834522,-1.0586787400767206
1727009941125520000,0.154519775390625,0.1309983697414398,-0.22544833928644656,-1.7225735878162085
1727009941135558000,0.164557861328125,0.45011575732827186,-0.12502923220396042,-1.66998678374961
1727009941145596000,0.174595947265625,-0.3517909921765327,-0.3698801910966635,-1.492733151050657
1727009941155632600,0.184632568359375,-0.07321370477080345,-0.03732113813459873,-1.3528142466202377
1727009941165671000,0.1946708984375,0.5976461596757173,0.21454700604379176,-0.912787190977484
1727009941175708700,0.204708740234375,0.24783143600821494,0.3489198206543922,-0.29172376922667026
1727009941185747000,0.214746826171875,0.9760101014792919,-0.18663433224558829,0.2049800632100552
1727009941195784700,0.22478466796875,-2.1202502789855,-0.9750479784488677,0.9613930356491357
1727009941205821700,0.23482177734375,-2.7966052337169645,-1.5268080007404088,1.2860966258704662
1727009941215860000,0.24485986328125,-1.0909650989145039,-0.5974351472735404,1.739591065851599
1727009941225897700,0.254897705078125,1.1696259631752968,0.21367022320926188,1.3591148080691695
1727009941235935700,0.264935791015625,0.8946002307713031,0.5170984587550163,0.5933508736345917
1727009941245973800,0.274973876953125,-0.9008511078596114,0.4386117820173502,0.5760056249495595
1727009941256010800,0.2850107421875,0.8520645728588103,0.7280120767325162,1.3094269403144716
1727009941266049000,0.295049072265625,0.13576689931750296,0.4386316557615995,1.8290303676277397
1727009941276086800,0.305086669921875,1.6602537636339663,-0.5757324340313673,1.4785412518300116
1727009941286124800,0.315124755859375,-1.8403209924489259,-1.0238087944865226,0.9667359310470521
1727009941296162800,0.325162841796875,-1.6857821726441382,-0.8383680559396743,0.553630127012357
1727009941306200800,0.335200927734375,0.3439420322418213,0.6791144825726747,0.07287336690053343
1727009941316237600,0.345237548828125,1.0306973849564791,1.0526999579280614,-0.4349075206719339
1727009941326275800,0.35527587890625,0.1036409917384386,1.9759405922502278,-0.6477486726459115
1727009941336313600,0.365313720703125,-0.383493705907464,0.629202742934227,-0.5190681513927876
1727009941346351900,0.375351806640625,-0.6954998001843691,0.127521633541584,0.1910736298672855
1727009941356390000,0.385389892578125,-1.1788368591129779,-0.46873336403667926,1.1812184935525059
1727009941366426600,0.395426513671875,-0.8987199410498141,-1.0362146870732307,1.6686204638324678
1727009941376465000,0.40546484375,0.021608605217933653,-1.1188742655813693,1.4287829491876065
1727009941386502700,0.415502685546875,1.6996762579619884,-0.9286281725794077,1.0713638879962264
1727009941396541000,0.425541015625,-0.8456289868533611,0.19512217460572717,0.8713798064425587
1727009941406578700,0.43557861328125,0.9962100089430809,-0.039977790123224256,0.3960235171347856
1727009941416615700,0.44561572265625,-0.04401099116206169,0.1914829413205385,0.3515593753777444
1727009941426654000,0.455654052734375,-0.893177504491806,-0.7040121924638748,0.751183401222527
1727009941436691700,0.465691650390625,-1.4817290880858898,-0.35013621070683,1.1449066785909234
1727009941446730000,0.47572998046875,1.5563357085198164,-1.4050743029505013,1.0516055868200958
1727009941456767700,0.485767822265625,0.028384967485070228,-0.335706703338027,0.8398905893318355
1727009941466805800,0.4958056640625,0.9247013545244932,-0.9779109666645527,0.11900821834877133
1727009941476843000,0.505843017578125,0.32427170161008834,0.07170037759840488,-0.41967210374772546
1727009941486880800,0.515880859375,0.5149667074233293,-0.09767828394174576,-0.4947355280384421
1727009941496919000,0.5259189453125,1.1166606811851263,0.2698661576837301,-0.3971772172145545
1727009941506956800,0.535956787109375,0.38039807797968384,-0.12984218544363973,-0.22881211663112044
1727009941516994800,0.545994873046875,-1.0401824216604232,-0.7298615039914846,0.30710970053747294
1727009941527031800,0.55603173828125,-1.2255582782775163,-0.9588450316667556,0.8439458560720086
1727009941537069800,0.56606982421875,0.8996183511942625,-0.8665034325778483,0.6867028918750584
1727009941547107600,0.576107666015625,2.449042088368535,-1.001888639101386,-0.003432604797184467
1727009941557145900,0.586145751953125,-0.4985071555316448,-0.3432791844189167,-0.4976186822593212
1727009941567183600,0.59618359375,-0.5334972203701734,-0.5648340233981609,-0.7083245027050376
1727009941577222100,0.60622216796875,0.19606383937001226,-0.11639935102462767,-0.3583392447762191
1727009941587259400,0.61625927734375,1.5978268258154391,-0.6011690731048583,0.531869911429286
1727009941597297200,0.626297119140625,1.5929337930768728,-0.29745734444260596,1.4380293548300862
1727009941607335200,0.636335205078125,1.4693085824519394,-1.8957108712375164,1.6443832636766136
1727009941617373200,0.646373291015625,-0.08355097438991069,-1.9355413618445396,1.204406623046845
1727009941627411200,0.6564111328125,-0.7380863115012646,-2.2935364693582057,0.38488954418003557
1727009941637448200,0.6664482421875,-0.9501508530795574,-1.3573369847416876,-0.008289835570007563
1727009941647486200,0.676486328125,0.7569090853929519,-1.0255430709332227,0.14934358924925326
1727009941657524200,0.686524169921875,0.6979051077604294,0.2619891406983137,0.6360455945663154
1727009941667562200,0.696562255859375,3.5251977406859396,-0.085154317933321,0.695029113932699
1727009941677600300,0.706600341796875,1.202345160472393,0.37929566969573497,0.7451843069382011
1727009941687637000,0.716636962890625,-0.4830184944987297,-0.8806266504764556,0.5745058148458599
1727009941697675300,0.72667529296875,-0.35992753688096996,-0.40204818425178523,0.6292891060434281
1727009941707713000,0.736713134765625,-0.24822657280564306,0.04214052111506462,0.7448828397735953
1727009941717751300,0.746751220703125,0.38145138642489906,0.7987590991288424,0.5606514770165085
1727009941727789000,0.7567890625,0.6254191327422857,0.5437561640560626,0.5034541104145348
1727009941737827000,0.7668271484375,-0.44424248138070105,0.9122592215806246,1.1083302213437856
1727009941747864300,0.7768642578125,-3.283050195533037,0.695880323934555,1.8968856141053139
1727009941757902000,0.786902099609375,-1.3810335021495819,0.6427770947784185,2.0670152401432396
1727009941767940400,0.7969404296875,-0.2569838797569275,0.7303191846311092,1.5051703155584633
1727009941777978000,0.80697802734375,0.37252398360371586,0.0931798034787178,0.5915794069826602
1727009941788016000,0.81701611328125,-0.8529729198753834,-0.18002689680457115,0.15723083536773919
1727009941798053400,0.827053466796875,-1.9343968679845331,-0.13508008609712124,0.5620983148239552
1727009941808091100,0.837091064453125,-1.041691657179594,0.7310299632489681,1.1383851678676902
1727009941818129200,0.847129150390625,-0.6941068845212459,0.4099561808973551,1.063086911907792
1727009941828167200,0.857167236328125,-0.729413175702095,0.4822077626377344,0.5226673449285328
1727009941838205200,0.867205078125,-0.07842179480791091,0.1877589523613453,0.02632379717156291
1727009941848243200,0.8772431640625,-0.9297405177354812,-0.3661556176155805,0.12758315447047353
1727009941858280200,0.8872802734375,0.20056173531115054,-0.44648120021820065,0.6823514186672865
1727009941868318200,0.897318115234375,-0.11935118656754493,-0.5099275442123413,1.2559103080518543
1727009941878356200,0.907356201171875,0.5948445462584495,-0.7704337528765202,1.239150750300288
1727009941888394200,0.917394287109375,0.15937340035438535,-0.8968611614406108,0.7291176998868584
1727009941898432300,0.927432373046875,-0.5301882419526577,-0.8369114273905753,0.27469562366679307
1727009941908469200,0.93746923828125,0.39337387940883634,-0.9875380421876907,0.27507731646075845
1727009941918507000,0.947507080078125,-0.10133213027417659,-0.47767011920809743,0.7024919971592724
1727009941928545300,0.957545166015625,0.5106459216147661,-0.1519002879947424,0.918214184462279
1727009941938583000,0.9675830078125,2.4528303747355937,0.16668869180381296,0.9490627655819058
1727009941948621300,0.977621337890625,1.09973818795681,0.08265139520168303,0.8164628058627247
1727009941958659000,0.9876591796875,-2.1962392936885355,0.3274550078213215,0.18262948051840067
1727009941968696000,0.997696044921875,-2.3129174616545436,-0.1680424445003271,-0.7120446922719478
1727009941978734300,1.007734375,-2.3353192630767823,0.05924129351973533,-1.0465287219472228
1727009941988772000,1.017772216796875,1.5805132874429224,0.33814240605235096,-0.7397258954018354
1727009941998810400,1.027810302734375,1.65761756991148,0.2615975110322237,0.11283084488809109
1727009942008848100,1.03784814453125,-0.6930553296416998,0.3083317896783352,0.8768652521163225
1727009942018885000,1.047885009765625,-0.6165975283831358,0.31615327708423135,0.735678519707173
1727009942028923400,1.05792333984375,-0.9307190073788165,-0.09538929622173309,-0.3372865198753774
1727009942038961200,1.067961181640625,-1.0743336975872515,0.40979426833391186,-1.4859690637432037
1727009942048999200,1.077999267578125,-0.9296095848321914,0.3760059805005789,-2.0123079367913306
1727009942059037200,1.088037109375,0.1789607288777828,0.002745499315857887,-1.6736084813781082
1727009942069075200,1.0980751953125,0.42847091175317764,0.6181038412928581,-0.6052385145008564
1727009942079112200,1.1081123046875,1.1050865632474423,-0.23994798928201197,0.4085777321510017
1727009942089150200,1.118150146484375,-0.034411972689628596,-0.4235007221251726,1.0470409092530608
1727009942099188000,1.12818798828125,0.10381927091479301,-1.3663491432368755,1.141655713970959
1727009942109226200,1.138226318359375,0.07947334968745708,-1.0523930839359759,0.9081156920351088
1727009942119264000,1.148263916015625,1.3731243364602326,-1.552993996876478,0.34540216792225836
1727009942129301000,1.158301025390625,-0.5640671306788921,-0.8967834200292825,-0.0670356006577611
1727009942139339300,1.16833935546875,0.8834802863419056,-1.2551847702562808,-0.3931131826460361
1727009942149377000,1.178376953125,-0.025180033963918685,0.019082886132597923,-0.4297271954245865
1727009942159415300,1.188415283203125,2.76727743242383,-0.25416648424863814,-0.8477509474433959
1727009942169453000,1.198453125,0.546407555347681,0.22593758410811424,-1.411519387436658
1727009942179491300,1.2084912109375,1.6524118179619312,-0.9409978248089551,-2.211441100604087
1727009942189528300,1.2185283203125,1.4150760570049286,-0.9193921422004699,-2.4080165427580473
1727009942199566000,1.228566162109375,1.231256197658181,-2.0906132656127214,-1.82762196213454
1727009942209604400,1.238604248046875,0.6661813512414694,-1.0840870298385619,-0.7176832826808095
1727009942219642000,1.24864208984375,0.7722147910743952,-1.3118290330201388,0.12548947012685238
1727009942229680000,1.25868017578125,0.9304226547807455,0.09257716141045093,0.34766287939585744
1727009942239718100,1.26871826171875,0.4178554097145796,0.1641173800110817,0.08547741240784526
1727009942249755100,1.278755126953125,0.6458791524469852,0.5317687891423702,-0.3898442439779639
1727009942259793400,1.28879345703125,-1.8656190998345612,0.07858078476190566,-0.8893643759444355
1727009942269831200,1.2988310546875,-1.033825161588192,0.7266554014265537,-1.4938126168504355
1727009942279869200,1.308869140625,-0.5869283663064241,0.5520318249702453,-2.1065669138088823
1727009942289907200,1.3189072265625,0.2802192093938589,0.4094967466920614,-2.3385928779199716
1727009942299944200,1.328944091796875,-0.8709545667678117,0.8213315809428692,-1.8890717254839837
1727009942309982000,1.33898193359375,-1.0787029987126588,0.10884089846909045,-1.2995024892799556
1727009942320020200,1.349020263671875,0.0056423898011446,0.40032618276476856,-0.8613008224334567
1727009942330058000,1.35905810546875,-0.6670499507695437,0.08161211528182029,-0.7779592530105263
1727009942340096300,1.36909619140625,0.2177390800833702,-0.32273791617155073,-1.0355682058632374
1727009942350134000,1.379134033203125,0.1991512839913368,-0.30251813496351243,-1.4681610198520123
1727009942360171000,1.3891708984375,-0.393148838481307,0.3617506606549024,-1.9141054828450084
1727009942370209300,1.399209228515625,-0.6415794094264506,0.36524259442389007,-2.327766363479197
1727009942380247000,1.4092470703125,0.32877018207311626,0.7199111878633498,-2.293392092451453
1727009942390285300,1.419285400390625,0.20181495024263857,1.5037550419330596,-1.572906611831486
1727009942400323000,1.429322998046875,-0.3522749763011932,1.1674907047122716,-0.6002698592428117
1727009942410361300,1.439361328125,-0.7612415616393089,0.7013806749165058,0.30430757566355165
1727009942420398300,1.4493984375,-1.4727783043891192,0.6070633918404579,0.8223769252773374
1727009942430436000,1.45943603515625,-0.9916419703751802,0.18038930037617681,0.678314710497111
1727009942440474400,1.469474365234375,0.38413258833289143,-0.10373451524078846,0.14595095113627612
1727009942450512100,1.47951220703125,-0.4284638974905014,0.08443710957467555,-0.0756173318464309
1727009942460550100,1.489550048828125,-1.592092081555724,0.2365133386582136,0.29494810156803575
1727009942470588200,1.499588134765625,-1.6182815848231316,0.9149807554990053,1.0798971038680523
1727009942480625200,1.509625244140625,0.4594716146945953,1.1298287903159856,1.5991061981014907
1727009942490663200,1.5196630859375,1.5577783085435628,0.7312596803516149,1.8237385448299348
1727009942500701200,1.529701171875,-0.03353869698643684,0.4170639670759439,2.066220290373266
1727009942510739200,1.5397392578125,-0.34208383715450763,-0.6277250715970992,1.9016370464161036
1727009942520777200,1.549777099609375,-1.2236959915369747,-0.9631997197449207,1.1864986259125172
1727009942530814200,1.559814208984375,-2.114523133510351,-0.8384832067519425,0.21103399295415728
1727009942540852000,1.56985205078125,0.8997101211309433,-0.10241875646710395,-0.6307566943779588
1727009942550890200,1.57989013671875,0.9378227019041776,0.49579205135405063,-0.8072836933027953
1727009942560928000,1.589927978515625,1.0443208366394043,1.001875779619813,-0.48739291019067166
1727009942570966300,1.59996630859375,-0.36544074734449383,0.6898468889892101,0.01547404798567295
1727009942581007400,1.61000732421875,-1.446735516116023,-0.2369189968496561,0.46650165946185584
1727009942591044400,1.62004443359375,-0.4557996481835842,-0.3992804731041193,0.6175500798676162
1727009942601082600,1.63008251953125,1.0322405227452516,-1.00633860424757,0.527689922330901
1727009942611120400,1.640120361328125,-0.6483534336060285,-0.47383097943663594,0.3464347258403897
1727009942621158400,1.650158447265625,1.0300637632280587,-0.6200169814378023,0.005748699719831347
1727009942631196400,1.660196533203125,0.03555938915908336,0.7083090128749608,0.07164864741116762
1727009942641234400,1.670234375,-0.05377835193872452,0.6718085434734821,0.506264856986329
1727009942651271700,1.680271728515625,1.5177239460527896,0.9550456393837928,0.8965139554381371
1727009942661309400,1.690309326171875,0.10233283174932002,0.4719195928573608,0.9672320440009236
1727009942671347500,1.700347412109375,-0.5220259782850742,-0.5060317058175802,0.8017955442152916
1727009942681385500,1.710385498046875,-1.4161679438948631,-1.0179776041150093,0.687299542593956
1727009942691423500,1.720423583984375,-0.6569388911217451,-0.7558195365905761,0.5429989159479737
1727009942701461500,1.73046142578125,2.98391644231081,-0.7002268287062644,0.00542049067877233
1727009942711498500,1.74049853515625,0.9041945730686187,-0.05978314531147479,-0.20162980293408034
1727009942721536500,1.75053662109375,-2.0075942061424255,0.03641279111802578,0.27203846022151407
1727009942731574500,1.760574462890625,-2.163849182215333,-0.10106325020492077,0.6560390927378088
1727009942741612500,1.770612548828125,0.3923094650477171,0.14618483295738696,0.37397264804206787
1727009942751650600,1.780650634765625,0.0028559739530086515,0.44704058766663074,-0.28420740224719043
1727009942761688600,1.7906884765625,2.7539269524633885,-0.4314566495656967,-1.4386276129841804
1727009942771725300,1.800725341796875,2.148153015911579,-0.47264615356624123,-1.896699882274866
1727009942781763600,1.810763671875,-2.6251789919972417,-0.8022270675003528,-0.8364147299148141
1727009942791801300,1.82080126953125,-2.4532880553752183,0.2257861929386854,0.798424533412233
1727009942801839400,1.83083935546875,0.7192647066533565,0.31861002258658405,1.7697746071912348
1727009942811877400,1.84087744140625,1.2699334265768527,0.8486258305817842,1.5413172953471541
1727009942821915400,1.850915283203125,2.193442940968275,-0.7335387311995029,0.5835384316071868
1727009942831952600,1.86095263671875,-1.773987694841623,-0.46139527623355386,0.19340857562087474
1727009942841990400,1.870990478515625,-0.04301964203715324,-0.9876777429193258,0.3341222106255591
1727009942852028400,1.8810283203125,2.3966122284293174,-0.4767027354806661,0.9996547425694763
1727009942862066400,1.89106640625,0.3452010923922062,-0.6500263352543115,1.923425099854171
1727009942872104400,1.9011044921875,-2.1151818896800276,0.25029285768568516,2.6825372482493517
1727009942882142500,1.911142578125,-1.8167513162910938,-0.7117220361888408,2.4997750812619923
1727009942892179500,1.921179443359375,2.156334568801522,-0.3994154976606369,1.407794375564158
1727009942902217500,1.931217529296875,1.5088058955818413,-0.7691869676858186,0.18657288438193498
1727009942912255500,1.94125537109375,0.21828326996266842,-2.0877526154845953,-0.482609986763075
1727009942922293500,1.95129345703125,0.32377894965708254,-1.7614233968228101,-0.7508237741298973
1727009942932331500,1.96133154296875,-1.1494453449338673,-1.088055348947644,-0.69773135862872
1727009942942369500,1.97136962890625,-0.43143794486522674,0.03145078479647636,-1.1382342150896787
1727009942952407300,1.9814072265625,-0.28668635958135125,0.21846154913902283,-1.9066009524337946
1727009942962444500,1.991444580078125,-0.8630348796844481,0.8439484864205121,-2.3925953940033913
1727009942972482600,2.001482666015625,0.0016705635607242584,0.5983300502866506,-2.3482661306723953
1727009942982520600,2.0115205078125,-0.24054946230649946,0.1528407837152481,-1.5992368387438356
1727009942992558600,2.02155859375,-0.10175707768797874,-0.05861468605399132,-0.39998379906788467
1727009943002596400,2.031596435546875,-0.9369219536721706,-0.1336871704339981,0.7043776647754013
1727009943012634600,2.041634521484375,0.21425006892383097,0.6491419536352158,1.0867642131585626
1727009943022671400,2.05167138671875,1.4453636432409285,1.0207985067546368,0.4849516545183956
1727009943032709400,2.06170947265625,2.5161808571398256,1.2904635889083147,-0.6136998341802508
1727009943042747400,2.071747314453125,-1.2457798130512237,0.5150222370028495,-1.4259317975401877
1727009943052785400,2.081785400390625,-3.139007050779462,0.2494406247705221,-1.5793483353167772
1727009943062823400,2.091823486328125,-3.0448937658429145,0.3598749299108982,-1.0979595609117299
1727009943072861400,2.101861328125,-1.3356740189880132,0.06672025109827517,-0.4594814785014838
1727009943082898400,2.1118984375,-0.49128012688755984,0.2615706230252981,-0.3180645905982703
1727009943092936400,2.1219365234375,0.6689578302174806,0.08937748858630656,-0.8142313935488462
1727009943102974500,2.131974365234375,-1.0568518169105052,0.21245675576627254,-1.6773469372540712
1727009943113012500,2.142012451171875,-0.5103168357908725,0.5338029253184795,-2.601392458218336
1727009943123050500,2.152050537109375,0.6402443614304065,1.2919839303433895,-2.641275555795431
1727009943133088300,2.162088134765625,0.20958207711279392,0.7804068653583526,-1.8961233975611627
1727009943143125500,2.17212548828125,-0.8777169005095958,0.7169044072628021,-0.859552444396168
1727009943153163500,2.18216357421875,0.46525136713981624,-0.20196341880261898,-0.35614542452637105
1727009943163201500,2.192201416015625,-1.0070575661718846,-0.624713614821434,-0.4114746957015246
1727009943173239600,2.202239501953125,0.7095803479850292,-1.4759680403411388,-0.4215518530797213
1727009943183277300,2.21227734375,1.234421383690834,-0.7011468661606312,0.3772443631891161
1727009943193315600,2.222315673828125,-0.3654243807315826,0.21719664376974104,1.313991764011979
1727009943203353300,2.232353271484375,0.7666659247756004,1.028623501291871,1.5744291452236472
1727009943213390300,2.242390380859375,0.3206657860726118,1.372299576073885,0.9079750414554029
1727009943223428600,2.2524287109375,-1.482795256012678,0.9402344392210245,-0.554152726114355
1727009943233466400,2.26246630859375,1.1961240940004587,-0.2145142728179693,-1.5819810219079256
1727009943243504600,2.272504638671875,-1.0070867922663689,-0.15447627596259117,-1.3676333378285168
1727009943253542400,2.28254248046875,1.2415829458832741,-1.017778282150626,-0.5629715905271471
1727009943263580700,2.29258056640625,-1.6497253553569315,-0.08238368417620659,0.39387766421250997
1727009943273617400,2.302617431640625,0.08405074060559273,-0.4143552926391363,0.30562848553638905
1727009943283655400,2.312655517578125,0.6378817239522934,0.26406536245048046,-0.48667577489726244
1727009943293693400,2.322693359375,-0.24457623360455036,0.7956056035339831,-1.4742828637331724
1727009943303731500,2.3327314453125,-0.41393385235667224,1.339758657953143,-1.8474904456868766
1727009943313769500,2.34276953125,0.7064934878855943,-0.12781623257398605,-1.4144494495391844
1727009943323807500,2.352807373046875,-0.09663958854377269,0.1417693546026945,-0.29191070663351565
1727009943333845500,2.362845458984375,0.2054652894437313,-0.4215647856265306,0.837673059412837
1727009943343882500,2.372882568359375,0.7548381243377924,-1.7508289375722408,1.1436951108440756
1727009943353920500,2.38292041015625,-0.6573100625216961,-1.364887838512659,0.5686024725535884
1727009943363958300,2.392958251953125,-1.7673545404374598,-0.9648650226086377,-0.4246882879419252
1727009943373996500,2.40299658203125,-0.5442635290563106,-0.17872984273135661,-0.9014331455312669
1727009943384034300,2.413034423828125,1.281868779042363,0.9237772254168987,-0.6171678025517612
1727009943394072600,2.423072509765625,1.8274509894818067,1.594865637922287,-0.1240537017026916
1727009943404110300,2.4331103515625,0.2171720938503742,0.4113502656042576,0.032083164415881035
1727009943414147300,2.443147216796875,-1.7057202143013477,-0.6055617551058531,-0.07992555043436586
1727009943424185600,2.453185546875,-1.2176853529453278,-1.2025398062616586,-0.12810889537762848
1727009943434223400,2.463223388671875,1.3358932146966456,-1.0591641855061054,-0.36259529478549957
1727009943444261600,2.47326171875,0.597422872313857,-0.4359522074192762,-0.3609351430209353
1727009943454299400,2.48329931640625,1.8627835841476916,0.37184184655845165,-0.00863404589779675
1727009943464337400,2.49333740234375,-1.1636784529477358,1.116433302170038,0.5095119491487741
1727009943474374700,2.503374755859375,-2.0098662427276373,0.22576631919443607,0.4911142322687432
1727009943484412400,2.513412353515625,-0.13938742790222167,0.05833294650316238,0.09726418671552091
1727009943494450700,2.52345068359375,0.9227379454970359,-0.36825229763388634,-0.38962767861783504
1727009943504488400,2.533488525390625,1.3918617701560259,-1.7251076363384723,-0.8831011508312075
1727009943514526500,2.5435263671875,-1.2649679131239653,-1.1457102500587701,-0.9070439711503684
1727009943524564500,2.553564453125,-2.347003855651617,-0.08163023546040057,-0.958886386590451
1727009943534602500,2.5636025390625,-2.203828725904226,0.8879904572427272,-1.1747751626320182
1727009943544639200,2.57363916015625,0.01371989779472351,1.7654805632591246,-1.507947671317309
1727009943554677500,2.583677490234375,1.3270593353778124,1.4177286173403263,-1.6606754961773753
1727009943564715300,2.59371533203125,-0.23520342510342596,0.682810414481163,-1.336945500228554
1727009943574753500,2.60375341796875,0.22963643862605093,-0.03604688041508198,-0.9117755297169089
1727009943584791800,2.613791748046875,-1.6126047082304953,-1.2060866850882768,-0.7679642940230668
1727009943594830000,2.623830078125,-0.028431144714355466,-0.7508218744337558,-0.572799668515101
1727009943604867800,2.633867919921875,0.09939093307852745,0.5308931753516197,0.04263309040497988
1727009943614904800,2.64390478515625,-0.006685176852345466,1.262679509925842,0.7337151106797158
1727009943624943000,2.653943115234375,-0.7721615995824337,1.7776140686452389,1.0266907796636222
1727009943634980900,2.66398095703125,-1.4583634100675582,1.356577106285095,0.7982597713045776
1727009943645019000,2.674018798828125,-0.7181476853221654,0.2788999434888363,-0.047365598819591105
1727009943655057000,2.684056884765625,1.851793988099694,-0.7390788296699523,-1.0288288146056235
1727009943665095000,2.694094970703125,1.268867843171954,-1.0106535448372362,-1.1846423305213452
1727009943675133000,2.7041328125,1.5551567278683185,-0.541478282251954,-0.5846570969061926
1727009943685170000,2.714169921875,0.6157441264241933,0.10328560242950915,0.37089192542247473
1727009943695208000,2.7242080078125,-2.788773809438944,1.0999977156758307,1.1666738353714345
1727009943705246000,2.734245849609375,-3.3850311451047657,0.9175082281500101,1.2309846872404218
1727009943715284000,2.744283935546875,-1.1948299625366925,0.5015887549340725,0.7638596351832151
1727009943725322000,2.754322021484375,0.8990478578299284,0.1981675336509943,-0.06262132787946612
1727009943735360000,2.764360107421875,2.244991926419735,-1.5075620330005883,-1.0149958118252456
1727009943745397800,2.774397705078125,1.9133739537000656,-1.3922721045225859,-1.1793809028618036
1727009943755435000,2.78443505859375,-0.6169856509178877,-1.5128367585331202,-0.5210952367736026
1727009943765472800,2.79447265625,-0.5117173502385616,-0.5286643933862447,0.6908198256745934
1727009943775511000,2.804510986328125,-2.845817885175347,1.1851970417946576,1.5094614368811248
1727009943785548800,2.814548828125,0.1623427715539932,0.949513724219799,1.1345035041287541
1727009943795586800,2.8245869140625,0.4653454751640558,1.234579789122939,0.2394223214400932
1727009943805625000,2.834625,-1.8419868798345327,0.40827451142072674,-0.4632048464061692
1727009943815662800,2.844662841796875,0.8195628177046775,-1.0888754331588744,-0.395913773149997
1727009943825699800,2.854699951171875,-0.23699907634854314,-0.49125966862142084,0.7144299799732864
1727009943835737900,2.86473779296875,1.09250180696249,-1.268757953056693,1.7038057589821516
1727009943845776000,2.87477587890625,-1.6884043378412723,-0.617680647444725,1.9954018101759254
1727009943855814000,2.88481396484375,-2.9845190843790768,0.26022271554768084,1.302779465124011
1727009943865852000,2.894851806640625,2.48469149389863,0.5393155512601137,0.10407982154712081
1727009943875890000,2.904889892578125,1.7386375645190477,1.1629852099865674,-0.8775160441752523
1727009943885927000,2.914927001953125,2.4048797060370446,0.47020928180813787,-1.2116491415210067
1727009943895965000,2.92496484375,-0.34637831947803494,-0.2247925057262182,-0.5200260366395115
1727009943906003000,2.9350029296875,-3.3059996939659118,-0.8242828319638967,0.7453191853642464
1727009943916041000,2.945041015625,-0.46390579774975776,-0.048719899505376814,1.957227123951912
1727009943926079000,2.955078857421875,1.7614467776983975,-0.2131073286294937,2.4438544565975664
1727009943936117000,2.965116943359375,1.7167887208044528,0.4850374331057071,1.7591244722306727
1727009943946154800,2.97515478515625,0.9805272866427898,0.36172318812608717,0.4214741847336292
1727009943956192000,2.98519189453125,-2.9899352642089125,-0.007138181316852569,-0.5329124792847783
1727009943966230000,2.99522998046875,-1.3462521116256714,-0.6365168653398752,-0.5625838333185762
1727009943976267800,3.005267822265625,0.04101882360875606,0.5918015253007411,0.5031150146532803
1727009943986306000,3.01530615234375,0.40148178254067896,-0.02298866139948368,1.6470339243158698
1727009943996343800,3.02534375,-1.1899310845792292,0.5711521205037832,1.9967646229617297
1727009944006382000,3.035382080078125,-0.8409510581701993,0.008773673564195632,1.3652639783486724
1727009944016419800,3.045419921875,-1.3508335941970349,0.2078133138746023,0.5669012581262737
1727009944026458000,3.0554580078125,1.041706270226836,-0.20425591365396975,0.18236140416674315
1727009944036494800,3.065494873046875,0.8622527893960475,0.5833423245131969,0.37242600312195717
1727009944046532900,3.075532958984375,-0.07557634224891663,0.2796019542783499,0.5425635932706296
1727009944056571000,3.08557080078125,-2.742168710130453,0.7331260587453842,0.6861635973665863
1727009944066609000,3.09560888671875,-1.821875819697976,0.8363859422117471,0.8933583409514277
1727009944076647200,3.105647216796875,-0.763826317435503,1.5407628763347863,0.9821218623578548
1727009944086685000,3.115684814453125,-0.12985446040332316,1.1014005682110786,0.6862291368834674
1727009944096723000,3.125722900390625,0.9968693496346474,0.9656313308060168,0.33950098105445503
1727009944106760000,3.135760009765625,1.133248243370652,-0.044161213287711144,-0.11344678482934832
1727009944116798000,3.1457978515625,-0.9415133731156587,-1.0779559797376395,-0.4360648740135133
1727009944126835700,3.155835693359375,-3.0479040535748,-1.224406185632944,-0.10483699658997356
1727009944136874000,3.1658740234375,-3.5586651260018347,-0.28700024783611294,0.4515185367982834
1727009944146911700,3.175911865234375,1.7864660681426523,1.2644640552550555,0.39481859832443295
1727009944156950000,3.185949951171875,1.8238158478498459,1.806737871798873,0.1012971320260316
1727009944166987000,3.195987060546875,-1.17976566439569,1.5427672018945215,0.12609744595736264
1727009944177024800,3.206024658203125,-2.076393601602316,1.1815461180716753,0.4200719167202711
1727009944187063000,3.21606298828125,-0.9364467373758554,0.5354957007110118,0.7811873482115567
1727009944197100800,3.226100830078125,1.897552115190029,0.4702075282424688,0.8046757758267223
1727009944207139000,3.23613916015625,1.2900111689656972,-1.0298305389940738,0.14898366989567874
1727009944217176800,3.2461767578125,-1.0927058051019907,-1.5533341886162757,-0.6475193208694457
1727009944227214800,3.25621484375,-0.23585867414176462,-0.888335909679532,-0.7524756329901516
1727009944237252900,3.2662529296875,-0.6258382349371909,-0.24113515323996543,-0.043844548553973434
1727009944247289900,3.276289794921875,1.1393623423367738,0.12387713955938816,1.0013391885250806
1727009944257328000,3.286328125,0.3809919522196054,0.7420201438188553,2.162295815293491
1727009944267366000,3.296365966796875,-1.9370020820468663,0.33872868150770663,2.71311738769114
1727009944277404000,3.30640380859375,-0.2706295432716608,0.17200608743429183,2.081560336715728
1727009944287442000,3.31644189453125,-1.1372346826583146,-0.04633505019545555,0.7102779748603701
1727009944297480000,3.32647998046875,-0.6981003380715847,-0.8138485317111015,-0.7113876896679401
1727009944307518000,3.33651806640625,-1.3300433196246624,-0.13008593107163904,-1.2393418889582157
1727009944317555000,3.346554931640625,-2.0945149492263795,0.48755029270946976,-1.0446642432495952
1727009944327593000,3.356593017578125,0.36934769165515896,0.8656324949622154,-0.8190687505774199
1727009944337631000,3.366630859375,1.4680851781368254,0.8455208503037691,-0.7958088710211217
1727009944347669000,3.3766689453125,0.3433890745341778,-0.31728257337510585,-0.4437643424749374
1727009944357707000,3.38670703125,-0.5199269601792097,-1.0172609802782535,0.45035029673650856
1727009944367745000,3.3967451171875,-1.236888650587201,-1.3118705340743064,1.494941182488948
1727009944377782800,3.40678271484375,0.4408224438041448,-2.2470903600037095,1.9438227218471467
1727009944387820000,3.416820068359375,1.9299720372796056,-1.9674597641527651,1.6790886663548648
1727009944397857800,3.42685791015625,0.8043728473573922,-2.2777140463262797,1.0654204694218934
1727009944407896000,3.43689599609375,1.0218138212770222,-2.0090134252905845,0.5153381710842252
1727009944417933800,3.446933837890625,0.7192237901210784,-1.6039543687850235,0.12947875895872712
1727009944427971800,3.456971923828125,-0.46342181362509727,-0.8760258786827325,-0.18448197651728987
1727009944438009900,3.467009765625,-0.2697895853161812,-1.0255366411924363,-0.21744360426813364
1727009944448047900,3.4770478515625,-0.2938473372519016,-0.30886370459795,0.328353856357187
1727009944458084900,3.4870849609375,1.901660719552636,-0.29707565164864064,0.6507106642566621
1727009944468123000,3.497122802734375,4.428485720303654,0.3992565077066421,0.25911007813066245
1727009944478161000,3.507160888671875,0.24081249715685843,-0.31810674923956395,-0.5763762848928571
1727009944488199000,3.517198974609375,-3.565529751074314,-1.1131962199449539,-0.7462636266075074
1727009944498237000,3.52723681640625,-5.2596156416833395,-0.18227087633907793,-0.03385784593820572
1727009944508275000,3.53727490234375,-0.7318687521606684,0.36272798125445843,0.3428608128763735
1727009944518313000,3.54731298828125,2.4975948146134614,0.6893833631306886,-0.1896986882522702
1727009944528350000,3.557349853515625,2.2936872760057447,0.38180151503682136,-1.0945230836570263
1727009944538388000,3.567387939453125,-0.8404273265570401,-1.1695096433192491,-1.079151473132521
1727009944548426000,3.577426025390625,-3.1777672818064686,0.10541969184875488,0.30230376156046984
1727009944558463700,3.587463623046875,-3.439057918846607,0.41728900800347324,1.8714269093304872
1727009944568502000,3.597501953125,-0.505929414486885,1.9562480497866868,2.4221784852318464
1727009944578539800,3.607539794921875,2.040645411872864,2.3942244565099475,1.8185219792254268
1727009944588573400,3.617573486328125,-0.7273065588116645,0.7313269003689289,0.7996154236972332
1727009944598610400,3.6276103515625,-0.9450403781980276,0.21269582521915434,0.05904036412015557
1727009944608648400,3.6376484375,-0.7148965745717286,-0.19158698621690273,-0.17239143349006772
1727009944618686500,3.6476865234375,1.0209855537593364,-0.8790922805160284,0.21887363707125185
1727009944628724200,3.65772412109375,0.2545084295541048,-0.04691489591002464,1.1685770386442542
1727009944638762500,3.667762451171875,-0.9001303923696279,0.5150386036157608,1.7449045159593224
1727009944648800300,3.67780029296875,1.4936211859315633,1.6316379100024698,1.1776098015360534
1727009944658838500,3.687838623046875,1.2650105832219123,1.67488726914227,-0.052511839134246105
1727009944668875500,3.69787548828125,-4.099993186128139,0.13509762175381182,-0.7609836413554847
1727009944678913300,3.707913330078125,-4.386722800329327,-0.3304033362329006,-0.5671043064177036
1727009944688951600,3.71795166015625,-1.1098100846379995,-0.07461655730605125,0.22738398352414368
1727009944698989300,3.7279892578125,4.373773302385211,-0.5383201104819775,0.35657544997408985
1727009944709027600,3.738027587890625,3.566175063240528,-0.2714244930416345,-0.3175219350889325
1727009944719065300,3.7480654296875,-1.4984212796896694,-1.4498048405587671,-1.022274278395623
1727009944729103400,3.758103271484375,-2.272151151502132,-0.3115320470243692,-0.6806843622379004
1727009944739140600,3.768140625,-0.30434067421555516,0.5313263060718775,0.3644723407037556
1727009944749178400,3.778178466796875,1.7806360468149185,0.8767787428766488,0.8068336845129728
1727009944759216400,3.78821630859375,1.2741156806975602,0.7139689383327961,0.42608416274711486
1727009944769254400,3.79825439453125,-1.5711042385846377,-0.5882224977701902,-0.21748817406222223
1727009944779292400,3.80829248046875,1.0053829109579324,-1.9672469981849192,-0.3522155011989176
1727009944789330400,3.818330322265625,0.7769494183808565,-1.0095973137825727,0.4593059027388692
1727009944799368400,3.828368408203125,0.35653789444267747,-1.360184190866351,1.2967080362558363
1727009944809405400,3.838405517578125,-2.2212767043113706,-0.6764870566785335,1.4376524843417107
1727009944819443500,3.848443359375,-2.8868028065145013,-0.08052315100133418,0.7113646010532975
1727009944829481500,3.8584814453125,1.0077718519210814,0.33725919347703454,-0.4759140693210065
1727009944839519500,3.86851953125,2.370512157011032,1.1324731673449278,-1.5468647003412246
1727009944849557500,3.8785576171875,3.9486534546256062,0.06883037512004375,-1.7632329304628074
1727009944859595500,3.888595458984375,0.6761398506760596,-0.6646200932741165,-0.4388170953311026
1727009944869633500,3.898633544921875,-5.023592132368684,-0.12439970212876796,1.844028030273318
1727009944879670300,3.908670166015625,0.8594950151205062,-1.1024433552622794,3.0767063696891066
1727009944889708500,3.91870849609375,1.2069669750541447,-0.9666653500288724,2.5416443842202425
1727009944899746300,3.928746337890625,1.386777014237642,-1.2099831080049275,0.5271826303958892
1727009944909784300,3.938784423828125,-0.8631722423285245,-0.8184457963734865,-1.2290791458800434
1727009944919822300,3.948822265625,3.1354823837846517,-0.612848404982686,-1.6141982610322534
1727009944929860400,3.9588603515625,2.3701140976041555,1.07888712310791,-0.492546201300621
1727009944939898400,3.9688984375,-1.4508277538657188,0.11133680693805217,1.0410575970597564
1727009944949935400,3.978935302734375,-5.999097206935287,0.543082210317254,2.0796686777502296
1727009944959973400,3.988973388671875,-2.1796634219408033,-0.34158699354827404,1.7953293196864426
1727009944970011400,3.999011474609375,6.68558134149313,-0.20973697541356084,0.6592473141945898
1727009944980049400,4.00904931640625,2.189720705574751,-1.2080401572436092,-0.2802240316994488
1727009944990087400,4.01908740234375,-1.3238999945640564,-1.8464812686443328,-0.3864497061688453
1727009945000125400,4.02912548828125,-0.8929466183453798,-1.2898434111833572,0.13655534628145397
1727009945010163200,4.0391630859375,1.391535022419691,0.020702011767029762,0.7321304718367755
1727009945020201500,4.049201416015625,2.0986884355187416,0.7043202354997397,0.7200516923125833
1727009945030238500,4.059238525390625,-1.5265607479810714,0.33802257906496525,-0.08978979571424424
1727009945040276500,4.0692763671875,-1.8929618647903204,0.007730301991105079,-1.565226578722894
1727009945050314500,4.079314453125,-0.31119243980646133,0.36591421007513997,-2.8123201047211883
1727009945060352300,4.089352294921875,2.3636533771574495,0.09075345311462879,-3.0809052826836703
1727009945070390500,4.099390625,1.936031191188097,0.03375263199806213,-2.0523758894160387
1727009945080428300,4.10942822265625,-1.9223843586295841,0.2640098328709602,-0.36274785499870776
1727009945090465300,4.11946533203125,-3.3711844060599803,0.8172247301459312,0.7037522994186729
1727009945100503600,4.129503662109375,-1.6438748757630586,0.6179986273527145,0.4798888181708753
1727009945110541300,4.139541259765625,0.5430079760372638,0.7894114250689744,-0.4472761499881744
1727009945120579600,4.14957958984375,0.36962358598709105,0.373027256950736,-1.03731651083529
1727009945130617300,4.159617431640625,-4.799676993998885,-0.40616029574573037,-0.6738996705338358
1727009945140655600,4.169655517578125,-2.516815647912025,0.43231238961219787,-0.08095518574304879
1727009945150693400,4.179693359375,8.628428057914972,1.9579922631055116,0.12072492260616272
1727009945160730400,4.18973046875,-3.8539381121426817,0.2534434306710958,0.6135949855662882
1727009945170768400,4.199768310546875,-0.9253472512125969,0.8326204521983861,0.3806616242866963
1727009945180806400,4.209806396484375,-0.2887970681250095,1.1682803937852382,-0.6589934124987572
1727009945190844400,4.219844482421875,-5.426757922473549,0.18722353031039238,-1.5447271037906407
1727009945200882400,4.22988232421875,1.45440619687438,1.1862170324921608,-2.175342928393185
1727009945210920400,4.23992041015625,1.7663789734035729,0.7864607585698365,-1.8005831485614179
1727009945220958500,4.24995849609375,0.8087135069102048,-0.3333803062170744,-0.3296661079995334
1727009945230995500,4.259995361328125,1.0183423457741736,1.4073393252730368,1.355359547188878
1727009945241033200,4.270033203125,-0.536252656558156,0.6044271981179714,2.0653101897910235
1727009945251071500,4.280071533203125,-0.3335094855546951,0.26871757217049597,1.288879826848209
1727009945261109200,4.290109130859375,-4.176819820699095,0.7256833415240049,0.0784830965410918
1727009945271147500,4.3001474609375,-1.8073229782104492,-0.5527542940258979,-1.0088577474616467
1727009945281185300,4.310185302734375,2.8246716367721554,0.9452963987857103,-1.2293097397655248
1727009945291223600,4.3202236328125,0.7740519433736801,0.30732290489673614,-0.09374934699498116
1727009945301260500,4.330260498046875,1.0828303077757357,-0.059521279504895205,1.5073305623322724
1727009945311298300,4.34029833984375,-6.756802411141991,-0.2256809789985418,2.7370822006464004
1727009945321336600,4.350336669921875,-6.522493889051676,-0.014877251136302947,2.5342574888393283
1727009945331374300,4.360374267578125,9.840748668956756,3.0536534108817577,1.1166590737499296
1727009945341412400,4.370412353515625,5.67153873873949,1.299198684027791,-1.5906595645345747
1727009945351450400,4.380450439453125,-0.5987158347338438,-0.7919874130368232,-3.845929577732086
1727009945361488400,4.39048828125,1.811187836945057,-1.4746885219246149,-4.705145191389322
1727009945371525600,4.400525634765625,-9.595145430392026,-3.1411370485454797,-1.7386524698272345
1727009945381563400,4.4105634765625,-4.537958486935496,-0.3708189332515001,1.8266852658063173
1727009945391601400,4.420601318359375,3.022598347404599,-0.22490473392903804,3.9071161601006983
1727009945401639400,4.430639404296875,4.785388356405496,0.9783107796370982,4.319404583337903
1727009945411677400,4.440677490234375,1.7813298742979764,3.2713311161667105,2.933718286946416
1727009945421715500,4.450715576171875,-3.1066940961956977,1.3643454021990298,-0.7822676907941699
1727009945431753500,4.46075341796875,-2.030302881556749,-0.682616353213787,-4.240527738238871
1727009945441790500,4.47079052734375,0.6182242528021336,-1.7027449978828428,-5.5198973939418785
1727009945451828500,4.480828369140625,1.2273486688256263,-1.8313643635332584,-3.2967209934890267
1727009945461866500,4.490866455078125,1.6965806300342081,-1.4224556458622217,1.617558092854172
1727009945471904500,4.500904541015625,0.36667350400984283,-0.2591875272810459,5.589506352218986
1727009945481942500,4.510942626953125,-1.7211574374079703,0.21480828732848167,5.657015707868338
1727009945491980300,4.520980224609375,-3.2571780876517296,-0.12836685219407082,2.2608644722037017
1727009945502018600,4.5310185546875,-0.8595376852184533,-0.04208732962310314,-1.7417033818304537
1727009945512055300,4.54105517578125,0.0542494765818119,0.5344307018280029,-4.093355355548859
1727009945522093600,4.551093505859375,1.4545049810737372,-1.0434048908382654,-3.3913802218705413
1727009945532131300,4.56113134765625,1.543247678887844,0.03157002726197242,-0.8715466874420642
1727009945542169300,4.57116943359375,-1.7297288663983343,-0.8765227222889661,1.7083806656822562
1727009945552207400,4.581207275390625,-1.8399544972240924,-1.1439344725579024,2.8409719064489005
1727009945562245400,4.591245361328125,-0.610393997567892,-0.32512627261281013,2.343304124350846
1727009945572282400,4.601282470703125,-0.992431074926257,0.3721212480217218,1.0202825200565158
1727009945582321000,4.61132080078125,0.7016296812415123,1.0920534786731004,-0.3447515950590372
1727009945592359000,4.62135888671875,0.6561287437826394,1.0949772571653127,-0.9475482693657279
1727009945602396700,4.631396728515625,0.8722013519585132,0.8729407721489667,-0.4742163254924118
1727009945612435000,4.64143505859375,0.29858956334292885,-0.13157996902167796,0.8790525330275296
1727009945622472700,4.65147265625,-1.5397329487651585,-0.9193436268836259,2.29258691354841
1727009945632511000,4.661510986328125,-0.5842103395193815,-0.9325129050582647,2.9656390273422
1727009945642548000,4.6715478515625,-1.8260007906734943,-1.0874573830544947,2.7879060866937038
1727009945652585700,4.681585693359375,-1.4617992297351359,-0.2253554003059864,1.8840696794129907
1727009945662624000,4.6916240234375,1.0003659595787524,0.9841893162816763,0.6519469280533492
1727009945672661800,4.701661865234375,1.9720342324614524,0.6540525220304727,-0.5047954420208931
1727009945682700000,4.711699951171875,4.528990167582035,-0.692846070805192,-1.0881111707881093
1727009945692737800,4.72173779296875,-7.027090009108186,0.2861269721329212,0.18047464057207108
1727009945702776000,4.731776123046875,-7.642885573458671,-0.7889549134731292,1.7404373074173927
1727009945712812800,4.741812744140625,6.0067047593295575,0.135425538533926,1.765886221450567
1727009945722850800,4.751850830078125,4.464093624779582,0.30756197434961796,-0.25284546477794645
1727009945732888800,4.761888916015625,1.5196224731504917,0.13917407741248608,-2.6057109059393406
1727009945742926800,4.7719267578125,-3.2870535859555003,-0.5545329941362143,-3.562643966504931
1727009945752964600,4.781964599609375,4.366019034996628,-2.9228946951150894,-2.7303619524806737
1727009945763003000,4.7920029296875,-1.1012602829575537,0.8450240066975354,-0.2883041700415313
1727009945773041000,4.802041015625,3.009583967530727,-2.6056881095856426,2.2792780807726083
1727009945783078000,4.812077880859375,-1.175108778500557,-0.21763561970889567,3.8532507144004104
1727009945793116000,4.822115966796875,-0.9995832847684621,-2.3001859903752804,2.8348785580098625
1727009945803153700,4.832153564453125,0.089145433396101,-0.32739889371991154,0.3545905597671866
1727009945813192000,4.84219189453125,0.25132395429909227,-0.3563724747478962,-2.029249573111534
1727009945823229700,4.852229736328125,1.2705045044630765,-0.2581295426607132,-2.7680244513988495
1727009945833268000,4.86226806640625,-2.0103110638856885,1.3773334785878657,-1.8911410791039465
1727009945843305700,4.8723056640625,3.338060135093331,-0.37584056080579753,-0.849405217456445
1727009945853342700,4.8823427734375,-0.42530747928619383,1.2114338913351297,0.3814312934849411
1727009945863381000,4.892381103515625,1.1167080274581909,-1.5764070211678742,1.0593422454867512
1727009945873418800,4.902418701171875,1.0828192018598317,-2.0821300994277,1.3348174021586774
1727009945883457000,4.91245703125,-2.8910306533426047,-1.659422573506832,1.2626271952167152
1727009945893494800,4.922494873046875,2.1831752294540405,-1.7334364887446163,0.6752719087351113
1727009945903532800,4.93253271484375,2.6398890698730946,-0.7929536277204752,0.247415914009884
1727009945913570000,4.942570068359375,0.5229758263558149,0.22349369808733463,0.40097266397476194
1727009945923607800,4.95260791015625,-0.005659340935945511,-0.4190840747267008,0.7437646493986249
1727009945933645800,4.962645751953125,-0.09286533070206641,0.5122638782054185,1.1067699132245032
1727009945943683800,4.972683837890625,-4.103257156360149,0.6204927822560071,1.1229586853507905
1727009945953721900,4.982721923828125,0.7862836484372615,-0.42082536543607707,0.12914514309018849
1727009945963759900,4.992759765625,1.346528590479493,1.043036057525873,-1.4919780948996544
1727009945973798000,5.0027978515625,1.9064485383510588,1.1808493679791687,-3.1837960405766963
1727009945983834600,5.012834716796875,2.2911849377959967,0.6603308716475963,-3.6339775566175576
1727009945993873000,5.022872802734375,-2.8308336665332314,0.3916384339183569,-2.021445621362328
1727009946003910700,5.03291064453125,-2.4798709418743847,0.12284779651165008,0.4488106660790741
1727009946013949000,5.042948974609375,-3.1037106964707375,0.4766986438274383,2.5913266990169883
1727009946023987000,5.052987060546875,-0.9096756348282098,0.6899521029293537,3.0311446419537065
1727009946034025000,5.06302490234375,2.1776783856034276,0.690734777739644,1.7108955711126326
1727009946044063000,5.07306298828125,-0.19636428362131117,0.5132248321920633,-0.29316593085899945
1727009946054099700,5.083099609375,-0.9676502694129944,0.3029185324579477,-1.7955431085675955
1727009946064138000,5.093137939453125,-1.6397750392287969,0.6257312674313783,-2.384999532046914
1727009946074175700,5.10317578125,-2.43931564412415,0.9679951373279094,-2.198885132022202
1727009946084213800,5.1132138671875,0.8886147266209125,1.0109130725562572,-1.5730419286489485
1727009946094251800,5.123251708984375,0.9127946436315775,0.964284592372179,-0.4839677215149626
1727009946104289800,5.133289794921875,-1.6466741510927676,0.9369663773357868,0.6610206074774265
1727009946114327000,5.1433271484375,-2.096017170482874,0.6074708035975694,1.1464326460491865
1727009946124364800,5.15336474609375,-0.28959260241687296,1.1182792222976683,0.7287836456269026
1727009946134402800,5.16340283203125,1.0610784946948288,1.0155693739295004,-0.3387327366283163
1727009946144440800,5.17344091796875,1.63314831456542,0.1486930163860321,-1.0667285563457756
1727009946154478800,5.183478759765625,-2.1405092231601475,0.15127368052899837,-0.5486536172414198
1727009946164516900,5.193516845703125,-2.7317314872682092,0.03808101659119129,0.5621619181120768
1727009946174555000,5.203554931640625,-0.6358920114398002,0.23091946417391299,1.1762748996704817
1727009946184592000,5.213591796875,-0.49253626442849635,0.5826379756361246,1.1140718337357043
1727009946194630000,5.2236298828125,1.319309159642458,0.1543096872240305,0.581405365101248
1727009946204668000,5.23366796875,1.4147475557029245,0.9106757517814635,0.41001631358675655
1727009946214706000,5.243705810546875,0.5772065982371568,0.2632522925019264,0.5390320581436157
1727009946224744000,5.253743896484375,-1.0233481912374496,0.33902971028089524,0.4625204808712005
1727009946234781700,5.26378173828125,-3.7662194966793057,-0.6452759258568287,0.07268332422114908
1727009946244820000,5.273820068359375,-0.27753333131074903,-0.3520505198955536,-0.29021913681738076
1727009946254856700,5.283856689453125,3.0180706408470868,0.1168558626204729,-0.14169957730211316
1727009946264894700,5.293894775390625,2.899905449193716,0.7469605228304863,0.4834397886507213
1727009946274932700,5.3039326171875,-0.29557109230458734,0.7685907553583383,0.7724082678198814
1727009946284970800,5.313970703125,-3.3387212293505666,0.12370587464570998,0.24888942062854766
1727009946295009000,5.324009033203125,-2.044389859098196,0.35422611036896706,-0.6179251967903227
1727009946305046800,5.334046875,0.16541209599673748,0.08718903863131999,-1.0088978602763266
1727009946315083800,5.344083740234375,2.952545152491331,0.09183131147921085,-0.5225426225703209
1727009946325121800,5.354121826171875,1.1286708524525164,-0.28250878163576126,0.44519181799478824
1727009946335159800,5.364159912109375,-2.8497639924526212,-0.42433015868663787,1.1512862966254354
1727009946345197800,5.37419775390625,-3.2407430856794117,-0.3309060250580311,0.8103186770845204
1727009946355235800,5.38423583984375,0.36037235803902146,-0.11044716462194919,-0.22840645843967794
1727009946365273900,5.39427392578125,1.2270260127425192,0.974644658344984,-0.8846639431685209
1727009946375312000,5.404311767578125,0.7872586309492587,0.6754068602263927,-0.8113334801502525
1727009946385348900,5.414348876953125,1.3023650391042232,0.42098435539007184,-0.340086671987921
1727009946395387000,5.424386962890625,-1.738981847912073,-0.19380933844149112,0.27423545880913736
1727009946405425000,5.4344248046875,-2.2880530695110557,-1.3948328949213027,0.6931913771115243
1727009946415462700,5.444462646484375,-1.636533280828595,-0.8494055827826261,0.9359666987739503
1727009946425501000,5.4545009765625,-1.1169774920493363,-0.7802882074147462,1.1937464050836861
1727009946435538700,5.46453857421875,2.2305103966027495,0.44722646562755103,1.1143734470307827
1727009946445576000,5.474575927734375,1.6570511682003735,0.5523088883459568,0.58768663732782
1727009946455614000,5.484614013671875,-0.06177578043341636,0.4294534930497408,-0.14748685546666382
1727009946465651700,5.494651611328125,-3.2314556173741815,-0.3107213151633739,-0.5446398150227963
1727009946475690000,5.50468994140625,-0.7439455589234828,-0.2788736400038004,-0.5225102546706796
1727009946485727700,5.514727783203125,-0.38846681814491746,-0.7114864738672971,-0.13892083330377936
1727009946495766000,5.52476611328125,1.9945149443387984,0.010014613536000251,0.12349383933022617
1727009946505803800,5.5348037109375,0.9055693685531616,-0.07157470539212227,0.20339637421518564
1727009946515840800,5.5448408203125,0.5228501541495323,-0.42130934956073757,0.18501666791588067
1727009946525878800,5.554878662109375,-1.058235964745283,-0.3810258544892072,0.3308846900090575
1727009946535916800,5.564916748046875,-2.532996382862329,-0.7900567372351884,0.6598097703829408
1727009946545954800,5.574954833984375,0.21539164017438886,-0.37172611122429366,0.907562295936048
1727009946555992800,5.584992919921875,0.6358820745676755,-0.6143488726735115,0.9248188434243202
1727009946566030800,5.59503076171875,0.698247053065896,0.14117431131899355,0.837012841938436
1727009946576067800,5.60506787109375,-0.06161445239186287,-0.8872720798403024,0.4825293958075344
1727009946586106600,5.615106689453125,-0.8809259256839752,0.14880875172019004,0.0021408114209771154
1727009946596144400,5.625144287109375,-1.6571189727395772,0.08130524128973483,-0.2327794128268957
1727009946606182400,5.635182373046875,1.4658131415516138,0.41558454217314716,-0.05721358708441257
1727009946616220400,5.645220458984375,1.187917406669259,0.5548907215327024,0.39279315691143274
1727009946626258400,5.655258544921875,1.2515969748973845,0.3492828087478876,0.5728543943770229
1727009946636295400,5.66529541015625,1.596840737387538,-0.11043255157470702,0.24327421109527347
1727009946646333400,5.67533349609375,-0.18031740418374537,-1.121905596101284,-0.18966054819896816
1727009946656371500,5.685371337890625,-1.7673662308752536,-1.3259768008381128,-0.2503783440120518
1727009946666409500,5.695409423828125,-0.18510113132894038,-1.4554074828714132,-0.1364813311971724
1727009946676447500,5.705447509765625,3.249681594416499,-0.24029402624070642,-0.07269859485551715
1727009946686485500,5.715485595703125,1.0069207880496978,0.04386544521152973,0.0770066673129797
1727009946696523500,5.7255234375,-2.6054800197929144,-0.7453519185900688,0.2756798123985529
1727009946706560300,5.735560302734375,-6.688605657750368,0.23044892405271528,0.7185651800818741
1727009946716598500,5.7455986328125,-0.7327975574433803,-0.26953940994739534,0.9195286280617118
1727009946726636300,5.75563623046875,4.392789553022384,1.3392208978146314,0.6833220172651112
1727009946736674300,5.76567431640625,5.315469630852341,0.4217763825505972,-0.21011180007532237
1727009946746712300,5.77571240234375,1.65153737321496,-0.7931202164590359,-0.8849129494935274
1727009946756750300,5.785750244140625,-2.2712071486502885,-1.1707324631124734,-0.6538960162945091
1727009946766787600,5.79578759765625,-1.8284651349604129,-1.7806074052423237,0.06203318926058709
1727009946776825300,5.805825439453125,-2.8299112909913062,-0.09541443066298962,0.7542701151914895
1727009946786863400,5.81586328125,0.25013912842869757,-0.2186748996287584,0.6311251623641699
1727009946796901400,5.8259013671875,1.0793190847843885,1.1768033074587583,0.3631545361034572
1727009946806939400,5.835939453125,2.2095909426927567,1.1004466284871102,0.42279301224723453
1727009946816977400,5.845977294921875,2.101020093336701,0.3560083176106214,0.8495862731117755
1727009946827015400,5.856015380859375,0.07058510983288288,-0.6370072792053222,1.2841805631160734
1727009946837052400,5.866052490234375,0.6660030720651149,-2.262130692747235,1.5898212140142918
1727009946847090400,5.87609033203125,-0.4743646479219198,-2.1125041949033734,2.2533611108362672
1727009946857128400,5.88612841796875,-0.29349136342108245,-1.8361866691231727,2.9364789838314054
1727009946867166500,5.89616650390625,0.18475334080457687,-0.5207154802083969,2.98327259144932
1727009946877204500,5.90620458984375,-0.1331552555143833,1.152111349272728,2.137820714728534
1727009946887242200,5.9162421875,0.21972411642074582,0.923483795428276,0.7843620327249169
1727009946897279500,5.926279541015625,0.7586696653246879,1.1614712982922792,-0.29294965775981546
1727009946907317500,5.9363173828125,-1.1690578078985214,0.9033961161673069,-0.7207542876239865
1727009946917355500,5.94635546875,-1.182621053826809,-0.19581717113256453,-0.7306593033056705
1727009946927393500,5.9563935546875,-1.8767606715738772,-0.3562099776625633,-0.5673730403564871
1727009946937431300,5.966431396484375,-3.7153392042696476,0.03162906397283077,-0.3381430636394769
1727009946947469600,5.976469482421875,-0.8389905717521905,0.9318979880303144,-0.1586797190017998
1727009946957507300,5.98650732421875,1.5566075111985205,1.6046850211471317,0.07123699787035584
1727009946967544300,5.99654443359375,0.6296756211429834,1.9065438154190777,0.42052506731525063
1727009946977582300,6.006582275390625,0.7453770530313253,0.712958299985528,0.57847822560817
1727009946987620400,6.016620361328125,-1.0348036512315273,0.253672563251853,0.8105745515417307
1727009946997658400,6.026658447265625,-3.0991748066067695,-1.1045569864153861,1.1506163614746183
1727009947007696400,6.0366962890625,-1.3777905747056007,-0.994534769207239,1.334953449628502
1727009947017734400,6.046734375,0.9542506896138191,-0.29465222389400003,1.096907129249349
1727009947027771400,6.056771484375,0.6708288847863674,0.3026619273483753,0.5901845916233956
1727009947037809400,6.066809326171875,0.30504911474585533,0.9477876310795545,-0.1381804632652551
1727009947047847400,6.076847412109375,0.9786182381510734,0.3517874850451946,-0.9211261263862252
1727009947057885400,6.086885498046875,-1.3867699999749659,0.23283026623129843,-1.2170989313594995
1727009947067923200,6.096923095703125,-1.1454910543501375,-0.22760464053750037,-0.9843570009987801
1727009947077961500,6.10696142578125,-0.17106734527945516,0.5925801084578037,-0.22881482004486023
1727009947087998500,6.11699853515625,-0.416968690007925,-0.35525369985103605,0.6583496347025036
1727009947098036500,6.127036376953125,-1.059914711612463,0.7087655244708061,1.1797582848068326
1727009947108074500,6.137074462890625,-1.0770774433374404,0.4692524194747209,0.8520461604192853
1727009947118112300,6.1471123046875,1.3288830436736345,0.4239619098961353,-0.09841901930645108
1727009947128150500,6.157150634765625,0.935721930232644,-0.18096213182806967,-1.0684162902370096
1727009947138188300,6.167188232421875,0.6094786362886428,-0.6679881084024906,-1.5721585699431597
1727009947148226600,6.1772265625,0.5892191075921058,-0.815447783601284,-1.5406402728684245
1727009947158263600,6.187263671875,-1.2204846282750368,-0.6844435686409474,-1.0706566165097058
1727009947168301300,6.19730126953125,-0.5667103386640548,0.540351908570528,-0.4989924548305571
1727009947178339600,6.207339599609375,-0.14291735559403895,0.507386043035984,-0.1112897529259324
1727009947188377300,6.21737744140625,0.6043149699151515,1.1348697070926428,-0.18361060051023959
1727009947198415600,6.22741552734375,0.5025771814495325,0.38328386254906655,-0.6798980341657995
1727009947208453400,6.237453369140625,0.24394027378857133,-0.0352396556854248,-1.045069024658203
1727009947218490400,6.247490478515625,-0.33791794964671135,-1.4259925878167152,-0.8713589097850024
1727009947228528400,6.2575283203125,-1.9728321048408746,-1.4025170196831225,-0.0769824096545577
1727009947238566400,6.26756640625,-0.6365998674482107,-0.579246579632163,0.5224665616594255
1727009947248604400,6.2776044921875,0.974556980061531,-0.5744809726655483,0.506651299020648
1727009947258642400,6.287642333984375,0.21976737104058264,0.6899959420710802,0.25672493655979634
1727009947268680400,6.297680419921875,-1.2043091540217399,-0.13266542617082594,0.003933393926173448
1727009947278717400,6.307717529296875,0.250485165387392,0.5269038134545088,-0.21913740257397293
1727009947288755500,6.31775537109375,0.028063480445742604,-0.24449673862755297,-0.4268319123744964
1727009947298793200,6.327793212890625,1.0087269606888294,-0.008805237746238708,-0.5348302225396037
1727009947308831500,6.33783154296875,-0.4119552457600832,-0.8000602448552846,-0.3181720695607364
1727009947318869200,6.347869140625,-0.3191711636006832,-0.22585282843410967,-0.023802315869927405
1727009947328907500,6.357907470703125,-0.6852543005019426,0.19679098460078237,0.015897899420931935
1727009947338945300,6.3679453125,-1.649604943847656,0.12087678869962691,-0.1690604624364525
1727009947348982300,6.377982177734375,0.5058090029776096,1.1745523136615752,-0.31966230811849233
1727009947359020500,6.3880205078125,-0.026046295404434202,0.5677654006749391,-0.09369257530644536
1727009947369058300,6.398058349609375,-0.862960645404458,1.5060989747107028,0.40644714986309405
1727009947379096600,6.4080966796875,-1.653864939379692,0.6699503483861684,0.7040772205241024
1727009947389134300,6.41813427734375,-0.6857879689872265,0.3277414235472679,0.6183464909423142
1727009947399172400,6.42817236328125,-0.8717606224536896,-0.22548457964360713,0.44104339307844637
1727009947409209600,6.438209716796875,-0.7587929994434118,-0.9093594084858894,0.39564438162408766
1727009947419247400,6.448247314453125,0.0701397041529417,-0.008622866916656494,0.3825006762821227
1727009947429285600,6.45828564453125,0.49860652425289154,-0.84113635160923,0.12866956146769226
1727009947439323400,6.468323486328125,-0.14137480232715605,0.5484808544903993,0.02134469358474016
1727009947449361400,6.478361328125,-2.028315507131815,0.28569325689077374,0.16957674139551818
1727009947459399400,6.4883994140625,0.09230302064418792,1.5060627343535422,0.5459267860934138
1727009947469436400,6.4984365234375,0.36735388748943804,1.5074012894809246,0.7159907264839858
1727009947479474400,6.508474365234375,0.3620277240306139,0.6960235317975282,0.3087682813994586
1727009947489512400,6.518512451171875,0.3809264857679605,-0.1730360150039196,-0.3769865159705281
1727009947499550500,6.528550537109375,0.16963117499649524,-0.9885767375856638,-0.7294217243347316
1727009947509588500,6.53858837890625,-0.5694283654510974,-0.8572714938521385,-0.5391168868828564
1727009947519626500,6.54862646484375,0.00004208557605743408,-0.55584641482234,-0.2015969966430217
1727009947529663200,6.558663330078125,0.14787936191558837,0.4846259296953678,-0.14953509323336184
1727009947539701500,6.568701416015625,-0.20997136869132518,0.7895704150229692,-0.2826512588463723
1727009947549739300,6.5787392578125,1.4277262797415256,0.36394963200390335,-0.4561746189758181
1727009947559777500,6.588777587890625,0.866541426500678,0.6625754357039928,-0.29000673617571593
1727009947569815300,6.598815185546875,1.7982991292774677,-1.0207488223940133,-0.09046477236635983
1727009947579853600,6.608853515625,0.4852490300297737,-0.3474649456709623,0.25810703856796025
1727009947589890300,6.618890380859375,-1.7487410253822802,-1.4069938728362321,0.6663746818564832
1727009947599927300,6.62892724609375,-1.8882950420230626,-0.4940875855237245,1.0204602147109807
1727009947609965300,6.63896533203125,-2.024358293938637,0.04120411704778671,1.1670941796753556
1727009947620003300,6.64900341796875,0.5670750803232193,0.4941974756389856,0.9417795497711747
1727009947630041300,6.659041259765625,1.8375526967793703,0.9079740916073322,0.58265580355376
1727009947640079400,6.669079345703125,2.8907845696270464,-0.49742345194816584,0.23961378889158366
1727009947650117400,6.679117431640625,1.4045067321956157,-0.7496569223076105,0.5038179022256285
1727009947660154400,6.689154296875,-0.32471418468058105,-1.3000813120812178,1.3151207680419086
1727009947670192000,6.699192138671875,-2.653845114511251,-0.783531719380617,2.2060192216858265
1727009947680230400,6.70923046875,-1.638357573646307,-0.5297445898383856,2.3416131025239824
1727009947690268200,6.71926806640625,0.1499076528728008,1.1408195554077625,1.696944787171483
1727009947700306400,6.729306396484375,1.1572229931980371,1.1102835473686457,0.5968077360901981
1727009947710344200,6.73934423828125,-1.0997340963035822,0.7389122409313916,-0.23841325399540364
1727009947720381200,6.749381103515625,-0.5648731863647699,0.03917524156868458,-0.5402416531290859
1727009947730419500,6.75941943359375,1.2362059290200471,-1.1325444790154695,-0.021235972513258455
1727009947740457200,6.769457275390625,0.563565610897541,-1.208853811714053,1.4783414914742112
1727009947750495200,6.7794951171875,0.1534422567397356,-1.388450500407815,3.025757688218355
1727009947760533200,6.789533203125,-1.3582517614990472,-1.3866238695025443,3.625542028966546
1727009947770571300,6.7995712890625,-3.871298996788263,-0.37803076432645316,2.975922520947456
1727009947780608500,6.8096083984375,-1.9307406835645435,0.8211603160291909,1.246599897262454
1727009947790646300,6.819646240234375,1.4035095378518103,1.6828355977982281,-0.6322081352952867
1727009947800684300,6.829684326171875,0.5726975963801145,1.3199053719699383,-1.8347534214496612
1727009947810722300,6.839722412109375,0.1194400338947773,1.0541998410969973,-2.0892786560080943
1727009947820760300,6.84976025390625,0.24678163469433784,0.007239303603768349,-1.544674204559624
1727009947830798300,6.85979833984375,-0.6621820524722337,-1.3361340377151965,-0.5705344269968569
1727009947840836400,6.86983642578125,-1.8021563892275094,-1.2598270431041716,0.4259730305228382
1727009947850873300,6.879873291015625,-0.7611942153662443,-0.859573925575614,1.057434950560704
1727009947860911400,6.889911376953125,0.606871084138751,0.4574596903502941,1.136754790186882
1727009947870949400,6.899949462890625,1.48353759881258,1.547893458867073,0.4530946270085871
1727009947880987400,6.9099873046875,-0.4851408934801817,1.723448178693652,-0.653418023519218
1727009947891025400,6.920025390625,-1.854267100214958,0.8877619091838598,-1.5725642281346022
1727009947901063200,6.930063232421875,-1.0628747304618358,0.5430968233644962,-1.427772164709866
1727009947911100400,6.940100341796875,0.2985872252553701,0.11089198578000067,-0.21648973760940132
1727009947921138200,6.95013818359375,1.128494326841831,-0.15787176361978053,1.1345391599640249
1727009947931176200,6.96017626953125,0.24981179617047308,-0.5905944875985384,1.445828922665119
1727009947941214200,6.970214111328125,-1.6758417933881282,-1.0196569355040788,0.4669821364551782
1727009947951252200,6.980252197265625,-1.2756518042236566,-0.6327601431548595,-1.013410369264707
1727009947961290200,6.990290283203125,0.5137205067545175,0.054717678615450856,-2.0368213235400616
1727009947971327200,7.0003271484375,1.641716236424446,0.402471962621808,-2.1010905282244083
1727009947981365200,7.010365234375,0.6471154162436723,0.8217424998313189,-1.192008329244703
1727009947991403300,7.0204033203125,-2.1839678411364556,0.6965045933127403,0.08161058091185987
1727009948001441300,7.030441162109375,-1.951422821587324,-0.019973697492480277,0.8391305647447704
1727009948011479300,7.040479248046875,0.05780161610543728,0.7521615986049175,0.7400910754524171
1727009948021517300,7.050517333984375,5.880571949797869,0.23824527701735496,-0.3217575268320739
1727009948031554300,7.06055419921875,3.6161966929942366,0.2629822433888912,-1.4227388467177748
1727009948041592300,7.07059228515625,-4.874074355596304,-1.5205670605242252,-1.9475243528440593
1727009948051630300,7.08063037109375,-5.182486224773526,-1.249169455489516,-2.281408663060516
1727009948061668400,7.09066845703125,-0.13952771315574644,-1.346899761879444,-2.279666933959722
1727009948071706400,7.100706298828125,4.600645536994934,-0.19896131437718867,-1.6147881897494196
1727009948081744100,7.110744140625,3.798469322898984,0.2940817305296659,-0.4183761456530541
1727009948091781400,7.120781494140625,-0.7829571343630551,0.08373626782894134,0.4750573794264346
1727009948101819400,7.1308193359375,-4.856704703122377,-0.23585692057609556,0.2084451089721173
1727009948111857400,7.140857421875,-2.6592005040645597,-0.47435880270302294,-1.2813508926481008
1727009948121895400,7.1508955078125,0.8413292438328266,0.3029413288116455,-2.627231832873821
1727009948131933200,7.16093310546875,2.9849580603182315,-0.2717319515556097,-2.5029300381615758
1727009948141971500,7.170971435546875,3.5233868918716906,0.31806933983862395,-0.45817229559905825
1727009948152008200,7.18100830078125,-1.2365899599015713,-0.05834054528772831,2.1516677460342644
1727009948162046200,7.191046142578125,-3.4355151316732164,0.230518482157588,3.298617474760115
1727009948172084200,7.201084228515625,-2.565433256086707,0.16613573409616947,2.406581249257922
1727009948182122200,7.211122314453125,-0.9153349757641553,0.7884948947459459,0.6448358539391309
1727009948192160300,7.22116015625,-0.27297055343985555,0.22612872276604173,-0.9835346517652273
1727009948202198300,7.2311982421875,0.227525145560503,0.8459668405055999,-1.470633693575859
1727009948212236300,7.241236328125,0.07680676082670689,0.35903497195541856,-0.8337872309554368
1727009948222273300,7.251273193359375,-0.11782967608869076,0.2499596802085638,0.3299260010447353
1727009948232311300,7.261311279296875,-1.6977940974771975,0.4280605773866176,1.4667521759673952
1727009948242349300,7.271349365234375,-0.43899581289887424,0.6173369485735893,1.7682966435931622
1727009948252387300,7.28138720703125,-0.1792272708594799,0.7701642882853746,1.270341422855854
1727009948262425000,7.291425048828125,-5.142962608158588,-0.38155309323370457,0.13158106500022113
1727009948272463400,7.30146337890625,1.0953373226493597,0.4274292937457561,-0.9492841532476246
1727009948282500400,7.311500244140625,3.9424534309417005,0.2560679339557886,-1.076191819609329
1727009948292538400,7.321538330078125,3.9128129104375837,0.700604429847002,0.38944486939683554
1727009948302576400,7.331576416015625,-3.0092741709291935,-0.34933600023984906,1.7844659803666174
1727009948312614100,7.3416142578125,-5.613149678134918,-0.5927776768565177,1.7427113898292184
1727009948322652400,7.35165234375,-0.604808306390047,1.3125737139075995,0.3774171624727547
1727009948332690200,7.361690185546875,2.619665781533718,0.4045931925594806,-1.6219715253822504
1727009948342727200,7.37172705078125,3.051045274209976,0.7860802348196506,-2.4069214409977198
1727009948352765400,7.381765380859375,-1.9160989947497844,0.17969196576178073,-1.5661824181430042
1727009948362803200,7.39180322265625,-1.265708502358198,0.2894318588972091,-0.2874048100490123
1727009948372841500,7.401841552734375,1.1641694513350724,0.013965981510281562,0.4628087962932884
1727009948382879200,7.411879150390625,1.4668343012928962,-0.6226607739448548,0.7455718449510633
1727009948392917500,7.42191748046875,-0.9787012402594089,-1.5771376735299825,0.6487200749613344
1727009948402954200,7.431954345703125,0.3416647349596023,-0.6726742203921079,0.28522797746658324
1727009948412992300,7.4419921875,0.8570809397161007,-0.45461073065996166,-0.08374357435256242
1727009948423030300,7.4520302734375,-2.8256670775502917,-0.7907984955132007,-0.11183664621897041
1727009948433068300,7.462068359375,-0.17047697817087173,0.6317775618582964,-0.02514057873636484
1727009948443106300,7.472106201171875,2.3711679905712604,-0.2514899585157633,0.28875476335324346
1727009948453144300,7.482144287109375,0.18208792098760604,0.05973112286329269,0.8847554208442568
1727009948463181300,7.492181396484375,0.11624445272386073,-0.6999690545529127,0.8037784616608172
1727009948473219300,7.50221923828125,0.8155015596151352,-2.0557769300311803,0.3831394856423139
1727009948483257300,7.51225732421875,0.3676736209630966,-1.5915005454033613,0.6516808975283056
1727009948493295000,7.522295166015625,-0.9406447735875845,-1.1844213812470434,1.3347107269138097
1727009948503333400,7.53233349609375,1.8723638979196546,-0.7438929519534111,1.529071854019165
1727009948513371100,7.54237109375,3.4683149929910897,0.03632277474701404,1.1785743357192724
1727009948523408400,7.552408447265625,2.612614109456539,-0.3206394825875759,0.49299518717713653
1727009948533446400,7.5624462890625,-3.2294343406796453,-1.407210145935416,0.20315832767561076
1727009948543484200,7.572484130859375,-4.890233463236689,-0.6095242289960384,0.39467882452756164
1727009948553522400,7.5825224609375,0.6941331880062818,-0.39058454095125195,0.6513684705782681
1727009948563560200,7.592560302734375,4.149586361336707,0.9416127418369055,1.005201563041657
1727009948573598500,7.602598388671875,0.9872060337543487,0.2977729862630367,1.2219115923382342
1727009948583635500,7.612635498046875,-3.0104046362638472,0.26606851896643635,0.7649425350490957
1727009948593677600,7.622677490234375,-1.837510026681423,-0.35599838073849677,-0.3372615315645933
1727009948603715300,7.63271533203125,-0.5635685335069894,-0.16614333288073538,-1.16903508461006
1727009948613753300,7.64275341796875,-1.073193295380473,-0.49545302865803237,-0.9510886453863233
1727009948623791400,7.652791259765625,0.6508779836475849,0.4174012362062931,0.2087126373345032
1727009948633829400,7.662829345703125,-0.9743377843528985,1.8722861565083264,1.5849252586662768
1727009948643866600,7.67286669921875,-1.962428199726343,1.9626941571861505,1.9689359741851686
1727009948653904400,7.682904296875,-1.2460820108681916,1.20822545068264,1.0747660976551472
1727009948663942400,7.6929423828125,0.28543665178120137,0.9734469729930162,-0.39545181819405406
1727009948673980400,7.70298046875,2.5070541323542592,0.7207002924144268,-1.8212224703557789
1727009948684018400,7.713018310546875,0.2715525033354759,-0.45591129186451435,-2.46088420959264
1727009948694056400,7.723056396484375,-2.503634094777703,-0.9533996257424354,-2.2962143102653325
1727009948704093400,7.733093505859375,-2.88967806968987,-0.2226671841353178,-1.9050591298192738
1727009948714131500,7.74313134765625,0.06708908441066741,0.8281985441029072,-1.4332440202496946
1727009948724169500,7.75316943359375,2.37946820140481,1.9404951848596332,-0.8690488792769611
1727009948734207500,7.76320751953125,2.14261233291924,1.6934095987826585,-0.12203100023604929
1727009948744245500,7.77324560546875,-2.8441666108369827,0.7028203523308039,0.52538142619282
1727009948754283500,7.783283447265625,-1.2377245168894528,-0.7109276709407567,0.5443277899315581
1727009948764321300,7.7933212890625,-0.937402430665493,-0.7811001083195209,-0.1997635706707835
1727009948774358500,7.803358642578125,-4.303245475697517,-1.3567033630132674,-1.3909256583496927
1727009948784396300,7.813396240234375,1.5356132384866474,-1.2966525066763162,-2.3922201309502125
1727009948794434300,7.823434326171875,1.0047019429564474,0.4621399571210146,-2.0821406208217144
1727009948804472300,7.833472412109375,0.9335060077488422,0.4125929591417312,-1.0197936405610293
1727009948814510300,7.84351025390625,0.5739373673081397,0.9396306281089782,-0.4277682433765381
1727009948824548600,7.853548583984375,0.8983797493100166,0.34549861403405663,-0.7707409191295505
1727009948834585300,7.86358544921875,-0.5933703820526599,-1.0066104069262742,-1.5316196388058363
1727009948844623400,7.873623291015625,-1.4864029251158237,-1.8345605292260645,-1.6592963167786596
1727009948854661400,7.883661376953125,1.1184434729486703,-1.1762041725218295,-0.908358707010746
1727009948864699400,7.893699462890625,1.8099673552393911,0.16570903311669827,0.20201818119715897
1727009948874737400,7.9037373046875,1.7011656197369098,-0.08461305066347122,0.9005239217318594
1727009948884775400,7.913775390625,-1.453557471090555,1.1372405278772115,0.989085563890636
1727009948894812400,7.9238125,-1.9819839640676975,-0.37506957643330097,0.16323668818641454
1727009948904850400,7.933850341796875,-2.2427602218449114,-0.04423837017714977,-0.8368899462111293
1727009948914888400,7.943888427734375,1.3814391603410243,0.10381050308644771,-1.4025307559475302
1727009948924926500,7.953926513671875,2.5845558897078034,0.8500596627771854,-1.0341771168310194
1727009948934964500,7.963964599609375,-0.6521317831009626,-0.2091553761333227,-0.12370130806844681
1727009948945002200,7.974002197265625,-1.067834983217716,1.562121306183934,0.3071822543170303
1727009948955039500,7.98403955078125,-3.013584435343742,0.19461013343036174,-0.10729341329876332
1727009948965077500,7.994077392578125,-0.6635118397712707,1.4496300685137509,-0.7785808189749718
1727009948975115500,8.004115478515626,-0.18627894293665884,0.269070038869977,-1.2033917469158768
1727009948985153500,8.014153564453125,1.542054085189104,0.22213351565003395,-0.9387282724417746
1727009948995191300,8.02419140625,0.08244447445273399,-0.34421675752997394,-0.07421031459271907
1727009949005229600,8.0342294921875,-1.101386539685726,-0.23712124142348764,0.615428265408054
1727009949015266300,8.044266357421876,-0.9348562533140182,-0.5899240409910679,0.5218166463833301
1727009949025304300,8.05430419921875,-1.7146406028598546,0.13419979613125324,-0.2335564250813797
1727009949035342300,8.06434228515625,0.6991267585098743,0.8636059575706719,-1.1698722660865635
1727009949045380400,8.07438037109375,-0.9868149886101484,0.39317221935689445,-1.6324828363940118
1727009949055418400,8.08441845703125,-2.06398420188427,0.9612707975089549,-1.5803589736640453
1727009949065456400,8.094456298828124,1.8126316060125827,0.5071569104552268,-1.3887228876084088
1727009949075493400,8.104493408203124,2.1683634447693825,0.32653789297640323,-0.7658475210648029
1727009949085531400,8.114531494140625,-1.1559797151386737,-1.4157757297068834,0.16305976071693
1727009949095569400,8.1245693359375,-5.603544229921698,-0.7945663236141204,1.0560935458891094
1727009949105607400,8.134607421875,0.5079840089291334,-1.35977561006546,1.0103149605326354
1727009949115645400,8.1446455078125,3.194822461503744,0.3291477832138538,0.6522872659236192
1727009949125683200,8.15468310546875,-0.24079729958772658,-0.02916998038291931,0.37552575923558323
1727009949135720400,8.164720458984375,1.1498591864317655,0.1800982084751129,0.11159611546136439
1727009949145758500,8.174758544921875,-1.4348001636505126,0.8617027542978525,0.06351564637068659
1727009949155796500,8.18479638671875,1.8174276081174612,0.24881460182666776,0.038742658837698396
1727009949165834500,8.19483447265625,1.2219015093356371,0.20194296053647995,0.2627837982073426
1727009949175872300,8.204872314453125,-0.909486834257841,-0.6528758794665336,0.3844844705104828
1727009949185910500,8.21491064453125,-1.9256664490401745,-0.3142038965821266,0.12650204470288007
1727009949195947500,8.224947509765625,-0.8106552886277437,-0.6425257503658532,-0.6097811263665557
1727009949205985300,8.2349853515625,2.5256366677492856,0.027775895676016807,-1.2515741785436867
1727009949216023600,8.2450234375,2.9201918658971784,-0.8545411921054125,-1.110927252099663
1727009949226061300,8.255061279296875,-0.9382476493179798,-0.23885259526073932,0.07232446431349962
1727009949236099600,8.265099609375,-2.297200252562761,-0.7375666715413332,1.0624379464797675
1727009949246137300,8.275137451171876,-0.141930682644248,0.4656850823819637,1.364846921980381
1727009949256174300,8.28517431640625,2.6400346158236263,-0.29108254871368405,0.8158014193445443
1727009949266212400,8.29521240234375,1.8698855251073836,0.38093934524953366,0.2847112601161003
1727009949276250400,8.30525048828125,-1.9460481428116558,-0.8740192150354384,0.10184066431820392
1727009949286288400,8.315288330078126,-0.6831412538707256,-0.3281090878158808,0.24981632621511815
1727009949296326400,8.325326416015624,2.0349913316339254,-0.5093652341544628,0.4742771157689392
1727009949306364400,8.335364501953125,1.6452216141968965,-0.7391442961215973,0.6447820779252798
1727009949316401400,8.3454013671875,-2.7084131555229423,-0.10168518149554728,0.46276977945715186
1727009949326439400,8.355439453125,-3.6446681697189804,-0.008227730119228362,-0.15687939158156514
1727009949336477400,8.3654775390625,1.3374877904117106,0.9876946940541267,-0.6131293408159166
1727009949346515500,8.375515380859374,3.9793963834136723,0.2249970883876085,-0.3605702186986804
1727009949356553200,8.38555322265625,0.5549836605131626,0.2804489264965057,0.5335683128450065
1727009949366591500,8.395591552734375,-2.874548889619112,-0.96362992785573,1.3324500885054469
1727009949376628500,8.40562841796875,-3.1344173849016426,-0.762431063684821,1.6455496771074831
1727009949386666500,8.41566650390625,-2.1840216171503064,-0.7019763027220964,1.5535776419833303
1727009949396704500,8.42570458984375,0.6686679073601961,0.5504202981203794,1.2129302673727274
1727009949406742300,8.4357421875,1.3216659519016742,1.721031180679798,0.743051459627971
1727009949416780500,8.445780517578125,0.34670565173625945,2.248808854359388,-0.16347601336762307
1727009949426818300,8.455818359375,-1.4779361255437136,1.254145490336418,-1.322172878510505
1727009949436855300,8.465855224609374,-1.6574620870888233,-0.00736906746327877,-1.9588066482283173
1727009949446893600,8.4758935546875,-2.719755218270421,-0.06857610809803008,-1.5962284507080913
1727009949456931300,8.485931396484375,-2.3957120647192,-0.36887832057774067,-0.3982914620667696
1727009949466969600,8.495969482421875,-1.1655752264797687,1.0416934107452631,0.8948255639597773
1727009949477007400,8.50600732421875,-0.692502956455946,1.314133218309283,1.5235446150302887
1727009949487045600,8.516045654296875,2.31258837583065,1.4216262093007563,1.2010203416094183
1727009949497082400,8.526082275390625,0.5099573548287153,0.8437573477625846,0.36383097406029696
1727009949507120400,8.536120361328125,-2.9157302103132006,0.375177712982893,-0.30035664608068763
1727009949517158400,8.546158447265626,-1.986144006356597,-0.4778291091620922,-0.8027043296232819
1727009949527196400,8.556196533203124,-1.987152891138196,-0.06734861212968826,-0.5154772142287344
1727009949537234400,8.566234375,-0.10040098690390586,0.2623971369773149,0.15551972060091793
1727009949547272400,8.5762724609375,0.03103343616724014,1.4197826272606848,0.7843982730820774
1727009949557309400,8.586309326171875,-0.016563596788048744,1.0565209775209425,0.39647454883791505
1727009949567347500,8.596347412109376,0.5084679930537939,0.8108183702349663,-0.6916914939425886
1727009949577385500,8.606385498046874,1.6115952389270067,-0.31226737556159495,-1.6771467385068535
1727009949587423000,8.616423095703125,-0.23025836991667747,-0.8355757948726416,-1.4167042427286505
1727009949597461200,8.626461181640625,-0.5991232464909553,-0.8077847016274928,-0.35606801190860565
1727009949607499000,8.6364990234375,0.08561082952916621,-0.28337387403249736,0.4825907706059515
1727009949617536000,8.646535888671876,-0.3533393906623125,-0.16414368349611758,0.5995781506516039
1727009949627574300,8.65657421875,1.0043570750415325,-0.03299216901957989,0.12173304020278156
1727009949637612000,8.666612060546875,-0.16124854657649992,-0.22904139534235,-0.3396369554590434
1727009949647650300,8.676650390625,0.5346405451864004,-0.106773444545269,-0.7784656681627035
1727009949657688000,8.68668798828125,1.725548365843296,0.15871581322848796,-1.2041152388848364
1727009949667726300,8.696726318359374,1.164636484324932,-0.045022798553109165,-1.5276036811627447
1727009949677763300,8.706763427734375,-2.176249229583144,-1.092458552342653,-1.2476149195238948
1727009949687801000,8.716801025390625,-2.5458722310483455,-0.14461246907413006,-0.5189429906431585
1727009949697839400,8.72683935546875,-1.7293886746585367,-0.15497487313449382,0.16633461766913532
1727009949707877000,8.736877197265626,0.5546206724196672,-0.2495236268788576,0.3205233819272369
1727009949717915100,8.7469150390625,-0.12498597758412361,0.0032312370061874387,-0.011709288624674082
1727009949727953200,8.756953125,-0.08333528581261634,-0.4324859926134348,-0.6953055927865207
1727009949737990100,8.766990234375,1.291557813885808,0.25999475201070305,-1.1844525801029056
1727009949748028200,8.777028076171876,-0.6833674638420343,-0.024928105029463767,-1.1918865294959395
1727009949758066200,8.787066162109374,-1.7104764689177274,0.8054746711194515,-0.7681330016534775
1727009949768104200,8.797104248046875,0.5203074839293956,0.5696960764765739,-0.3338387175090611
1727009949778142200,8.80714208984375,2.66844997844696,1.329844582182169,0.06025595045499503
1727009949788180200,8.81718017578125,0.9777432088822126,0.12414601962864398,-0.018839871156960723
1727009949798217000,8.827217041015626,-2.9261954902261493,0.2646586521685123,-0.4008399775058031
1727009949808255200,8.837255126953124,-2.5521289533555507,-0.9675245972067117,-1.137563330090791
1727009949818293000,8.84729296875,1.374856274819374,0.6328279476940631,-1.535336467371881
1727009949828331300,8.857331298828125,1.278420684415102,0.04630991575419902,-0.9637201634224504
1727009949838369000,8.867369140625,-0.6528209344089031,1.1387152766048907,0.175070881832391
1727009949848406000,8.877406005859376,-4.57487747400999,0.5093605579793453,1.1248172457642853
1727009949858444300,8.8874443359375,-2.3833763147592544,0.9034767801880836,1.3193801790520547
1727009949868482000,8.89748193359375,2.942057660746574,1.143610647431016,1.0873658323135227
1727009949878520300,8.907520263671875,1.5183493844747542,0.16214929480850696,0.6619063773360103
1727009949888558000,8.91755810546875,-1.2868348770171403,-1.1515315035581588,0.5507659697528928
1727009949898596400,8.927596435546874,-3.079865125980973,-1.0696955163925885,0.8411664544865488
1727009949908633300,8.93763330078125,-1.812327070108056,-1.4459627781778572,1.1734541431613266
1727009949918671000,8.947671142578125,2.095105316334963,-0.052283729466795915,1.2735694449916481
1727009949928709400,8.95770947265625,3.4755887833863497,1.6396616419821977,1.093564029366523
1727009949938747100,8.9677470703125,1.7748451884537935,1.2399907082557677,0.6858548236783594
1727009949948785200,8.97778515625,-2.5577403634965417,1.4691297187536954,0.18353052101135253
1727009949958823200,8.9878232421875,-3.299818374982476,0.09620178164839745,-0.46460948903970417
1727009949968861200,8.997861083984375,-0.8522381758600472,-0.5363362431883811,-0.9790794259220361
1727009949978898200,9.007898193359376,1.0829331836283207,-0.6394593485325575,-0.7518818318154662
1727009949988936200,9.017936279296874,2.632377963590622,-0.8539952486604452,0.06691643125750124
1727009949998974200,9.02797412109375,0.005342530071735381,-0.582866523694992,0.9148431736592203
1727009950009012200,9.03801220703125,-1.4582365688174963,-0.562353312498331,0.9338860200423746
1727009950019050200,9.04805029296875,-2.1554922727584835,-0.8071230228483677,0.28672829902693625
1727009950029087000,9.0580869140625,-1.8355413569569587,-0.8228384783744812,-0.4418966489069164
1727009950039125200,9.068125244140624,1.5938070687800645,-0.29763620814085007,-1.02200437541306
1727009950049163000,9.0781630859375,3.0101492001980543,-0.4158621900707483,-1.2854381619617343
1727009950059201300,9.088201171875,1.9560849681794643,-0.6311170521229506,-1.0231975307203829
1727009950069239000,9.098239013671876,-0.23548984082937238,-0.6854974616080522,-0.2967495614994317
1727009950079277300,9.10827734375,-0.01693009201288223,0.1544265916019678,0.5740593131873757
1727009950089314300,9.118314208984375,0.4796154080569744,0.10304127227962016,1.2870046806260942
1727009950099352000,9.12835205078125,-3.6262329338401553,0.31360476164519785,1.7453849929526448
1727009950109390300,9.138390380859375,0.12340835300385951,-0.22754385026097296,1.5493250991053877
1727009950119428000,9.148427978515626,1.788766161778569,-0.06392272933423519,1.1720381388835608
1727009950129466000,9.158466064453124,3.9787428879410025,0.07898527390956878,0.8846960188072174
1727009950139504000,9.168504150390625,1.466108909627795,-0.26193828729391094,0.8174285821549594
1727009950149541000,9.178541015625,-3.437911086899042,-1.1123831499963999,0.8664187499690801
1727009950159579400,9.188579345703126,-4.066258089786768,-0.3252566209942102,0.8760796546965837
1727009950169617200,9.1986171875,-1.9545359851717947,-0.3493465216338634,0.8714323403473943
1727009950179655200,9.2086552734375,3.6111668821334835,0.7806260610669851,0.929934871263802
1727009950189693200,9.218693115234375,3.8243747485280033,1.0808961248427629,0.9523380609255283
1727009950199731200,9.228731201171875,2.1283973450839517,0.5638385826200246,0.7855000237789005
1727009950209768000,9.238767822265626,-1.1471008276343344,0.115880295586586,0.49389315893016755
1727009950219806200,9.24880615234375,-3.9935196013122796,-0.9587783961713313,0.45357978017702694
1727009950229844000,9.258843994140625,-3.5548867765069008,-0.08579144679307937,0.5607795603755861
1727009950239882200,9.26888232421875,-0.11531389387547969,0.7946335436314343,0.5481041301324964
1727009950249920300,9.278920166015626,-0.7554051105707883,1.8794295985221863,0.36743045985698697
1727009950259958300,9.288958251953124,-1.0825403849184512,1.7469553110092877,-0.6367702555790543
1727009950269995300,9.298995361328124,-0.4597603685081005,0.7787386398851871,-1.963411073283851
1727009950280033000,9.309032958984375,-1.1640934634894131,0.5333312161535024,-2.715286840684712
1727009950290071300,9.3190712890625,1.5514046818584202,-0.45917701566219327,-2.3927587678715585
1727009950300109000,9.329109130859376,-1.5402385601997375,-0.31641397384703157,-0.5769426866039633
1727009950310147300,9.339147216796874,-3.1029268526166676,0.03819558288156986,1.4271744910776614
1727009950320184300,9.349184326171875,-0.6041267538666725,0.7579828521043062,2.3425179424092173
1727009950330222000,9.35922216796875,0.011318097350001334,1.5808341899603604,2.1749504219442604
1727009950340260400,9.36926025390625,0.2682330035239458,0.7335252871960402,1.2713704736426472
1727009950350298000,9.379298095703126,-0.08233107720613479,0.5975023672908544,0.363118076550588
1727009950360336100,9.389336181640624,-0.911568316707015,-0.9364648575544356,-0.11990852818936108
1727009950370374100,9.3993740234375,-0.6526029077440499,-1.2422621603190898,0.13431874633580446
1727009950380411100,9.4094111328125,-2.206501159983873,-0.689364073908329,0.8701116131376475
1727009950390449400,9.419449462890626,0.7307143214285373,0.5674591112047433,1.0631428798787295
1727009950400487200,9.429487060546874,2.3691455448329446,1.4556564891964197,0.3370576795555651
1727009950410525200,9.439525146484375,0.8525210844546556,1.6824486443072557,-0.8928937191143631
1727009950420563200,9.449563232421875,-0.18053250823915004,0.6857815392464399,-2.003031428271532
1727009950430601200,9.459601318359375,-1.6881085697650908,-0.8042758167237043,-2.3537562525212765
1727009950440638000,9.469637939453126,-2.4341952323704956,-0.9283481865942478,-1.626215154301375
1727009950450676200,9.47967626953125,-0.2748047831296921,-0.8883791642993688,-0.09760609548836946
1727009950460714000,9.4897138671875,1.774389261379838,-0.13219020987451074,1.5055352033481002
1727009950470752300,9.499752197265625,1.3594132064938544,0.4456371506094932,2.0699822732552886
1727009950480790000,9.5097900390625,0.5559960524260997,0.42527065440714357,1.069013963869214
1727009950490828300,9.519828369140624,-0.47597442120611666,-0.6728384710431099,-0.8330129586473107
1727009950500865300,9.529865234375,0.2484948683530092,-0.9297381796479225,-2.249063121381402
1727009950510903000,9.539903076171875,-1.024964394262433,-1.7956237725883721,-1.933764999821782
1727009950520941300,9.54994140625,-1.5108897161185741,-0.8387035715043544,-0.2362074875794351
1727009950530979000,9.55997900390625,-1.8880729237049816,0.035980829441547395,1.512730667810142
1727009950541017000,9.57001708984375,1.9171476270198822,1.7070079160243272,2.091733209553361
1727009950551055000,9.58005517578125,4.031536320495605,1.5082868401437997,1.4917225127033888
1727009950561092000,9.590092041015625,-0.3134884417891502,1.174750466582179,0.46014498391151426
1727009950571130400,9.60013037109375,-4.461068139478564,-0.6902250746518374,-0.43746071228608485
1727009950581168000,9.610168212890626,-2.5211107147574423,-1.2095371178030967,-0.9069526396051049
1727009950591202800,9.620202880859376,-0.363567939209938,-1.5475181958138942,-0.5706305808477103
1727009950601240800,9.63024072265625,1.6438111628770826,-0.4580523955464363,0.4317429191611707
1727009950611278800,9.64027880859375,-0.76053078302145,0.06555003827512264,1.7714605144515632
1727009950621315800,9.65031591796875,-1.0711907233864069,0.9103238696038722,2.3506208771049977
1727009950631353900,9.660353759765625,-1.2955933530122041,1.336524498337507,1.527121012212336
1727009950641391900,9.670391845703126,-1.6780080315113066,1.0241729516237974,-0.2889068121097982
1727009950651430000,9.680429931640624,0.021364859589934348,0.4402139565169811,-2.0288291557423768
1727009950661468000,9.690468017578125,1.5839350785851478,-0.062252750295400616,-2.6596488323539496
1727009950671504600,9.700504638671875,1.5484066690862177,-0.4701496605753898,-1.6220041124776006
1727009950681543000,9.71054296875,-0.7745493715018034,-0.41753567624092097,0.1078279220342636
1727009950691580700,9.72058056640625,-1.7744401147842406,-0.3448562244772911,1.6151169833123682
1727009950701619000,9.730618896484375,-2.5632711096167564,0.15283961467146873,2.218327499116957
1727009950711656700,9.74065673828125,-0.182350955837965,0.7168740121245384,1.6803130935832857
1727009950721694700,9.75069482421875,1.55655256614089,0.2793207992494106,0.24801629105582831
1727009950731732000,9.76073193359375,1.6596581358283757,0.7515501887083054,-0.8723779506344348
1727009950741769700,9.770769775390624,1.441457283452153,-0.7093763498455286,-0.7935816964909433
1727009950751807700,9.780807861328125,-0.22532325160205363,0.2398819383084774,0.36543943217024205
1727009950761845800,9.790845703125,-0.7699614591896533,0.0430693263977766,1.1860481787312775
1727009950771883800,9.8008837890625,0.21124971806406972,0.06810556797683238,0.785033356115222
1727009950781921800,9.810921875,-1.4569523742258548,0.04277238927781581,-0.19008498415611683
1727009950791958800,9.820958740234374,0.8965051876097917,-0.21894261065423487,-1.060784626314789
1727009950801996800,9.830996826171875,-0.2973258270174265,-0.027562545186281203,-1.0038562859125435
1727009950812034800,9.841034912109375,-0.39966976468265053,-0.138370359814167,-0.2943795444324612
1727009950822072800,9.85107275390625,2.5507190865576264,-0.5211784215450287,0.460972155450657
1727009950832110800,9.86111083984375,1.5099755238831043,-1.0245599051147698,1.1466713501758872
1727009950842148900,9.87114892578125,-1.4186346262693403,-1.3661118273496626,1.506658069898188
1727009950852185600,9.881185546875,-2.7845290114760397,-0.9206137929499149,1.249473991394043
1727009950862224000,9.891223876953125,-0.7858937723368405,-0.6019441491305828,0.40249256701841946
1727009950872262000,9.901261962890626,0.899460530284047,0.43566286908388135,-0.39210685514770444
1727009950882300000,9.9112998046875,2.508356447124481,0.7951204503655434,-1.0091425557523965
1727009950892338000,9.921337890625,2.6311627425819633,0.18024959964454174,-1.2198751911398023
1727009950902375700,9.931375732421875,-1.9133850596159696,-0.1827174510627985,-0.6868507028479128
1727009950912413000,9.941412841796875,-0.5409212328910827,-1.430724292513728,0.10013853657543659
1727009950922450700,9.95145068359375,-0.6336193903326988,-1.4022247587382792,1.2420239676490425
1727009950932489000,9.961489013671875,-1.6506535761177539,-0.8828875811457634,2.1236003200657665
1727009950942526700,9.971526611328125,-1.8435130664885042,-0.4098328467786312,1.9112657293744384
1727009950952564700,9.981564697265625,-1.0373398917108774,0.3360030559360981,0.9166258192922919
1727009950962602000,9.99160205078125,2.9060142874628303,0.2665542566567659,-0.015527239477634429
1727009950972639700,10.0016396484375,2.6685668828248974,0.5329547840565443,-0.11609123492352663
1727009950982677800,10.011677734375,0.6374035850465297,0.12890519685447216,0.4479565334677696
1727009950992715800,10.0217158203125,1.0015653984963893,-0.7973778739035129,0.9639016574691981
1727009951002753800,10.03175390625,-1.6865385439693927,-0.6500690053522586,1.378649529622495
1727009951012791800,10.041791748046874,-0.47419221396446226,-0.8281991286247968,1.1922377540864049
1727009951022828800,10.051828857421874,-1.3256500531017779,0.2636655494779348,0.4669475035332143
1727009951032866800,10.06186669921875,-3.1061773788452145,1.0790414368867873,-0.4534856721527874
1727009951042904800,10.07190478515625,-3.7252889358758923,1.3339011640965939,-1.0757241290323436
1727009951052942800,10.08194287109375,-2.913075896412134,2.030816091775894,-1.0662883382976054
1727009951062980900,10.09198095703125,0.964029156306386,2.6528490892112253,-0.9745210319653153
1727009951073019000,10.102018798828125,3.2824598284244537,1.6381927384734152,-0.7833087973449379
1727009951083055600,10.1120556640625,-1.1397533874809742,0.5618260737538338,-0.4479517842274159
1727009951093094000,10.122093994140625,-3.804102944871783,-1.1550292825460433,-0.02319908927977085
1727009951103131600,10.132131591796876,-1.6744015314519405,-1.416235163912177,0.20958836072310805
1727009951113170000,10.142169921875,1.4582126034200191,-0.09232932412922382,0.13458813786171375
1727009951123207700,10.152207763671875,3.9128801304548975,0.770989633193612,-0.470761070472002
1727009951133244700,10.16224462890625,-1.356107735207677,1.4843033224880695,-0.9522512594249098
1727009951143283000,10.172282958984376,-3.066905691164732,0.9881716639161109,-1.063724259963259
1727009951153320700,10.18232080078125,-2.914888498792052,0.1423755038022995,-0.4942124540124088
1727009951163358700,10.192358642578125,3.2206606671154496,0.0023848493099212645,0.22100078529305756
1727009951173396700,10.202396728515625,4.593637119537592,-1.035352517285943,0.6325133287869393
1727009951183434800,10.212434814453125,-1.3437509424597025,-1.58749306332767,0.7784338847849518
1727009951193472000,10.222471923828126,-3.5419939771860838,-1.5898977863818406,0.6443723280806094
1727009951203509800,10.232509765625,-3.306294292998314,-0.10435820009708403,-0.05568747349567711
1727009951213547800,10.2425478515625,0.26858313213586804,1.020820134064555,-1.3563983887173234
1727009951223585800,10.252585693359375,5.236140073549747,1.6983002934336662,-2.758086410230398
1727009951233623800,10.262623779296876,2.422126608914137,0.4183294569671154,-3.1909646170318124
1727009951243661800,10.272661865234374,-0.003940262058377266,-1.700935902634263,-2.5022253970235586
1727009951253698800,10.28269873046875,-4.227809418702125,-2.2627029396772382,-1.4008587310820817
1727009951263736800,10.29273681640625,-3.0224060397028922,-2.4092022454112767,-0.7274263127338141
1727009951273774800,10.30277490234375,1.2076783381938934,-0.6532961507052183,-0.7370811530467123
1727009951283812900,10.312812744140626,2.524599141395092,1.1920540680825709,-0.6986239966195076
1727009951293851000,10.322850830078124,2.143512496629357,2.0729589509785176,-0.714287064371258
1727009951303889000,10.332888916015625,1.26143389377892,1.3714882596909999,-1.0791063918817787
1727009951313925600,10.342925537109375,-0.218026664853096,0.4397001617759466,-1.3930126937568188
1727009951323964000,10.3529638671875,-0.1602215416163206,-1.6162094547241925,-0.9577400660995393
1727009951334001700,10.363001708984376,1.021730819168687,-1.9818477704674005,0.6555073970139026
1727009951344040000,10.3730400390625,1.4632663796782492,-1.8229180222272872,2.584692960090935
1727009951354077700,10.38307763671875,-1.3947031310617923,-0.2806505865484476,3.287290901842713
1727009951364114700,10.39311474609375,-1.9598855295062063,0.49827510034143924,1.8249875219777225
1727009951374153000,10.403153076171876,0.11821662957966327,2.4830665230453013,-0.7588915644470602
1727009951384190700,10.413190673828124,1.1648130099356173,2.809898430532217,-2.6823440637648104
1727009951394228700,10.423228759765625,-1.8799398861318826,1.9286089322328566,-2.785728450393677
1727009951404266800,10.433266845703125,-4.998987267944217,1.5533733515828847,-1.7463858405582606
1727009951414304800,10.4433046875,-2.001198367625475,0.12668401367366314,-0.9800712134383618
1727009951424342000,10.453342041015626,0.2938397384673357,1.6378531312555074,-0.4133117018703371
1727009951434379800,10.4633798828125,-0.1681160942584276,-0.21373393609523772,-0.1595491222474724
1727009951444417800,10.473417724609375,-1.9356296246498823,0.5119558351695537,0.16388079477623105
1727009951454455800,10.483455810546875,-2.3194360497683286,1.217477847674489,0.03737732530124485
1727009951464493800,10.493493896484376,-0.18234277253150938,1.2933365139961241,-0.23021241188310085
1727009951474531800,10.50353173828125,-0.5104331556469202,1.238147710737586,-0.46432095442190763
1727009951484568800,10.51356884765625,0.7522989612489939,-0.46760406774580476,-0.5262248182144016
1727009951494606800,10.52360693359375,0.6959340999484062,-0.8332739476710558,-0.21708741124160585
1727009951504644900,10.533644775390625,0.408829807215929,-2.614361245384812,0.22619521213099358
1727009951514683000,10.543682861328126,-1.5403239003956317,-0.9562024082034826,0.8797480410110204
1727009951524721000,10.553720947265624,-0.5225327587634325,-0.4778571662127971,1.349792268450558
1727009951534758000,10.5637578125,-0.43440906963050363,0.2470318100631237,1.5963577761761842
1727009951544795600,10.573795654296875,-2.817559174418449,1.6564456035226582,1.915718032608181
1727009951554834000,10.583833984375,0.6961959657549858,2.269725385659933,1.9013472696892917
1727009951564871700,10.59387158203125,2.0070704745292662,1.8098025200664996,1.3340621998772024
1727009951574909700,10.60390966796875,0.6486059470623732,-0.24160335527360438,0.2355602026518434
1727009951584947700,10.61394775390625,0.8928893352001905,-1.5028414342194796,-0.8317891890060156
1727009951594985200,10.623985107421875,-1.00536888243258,-2.1488415826976297,-1.0273402565483003
1727009951605023200,10.634023193359376,-0.4426788853257894,-2.1714964820981026,-0.3466749643370509
1727009951615061200,10.644061279296874,1.0558961236208677,-1.4850573557257651,0.5795834834363311
1727009951625099300,10.654099365234375,1.4339315641224384,0.16298282302320002,1.193488484799862
1727009951635137000,10.664136962890625,1.048629347488284,1.232125381708145,1.0814438218533993
1727009951645175300,10.67417529296875,0.6304688173472881,1.4644897839933633,0.29805487194433805
1727009951655212300,10.68421240234375,-0.9222896172076464,0.8982803805887699,-0.619500483283028
1727009951665250000,10.69425,0.36372868272960185,-0.3349433177500963,-1.1575756790932268
1727009951675288300,10.704288330078125,1.7607400907337665,-0.42299277260303497,-0.8568812524255365
1727009951685326000,10.714326171875,1.8532663987398146,-1.880901424640417,0.057573287242278455
1727009951695364400,10.7243642578125,-2.093442936080694,-1.733543456250429,1.253962096593529
1727009951705401000,10.734401123046876,-2.411238135153055,-1.7329437367916105,1.595296430554986
1727009951715439000,10.744439208984375,-1.2615718409448862,-0.6367565193146467,0.8754989321991801
1727009951725477000,10.75447705078125,1.0786281799107789,0.18288988502025602,-0.19123744212687013
1727009951735515100,10.76451513671875,2.2259861971765753,0.6878525003015995,-0.7376181825328618
1727009951745553200,10.77455322265625,2.608130826562643,0.611017097902298,-0.38925438832603393
1727009951755591200,10.784591064453124,-1.8468290591686962,0.20603461376428603,0.4696744442790746
1727009951765628200,10.794628173828125,-3.3275375720351934,-1.1339794802546501,1.038704896453768
1727009951775666200,10.804666259765625,-0.7895154699653386,-0.02470657123327255,1.2752480457283555
1727009951785704200,10.8147041015625,3.206248695403337,-0.004822890111804009,0.8567079416852444
1727009951795742200,10.8247421875,1.8396856171548366,1.2283318346440792,-0.0060871378939598795
1727009951805780200,10.8347802734375,-2.9777549970716235,1.0448463218182324,-1.1022845114387572
1727009951815818000,10.84481787109375,-4.810531565490365,1.0683411791741848,-1.990867820008099
1727009951825855200,10.854855224609375,-0.5471382077097893,0.9930360550820827,-2.509508832029998
1727009951835893200,10.864893310546876,3.4604864913225173,1.3965782772839068,-2.2806572601713238
1727009951845931300,10.87493115234375,-0.40846331199109553,0.33032033412456513,-0.9763266931477933
1727009951855969300,10.88496923828125,-3.074328534641862,0.058633975276350975,0.5355694235343486
1727009951866007000,10.895007080078125,-4.440927853247523,-0.09146072460114955,1.4526841953873633
1727009951876044300,10.905044189453125,-1.5974901412069797,0.09293956498205662,1.5205262901224195
1727009951886082000,10.91508203125,2.18841663723886,1.0011474653452634,1.1633336580980569
1727009951896120000,10.9251201171875,2.1267291196107863,1.4874609097361564,0.6305351605817675
1727009951906158300,10.935158447265625,2.141004313200712,0.40995208924412724,0.027105668264254926
1727009951916196000,10.945196044921875,-1.842694735842943,0.3505079666286707,-0.3238645090486854
1727009951926234400,10.955234375,-2.706360899168253,-0.720024585109949,-0.1547629108842462
1727009951936271000,10.96527099609375,-2.6511756030410525,0.43760114367008207,0.5836839044924825
1727009951946309000,10.97530908203125,-0.981140450105071,0.8847568821489811,1.4048621215045451
1727009951956347100,10.98534716796875,1.546440337449312,1.9271283382862805,1.4303040212750433
1727009951966385200,10.99538525390625,1.6809703884482383,1.442867734771967,0.48172896614484484
1727009951976423200,11.005423095703126,-0.8308119414716959,0.747386054766178,-0.6951061246916651
1727009951986460200,11.015460205078124,-1.1691180136531591,-0.01689794330894947,-1.2852005538135767
1727009951996498200,11.025498291015625,1.1982266192376614,-0.9884639248609542,-0.9531455779161304
1727009952006536200,11.0355361328125,-2.667178643336892,-0.5033417360812426,0.2640651432547718
1727009952016574200,11.04557421875,-0.48177872357070445,-1.551856517279148,0.9269519829954952
1727009952026612200,11.0556123046875,-0.7376561033904552,-0.24886311714351175,0.7444991011530161
1727009952036650200,11.065650146484375,0.5152607219338416,-0.611919599699974,-0.2161256535373628
1727009952046687200,11.075687255859375,2.105840060839057,0.35861411619484423,-1.4331374911352992
1727009952056725200,11.085725341796875,1.3138497251927852,0.38883857406675815,-2.3154878966644405
1727009952066763300,11.09576318359375,-0.44146834049224853,-0.04792494973540306,-2.491297175773978
1727009952076801000,11.105801025390624,-1.2502344543725252,-0.018446926316618917,-1.7230547954618929
1727009952086839300,11.11583935546875,-0.8305003913044929,-0.7285112584263086,-0.09431399514041841
1727009952096876000,11.1258759765625,1.1300509086340664,-0.368174556222558,1.691952093450725
1727009952106914300,11.135914306640625,0.6789291891336441,-0.2435802083045244,2.79654824283272
1727009952116952000,11.1459521484375,-1.828701866325736,-0.3856546833336353,2.5834710170805453
1727009952126990000,11.155989990234374,-2.943880199998617,0.07167056698203086,1.1473961573190987
1727009952137028000,11.166028076171875,0.18114567170143125,0.8121738764971494,-0.5902035885848105
1727009952147066000,11.176066162109375,-0.891513955193758,1.3532213661164045,-1.4767030766174196
1727009952157103000,11.18610302734375,-1.3398305541455744,0.5324783987164498,-0.9305981574781238
1727009952167141000,11.19614111328125,-1.050789155870676,0.7152648233622312,0.3161782653950155
1727009952177179100,11.20617919921875,0.6759522191494702,-0.10667816747725009,1.117742265876755
1727009952187217200,11.216217041015625,0.8459469667613506,-0.8819733889102935,0.8183447471518069
1727009952197255200,11.226255126953125,1.4070353738903998,-1.639053154695034,-0.22727584697455167
1727009952207293200,11.236293212890626,0.8367308101266622,-1.3587801692873238,-1.1019668237917124
1727009952217330200,11.246330078125,-0.8811375226080417,-0.9097820178121327,-1.1117186947382987
1727009952227368200,11.2563681640625,-1.4183341820180415,1.0251946958869695,-0.4660645101536065
1727009952237406200,11.26640625,-1.5640981592148542,1.662747918537259,0.5457122665598988
1727009952247444200,11.2764443359375,1.5254413885623215,3.2378678225040436,1.4529337862342595
1727009952257482200,11.286482177734374,2.7325036406844854,2.9419401718467473,1.8874264424949883
1727009952267519200,11.296519287109374,-1.2944400913238525,1.1861691016972065,1.6739032265409826
1727009952277557200,11.30655712890625,-3.0120132405042646,-1.2115174779653548,0.9185691353797912
1727009952287595300,11.31659521484375,-1.6988070739120245,-1.4727584306448698,0.07131415475979447
1727009952297633300,11.32663330078125,-0.567263880893588,-2.2439462167590856,-0.4644943382274359
1727009952307671000,11.336671142578124,0.8643617443740368,-1.771106586447358,-0.5434905719224363
1727009952317709300,11.346709228515625,-1.7766332409143446,0.8307681023299693,-0.21345782256759702
1727009952327746000,11.35674609375,-1.4583102185755967,0.8487029874712229,0.049241658357158304
1727009952337784300,11.366784423828125,0.23887013091742992,2.856158077403903,0.48439767389744515
1727009952347822000,11.376822021484376,1.2821399971991776,2.108527107965946,1.0075610587146133
1727009952357860000,11.386860107421874,1.4045961640447377,1.0179062924444675,1.374757198359072
1727009952367898000,11.396898193359375,-2.4103034846514464,-0.9178975197285413,1.1332288810830562
1727009952377936100,11.40693603515625,-2.169201649159193,-2.973123245617747,0.05964198327511549
1727009952387973000,11.41697314453125,4.041416493996977,-2.8233418494731186,-1.1315367632776498
1727009952398011100,11.42701123046875,3.103808311626315,-2.8881559746891257,-1.1883623739577829
1727009952408049200,11.437049072265625,2.060471809849143,-0.3885959974825382,-0.08046703689992428
1727009952418087200,11.447087158203125,-3.0038229197859763,-0.2764630717307329,0.8391884324118495
1727009952428125200,11.457125244140625,-2.683443549439311,1.4429875617593526,0.6906888197060674
1727009952438162200,11.467162109375,2.053830472138524,0.5251239443004131,-0.5890688854664564
1727009952448200200,11.4772001953125,4.34947414290905,0.7857897274404764,-1.8735168673470615
1727009952458238200,11.48723828125,1.513217282283306,-1.5372814639598131,-2.070962224203348
1727009952468276200,11.497276123046875,-2.2742717969179154,-2.017697667005658,-0.5167085826545953
1727009952478314200,11.507314208984376,-2.0235469775557515,-2.313933945220709,1.9687633940972387
1727009952488352000,11.51735205078125,-2.1072399907648562,-1.3323352299541233,3.9674645380795
1727009952498389200,11.52738916015625,1.9847686263501643,-0.7723422168463469,4.059806721690297
1727009952508427300,11.53742724609375,2.6256512856841088,0.9710293904572724,2.4611592271417377
1727009952518465300,11.54746533203125,2.2517513375520704,0.8248913192510604,0.36762327901534736
1727009952528503300,11.55750341796875,0.24952011974751948,0.6072691435456276,-0.634464389789477
1727009952538541000,11.567541015625,-1.1145178239375353,-0.04533785585165023,-0.25567140891887247
1727009952548578300,11.577578369140625,-2.7538527181833983,0.4932879595786333,0.9360006010435521
1727009952558616000,11.587615966796875,-1.373612412238121,0.1117845507055521,1.698996166743338
1727009952568654000,11.597654052734375,0.42903439085483547,0.6419044035971164,1.3664198703855275
1727009952578692000,11.607692138671876,1.4654893164247274,0.27471242867112156,0.19134499415457248
1727009952588733700,11.617733642578125,0.11568740336298942,0.6197007550954818,-1.0834659022655337
1727009952598771500,11.627771484375,-1.223774317470193,0.7941565737694501,-1.7817551139727235
1727009952608808400,11.637808349609376,-1.2251105345100164,0.6251105051845312,-1.6578407111428677
1727009952618846700,11.6478466796875,-3.0263550695896146,0.6306769071400166,-0.4593254111569375
1727009952628884500,11.657884521484375,-2.628175835725665,0.6416033748239278,0.7800398586768656
1727009952638922800,11.6679228515625,-0.24793489638268945,0.762985190436244,1.1892886219572276
1727009952648960500,11.67796044921875,0.8520341777205467,0.9917010070860385,0.6183357503525913
1727009952658997500,11.68799755859375,1.1069652166008948,0.24123510648310184,-0.5875277935042977
1727009952669035800,11.698035888671875,-0.5537491502821446,-0.05711597192883491,-1.3766437427580356
1727009952679073500,11.708073486328125,-3.5477836665034292,-0.9341127414703368,-1.0526418710652738
1727009952689111800,11.71811181640625,-2.616992762932181,-0.08501987789869309,0.1977159904912114
1727009952699149600,11.728149658203124,-0.7062637707829476,1.020579895567894,1.5263105726122854
1727009952709187600,11.7381875,1.8686381553947924,1.640721964690089,1.9674552341081202
1727009952719224600,11.748224609375,1.522454481706023,1.0133142884790898,1.1363397065799683
1727009952729262600,11.7582626953125,-2.0050632263600825,0.3354050900429487,-0.05694799495078623
1727009952739300600,11.768300537109376,-1.6004185958743093,-0.20962766982018946,-0.9853990573976188
1727009952749338600,11.778338623046874,2.135571766757965,-0.32329847266376016,-1.1512789901018141
1727009952759376600,11.788376708984375,-0.21867899128198623,-0.35769758587181566,-0.22223222678415475
1727009952769414700,11.79841455078125,-2.513360539022088,-0.1701771184414625,0.5365540506575256
1727009952779451600,11.80845166015625,-2.09145497713387,-0.2294458844900131,0.39956462380774316
1727009952789489400,11.818489501953126,0.8564666072100401,0.20245617075562475,-0.667716524919495
1727009952799527700,11.828527587890624,3.080788670566678,0.07023322765529155,-1.979453861068189
1727009952809565400,11.8385654296875,1.3400287070661783,-0.2133767932206392,-2.5147800504311917
1727009952819603700,11.848603759765625,-1.0547685808956622,-0.8045505420118569,-1.677380839523673
1727009952829640700,11.858640625,-1.6787275779575108,-0.27704642457664014,0.16889723469875753
1727009952839678500,11.868678466796876,0.9223083219081163,0.955004138329625,1.8368606228619813
1727009952849716700,11.878716796875,3.6582062812060117,1.0214140083044767,2.4549177024036646
1727009952859754500,11.88875439453125,2.3276456597089767,0.6204629716396332,1.9950208480343221
1727009952869792800,11.898792724609375,0.14771452674269675,-0.8213637296468019,0.8410701545052229
1727009952879830500,11.90883056640625,-3.1062913606137035,-1.8054606914699076,-0.4960797822542488
1727009952889867500,11.918867431640624,-2.6126766532987356,-2.237027815672755,-1.5394602693036197
1727009952899905800,11.92890576171875,-0.7767179477125405,-1.0789812311321496,-1.6716155539952218
1727009952909943600,11.938943603515625,1.39384972910285,0.40922026783823967,-0.6670514120742679
1727009952919981600,11.948981689453126,0.44319151102304455,1.207971768182516,0.8521835230633616
1727009952930019600,11.95901953125,-1.2026608022928238,1.5063883130460978,1.5611533379346132
1727009952940057600,11.9690576171875,0.3085626758247614,0.8119739700108766,1.0635596439860762
1727009952950094600,11.979094482421875,0.40118542994260786,-0.15837562148869036,-0.3841470552496612
1727009952960132600,11.989132568359375,-0.903489055147767,-2.017244078019261,-1.2263063201658426
1727009952970170600,11.999170654296876,-1.672022527360916,-1.5593647009521723,-0.8272706156030297
1727009952980208600,12.009208740234374,-1.3278835112422704,-0.44601475175023075,0.373097253447026
1727009952990246700,12.01924658203125,1.219756898522377,1.0101455953150986,0.9698086164906621
1727009953000283400,12.029283447265625,4.5309044767707585,2.0162661728978155,0.7041970475114882
1727009953010321700,12.03932177734375,-1.250669338658452,1.9102502687215803,0.08627221604734658
1727009953020359400,12.049359375,-5.097348857975006,0.6546054797381162,-0.5774782547853887
1727009953030397700,12.059397705078124,-4.954435009512305,-0.09382160851359367,-1.3144972293160855
1727009953040435500,12.069435546875,1.137287874150276,-0.14087971228659152,-1.976704123968631
1727009953050473700,12.0794736328125,4.053821217539906,-0.663218409782648,-1.9278486153848469
1727009953060510700,12.0895107421875,0.8043219939529895,0.15177929196357726,-0.6717732529643923
1727009953070548500,12.099548583984374,-2.5008061778753996,-0.4739993217408657,1.0138849279738962
1727009953080586800,12.109586669921875,-3.7179274671971796,0.34434769043326374,2.144443639999628
1727009953090624500,12.11962451171875,-3.8273213233739134,-0.15898586234152315,2.1756761058703065
1727009953100662800,12.129662841796875,-2.281920265844464,0.6499012475699186,1.6852727618172765
1727009953110700500,12.139700439453126,3.204078365626931,0.5536731624364852,0.8424534986224025
1727009953120737500,12.149737548828124,5.472403236839175,1.0163754296153784,0.34685813888423145
1727009953130775800,12.15977587890625,1.6812193947732448,-0.03898001125752926,0.4177917698938399
1727009953140813600,12.1698134765625,-2.3269746285796162,-0.3121294283956289,0.508966736356169
1727009953150851600,12.1798515625,-1.0958224758177995,-0.3587105623066425,0.4313718938916921
1727009953160889600,12.1898896484375,0.07961538850665092,0.48562896925807,0.779484782077372
1727009953170926600,12.199926513671874,2.8867408471941944,0.8913988043814897,1.0754784106429667
1727009953180964600,12.209964599609375,3.100643125593662,0.4690998592615127,0.7800316753704101
1727009953191002600,12.220002685546875,-0.25897125418186184,-0.39699499251544473,0.12410283807404339
1727009953201040400,12.230040283203126,-1.0623422310203314,-0.9943675959467887,-0.490726365462318
1727009953211078700,12.24007861328125,-2.579524909803271,-1.9645348166167735,-0.7024241926200687
1727009953221116400,12.250116455078125,0.44714813969433304,-1.2587491847395895,-0.7033480294667184
1727009953231153400,12.2601533203125,1.8243384104192255,-0.9628776481837034,-0.7604366749972105
1727009953241191700,12.270191650390625,1.9495722252845764,-0.6702279962837696,-1.1174893870942293
1727009953251229400,12.2802294921875,0.3670119421839714,-0.18770517634749412,-1.510195888635516
1727009953261267700,12.290267822265625,1.9426918181210755,-0.5772276410251855,-1.5125456666320563
1727009953271305500,12.300305419921875,0.23887772970199583,-0.5615332282871007,-0.6235786925073713
1727009953281343700,12.31034375,0.27508535363674164,-1.295533731779456,0.7303283908508718
1727009953291380700,12.320380615234376,-2.1864088045477867,-1.2190297532916068,1.8470877101048826
1727009953301418500,12.33041845703125,-1.1181710857480764,-1.2867822700470686,1.903977179801464
1727009953311456800,12.340456787109375,2.5291969905793668,-0.2663777310460806,1.2574796031951903
1727009953321494500,12.35049462890625,0.7186702478915452,-0.11577449712455272,0.8849427601099014
1727009953331532500,12.360532470703125,-1.4368588497459887,0.35299393822550773,1.3370850548297166
1727009953341570600,12.370570556640626,-1.9577175378173588,0.8103314635008573,1.9884208652473985
1727009953351607600,12.380607666015624,1.632620491299033,1.5966414154231547,2.179624843496084
1727009953361645800,12.390645751953125,0.2741115401685238,0.7879781773954629,1.7479270786508916
1727009953371683600,12.40068359375,-3.288666281849146,-0.13932546858191489,0.8777282986864448
1727009953381721600,12.4107216796875,-1.8953484676659107,-0.32550328923165794,-0.03521291380897164
1727009953391759600,12.420759521484374,-0.39673137314319606,-0.12759119164645671,-0.40002413107827306
1727009953401797600,12.430797607421875,0.3059995473384857,-0.0936982743948698,-0.05707585911415517
1727009953411834400,12.44083447265625,-1.523693083590269,1.1582090816259383,0.6230815566401928
1727009953421872600,12.45087255859375,-1.1574106247246265,1.4271125317573548,1.0192263620670885
1727009953431910400,12.460910400390626,0.2705699220389128,2.249759871473908,1.2597373189941048
1727009953441948700,12.47094873046875,-1.8995155242174864,1.6700532731145619,1.2377582730285823
1727009953451986400,12.480986328125,-0.02838964366018772,0.07580079865455627,1.0106187657848
1727009953462023400,12.4910234375,-0.5441735126852989,0.6489186662733555,0.8100901290256529
1727009953472061700,12.501061767578125,-0.29415538028776644,-1.086231640651822,0.48801060369759797
1727009953482099500,12.511099365234376,-0.9757482356727123,-0.34691841770410536,0.2654768366836011
1727009953492137700,12.5211376953125,-0.3075304101675749,-0.19745617051124573,0.05639138398133218
1727009953502175500,12.531175537109375,0.15257190364599227,1.0059271008372306,-0.1643037694286555
1727009953512213800,12.5412138671875,-0.02609948689639568,1.2898106779575347,-0.4399059134811163
1727009953522250800,12.551250732421876,-0.41929859426021576,0.6236135446250438,-0.8318314937777816
1727009953532288500,12.56128857421875,-0.9199123666822909,0.027329320952296256,-1.0687282787956296
1727009953542326800,12.571326904296875,0.6178869836717844,-0.23583938491940498,-1.081140162731707
1727009953552364500,12.581364501953125,-0.304022109785676,-0.5838093575030565,-0.9307434842329472
