time,seconds_elapsed,z,y,x
1727009940990008800,0.0190087890625,0.17051181197166443,-0.2942470610141754,0.04446813091635704
1727009941000046800,0.029046875,0.18693099915981293,-0.30063146352767944,-0.035291679203510284
1727009941010084900,0.0390849609375,0.12743918597698212,-0.35080915689468384,0.009344765916466713
1727009941020123000,0.049122802734375,0.1315455138683319,-0.29420873522758484,-0.1678028553724289
1727009941030161000,0.059160888671875,0.25156140327453613,-0.08896049857139587,-0.021884791553020477
1727009941040198000,0.069197998046875,0.29803675413131714,0.1516113579273224,0.0032349417451769114
1727009941050235600,0.079235595703125,0.31008249521255493,0.23338451981544495,0.06438351422548294
1727009941060274000,0.08927392578125,0.34040552377700806,0.19450770318508148,-0.0312761627137661
1727009941070311700,0.099311767578125,0.3629302680492401,0.17078745365142822,0.06387751549482346
1727009941080349700,0.109349609375,0.3995599150657654,0.1122642233967781,0.08733677119016647
1727009941090387000,0.119386962890625,0.4845922589302063,0.05453008785843849,0.2043430209159851
1727009941100424700,0.1294248046875,0.5513973832130432,-0.0033830134198069572,0.21248696744441986
1727009941110463000,0.139462890625,0.6112010478973389,0.014513429254293442,0.06560137867927551
1727009941120500700,0.149500732421875,0.5623099207878113,0.18344439566135406,0.09231927990913391
1727009941130538800,0.159538818359375,0.5069641470909119,0.37748950719833374,0.052689310163259506
1727009941140576800,0.16957666015625,0.5067310929298401,0.5247098207473755,0.12863360345363617
1727009941150613800,0.17961376953125,0.4968435764312744,0.6692113876342773,0.1701538860797882
1727009941160651800,0.18965185546875,0.47822755575180054,0.8418518304824829,0.2895205020904541
1727009941170689800,0.199689697265625,0.4854969382286072,0.7933908104896545,0.3043005168437958
1727009941180727800,0.209727783203125,0.5295847654342651,0.6376758217811584,0.2807547152042389
1727009941190765800,0.219765869140625,0.6034294366836548,0.4373999834060669,0.056049685925245285
1727009941200802800,0.229802734375,0.5657627582550049,0.23631373047828674,-0.19720840454101562
1727009941210840600,0.239840576171875,0.32539913058280945,0.05736395716667175,-0.2968612313270569
1727009941220878800,0.24987890625,0.17570525407791138,0.11758202314376831,-0.051242679357528687
1727009941230916900,0.259916748046875,0.31023669242858887,0.20460879802703857,-0.0904926136136055
1727009941240955000,0.269954833984375,0.5128998160362244,0.2727087736129761,0.09811591356992722
1727009941250993000,0.279992919921875,0.4830321669578552,0.20542186498641968,0.12506018579006195
1727009941261029600,0.290029541015625,0.34340184926986694,0.16081444919109344,0.35070502758026123
1727009941271068000,0.30006787109375,0.3219301104545593,0.10284116119146347,0.14635108411312103
1727009941281105700,0.310105712890625,0.4538620412349701,0.0950269103050232,-0.1520952582359314
1727009941291144000,0.32014404296875,0.5518543720245361,0.08080723136663437,-0.3917379379272461
1727009941301181700,0.330181640625,0.5713948011398315,0.12314057350158691,-0.19772745668888092
1727009941311218700,0.34021875,0.5717068910598755,0.2786172330379486,0.053522612899541855
1727009941321257000,0.350257080078125,0.6288016438484192,0.4436964690685272,0.0964232087135315
1727009941331294700,0.360294677734375,0.7584158182144165,0.5954782962799072,0.34095999598503113
1727009941341333000,0.3703330078125,0.7906818985939026,0.5744784474372864,0.28285539150238037
1727009941351370800,0.380370849609375,0.6912583708763123,0.5516865849494934,0.2692253589630127
1727009941361408800,0.39040869140625,0.638681948184967,0.4497336149215698,0.0030045784078538418
1727009941371446000,0.400446044921875,0.6986755132675171,0.35035136342048645,-0.01630573719739914
1727009941381483800,0.41048388671875,0.7048210501670837,0.2818247675895691,-0.1691645234823227
1727009941391521800,0.420521728515625,0.6284056305885315,0.3507516384124756,-0.11276037245988846
1727009941401559800,0.430559814453125,0.5929855704307556,0.4542314112186432,0.08919458836317062
1727009941411597800,0.440597900390625,0.5975843071937561,0.47887951135635376,0.23561544716358185
1727009941421634800,0.450634765625,0.5778721570968628,0.4480654001235962,0.21519513428211212
1727009941431672800,0.4606728515625,0.5429671406745911,0.3605443239212036,0.08620146661996841
1727009941441710600,0.470710693359375,0.516670286655426,0.2937333583831787,0.09923630207777023
1727009941451748900,0.480748779296875,0.4863893389701843,0.20015865564346313,-0.11415746808052063
1727009941461786600,0.49078662109375,0.5024982690811157,0.29219457507133484,-0.014809305779635906
1727009941471823600,0.50082373046875,0.5205915570259094,0.38349413871765137,-0.08532848209142685
1727009941481862000,0.51086181640625,0.5145331025123596,0.35903939604759216,0.09678273648023605
1727009941491899600,0.520899658203125,0.487638920545578,0.4361642599105835,0.15415601432323456
1727009941501938000,0.53093798828125,0.47196248173713684,0.521750271320343,0.1771649271249771
1727009941511975700,0.5409755859375,0.47336357831954956,0.4981887638568878,0.16320650279521942
1727009941522014000,0.551013916015625,0.47544482350349426,0.3851471543312073,0.09592679888010025
1727009941532051000,0.561051025390625,0.487606942653656,0.2740435302257538,0.09751510620117188
1727009941542088700,0.571088623046875,0.4734370708465576,0.2931322753429413,0.02215483784675598
1727009941552127000,0.581126953125,0.42559176683425903,0.3791148364543915,-0.13992327451705933
1727009941562164700,0.591164794921875,0.4193858206272125,0.5400456786155701,-0.030912375077605247
1727009941572202800,0.60120263671875,0.44170230627059937,0.6146184206008911,0.22475774586200714
1727009941582240000,0.611239990234375,0.40817418694496155,0.5975595712661743,0.34990954399108887
1727009941592278300,0.6212783203125,0.3363116979598999,0.43449074029922485,0.27380916476249695
1727009941602316000,0.63131591796875,0.277346134185791,0.1752690225839615,0.13458923995494843
1727009941612354300,0.641354248046875,0.1912360042333603,0.06366419792175293,0.026310166344046593
1727009941622392000,0.65139208984375,0.07914994657039642,0.16782468557357788,-0.11808030307292938
1727009941632430000,0.66143017578125,0.012285694479942322,0.32870492339134216,-0.13539616763591766
1727009941642467300,0.67146728515625,-0.007336475886404514,0.2831480801105499,-0.0002697782183531672
1727009941652505000,0.681505126953125,-0.030341394245624542,0.0955483615398407,0.0205159280449152
1727009941662543000,0.691543212890625,-0.100719153881073,0.03990906476974487,0.19667311012744904
1727009941672581000,0.7015810546875,-0.12880457937717438,0.08125251531600952,-0.008444617502391338
1727009941682619100,0.711619140625,-0.043893687427043915,0.07350857555866241,0.09452490508556366
1727009941692656400,0.721656494140625,-0.03442908078432083,0.023144466802477837,-0.09702854603528976
1727009941702694100,0.731694091796875,-0.11608106642961502,0.04181988537311554,-0.0659361407160759
1727009941712732200,0.741732177734375,-0.15545536577701569,0.13439776003360748,-0.17133232951164246
1727009941722770200,0.751770263671875,-0.08135451376438141,0.2682226598262787,0.0546824187040329
1727009941732808200,0.76180810546875,0.02991475537419319,0.31825387477874756,-0.04242682084441185
1727009941742845200,0.77184521484375,0.10222224146127701,0.13374421000480652,0.07521273195743561
1727009941752883200,0.78188330078125,0.09090673923492432,0.007200388703495264,0.10198868066072464
1727009941762921200,0.791921142578125,0.07592885196208954,0.010463293641805649,0.1555592268705368
1727009941772959200,0.801959228515625,0.1410391479730606,0.11450287699699402,0.08833332359790802
1727009941782997200,0.811997314453125,0.22852638363838196,0.27349600195884705,-0.007983624003827572
1727009941793035300,0.82203515625,0.2539750039577484,0.3554382622241974,-0.10379403829574585
1727009941803072300,0.832072265625,0.26214054226875305,0.24462838470935822,-0.03744297847151756
1727009941813110000,0.842110107421875,0.3070387840270996,0.09406124800443649,0.16030152142047882
1727009941823148300,0.852148193359375,0.3303334414958954,0.18241748213768005,0.25271880626678467
1727009941833186000,0.86218603515625,0.32638904452323914,0.35845693945884705,0.1142786368727684
1727009941843224300,0.872224365234375,0.3292607069015503,0.46446913480758667,0.15406520664691925
1727009941853261300,0.88226123046875,0.31231236457824707,0.41996505856513977,0.03290868178009987
1727009941863299000,0.892299072265625,0.27986466884613037,0.2701457440853119,0.15812945365905762
1727009941873337300,0.90233740234375,0.2404046207666397,0.15595471858978271,0.13567900657653809
1727009941883375000,0.912375,0.21896830201148987,0.1242990493774414,0.03147909790277481
1727009941893413000,0.9224130859375,0.18746523559093475,0.1919260323047638,-0.04939178377389908
1727009941903451100,0.932451171875,0.1006147563457489,0.2570195496082306,0.07885433733463287
1727009941913488100,0.942488037109375,0.017403757199645042,0.2308470606803894,0.06619712710380554
1727009941923526400,0.9525263671875,0.012829778715968132,0.19870057702064514,-0.07422123104333878
1727009941933564200,0.962564208984375,0.03501790389418602,0.051597412675619125,-0.029689718037843704
1727009941943602200,0.972602294921875,0.013492372818291187,-0.09504102915525436,0.002861566608771682
1727009941953640200,0.98264013671875,-0.03520352765917778,-0.17965498566627502,-0.01378265768289566
1727009941963677200,0.99267724609375,-0.07440339028835297,0.0027475832030177116,0.06235871464014053
1727009941973715000,1.00271484375,-0.07750996947288513,0.21569101512432098,0.07190828025341034
1727009941983753200,1.012753173828125,-0.05837063118815422,0.22995224595069885,0.1511405110359192
1727009941993791000,1.022791015625,-0.06895483285188675,0.19027407467365265,0.09721896052360535
1727009942003829200,1.032829345703125,-0.1209205612540245,-0.015962189063429832,-0.020742828026413918
1727009942013867300,1.0428671875,-0.12945891916751862,-0.20711830258369446,-0.07129308581352234
1727009942023904000,1.052904052734375,-0.09851884841918945,-0.20800459384918213,0.04888258874416351
1727009942033942300,1.0629423828125,-0.07232852280139923,-0.024408403784036636,-0.08243149518966675
1727009942043980000,1.07297998046875,-0.029149096459150314,0.2270059883594513,0.12712493538856506
1727009942054018300,1.083018310546875,-0.024465927854180336,0.36588823795318604,0.128327876329422
1727009942064056000,1.09305615234375,-0.06447432935237885,0.3610711097717285,0.234856978058815
1727009942074093000,1.103093017578125,-0.07710277289152145,0.27430853247642517,0.11670025438070297
1727009942084131300,1.11313134765625,-0.01786874607205391,0.12375656515359879,0.1327439248561859
1727009942094169000,1.123169189453125,0.017733989283442497,0.006304501090198755,0.06018637493252754
1727009942104207400,1.133207275390625,-0.033669546246528625,-0.06730420887470245,0.10681939125061035
1727009942114245000,1.1432451171875,-0.16340863704681396,-0.05098888278007507,0.004795554094016552
1727009942124283100,1.153283203125,-0.27013641595840454,0.006892260629683733,-0.11934849619865417
1727009942134320400,1.1633203125,-0.29834726452827454,-0.063828244805336,-0.12006222456693649
1727009942144358100,1.173358154296875,-0.33080214262008667,-0.18833449482917786,-0.1815468966960907
1727009942154396200,1.183396240234375,-0.3941132128238678,-0.298229843378067,0.1150946319103241
1727009942164434200,1.19343408203125,-0.48868924379348755,-0.31956788897514343,0.11005912721157074
1727009942174472200,1.20347216796875,-0.5433706045150757,-0.24750939011573792,0.20998892188072205
1727009942184509200,1.21350927734375,-0.5783373713493347,-0.06429137289524078,0.04397891089320183
1727009942194547200,1.223547119140625,-0.5910374522209167,-0.006956709548830986,0.03875831514596939
1727009942204585000,1.2335849609375,-0.6382164359092712,-0.20210649073123932,-0.17618700861930847
1727009942214623200,1.243623291015625,-0.7271806597709656,-0.3392523527145386,-0.11158698052167892
1727009942224661000,1.253660888671875,-0.8152695298194885,-0.42695266008377075,-0.2762094736099243
1727009942234699300,1.26369921875,-0.8140311241149902,-0.547757625579834,-0.14737214148044586
1727009942244736300,1.273736328125,-0.7484942078590393,-0.6394316554069519,-0.07870626449584961
1727009942254774000,1.28377392578125,-0.7138603329658508,-0.6362651586532593,0.0648474395275116
1727009942264812300,1.293812255859375,-0.748141348361969,-0.5867249965667725,-0.14552311599254608
1727009942274850000,1.30385009765625,-0.7375677824020386,-0.38646143674850464,-0.08559772372245789
1727009942284888300,1.313888427734375,-0.6925861835479736,-0.2784595787525177,-0.09127265214920044
1727009942294926000,1.323926025390625,-0.6402468085289001,-0.23112961649894714,-0.011491007171571255
1727009942304963000,1.333963134765625,-0.6305513381958008,-0.26569610834121704,0.12291394174098969
1727009942315001300,1.34400146484375,-0.6576777696609497,-0.31450361013412476,0.048767805099487305
1727009942325039000,1.3540390625,-0.637346088886261,-0.4033019244670868,-0.09864535182714462
1727009942335077400,1.364077392578125,-0.5659627318382263,-0.43753206729888916,-0.052384644746780396
1727009942345115100,1.374115234375,-0.5313022136688232,-0.4204987585544586,-0.09683679789304733
1727009942355153200,1.384153076171875,-0.4968196153640747,-0.36739611625671387,-0.1772024780511856
1727009942365190100,1.394190185546875,-0.4244937598705292,-0.23062895238399506,-0.13025334477424622
1727009942375228200,1.404228271484375,-0.38329944014549255,-0.015791745856404305,-0.02954164706170559
1727009942385266200,1.41426611328125,-0.35490643978118896,0.10556957125663757,-0.08227702975273132
1727009942395304200,1.42430419921875,-0.24765560030937195,0.11816152930259705,0.08444724231958389
1727009942405342200,1.43434228515625,-0.16910620033740997,-0.01350595522671938,0.1528974026441574
1727009942415379200,1.444379150390625,-0.15691344439983368,-0.12586446106433868,0.11451006680727005
1727009942425417200,1.454417236328125,-0.16600441932678223,-0.1628538966178894,-0.0006524744676426053
1727009942435455000,1.464455078125,-0.16042056679725647,-0.09437070786952972,-0.005574528593569994
1727009942445493200,1.4744931640625,-0.12735582888126373,0.014616493135690689,-0.18119162321090698
1727009942455531000,1.484531005859375,-0.11313161253929138,0.09366656839847565,-0.13985857367515564
1727009942465569300,1.4945693359375,-0.14282558858394623,0.0747717097401619,-0.11479742079973221
1727009942475606300,1.504606201171875,-0.11089535802602768,0.011329087428748608,0.17970691621303558
1727009942485644000,1.51464404296875,-0.04297889396548271,-0.015320366248488426,0.198000967502594
1727009942495682300,1.524682373046875,-0.009634784422814846,-0.11227620393037796,0.13506540656089783
1727009942505720000,1.534719970703125,-0.01534912921488285,-0.26463139057159424,0.1414085328578949
1727009942515758300,1.54475830078125,-0.03832581639289856,-0.2906648516654968,-0.019340675324201584
1727009942525796000,1.554796142578125,-0.04019429162144661,-0.1996806263923645,-0.16471464931964874
1727009942535833000,1.5648330078125,0.008292817510664463,-0.08337505161762238,-0.2075188308954239
1727009942545871400,1.574871337890625,0.05019712448120117,-0.007705856580287218,-0.03844299539923668
1727009942555909000,1.5849091796875,0.05439932644367218,0.1068931594491005,0.04983440041542053
1727009942565947100,1.594947021484375,0.07718560099601746,0.05263977497816086,0.2503669559955597
1727009942575985200,1.604985107421875,0.08871176093816757,0.0010349043877795339,0.23173309862613678
1727009942586026500,1.615026611328125,0.06875349581241608,0.0187798123806715,0.19246798753738403
1727009942596063500,1.6250634765625,0.07040732353925705,-0.051532432436943054,-0.05535620078444481
1727009942606101500,1.6351015625,0.08413751423358917,-0.0849524438381195,-0.18886792659759521
1727009942616139500,1.645139404296875,0.08833305537700653,0.06186789646744728,-0.09639684110879898
1727009942626177500,1.655177490234375,0.12424205988645554,0.13663268089294434,-0.1712772101163864
1727009942636215600,1.665215576171875,0.16709046065807343,0.12006276100873947,0.07870812714099884
1727009942646253300,1.67525341796875,0.18615096807479858,0.08285760134458542,0.16586992144584656
1727009942656290600,1.68529052734375,0.21059319376945496,-0.00806032307446003,0.1978856474161148
1727009942666328300,1.695328369140625,0.22209592163562775,0.04495362564921379,0.21338844299316406
1727009942676366600,1.70536669921875,0.22040081024169922,0.1252197027206421,0.014143249951303005
1727009942686404400,1.715404296875,0.25380271673202515,-0.03997724503278732,-0.08186663687229156
1727009942696442400,1.7254423828125,0.2674626111984253,-0.018725750967860222,0.04929085075855255
1727009942706480400,1.73548046875,0.24668647348880768,0.2716485559940338,-0.20480453968048096
1727009942716517400,1.745517333984375,0.30886223912239075,0.2681629955768585,-0.09940914809703827
1727009942726555400,1.755555419921875,0.404746413230896,0.1131473258137703,0.1196715384721756
1727009942736593400,1.765593505859375,0.38685503602027893,0.0503033846616745,0.24647049605846405
1727009942746631400,1.77563134765625,0.308769553899765,0.03393746167421341,0.11999990791082382
1727009942756669400,1.78566943359375,0.32868361473083496,0.2555406987667084,0.019952936097979546
1727009942766707500,1.79570751953125,0.4192739725112915,0.5251290202140808,-0.058147724717855453
1727009942776744400,1.805744384765625,0.4653679430484772,0.6780921816825867,-0.17989785969257355
1727009942786782500,1.815782470703125,0.42102178931236267,0.5691161751747131,0.000651675509288907
1727009942796820500,1.825820556640625,0.3986070454120636,0.3351023495197296,0.16194017231464386
1727009942806858500,1.8358583984375,0.4422309398651123,0.12843173742294312,0.18632300198078156
1727009942816896500,1.845896484375,0.4454704225063324,0.19930139183998108,0.28064072132110596
1727009942826934500,1.8559345703125,0.3628242611885071,0.39117947220802307,-0.07983890920877457
1727009942836971500,1.865971435546875,0.3010200262069702,0.4838721454143524,-0.03190227225422859
1727009942847009500,1.876009521484375,0.2823163866996765,0.492353230714798,-0.003935352899134159
1727009942857047600,1.886047607421875,0.2451935112476349,0.368390291929245,0.01356587652117014
1727009942867085600,1.89608544921875,0.17536090314388275,0.1375831663608551,-0.1778498888015747
1727009942877123300,1.906123291015625,0.10247364640235901,-0.0986352264881134,0.19436921179294586
1727009942887161600,1.91616162109375,-0.028728317469358444,-0.18897870182991028,0.27340278029441833
1727009942897198300,1.9261982421875,-0.14233849942684174,-0.20134323835372925,0.16894268989562988
1727009942907236600,1.936236572265625,-0.18926899135112762,-0.20276109874248505,-0.01338478084653616
1727009942917274400,1.9462744140625,-0.29136180877685547,-0.24942713975906372,-0.2625197768211365
1727009942927312400,1.9563125,-0.4470509886741638,-0.3267799913883209,-0.40768787264823914
1727009942937350400,1.966350341796875,-0.5093801617622375,-0.3725717067718506,-0.2316494733095169
1727009942947388400,1.976388427734375,-0.47378939390182495,-0.42372065782546997,-0.05058381333947182
1727009942957425400,1.98642529296875,-0.46724840998649597,-0.3269120752811432,0.06299787759780884
1727009942967463400,1.99646337890625,-0.5311405658721924,-0.09903683513402939,0.10283556580543518
1727009942977501400,2.00650146484375,-0.5732483267784119,-0.04289766773581505,0.09836731851100922
1727009942987539500,2.01653955078125,-0.5626697540283203,-0.1367461234331131,-0.032948095351457596
1727009942997577500,2.026577392578125,-0.5466535091400146,-0.38032975792884827,-0.12335415929555893
1727009943007615500,2.036615478515625,-0.5829465389251709,-0.5618904829025269,-0.22988086938858032
1727009943017652500,2.046652587890625,-0.6001769304275513,-0.6228446364402771,-0.12107715755701065
1727009943027690500,2.0566904296875,-0.5320433974266052,-0.5687100291252136,-0.05474101006984711
1727009943037728500,2.066728515625,-0.4162403643131256,-0.49342596530914307,0.029866551980376244
1727009943047766500,2.0767666015625,-0.39441707730293274,-0.26737257838249207,0.008519185706973076
1727009943057804500,2.086804443359375,-0.46440789103507996,-0.1973538100719452,-0.03238723427057266
1727009943067842600,2.096842529296875,-0.48282390832901,-0.3066459596157074,0.08662570267915726
1727009943077879600,2.106879638671875,-0.44674474000930786,-0.4686899781227112,-0.04145662859082222
1727009943087917600,2.11691748046875,-0.4097329378128052,-0.6178706884384155,-0.04217381775379181
1727009943097955600,2.12695556640625,-0.4081893563270569,-0.5829667448997498,-0.1584961712360382
1727009943107993300,2.136993408203125,-0.450541615486145,-0.3659510910511017,-0.2392623871564865
1727009943118031600,2.147031494140625,-0.45685622096061707,-0.06565624475479126,-0.07541592419147491
1727009943128069400,2.1570693359375,-0.3531434237957001,-0.06772258877754211,0.13521455228328705
1727009943138107600,2.167107666015625,-0.2921426296234131,-0.2685936391353607,0.27077317237854004
1727009943148144400,2.177144287109375,-0.3474578261375427,-0.31429722905158997,0.2801451086997986
1727009943158182400,2.187182373046875,-0.3735956847667694,-0.22232495248317719,0.010458766482770443
1727009943168220400,2.197220458984375,-0.31582319736480713,-0.06658009439706802,-0.09487218409776688
1727009943178258400,2.207258544921875,-0.22068551182746887,-0.1061224415898323,-0.2960697412490845
1727009943188296400,2.21729638671875,-0.16859354078769684,-0.22025354206562042,-0.3122106194496155
1727009943198334500,2.22733447265625,-0.21262705326080322,-0.3989415168762207,-0.018917765468358994
1727009943208371500,2.237371337890625,-0.19536229968070984,-0.5166385769844055,0.0348365418612957
1727009943218409500,2.247409423828125,-0.07057297229766846,-0.37179434299468994,0.1774381697177887
1727009943228447500,2.257447509765625,0.02347576431930065,-0.08888965845108032,0.2551358938217163
1727009943238485500,2.267485595703125,0.03978975862264633,0.05756768956780434,0.09952392429113388
1727009943248523500,2.2775234375,0.007400658447295427,0.09795026481151581,-0.011330419220030308
1727009943258561300,2.287561279296875,-0.0020383833907544613,-0.05469120666384697,-0.2521773874759674
1727009943268599600,2.297599609375,0.07912757247686386,-0.2644825279712677,-0.11036672443151474
1727009943278636500,2.307636474609375,0.14812181890010834,-0.2569284737110138,-0.002170742489397526
1727009943288674300,2.31767431640625,0.16229063272476196,-0.04953426495194435,-0.13573358952999115
1727009943298712600,2.327712646484375,0.16347414255142212,0.06868505477905273,-0.03133528679609299
1727009943308750300,2.337750244140625,0.18102625012397766,0.3815699815750122,0.44174331426620483
1727009943318788600,2.34778857421875,0.18850359320640564,0.3334823548793793,0.21066775918006897
1727009943328826400,2.357826416015625,0.19348078966140747,0.11433110386133194,0.1498323678970337
1727009943338863400,2.36786328125,0.13734161853790283,-0.12125532329082489,0.09589669853448868
1727009943348901600,2.377901611328125,0.08273695409297943,-0.12066596746444702,-0.16649682819843292
1727009943358939400,2.387939453125,0.12238290160894394,-0.020743360742926598,-0.43952277302742004
1727009943368977700,2.397977783203125,0.1981479674577713,0.1086423248052597,-0.18533949553966522
1727009943379015400,2.408015380859375,0.19487494230270386,0.2042846977710724,-0.010378072038292885
1727009943389053700,2.4180537109375,0.15168192982673645,0.10812540352344513,0.27544623613357544
1727009943399091500,2.428091552734375,0.1467401683330536,0.08469811081886292,0.3133355379104614
1727009943409128400,2.43812841796875,0.1463335156440735,0.009987653233110905,0.1786389797925949
1727009943419166500,2.44816650390625,0.08557162433862686,-0.033897511661052704,0.063352070748806
1727009943429204500,2.45820458984375,0.0019917781464755535,0.06967628002166748,-0.13713201880455017
1727009943439242200,2.4682421875,-0.017729196697473526,0.075220987200737,-0.24759541451931
1727009943449280500,2.478280517578125,-0.023839818313717842,0.11771784722805023,-0.21787559986114502
1727009943459318300,2.488318359375,-0.02786545269191265,-0.09531373530626297,-0.08815889060497284
1727009943469356500,2.4983564453125,-0.042086731642484665,-0.12702345848083496,0.4164313077926636
1727009943479393500,2.5083935546875,-0.11166954040527344,-0.14510951936244965,0.34850257635116577
1727009943489431300,2.518431396484375,-0.14058373868465424,-0.15537866950035095,0.13165496289730072
1727009943499469600,2.528469482421875,-0.12251712381839752,-0.14564907550811768,-0.12488307803869247
1727009943509507300,2.53850732421875,-0.17528899013996124,-0.21195566654205322,-0.3852081298828125
1727009943519545600,2.548545654296875,-0.2591801583766937,-0.2468654364347458,-0.4626496732234955
1727009943529583400,2.558583251953125,-0.29554110765457153,-0.2226511836051941,-0.18384332954883575
1727009943539621400,2.568621337890625,-0.25319817662239075,-0.16316309571266174,0.10283849388360977
1727009943549658600,2.57865869140625,-0.18026325106620789,-0.0754430890083313,0.37125930190086365
1727009943559696400,2.5886962890625,-0.22529436647891998,-0.0928841307759285,0.2987515330314636
1727009943569734700,2.598734619140625,-0.3157089650630951,-0.11535961180925369,0.08253029733896255
1727009943579773000,2.60877294921875,-0.3083314597606659,-0.12927329540252686,-0.039192408323287964
1727009943589811000,2.61881103515625,-0.27208665013313293,-0.02641296572983265,-0.3153177499771118
1727009943599849000,2.628848876953125,-0.23524820804595947,-0.038536205887794495,-0.4210132658481598
1727009943609886000,2.638885986328125,-0.20600642263889313,-0.08711200207471848,-0.16961006820201874
1727009943619923700,2.648923828125,-0.21780076622962952,-0.2493342012166977,0.11392603814601898
1727009943629962000,2.6589619140625,-0.22413429617881775,-0.40156927704811096,0.345305472612381
1727009943639999700,2.668999755859375,-0.1881110519170761,-0.3595624268054962,0.3846190571784973
1727009943650038000,2.6790380859375,-0.1670992374420166,-0.20229211449623108,0.15171469748020172
1727009943660075800,2.68907568359375,-0.1990281492471695,-0.05865905061364174,-0.25045326352119446
1727009943670114000,2.699114013671875,-0.2302451878786087,0.06690286844968796,-0.40975049138069153
1727009943680151000,2.709151123046875,-0.2002556025981903,-0.024828383699059486,-0.3427291214466095
1727009943690188800,2.719188720703125,-0.146127387881279,-0.19618602097034454,-0.19864705204963684
1727009943700227000,2.72922705078125,-0.11787497252225876,-0.3056991994380951,0.18885913491249084
1727009943710264800,2.739264892578125,-0.11083490401506424,-0.38964229822158813,0.48729801177978516
1727009943720302800,2.749302734375,-0.13479270040988922,-0.40320444107055664,0.3638983368873596
1727009943730340900,2.7593408203125,-0.20077331364154816,-0.2508860230445862,0.22078937292099
1727009943740379000,2.76937890625,-0.231585294008255,-0.05964522063732147,-0.4431705176830292
1727009943750416100,2.779416015625,-0.17200158536434174,0.02478204481303692,-0.3389631509780884
1727009943760454000,2.789453857421875,-0.11647175252437592,-0.047076962888240814,-0.3489744961261749
1727009943770492000,2.799491943359375,-0.06567088514566422,-0.3066805601119995,-0.1755678355693817
1727009943780530000,2.809530029296875,-0.03483574464917183,-0.4558229148387909,0.2321634590625763
1727009943790568000,2.81956787109375,-0.054374825209379196,-0.35569071769714355,0.24421186745166779
1727009943800606000,2.82960595703125,-0.07232213020324707,-0.15876248478889465,0.21378739178180695
1727009943810644000,2.83964404296875,-0.04866980016231537,0.09688074141740799,0.2437383532524109
1727009943820681000,2.849680908203125,0.003837615018710494,0.004342284053564072,-0.12752068042755127
1727009943830719000,2.859718994140625,0.06768263876438141,-0.14823207259178162,0.042864374816417694
1727009943840757000,2.869757080078125,0.08640226721763611,-0.34739869832992554,-0.23804078996181488
1727009943850795000,2.879794921875,0.09610176831483841,-0.4590064585208893,-0.149773508310318
1727009943860833000,2.8898330078125,0.11364134401082993,-0.3380419611930847,0.021141504868865013
1727009943870870800,2.899870849609375,0.17632976174354553,-0.15468011796474457,0.16030898690223694
1727009943880909000,2.909908935546875,0.21788759529590607,0.04519917070865631,0.1880234330892563
1727009943890945800,2.91994580078125,0.21154792606830597,0.2084573358297348,0.1568836271762848
1727009943900983800,2.92998388671875,0.19761161506175995,0.22033503651618958,-0.07051544636487961
1727009943911021800,2.940021728515625,0.20018315315246582,0.022974025458097458,-0.1430191993713379
1727009943921059800,2.950059814453125,0.24738343060016632,-0.2867928743362427,0.015049522742629051
1727009943931098000,2.96009814453125,0.24968945980072021,-0.4592711925506592,0.022578811272978783
1727009943941136000,2.970135986328125,0.17535637319087982,-0.31033337116241455,-0.06942807883024216
1727009943951174100,2.980174072265625,0.1537267118692398,-0.025788987055420876,0.004061853047460318
1727009943961211000,2.9902109375,0.19825182855129242,0.17803125083446503,0.03248230740427971
1727009943971249000,3.000248779296875,0.24259240925312042,0.10066802054643631,-0.0062365904450416565
1727009943981287000,3.010286865234375,0.2284800410270691,-0.16884201765060425,0.023661652579903603
1727009943991325000,3.020324951171875,0.15612994134426117,-0.34612998366355896,0.05658285319805145
1727009944001363000,3.030363037109375,0.10933447629213333,-0.32678425312042236,-0.027580229565501213
1727009944011401000,3.04040087890625,0.15235012769699097,-0.22910615801811218,0.0390576533973217
1727009944021438700,3.050438720703125,0.1895294487476349,-0.153729647397995,0.045516084879636765
1727009944031476000,3.06047607421875,0.16282141208648682,-0.1280575692653656,-0.00956554152071476
1727009944041514000,3.070513916015625,0.15357597172260284,-0.1162179559469223,-0.14924433827400208
1727009944051551700,3.0805517578125,0.1819857805967331,-0.14599661529064178,-0.1909763514995575
1727009944061590000,3.090590087890625,0.21631605923175812,-0.1372598558664322,-0.055500809103250504
1727009944071627800,3.100627685546875,0.3007606267929077,-0.15239033102989197,0.12049365788698196
1727009944081666000,3.110666015625,0.376200795173645,-0.23302286863327026,0.26023396849632263
1727009944091703800,3.120703857421875,0.3386683464050293,-0.24042752385139465,0.24890142679214478
1727009944101740800,3.13074072265625,0.3149217367172241,-0.06499870866537094,0.1767292320728302
1727009944111779000,3.140779052734375,0.4042859673500061,0.061053767800331116,0.030964307487010956
1727009944121816800,3.15081689453125,0.47904300689697266,0.015733689069747925,-0.21810756623744965
1727009944131855000,3.160855224609375,0.4501298666000366,-0.012175706215202808,-0.26020708680152893
1727009944141892900,3.170892822265625,0.40391311049461365,0.04832811653614044,-0.14534041285514832
1727009944151931000,3.180930908203125,0.4881848692893982,0.1300610601902008,0.002080195117741823
1727009944161969000,3.190968994140625,0.633162796497345,0.18880774080753326,0.10215885937213898
1727009944172006000,3.201005859375,0.7195485830307007,0.2202567309141159,0.2600153386592865
1727009944182044000,3.2110439453125,0.7037738561630249,0.2669656574726105,0.3379676640033722
1727009944192082000,3.22108203125,0.6804277896881104,0.20574809610843658,0.2621176242828369
1727009944202120000,3.231119873046875,0.7795658111572266,0.12771694362163544,0.13733229041099548
1727009944212158000,3.241157958984375,0.8373039364814758,0.27868062257766724,-0.055650744587183
1727009944222196000,3.251196044921875,0.7663626670837402,0.5463629364967346,-0.2281109243631363
1727009944232234000,3.26123388671875,0.7526798844337463,0.7072165608406067,-0.11748775094747543
1727009944242271000,3.27127099609375,0.8531731963157654,0.7951610684394836,0.04658374562859535
1727009944252308700,3.281308837890625,0.9494848251342773,0.5447331070899963,0.03723125904798508
1727009944262347000,3.291346923828125,0.9376862049102783,0.30808591842651367,0.1717272847890854
1727009944272384800,3.301384765625,0.8471901416778564,0.26295092701911926,0.10653523355722427
1727009944282423000,3.311423095703125,0.8745940923690796,0.29513365030288696,0.10412347316741943
1727009944292460800,3.321460693359375,0.9807053208351135,0.4776214361190796,-0.0036538569256663322
1727009944302498800,3.331498779296875,0.997187614440918,0.6565538644790649,-0.09098690003156662
1727009944312536800,3.341536865234375,0.9155350923538208,0.7537710070610046,-0.022704247385263443
1727009944322573800,3.35157373046875,0.8712760210037231,0.7970878481864929,0.18647347390651703
1727009944332612000,3.361612060546875,0.9440312385559082,0.8081409931182861,0.33782199025154114
1727009944342649900,3.37164990234375,1.0221627950668335,0.9212167263031006,0.45033788681030273
1727009944352687900,3.38168798828125,0.9586053490638733,0.943821907043457,0.31890660524368286
1727009944362726000,3.391725830078125,0.813736617565155,0.7848471403121948,0.1753009855747223
1727009944372764000,3.401763916015625,0.645552396774292,0.6151587963104248,0.30920472741127014
1727009944382801000,3.41180078125,0.5082964897155762,0.5191238522529602,0.11499875783920288
1727009944392839000,3.4218388671875,0.4371349811553955,0.4237659275531769,0.009080314077436924
1727009944402877000,3.431876953125,0.33696869015693665,0.34967997670173645,-0.021330323070287704
1727009944412915000,3.4419150390625,0.17957241833209991,0.2729162275791168,-0.014886004850268364
1727009944422953000,3.451952880859375,0.06961076706647873,0.36652418971061707,0.014566159807145596
1727009944432991000,3.461990966796875,0.057444650679826736,0.44458359479904175,0.08467147499322891
1727009944443029000,3.472029052734375,0.08031055331230164,0.30393192172050476,0.09667700529098511
1727009944453066000,3.48206591796875,0.0010910971323028207,0.10613309592008591,0.19201630353927612
1727009944463104000,3.49210400390625,-0.16083203256130219,0.08284161984920502,0.025171399116516113
1727009944473142000,3.50214208984375,-0.1703706681728363,0.1908642202615738,-0.03189002349972725
1727009944483179800,3.5121796875,-0.07325637340545654,0.3283371329307556,-0.11061146855354309
1727009944493218000,3.522218017578125,-0.059542421251535416,0.14377741515636444,-0.06160956993699074
1727009944503255800,3.532255859375,-0.1855110079050064,-0.0017699368763715029,0.2793474793434143
1727009944513294000,3.542294189453125,-0.34388095140457153,0.0095698032528162,0.3115605413913727
1727009944523331800,3.552331787109375,-0.29459622502326965,0.13901327550411224,0.07889588177204132
1727009944533368800,3.562368896484375,-0.1430964320898056,0.3836432695388794,-0.12426362931728363
1727009944543406800,3.57240673828125,-0.14061996340751648,0.37285932898521423,-0.35757118463516235
1727009944553444900,3.58244482421875,-0.259193480014801,0.2629892826080322,-0.010203901678323746
1727009944563483000,3.59248291015625,-0.316244512796402,0.024633174762129784,0.04942267760634422
1727009944573521000,3.60252099609375,-0.2253846526145935,-0.20078051090240479,0.1209820806980133
1727009944583554600,3.612554443359375,-0.1271747350692749,-0.16989876329898834,0.3972102105617523
1727009944593592300,3.62259228515625,-0.1856367141008377,0.013629792258143425,0.3173052668571472
1727009944603629300,3.63262939453125,-0.2506553828716278,0.2361432909965515,0.12147556245326996
1727009944613667600,3.64266748046875,-0.2114054560661316,0.30700868368148804,-0.07481272518634796
1727009944623705300,3.652705322265625,-0.12325961887836456,0.10641006380319595,-0.2950651943683624
1727009944633743600,3.66274365234375,-0.10355328768491745,-0.106911800801754,-0.19535458087921143
1727009944643781400,3.672781494140625,-0.16097530722618103,-0.15988340973854065,-0.03127589821815491
1727009944653819400,3.6828193359375,-0.14919321238994598,-0.06623787432909012,0.15795767307281494
1727009944663857400,3.692857421875,-0.05301368236541748,0.24393729865550995,0.2617727518081665
1727009944673894400,3.702894287109375,0.02574930526316166,0.3210163712501526,0.15830282866954803
1727009944683932400,3.712932373046875,0.012516857124865055,0.14791463315486908,0.2003442794084549
1727009944693970400,3.722970458984375,-0.09819208085536957,-0.003019758267328143,0.28100529313087463
1727009944704008400,3.733008544921875,-0.13433118164539337,-0.03476330637931824,-0.05692267045378685
1727009944714046500,3.74304638671875,-0.029753101989626884,0.2871079444885254,-0.2434997409582138
1727009944724084500,3.75308447265625,0.0469169095158577,0.38770246505737305,-0.40465906262397766
1727009944734122500,3.76312255859375,0.033061545342206955,0.24894990026950836,0.08164559304714203
1727009944744159500,3.773159423828125,-0.06391453742980957,0.09963098913431168,0.4388681650161743
1727009944754197200,3.783197265625,-0.1027442216873169,0.0526064857840538,0.25362321734428406
1727009944764235500,3.793235595703125,-0.030656712129712105,0.17636118829250336,0.12297545373439789
1727009944774273300,3.803273193359375,0.001079645473510027,0.32182836532592773,0.11824062466621399
1727009944784311600,3.8133115234375,-0.0842733383178711,0.3388132154941559,-0.06779582798480988
1727009944794349300,3.823349365234375,-0.1422508805990219,0.23065185546875,-0.03809891641139984
1727009944804387300,3.83338720703125,-0.10236552357673645,-0.01805143803358078,-0.29159295558929443
1727009944814424600,3.843424560546875,-0.07386836409568787,-0.159876748919487,-0.1443241536617279
1727009944824462300,3.85346240234375,-0.11064714938402176,-0.014882809482514858,0.11742009967565536
1727009944834500400,3.863500244140625,-0.10177616029977798,0.20521706342697144,0.18657787144184113
1727009944844538400,3.873538330078125,-0.02232661098241806,0.4025096297264099,0.34117037057876587
1727009944854576400,3.883576416015625,-0.026574086397886276,0.6622636914253235,-0.004484763368964195
1727009944864614400,3.893614501953125,-0.12156957387924194,0.4280027449131012,-0.20225456357002258
1727009944874652400,3.90365234375,-0.1894245147705078,-0.06939851492643356,0.3016815483570099
1727009944884689400,3.913689453125,-0.23526418209075928,-0.49317482113838196,0.348258912563324
1727009944894727400,3.9237275390625,-0.2939639687538147,-0.4094540774822235,-0.1258023977279663
1727009944904765400,3.933765380859375,-0.36066073179244995,-0.07808122038841248,-0.42912977933883667
1727009944914803500,3.943803466796875,-0.41123655438423157,0.20635689795017242,-0.3045162260532379
1727009944924841500,3.953841552734375,-0.42843762040138245,0.2880006432533264,-0.06586716324090958
1727009944934879500,3.96387939453125,-0.40067151188850403,0.050816576927900314,0.1940874457359314
1727009944944917500,3.97391748046875,-0.406422883272171,-0.2659461796283722,0.004779841285198927
1727009944954954500,3.98395458984375,-0.4275191128253937,-0.4357890188694,0.2757072150707245
1727009944964992500,3.993992431640625,-0.4610634744167328,-0.45764264464378357,0.3073034882545471
1727009944975030500,4.004030517578125,-0.4573307931423187,-0.33128100633621216,0.036614734679460526
1727009944985068300,4.014068359375,-0.46725159883499146,-0.23512543737888336,-0.2073952704668045
1727009944995106600,4.0241064453125,-0.5518269538879395,-0.2684839069843292,-0.30874693393707275
1727009945005144300,4.034144287109375,-0.6355096101760864,-0.3891959488391876,-0.23324550688266754
1727009945015182600,4.0441826171875,-0.6486597657203674,-0.6370052099227905,-0.04555337131023407
1727009945025219300,4.05421923828125,-0.6059221625328064,-0.8478215932846069,0.06580031663179398
1727009945035257300,4.06425732421875,-0.6174810528755188,-0.7472752928733826,0.08587416261434555
1727009945045295400,4.07429541015625,-0.7142720222473145,-0.47369033098220825,-0.18748201429843903
1727009945055333400,4.08433349609375,-0.7238474488258362,-0.141346737742424,-0.024297082796692848
1727009945065371400,4.094371337890625,-0.6403917074203491,-0.10917016118764877,-0.08248342573642731
1727009945075409400,4.104409423828125,-0.5740723609924316,-0.3389096260070801,-0.17444796860218048
1727009945085447400,4.114447509765625,-0.6238542795181274,-0.6673213243484497,-0.24229839444160461
1727009945095484400,4.124484375,-0.6953740119934082,-0.8013529181480408,0.07682020962238312
1727009945105522400,4.1345224609375,-0.6673349142074585,-0.6397120356559753,0.10655573755502701
1727009945115560400,4.144560546875,-0.5269958972930908,-0.456226110458374,0.06560750305652618
1727009945125598500,4.154598388671875,-0.47330018877983093,-0.4819820821285248,-0.11306583136320114
1727009945135636200,4.16463623046875,-0.5954340696334839,-0.34300342202186584,-0.1515117585659027
1727009945145674500,4.174674560546875,-0.6358896493911743,-0.29768362641334534,-0.08809123933315277
1727009945155712300,4.184712158203125,-0.4506433308124542,-0.5670000314712524,-0.02654346078634262
1727009945165749200,4.194749267578125,-0.24175670742988586,-0.8012474179267883,-0.08739429712295532
1727009945175787500,4.20478759765625,-0.17677903175354004,-0.7821288704872131,0.0034173682797700167
1727009945185825300,4.2148251953125,-0.23181885480880737,-0.4860074520111084,0.06877267360687256
1727009945195863600,4.224863525390625,-0.2384495884180069,-0.17014749348163605,0.027892883867025375
1727009945205901300,4.2349013671875,-0.07271281629800797,0.046416766941547394,0.12716035544872284
1727009945215939600,4.244939697265625,0.06244739890098572,0.11915062367916107,0.14971013367176056
1727009945225977300,4.254977294921875,0.021826734766364098,-0.0954439640045166,-0.2557673156261444
1727009945236014300,4.265014404296875,0.015532886609435081,-0.3516363203525543,-0.08938633650541306
1727009945246052600,4.275052490234375,0.14491377770900726,-0.418496310710907,-0.052016597241163254
1727009945256090400,4.28509033203125,0.3007981777191162,-0.4551568627357483,0.0038637141697108746
1727009945266128600,4.295128662109375,0.3640751540660858,-0.11463496834039688,0.30565792322158813
1727009945276166400,4.30516650390625,0.32800158858299255,0.26339009404182434,0.048767805099487305
1727009945286204400,4.315204345703125,0.33360326290130615,0.3951132297515869,-0.005656288005411625
1727009945296242400,4.325242431640625,0.4219387173652649,0.2872469425201416,-0.037454165518283844
1727009945306279400,4.335279541015625,0.49691522121429443,0.02420014515519142,-0.19488000869750977
1727009945316317400,4.3453173828125,0.4831474721431732,-0.4238940179347992,-0.021916218101978302
1727009945326355500,4.35535546875,0.48536109924316406,-0.5578970909118652,0.02702016569674015
1727009945336393500,4.3653935546875,0.5858112573623657,-0.4175335764884949,0.3538709878921509
1727009945346431500,4.375431396484375,0.685677707195282,0.019891949370503426,0.4183881878852844
1727009945356469500,4.385469482421875,0.5877916216850281,0.8335095047950745,0.2314329594373703
1727009945366507500,4.395507568359375,0.2833462357521057,1.2150161266326904,-0.049616556614637375
1727009945376544500,4.40554443359375,0.27215856313705444,0.9824103116989136,-0.6201782822608948
1727009945386582300,4.415582275390625,0.6967668533325195,0.3757464587688446,-0.17664960026741028
1727009945396620500,4.42562060546875,0.921276867389679,-0.33479368686676025,0.0263567715883255
1727009945406658300,4.435658203125,0.7577587962150574,-0.6899286508560181,-0.012219914235174656
1727009945416696300,4.4456962890625,0.5829017758369446,-0.3951664865016937,0.27750110626220703
1727009945426734300,4.455734375,0.5406930446624756,0.18873901665210724,0.5592409372329712
1727009945436771300,4.465771240234375,0.6022374033927917,1.105608344078064,0.40442976355552673
1727009945446809600,4.4758095703125,0.6691575646400452,1.605820894241333,0.07700397074222565
1727009945456847400,4.485847412109375,0.6134042739868164,1.261246681213379,-0.2205723226070404
1727009945466885400,4.495885498046875,0.46958667039871216,0.39965206384658813,-0.33268260955810547
1727009945476923400,4.50592333984375,0.4003612697124481,-0.49086931347846985,-0.19924519956111908
1727009945486961400,4.51596142578125,0.45039406418800354,-0.6259190440177917,0.21274928748607635
1727009945496999400,4.52599951171875,0.5245361924171448,-0.1361628919839859,0.16617804765701294
1727009945507036400,4.536036376953125,0.5639249086380005,0.6310631632804871,0.04885648936033249
1727009945517074400,4.546074462890625,0.4959524869918823,1.0933575630187988,0.3474588990211487
1727009945527112400,4.556112548828125,0.34914281964302063,0.9950280785560608,0.18695737421512604
1727009945537150500,4.566150390625,0.28918465971946716,0.6458082795143127,0.12952284514904022
1727009945547188500,4.5761884765625,0.3010176420211792,0.22709892690181732,-0.09227799624204636
1727009945557226500,4.5862265625,0.3360179662704468,0.029589051380753517,-0.26824796199798584
1727009945567264300,4.59626416015625,0.31672415137290955,-0.005474926438182592,-0.1813306361436844
1727009945577301500,4.606301513671875,0.2646971642971039,0.18811291456222534,0.06682776659727097
1727009945587339800,4.61633984375,0.2356194406747818,0.5299698710441589,0.2761514186859131
1727009945597377800,4.626377685546875,0.23132963478565216,0.674106776714325,0.33216115832328796
1727009945607415800,4.636415771484375,0.22509171068668365,0.6578298211097717,0.305182546377182
1727009945617453800,4.646453857421875,0.20724506676197052,0.4993975758552551,0.10683111101388931
1727009945627491800,4.656491943359375,0.2062021642923355,0.23990286886692047,-0.06136295944452286
1727009945637529900,4.66652978515625,0.20853190124034882,0.07879681140184402,-0.13225683569908142
1727009945647566800,4.67656689453125,0.1638035774230957,-0.02111220918595791,-0.12918515503406525
1727009945657604900,4.68660498046875,0.12032774090766907,-0.0157089214771986,-0.131855770945549
1727009945667643000,4.696642822265625,0.12377786636352539,0.16006051003932953,0.3352224826812744
1727009945677680600,4.7066806640625,0.15305133163928986,0.48942962288856506,0.5032996535301208
1727009945687719000,4.716718994140625,0.13177107274532318,0.708625078201294,-0.48760882019996643
1727009945697756700,4.726756591796875,0.08466428518295288,0.18425878882408142,0.03166285529732704
1727009945707795000,4.736794921875,0.05264962837100029,-0.2196205109357834,0.2935085892677307
1727009945717832000,4.74683203125,0.10450110584497452,-0.3098103106021881,0.7333291172981262
1727009945727869700,4.75686962890625,0.06378563493490219,-0.05914134904742241,-0.6173223257064819
1727009945737908000,4.766907958984375,0.045352302491664886,0.5227412581443787,0.20369373261928558
1727009945747945700,4.77694580078125,-0.011728561483323574,0.9039852619171143,0.47127965092658997
1727009945757984000,4.78698388671875,-0.05073268711566925,0.8554326295852661,0.11891866475343704
1727009945768021800,4.797021728515625,-0.05431623384356499,0.40642714500427246,0.3071080148220062
1727009945778058800,4.807058837890625,-0.18463163077831268,-0.16880792379379272,-0.37306705117225647
1727009945788097000,4.817096923828125,-0.2781176269054413,-0.5299218893051147,0.16442808508872986
1727009945798134800,4.827134765625,-0.3145805895328522,-0.4202183187007904,-0.3675830662250519
1727009945808173000,4.837173095703125,-0.24495862424373627,-0.06238481402397156,0.014167217537760735
1727009945818210800,4.8472109375,-0.2063547670841217,0.24602308869361877,-0.17277976870536804
1727009945828248800,4.857248779296875,-0.23868048191070557,0.30487680435180664,0.13342437148094177
1727009945838286800,4.867286865234375,-0.3113895654678345,0.2689973711967468,0.42386311292648315
1727009945848323800,4.87732373046875,-0.3729000687599182,0.1997954100370407,0.05226773023605347
1727009945858361900,4.88736181640625,-0.3593866527080536,-0.029676668345928192,0.3488945960998535
1727009945868399900,4.89739990234375,-0.38966652750968933,-0.18124249577522278,0.1553669571876526
1727009945878437600,4.907437744140625,-0.5248797535896301,-0.31524422764778137,-0.28909066319465637
1727009945888476000,4.917475830078125,-0.6633604168891907,-0.3212989270687103,-0.16142937541007996
1727009945898514000,4.927513916015625,-0.7109193801879883,-0.24465422332286835,-0.30498388409614563
1727009945908552000,4.937552001953125,-0.6609979271888733,-0.27494367957115173,-0.25752314925193787
1727009945918589000,4.9475888671875,-0.6441741585731506,-0.389167457818985,0.2045118659734726
1727009945928626700,4.957626708984375,-0.7256929874420166,-0.3897104859352112,-0.20678353309631348
1727009945938665000,4.9676650390625,-0.7396476864814758,-0.5789209008216858,-0.10653070360422134
1727009945948702700,4.97770263671875,-0.68165123462677,-0.8605634570121765,0.02347097173333168
1727009945958741000,4.987740966796875,-0.6820722818374634,-0.9225932955741882,-0.18639065325260162
1727009945968778800,4.99777880859375,-0.7380087971687317,-0.6125888228416443,-0.22119390964508057
1727009945978815700,5.007815673828125,-0.7147996425628662,-0.04268408194184303,-0.10662791132926941
1727009945988854000,5.01785400390625,-0.6188850998878479,0.183282732963562,0.054061103612184525
1727009945998891800,5.027891845703125,-0.5602763295173645,-0.11938551813364029,0.14971280097961426
1727009946008929800,5.0379296875,-0.6463624835014343,-0.5047441124916077,-0.050638411194086075
1727009946018967800,5.0479677734375,-0.7600067853927612,-0.8519265651702881,-0.10878001153469086
1727009946029005800,5.058005859375,-0.7216314077377319,-0.9787433743476868,-0.14091983437538147
1727009946039043800,5.0680439453125,-0.5500210523605347,-0.9126759767532349,-0.16104348003864288
1727009946049080800,5.078080810546875,-0.45610255002975464,-0.723783016204834,-0.04911055415868759
1727009946059118800,5.088118896484375,-0.47940146923065186,-0.44765233993530273,-0.09313846379518509
1727009946069156900,5.098156982421875,-0.5082866549491882,-0.2730693519115448,-0.08948381245136261
1727009946079195000,5.10819482421875,-0.4360814392566681,-0.1347716599702835,0.01625513657927513
1727009946089233000,5.11823291015625,-0.27638551592826843,-0.19433273375034332,0.005543103441596031
1727009946099271000,5.12827099609375,-0.14783446490764618,-0.3398451805114746,-0.0551343597471714
1727009946109309000,5.138308837890625,-0.13331198692321777,-0.5344804525375366,0.025608690455555916
1727009946119346000,5.148345947265625,-0.18498583137989044,-0.6123933792114258,-0.03647039458155632
1727009946129383700,5.1583837890625,-0.13121874630451202,-0.4232673645019531,0.03839585930109024
1727009946139422000,5.168421875,0.012002600356936455,-0.1525418758392334,0.10304169356822968
1727009946149459700,5.178459716796875,0.11154703050851822,0.005852296482771635,-0.0840778574347496
1727009946159497700,5.188497802734375,0.12641333043575287,-0.06081541255116463,-0.02894243597984314
1727009946169536000,5.198535888671875,0.11504696309566498,-0.16793175041675568,0.01187982875853777
1727009946179572700,5.20857275390625,0.1824132204055786,-0.2220519781112671,0.050581950694322586
1727009946189611000,5.218611083984375,0.30998823046684265,-0.14239336550235748,-0.010644921101629734
1727009946199648800,5.228648681640625,0.38500067591667175,-0.07340630888938904,-0.07580927759408951
1727009946209686800,5.238686767578125,0.3673551082611084,-0.11720145493745804,0.07566279917955399
1727009946219724800,5.248724853515625,0.3398502469062805,-0.09576886892318726,0.09650976210832596
1727009946229762800,5.2587626953125,0.37979206442832947,-0.04248407855629921,0.10661140084266663
1727009946239800800,5.26880078125,0.4476906955242157,0.1069972887635231,-0.023488814011216164
1727009946249837800,5.278837890625,0.4820190966129303,0.2159048616886139,-0.055871255695819855
1727009946259875800,5.288875732421875,0.47972825169563293,0.1457393616437912,-0.19336466491222382
1727009946269913900,5.298913818359375,0.48545965552330017,-0.015198926441371441,-0.06227322667837143
1727009946279952000,5.308951904296875,0.5110810995101929,-0.051414456218481064,0.08158354461193085
1727009946289990000,5.318989990234375,0.5500513911247253,0.16432742774486542,0.10798025876283646
1727009946300028000,5.32902783203125,0.6000187397003174,0.3407301604747772,0.1539275199174881
1727009946310065700,5.339065673828125,0.628364622592926,0.4476344883441925,0.12809538841247559
1727009946320103000,5.34910302734375,0.6179236769676208,0.42465248703956604,0.05096544697880745
1727009946330141000,5.359140869140625,0.5943030118942261,0.22043970227241516,-0.14639955759048462
1727009946340178700,5.3691787109375,0.6031559109687805,0.0951606035232544,-0.10859359055757523
1727009946350217000,5.379217041015625,0.6369079947471619,0.21428166329860687,0.06399735808372498
1727009946360254700,5.389254638671875,0.6332967877388,0.36140480637550354,-0.015236743725836277
1727009946370293000,5.39929296875,0.6189932227134705,0.5087258219718933,0.15792065858840942
1727009946380329700,5.409329833984375,0.5951911807060242,0.5020460486412048,0.16876079142093658
1727009946390367700,5.41936767578125,0.5565657615661621,0.45025956630706787,0.2027246206998825
1727009946400405800,5.42940576171875,0.5107788443565369,0.47694072127342224,0.2224128246307373
1727009946410443800,5.43944384765625,0.4801469147205353,0.4023232161998749,-0.09708846360445023
1727009946420482000,5.44948193359375,0.4711715281009674,0.32978323101997375,-0.2046080082654953
1727009946430519800,5.459519775390625,0.4268357455730438,0.1612248420715332,-0.1594008356332779
1727009946440556800,5.469556884765625,0.3750266134738922,0.13437272608280182,0.15227662026882172
1727009946450594800,5.4795947265625,0.3267781138420105,0.2219795286655426,0.13245710730552673
1727009946460632800,5.4896328125,0.3121965229511261,0.33201494812965393,0.15204252302646637
1727009946470670800,5.4996708984375,0.3021848797798157,0.3570326864719391,-0.06467700004577637
1727009946480708900,5.509708984375,0.2455834001302719,0.29183638095855713,0.18816004693508148
1727009946490746600,5.51974658203125,0.13561375439167023,0.24646809697151184,-0.04749534651637077
1727009946500785000,5.529784912109375,0.07657094299793243,0.25796496868133545,0.06073551997542381
1727009946510822000,5.53982177734375,0.08623315393924713,0.2565116882324219,-0.06502533704042435
1727009946520860000,5.54985986328125,0.12469638884067535,0.2720930278301239,0.04077539220452309
1727009946530898000,5.55989794921875,0.09113550186157227,0.21659408509731293,0.037767618894577026
1727009946540935700,5.569935791015625,0.02810567058622837,0.15413257479667664,0.19769710302352905
1727009946550974000,5.579973876953125,-0.010660367086529732,0.13202248513698578,-0.049608830362558365
1727009946561011700,5.59001171875,-0.008636364713311195,0.008161257021129131,-0.10355009138584137
1727009946571050000,5.600050048828125,-0.012277971021831036,-0.08529359102249146,-0.019297530874609947
1727009946581087000,5.6100869140625,-0.03777826949954033,0.06443145126104355,-0.08688882738351822
1727009946591125500,5.62012548828125,-0.046782951802015305,0.19719882309436798,0.017951836809515953
1727009946601163300,5.630163330078125,-0.024160197004675865,0.176240012049675,0.052933789789676666
1727009946611201500,5.640201416015625,0.0015518239233642817,0.0724121481180191,0.10186644643545151
1727009946621239300,5.6502392578125,-0.032637838274240494,-0.020668527111411095,0.13442730903625488
1727009946631277300,5.66027734375,-0.08649973571300507,0.01828872598707676,0.17406180500984192
1727009946641314600,5.670314453125,-0.0779842808842659,0.11702755093574524,0.15102572739124298
1727009946651352300,5.680352294921875,-0.02617221511900425,0.08477507531642914,-0.04271790385246277
1727009946661390600,5.690390625,-0.002034655073657632,0.042450785636901855,-0.02353009395301342
1727009946671428400,5.700428466796875,-0.07719279080629349,0.03310149535536766,-0.1970352977514267
1727009946681466400,5.71046630859375,-0.14127163589000702,0.09633638709783554,0.008740494959056377
1727009946691504400,5.72050439453125,-0.11031798273324966,0.19868087768554688,-0.027275828644633293
1727009946701541400,5.730541259765625,-0.029412483796477318,0.0986940860748291,-0.14434225857257843
1727009946711579400,5.740579345703125,-0.006543386727571487,-0.04096048325300217,0.27975574135780334
1727009946721617400,5.750617431640625,-0.0868464782834053,-0.15095968544483185,0.19600573182106018
1727009946731655400,5.760655517578125,-0.08688216656446457,-0.08322298526763916,0.333647221326828
1727009946741693400,5.770693359375,-0.043175168335437775,0.10643403232097626,-0.07143370062112808
1727009946751731500,5.7807314453125,-0.02912299707531929,0.2564951777458191,-0.020178237929940224
1727009946761769500,5.79076953125,-0.08938154578208923,0.17517395317554474,-0.04487133398652077
1727009946771806500,5.800806396484375,-0.14349165558815002,0.03561099246144295,-0.19905132055282593
1727009946781844500,5.810844482421875,-0.1034718006849289,-0.02310691773891449,-0.034496989101171494
1727009946791882500,5.820882568359375,-0.04561116173863411,0.05905160307884216,-0.13555756211280823
1727009946801920500,5.83092041015625,-0.018605908378958702,0.1292770355939865,0.25685974955558777
1727009946811958300,5.840958251953125,-0.056233711540699005,0.09030912071466446,0.4304256737232208
1727009946821996500,5.85099658203125,-0.09344872087240219,0.08132494986057281,0.4159191846847534
1727009946832033300,5.861033203125,-0.10626811534166336,0.12112961709499359,0.17515690624713898
1727009946842071600,5.871071533203125,-0.13222834467887878,0.0937746912240982,-0.2798721194267273
1727009946852109300,5.881109375,-0.1636059731245041,-0.1018131822347641,-0.3374291658401489
1727009946862147300,5.891147216796875,-0.18928657472133636,-0.31373581290245056,-0.34553131461143494
1727009946872185300,5.901185302734375,-0.15708841383457184,-0.41946330666542053,-0.2505296766757965
1727009946882223400,5.911223388671875,-0.08975651860237122,-0.3639151155948639,0.14682114124298096
1727009946892261600,5.92126171875,-0.05597218871116638,-0.1844894140958786,0.19285067915916443
1727009946902298400,5.93129833984375,-0.051899682730436325,-0.10421402007341385,0.0740225613117218
1727009946912336400,5.94133642578125,-0.053164418786764145,-0.06627995520830154,0.07189576327800751
1727009946922374400,5.95137451171875,-0.06541096419095993,-0.050144392997026443,-0.0561455599963665
1727009946932412400,5.961412353515625,-0.06155364215373993,-0.03425544127821922,-0.22090041637420654
1727009946942450400,5.971450439453125,-0.04504843428730965,-0.021559620276093483,-0.23320528864860535
1727009946952488400,5.981488525390625,-0.015181882306933403,-0.026944266632199287,0.013251889497041702
1727009946962525400,5.991525390625,-0.003500991500914097,-0.05615701153874397,0.18542072176933289
1727009946972563500,6.0015634765625,-0.008348477073013783,-0.037572674453258514,0.42287057638168335
1727009946982601500,6.0116015625,-0.021750302985310555,0.023868581280112267,0.11097179353237152
1727009946992639500,6.021639404296875,0.008581770583987236,-0.04627455398440361,0.030356841161847115
1727009947002677500,6.031677490234375,0.03695429116487503,-0.11113610863685608,-0.16548803448677063
1727009947012715300,6.04171533203125,0.03314410522580147,-0.23393313586711884,-0.0876249223947525
1727009947022752500,6.05175244140625,0.009531719610095024,-0.20039062201976776,-0.168674498796463
1727009947032790500,6.06179052734375,0.04295758530497551,-0.1684204339981079,-0.08406241238117218
1727009947042828300,6.071828369140625,0.12019804865121841,-0.15270832180976868,0.11377210170030594
1727009947052866600,6.081866455078125,0.12960326671600342,0.043415650725364685,0.12051096558570862
1727009947062904300,6.091904296875,0.07705297321081161,0.232537642121315,0.04038337618112564
1727009947072942600,6.101942626953125,0.085158571600914,0.2634875774383545,-0.1981905847787857
1727009947082980400,6.11198046875,0.1530417501926422,0.06876415014266968,0.011281150393188
1727009947093017300,6.122017333984375,0.1851288378238678,-0.03808213770389557,-0.06776679307222366
1727009947103055400,6.132055419921875,0.19204799830913544,-0.14063620567321777,0.1422833800315857
1727009947113093400,6.14209326171875,0.19722998142242432,-0.1323777437210083,0.16256095468997955
1727009947123131400,6.15213134765625,0.22121627628803253,0.013920076191425323,0.18321242928504944
1727009947133169400,6.16216943359375,0.20483356714248657,0.08903399854898453,0.01088886708021164
1727009947143207400,6.17220751953125,0.16800445318222046,0.24359454214572906,-0.03578516095876694
1727009947153244400,6.182244384765625,0.12724050879478455,0.2797413766384125,-0.23456217348575592
1727009947163282400,6.192282470703125,0.15974785387516022,0.25022876262664795,-0.23644369840621948
1727009947173320400,6.202320556640625,0.20828582346439362,0.08911123126745224,-0.03755802661180496
1727009947183358500,6.2123583984375,0.20651695132255554,0.029376797378063202,0.2268078476190567
1727009947193396200,6.222396240234375,0.13251569867134094,0.12503275275230408,0.31181567907333374
1727009947203434500,6.2324345703125,0.07154902070760727,0.23465058207511902,0.10069811344146729
1727009947213471500,6.242471435546875,0.0688866525888443,0.3268990218639374,0.10927296429872513
1727009947223509200,6.25250927734375,0.028651617467403412,0.20914043486118317,-0.17252303659915924
1727009947233547500,6.262547607421875,-0.021225659176707268,0.10187389701604843,-0.13046427071094513
1727009947243585300,6.272585205078125,-0.04960057511925697,0.024220118299126625,-0.02871100604534149
1727009947253623600,6.28262353515625,-0.03604162484407425,0.01980406418442726,-0.14249509572982788
1727009947263661300,6.292661376953125,-0.01398931909352541,-0.02797038108110428,0.10034231841564178
1727009947273699600,6.302699462890625,-0.0827590599656105,-0.04258447885513306,0.1059434786438942
1727009947283736600,6.312736572265625,-0.16246508061885834,0.053582269698381424,0.2024119645357132
1727009947293774300,6.3227744140625,-0.17450416088104248,0.04116528108716011,-0.08698390424251556
1727009947303812600,6.3328125,-0.13354900479316711,0.06277284026145935,-0.005824599415063858
1727009947313850400,6.342850341796875,-0.15780854225158691,-0.06968347728252411,-0.2067478448152542
1727009947323888600,6.352888671875,-0.18293119966983795,-0.03862062841653824,-0.07093062996864319
1727009947333926400,6.362926513671875,-0.18092264235019684,-0.016292687505483627,-0.08548826724290848
1727009947343963400,6.37296337890625,-0.1498480886220932,0.0022743395529687405,-0.0819808840751648
1727009947354001400,6.38300146484375,-0.15802346169948578,0.0441829077899456,0.037943121045827866
1727009947364039400,6.393039306640625,-0.23372754454612732,0.01667405106127262,-0.12160046398639679
1727009947374077400,6.403077392578125,-0.24372930824756622,-0.07409553229808807,0.1585283875465393
1727009947384115500,6.413115478515625,-0.18710623681545258,-0.13720792531967163,0.12189341336488724
1727009947394153500,6.423153564453125,-0.12926317751407623,-0.0929427221417427,0.2623932659626007
1727009947404190500,6.4331904296875,-0.17966137826442719,-0.14486370980739594,0.02732456475496292
1727009947414228500,6.443228515625,-0.25935912132263184,-0.134288027882576,-0.18042543530464172
1727009947424266200,6.453266357421875,-0.28281307220458984,-0.12684530019760132,-0.14721740782260895
1727009947434304500,6.463304443359375,-0.2274795025587082,-0.10918614268302917,-0.24621136486530304
1727009947444342300,6.47334228515625,-0.1438991129398346,-0.024515729397535324,-0.11968885362148285
1727009947454380500,6.483380615234375,-0.12442608177661896,-0.11479981988668442,-0.02335219457745552
1727009947464417500,6.49341748046875,-0.12531903386116028,-0.22886647284030914,0.17170411348342896
1727009947474455300,6.503455322265625,-0.12215466797351837,-0.25741955637931824,0.3162602186203003
1727009947484493600,6.51349365234375,-0.10957442969083786,-0.1441558450460434,0.2745197117328644
1727009947494531300,6.52353125,-0.08439024537801743,0.011769574135541916,-0.009283779188990593
1727009947504569600,6.533569580078125,-0.057252105325460434,-0.036138031631708145,-0.2160888910293579
1727009947514607400,6.543607421875,-0.04712783172726631,-0.06623122096061707,-0.17658622562885284
1727009947524645400,6.553645263671875,-0.04033384099602699,-0.07424253970384598,-0.1738511472940445
1727009947534682600,6.5636826171875,0.01889379695057869,0.0019915117882192135,0.15198127925395966
1727009947544720400,6.573720458984375,0.10406887531280518,0.06290493160486221,0.23564927279949188
1727009947554758400,6.58375830078125,0.14486530423164368,0.05143735930323601,0.1583760529756546
1727009947564796400,6.59379638671875,0.11451645940542221,0.1499468833208084,0.22827844321727753
1727009947574834400,6.60383447265625,0.07211973518133163,0.1705285906791687,-0.15244093537330627
1727009947584871200,6.61387109375,0.12711666524410248,0.18882770836353302,-0.11560329794883728
1727009947594908200,6.623908203125,0.19652211666107178,0.09541840106248856,-0.2513376772403717
1727009947604946400,6.633946533203125,0.2099849283695221,0.03512522950768471,0.033972080796957016
1727009947614984200,6.643984130859375,0.1796552538871765,0.07451231777667999,0.1171838790178299
1727009947625022500,6.6540224609375,0.1962858885526657,0.09213045984506607,0.26454004645347595
1727009947635060200,6.664060302734375,0.24271650612354279,0.18630675971508026,0.27116066217422485
1727009947645098200,6.67409814453125,0.22702090442180634,0.27913469076156616,0.0751810371875763
1727009947655135500,6.684135498046875,0.15950417518615723,0.3404790163040161,-0.15402339398860931
1727009947665173200,6.69417333984375,0.13533039391040802,0.1276722103357315,-0.28220292925834656
1727009947675211300,6.704211181640625,0.1835157722234726,-0.07813208550214767,-0.16122297942638397
1727009947685249300,6.714249267578125,0.21065230667591095,-0.1715448498725891,-0.13215723633766174
1727009947695287300,6.724287353515625,0.1977335810661316,-0.08823824673891068,0.18557758629322052
1727009947705325300,6.7343251953125,0.16430053114891052,0.04588892683386803,0.19263522326946259
1727009947715362300,6.7443623046875,0.16834719479084015,0.22781053185462952,0.26876434683799744
1727009947725400300,6.754400390625,0.13904790580272675,0.4021405279636383,0.24051514267921448
1727009947735438300,6.764438232421875,0.05932457745075226,0.38053828477859497,0.024173513054847717
1727009947745476400,6.774476318359375,0.014284662902355194,0.14436836540699005,-0.20113684237003326
1727009947755514400,6.784514404296875,0.008235558867454529,-0.22797325253486633,-0.20696303248405457
1727009947765552400,6.794552490234375,-0.014646853320300579,-0.45649483799934387,-0.37947702407836914
1727009947775590100,6.804590087890625,-0.010290986858308315,-0.4724881947040558,-0.26288676261901855
1727009947785627400,6.81462744140625,0.03704510256648064,-0.33228951692581177,0.022048311308026314
1727009947795665200,6.8246650390625,0.08847447484731674,-0.07926739007234573,0.30271005630493164
1727009947805703400,6.834703369140625,0.06278801709413528,0.12175839394330978,0.24985377490520477
1727009947815741200,6.8447412109375,-0.0024024376180022955,0.20028994977474213,0.29545295238494873
1727009947825779200,6.854779296875,-0.037886396050453186,0.22740599513053894,0.1409113109111786
1727009947835817200,6.864817138671875,-0.032049812376499176,0.10594667494297028,-0.15392404794692993
1727009947845854200,6.874854248046875,-0.010695254430174828,-0.06355553865432739,-0.3762074410915375
1727009947855892200,6.884892333984375,-0.027228690683841705,-0.25224050879478455,-0.33782944083213806
1727009947865930200,6.89493017578125,-0.06831274181604385,-0.34287241101264954,-0.10289735347032547
1727009947875968300,6.90496826171875,-0.05945533886551857,-0.23322872817516327,0.0811835378408432
1727009947886006300,6.91500634765625,0.000517718493938446,0.05615568161010742,0.2575252652168274
1727009947896044300,6.925044189453125,0.03960706293582916,0.26209181547164917,0.18468889594078064
1727009947906081300,6.935081298828125,0.040101345628499985,0.2824021279811859,0.20267720520496368
1727009947916119300,6.945119384765625,0.009384979493916035,0.0023097596131265163,0.07668865472078323
1727009947926157300,6.9551572265625,-0.003973436541855335,-0.303355872631073,0.034557975828647614
1727009947936195300,6.9651953125,-0.0070861391723155975,-0.3408830165863037,-0.0985790342092514
1727009947946233300,6.9752333984375,-0.017543306574225426,-0.26612064242362976,-0.13003283739089966
1727009947956271400,6.985271240234375,-0.02690778113901615,-0.02479962259531021,-0.1827186793088913
1727009947966308400,6.995308349609375,-0.019145198166370392,0.20965363085269928,0.029951507225632668
1727009947976346400,7.005346435546875,-0.011816712096333504,0.30813199281692505,0.009750098921358585
1727009947986384400,7.01538427734375,0.006478405557572842,0.19313004612922668,0.11932745575904846
1727009947996422400,7.02542236328125,0.01519812736660242,-0.04409422352910042,0.10998030006885529
1727009948006460200,7.035460205078125,0.016141418367624283,-0.15828444063663483,0.051184624433517456
1727009948016498400,7.04549853515625,0.016802415251731873,-0.22985689342021942,0.13015614449977875
1727009948026536200,7.0555361328125,0.004050667863339186,-0.1377384215593338,0.021978801116347313
1727009948036573400,7.065573486328125,-0.01889299787580967,-0.042082205414772034,0.0180482417345047
1727009948046611200,7.075611083984375,-0.03111903741955757,0.10778079181909561,-0.04368596151471138
1727009948056649200,7.085649169921875,-0.029935527592897415,0.24985164403915405,0.19821934401988983
1727009948066687200,7.095687255859375,-0.07236500829458237,0.3323904573917389,-0.014553376473486423
1727009948076725200,7.105725341796875,-0.07778480648994446,0.2627224326133728,-0.1361972540616989
1727009948086763300,7.11576318359375,-0.059907007962465286,-0.09637180715799332,-0.27588990330696106
1727009948096800300,7.12580029296875,-0.0639084056019783,-0.28106629848480225,0.06987468898296356
1727009948106838300,7.13583837890625,-0.10773232579231262,-0.2582344710826874,0.23435550928115845
1727009948116876300,7.145876220703125,-0.12955772876739502,0.18498928844928741,0.15681065618991852
1727009948126914300,7.155914306640625,-0.12473207712173462,0.5470790863037109,-0.0016881778137758374
1727009948136952300,7.165952392578125,-0.13154684007167816,0.6119723320007324,-0.0893128365278244
1727009948146990300,7.175990234375,-0.18745431303977966,0.21468566358089447,-0.11676549911499023
1727009948157027300,7.18602734375,-0.20972473919391632,-0.16615594923496246,-0.07523616403341293
1727009948167065300,7.1960654296875,-0.15440981090068817,-0.41521716117858887,-0.032761141657829285
1727009948177103400,7.206103271484375,-0.08211510628461838,-0.3981476426124573,-0.027822576463222504
1727009948187141400,7.216141357421875,-0.07681914418935776,-0.06794282793998718,0.08978687971830368
1727009948197179400,7.226179443359375,-0.14395184814929962,0.16202645003795624,-0.0334695428609848
1727009948207217200,7.236217041015625,-0.1652613878250122,0.3346903622150421,0.0645265281200409
1727009948217254400,7.24625439453125,-0.1591225415468216,0.2170385718345642,-0.0396621897816658
1727009948227292400,7.25629248046875,-0.1555081009864807,0.04891587793827057,-0.07235994935035706
1727009948237330200,7.266330078125,-0.15512673556804657,-0.16672612726688385,-0.11705205589532852
1727009948247368400,7.276368408203125,-0.13239851593971252,-0.29637467861175537,0.05277319997549057
1727009948257406200,7.28640625,-0.11475694179534912,-0.30503368377685547,0.18738454580307007
1727009948267444500,7.296444580078125,-0.11341231316328049,0.07760238647460938,0.0660858079791069
1727009948277481200,7.306481201171875,-0.10248323529958725,0.4266493320465088,0.14737720787525177
1727009948287519200,7.316519287109375,-0.03503654524683952,0.30437320470809937,-0.22814582288265228
1727009948297557200,7.32655712890625,0.06689221411943436,-0.0692610964179039,-0.00261868629604578
1727009948307595300,7.33659521484375,0.014427408576011658,-0.3933081328868866,-0.020850153639912605
1727009948317633300,7.34663330078125,-0.07172718644142151,-0.31567007303237915,-0.029289711266756058
1727009948327671300,7.35667138671875,0.0046903593465685844,-0.02978505939245224,0.15984639525413513
1727009948337708300,7.366708251953125,0.13866786658763885,0.2895050346851349,0.045810896903276443
1727009948347746300,7.376746337890625,0.17188520729541779,0.4067552387714386,0.0759245902299881
1727009948357784300,7.386784423828125,0.1142813041806221,0.40729933977127075,0.12059751898050308
1727009948367822300,7.396822265625,0.10959360748529434,0.3166072368621826,0.2559497654438019
1727009948377860400,7.4068603515625,0.19090603291988373,0.15658268332481384,0.2496338039636612
1727009948387898000,7.416898193359375,0.24181023240089417,0.08118273317813873,0.08578867465257645
1727009948397936400,7.426936279296875,0.15398184955120087,0.042203113436698914,-0.2788497507572174
1727009948407973400,7.436973388671875,0.0442177951335907,0.23084546625614166,-0.12578828632831573
1727009948418011100,7.44701123046875,0.05517776682972908,0.3172623813152313,0.005802229046821594
1727009948428049400,7.45704931640625,0.19461582601070404,0.3037135601043701,0.056224122643470764
1727009948438087200,7.467087158203125,0.22538678348064423,0.2409588247537613,0.3656938374042511
1727009948448125400,7.47712548828125,0.04349394887685776,0.14838947355747223,0.1632576286792755
1727009948458163200,7.4871630859375,-0.037706900388002396,0.10435197502374649,0.15937687456607819
1727009948468200200,7.4972001953125,0.00929416622966528,0.1659032106399536,0.1059836894273758
1727009948478238500,7.507238525390625,-0.007207578979432583,0.19473806023597717,-0.024777252227067947
1727009948488276200,7.517276123046875,-0.09028489142656326,0.10974327474832535,-0.14245328307151794
1727009948498314500,7.527314453125,-0.1507311910390854,-0.03705389052629471,0.0313376821577549
1727009948508352300,7.537352294921875,-0.1906658262014389,-0.13533492386341095,-0.049547046422958374
1727009948518390500,7.547390625,-0.16563211381435394,-0.08458199352025986,0.12338558584451675
1727009948528427300,7.55742724609375,-0.16653332114219666,-0.01004837267100811,-0.025418540462851524
1727009948538465300,7.56746533203125,-0.23721733689308167,0.021873872727155685,-0.12146757543087006
1727009948548503300,7.57750341796875,-0.29745033383369446,0.053958307951688766,-0.0821920782327652
1727009948558541300,7.587541259765625,-0.24655891954898834,-0.0656924620270729,-0.057924818247556686
1727009948568579000,7.5975791015625,-0.17772738635540009,-0.3557503819465637,0.07768654078245163
1727009948578617300,7.607617431640625,-0.23170353472232819,-0.45476964116096497,0.006845389027148485
1727009948588658400,7.617658447265625,-0.36247777938842773,-0.2994269132614136,0.1084713488817215
1727009948598696400,7.627696533203125,-0.3967428207397461,-0.061324343085289,-0.08224134147167206
1727009948608734500,7.637734375,-0.3249559700489044,0.013976269401609898,-0.10916031152009964
1727009948618772500,7.6477724609375,-0.3328530490398407,-0.0579591728746891,-0.26353415846824646
1727009948628810500,7.657810546875,-0.44135424494743347,-0.1428394466638565,-0.36036059260368347
1727009948638848500,7.6678486328125,-0.4664563834667206,-0.4148496687412262,-0.06491348892450333
1727009948648885500,7.677885498046875,-0.32716134190559387,-0.681125819683075,0.33572980761528015
1727009948658923300,7.68792333984375,-0.23264655470848083,-0.6009238958358765,0.3660765290260315
1727009948668961500,7.69796142578125,-0.275638222694397,-0.40916353464126587,0.11512712389230728
1727009948678999300,7.707999267578125,-0.33744460344314575,-0.2494574934244156,-0.15877659618854523
1727009948689037300,7.718037353515625,-0.3268577456474304,-0.1810843050479889,-0.24487686157226562
1727009948699075600,7.72807568359375,-0.2929762005805969,-0.18966713547706604,-0.27860578894615173
1727009948709112300,7.7381123046875,-0.3077911138534546,-0.08909951895475388,-0.11358408629894257
1727009948719150600,7.748150634765625,-0.33722835779190063,-0.08680173754692078,0.024337297305464745
1727009948729188400,7.758188232421875,-0.29101505875587463,-0.08855996280908585,0.04111254960298538
1727009948739226400,7.768226318359375,-0.21412719786167145,-0.29601967334747314,0.14301307499408722
1727009948749264400,7.778264404296875,-0.21129865944385529,-0.48201218247413635,0.45876172184944153
1727009948759302400,7.788302490234375,-0.3084350526332855,-0.5650638937950134,-0.007745271548628807
1727009948769339400,7.79833935546875,-0.3505021035671234,-0.43474292755126953,-0.16153483092784882
1727009948779377400,7.80837744140625,-0.31257787346839905,-0.12756408751010895,-0.27779993414878845
1727009948789415400,7.81841552734375,-0.22216223180294037,-0.009758355095982552,-0.3211532533168793
1727009948799453400,7.828453369140625,-0.15225504338741302,-0.1755310744047165,0.1046193540096283
1727009948809491500,7.838491455078125,-0.18887324631214142,-0.3560129702091217,0.23747193813323975
1727009948819529500,7.848529541015625,-0.26279568672180176,-0.3750383257865906,0.31285804510116577
1727009948829566500,7.85856640625,-0.24279241263866425,-0.22172041237354279,0.06429509818553925
1727009948839604500,7.8686044921875,-0.15815581381320953,-0.03465278446674347,-0.0046821036376059055
1727009948849642500,7.878642578125,-0.16297906637191772,-0.004507666453719139,-0.28129079937934875
1727009948859680500,7.888680419921875,-0.2044902890920639,-0.0677630677819252,-0.15206356346607208
1727009948869718300,7.89871826171875,-0.21112315356731415,-0.17608074843883514,-0.08792293071746826
1727009948879756500,7.908756591796875,-0.15365080535411835,-0.38518789410591125,-0.10013964772224426
1727009948889793300,7.918793212890625,-0.05143309757113457,-0.5044088363647461,0.18921945989131927
1727009948899831600,7.92883154296875,-0.03187883645296097,-0.2912651300430298,0.11222054809331894
1727009948909869300,7.938869384765625,-0.06402105838060379,-0.02714267186820507,-0.038241129368543625
1727009948919907300,7.9489072265625,-0.048284973949193954,0.04741651937365532,-0.1621825098991394
1727009948929945300,7.9589453125,0.001939313835464418,-0.07048002630472183,-0.090987429022789
1727009948939983400,7.9689833984375,0.026585005223751068,-0.2491283267736435,-0.12869299948215485
1727009948950020400,7.979020263671875,0.029866019263863564,-0.27299290895462036,0.13349227607250214
1727009948960058400,7.989058349609375,0.03687199577689171,-0.15700240433216095,0.05760284140706062
1727009948970096400,7.999096435546875,0.08364935964345932,0.05675196275115013,0.28225645422935486
1727009948980134400,8.009134521484375,0.0956178680062294,0.13144910335540771,0.1569182425737381
1727009948990172400,8.01917236328125,0.08888246864080429,0.09940648078918457,0.10554134100675583
1727009949000210400,8.02921044921875,0.06955404579639435,-0.14316807687282562,-0.1784733384847641
1727009949010248400,8.03924853515625,0.07580022513866425,-0.25159600377082825,0.01830044388771057
1727009949020285400,8.049285400390625,0.08018431812524796,-0.27305176854133606,-0.17678649723529816
1727009949030323500,8.059323486328125,0.105528824031353,-0.14166899025440216,-0.006225405260920525
1727009949040361500,8.069361572265626,0.09773534536361694,-0.02714080736041069,0.09758540987968445
1727009949050399500,8.0793994140625,0.05071697384119034,0.07003074884414673,0.14075738191604614
1727009949060437500,8.0894375,0.034686341881752014,0.18148963153362274,0.18723726272583008
1727009949070474500,8.099474609375,0.08015848696231842,0.24710725247859955,0.2527896463871002
1727009949080512500,8.109512451171875,0.1093432679772377,0.16490373015403748,0.22086766362190247
1727009949090550500,8.119550537109374,0.05317293852567673,-0.039856068789958954,-0.1557251513004303
1727009949100588300,8.12958837890625,-0.016458867117762566,-0.10191171616315842,0.06042685732245445
1727009949110626600,8.13962646484375,-0.03448447212576866,-0.11732769012451172,-0.25613775849342346
1727009949120664300,8.149664306640625,0.03500911593437195,-0.14058613777160645,0.02257028967142105
1727009949130702600,8.15970263671875,0.04140150174498558,-0.14039573073387146,-0.004336425103247166
1727009949140739300,8.1697392578125,-0.03008812665939331,-0.013707823120057583,0.011178351938724518
1727009949150777300,8.17977734375,-0.04536641761660576,0.021885057911276817,0.0780191645026207
1727009949160815400,8.1898154296875,0.0518576055765152,-0.020354274660348892,0.14519208669662476
1727009949170853400,8.199853271484375,0.10904153436422348,-0.21510379016399384,0.05096970871090889
1727009949180891400,8.209891357421874,0.03894659876823425,-0.2598198652267456,-0.05232711881399155
1727009949190929400,8.219929443359375,-0.04701438173651695,-0.1361977905035019,-0.062068697065114975
1727009949200966400,8.22996630859375,0.0414411835372448,0.06672497093677521,0.0639510229229927
1727009949211004400,8.24000439453125,0.16682280600070953,0.1529112458229065,0.17357417941093445
1727009949221042400,8.25004248046875,0.133816659450531,0.13188906013965607,-0.041675273329019547
1727009949231080400,8.26008056640625,0.0043590618297457695,0.044491302222013474,-0.10599727183580399
1727009949241118500,8.270118408203125,-0.04754328355193138,-0.1064329668879509,-0.1518944501876831
1727009949251156200,8.28015625,0.048060204833745956,-0.15477865934371948,0.2192380726337433
1727009949261193500,8.290193359375,0.12334110587835312,-0.1666419804096222,0.05519348010420799
1727009949271231500,8.3002314453125,0.08157661557197571,-0.007695204112678766,0.19113481044769287
1727009949281269200,8.310269287109374,0.0010966897243633866,0.05323952063918114,-0.13211782276630402
1727009949291307500,8.3203076171875,0.05296734347939491,-0.02972353994846344,-0.021914087235927582
1727009949301345300,8.33034521484375,0.11496440321207047,-0.20523330569267273,-0.028595158830285072
1727009949311383600,8.340383544921876,0.07032209634780884,-0.3031090199947357,-0.15375147759914398
1727009949321420500,8.350420654296874,-0.02099529653787613,-0.1210678368806839,-0.24354873597621918
1727009949331458300,8.360458251953125,-0.009440373629331589,0.06626077741384506,0.002478603972122073
1727009949341496600,8.37049658203125,0.10679515451192856,0.11596068739891052,0.3307417035102844
1727009949351534300,8.380534423828125,0.12863387167453766,-0.028002073988318443,0.19109591841697693
1727009949361572600,8.390572509765626,-0.01822987012565136,-0.06974073499441147,0.010397247038781643
1727009949371609300,8.400609375,-0.1459183245897293,-0.03924727067351341,-0.28828373551368713
1727009949381647400,8.4106474609375,-0.03925472870469093,-0.15613660216331482,-0.2719862461090088
1727009949391685400,8.420685302734375,0.12573395669460297,-0.34678006172180176,-0.22570237517356873
1727009949401723400,8.430723388671876,0.1017220988869667,-0.4439641237258911,-0.07933902740478516
1727009949411761400,8.440761474609374,-0.011627361178398132,-0.34285590052604675,0.01296506728976965
1727009949421799400,8.45079931640625,-0.02936880849301815,-0.22062158584594727,0.1843767613172531
1727009949431837400,8.46083740234375,0.04772650822997093,-0.0026229473296552896,0.17993301153182983
1727009949441874400,8.47087451171875,0.08046714216470718,0.10613309592008591,-0.029618877917528152
1727009949451912400,8.480912353515626,0.01781841181218624,0.15745460987091064,-0.14965634047985077
1727009949461950500,8.490950439453124,-0.071738101541996,0.059784505516290665,-0.3251655697822571
1727009949471988500,8.500988525390625,-0.04832039400935173,-0.18710170686244965,-0.08916529268026352
1727009949482026200,8.511026123046875,0.06810874491930008,-0.3320189416408539,0.2234799563884735
1727009949492063500,8.5210634765625,0.11262055486440659,-0.3450274169445038,0.24678368866443634
1727009949502101500,8.5311015625,0.03320562466979027,-0.1959758996963501,0.04061347246170044
1727009949512139300,8.54113916015625,-0.02226882055401802,-0.02503691054880619,-0.12222924083471298
1727009949522177500,8.551177490234375,0.04248567670583725,0.06956230103969574,-0.1748618185520172
1727009949532215300,8.56121533203125,0.1244891956448555,-0.014568556100130081,-0.07807616144418716
1727009949542253600,8.571253662109376,0.12082122266292572,-0.22869816422462463,0.0025241440162062645
1727009949552290600,8.58129052734375,0.06101621687412262,-0.3384012281894684,0.2085513472557068
1727009949562328300,8.591328369140625,0.01980459690093994,-0.20006011426448822,0.21528461575508118
1727009949572366600,8.60136669921875,0.0747717097401619,0.015690546482801437,0.16911685466766357
1727009949582404400,8.611404296875,0.13770513236522675,0.15421326458454132,-0.01768951490521431
1727009949592442400,8.6214423828125,0.10924366861581802,0.0928223505616188,-0.10380149632692337
1727009949602480000,8.631480224609374,0.0438673235476017,-0.06720034033060074,-0.11810959875583649
1727009949612517000,8.64151708984375,0.05109674111008644,-0.09740724414587021,-0.005730323493480682
1727009949622555100,8.65155517578125,0.15179085731506348,-0.14813514053821564,-0.002112952060997486
1727009949632593200,8.66159326171875,0.2141362577676773,-0.1968904286623001,0.08380834758281708
1727009949642631200,8.671631103515624,0.09337522089481354,-0.1413280963897705,0.014848987571895123
1727009949652669200,8.681669189453125,-0.05640362203121185,-0.0593314990401268,-0.06245725229382515
1727009949662707200,8.691707275390625,-0.02912326343357563,0.05096544697880745,-0.07594297081232071
1727009949672744200,8.701744140625,0.07483962178230286,0.1064116582274437,0.0841822549700737
1727009949682782200,8.7117822265625,0.07811584323644638,0.0677657276391983,-0.12343645095825195
1727009949692820000,8.721820068359374,0.019118567928671837,0.06270386278629303,0.13424596190452576
1727009949702858200,8.731858154296875,-0.02881753258407116,-0.11001065373420715,0.09549030661582947
1727009949712896000,8.74189599609375,0.005662945564836264,-0.14572498202323914,0.08089165389537811
1727009949722934300,8.751934326171876,0.044670797884464264,-0.17339682579040527,-0.12838220596313477
1727009949732971300,8.76197119140625,0.029217805713415146,-0.04264626279473305,-0.0684104859828949
1727009949743009000,8.772009033203124,-0.002922286745160818,0.06387272477149963,-0.07113196700811386
1727009949753047300,8.78204736328125,0.02292875200510025,0.17345114052295685,-0.006183859892189503
1727009949763085000,8.7920849609375,0.07608890533447266,0.05118382349610329,0.051540687680244446
1727009949773123300,8.802123291015626,0.09261142462491989,-0.018551846966147423,0.1353607475757599
1727009949783161000,8.8121611328125,0.06671005487442017,-0.0933656319975853,0.07157378643751144
1727009949793198000,8.822197998046875,0.06578993052244186,-0.10192716121673584,-0.014576013199985027
1727009949803236400,8.832236328125,0.09052031487226486,0.046339001506567,-0.03659636154770851
1727009949813274000,8.842274169921875,0.12294429540634155,0.19194254279136658,-0.16012363135814667
1727009949823312400,8.8523125,0.13795973360538483,0.3730587959289551,0.01660534180700779
1727009949833350100,8.86235009765625,0.12494406849145889,0.2996610105037689,-0.16586913168430328
1727009949843388200,8.87238818359375,0.14345276355743408,0.16217638552188873,-0.016658339649438858
1727009949853425200,8.882425048828125,0.16454100608825684,0.07160227745771408,0.052611544728279114
1727009949863463200,8.892463134765626,0.1889243870973587,0.004543885588645935,0.2876448333263397
1727009949873501200,8.902501220703124,0.2013128697872162,0.09035386145114899,0.29922986030578613
1727009949883539200,8.912539306640625,0.15671424567699432,0.18380339443683624,0.16878528892993927
1727009949893577200,8.9225771484375,0.06634759902954102,0.19509252905845642,-0.24259373545646667
1727009949903615200,8.932615234375,0.043117109686136246,0.10336527228355408,-0.12044252455234528
1727009949913652200,8.94265234375,0.03981399163603783,0.0044317664578557014,-0.2739527225494385
1727009949923690000,8.95268994140625,0.054551657289266586,-0.06264154613018036,-0.2135450392961502
1727009949933728300,8.962728271484375,0.05386323109269142,-0.09048435837030411,-0.018205102533102036
1727009949943766000,8.97276611328125,0.016279637813568115,-0.13489443063735962,0.07160121947526932
1727009949953804300,8.98280419921875,0.003590740030631423,-0.04074662923812866,0.3489430844783783
1727009949963842000,8.992842041015624,0.020058397203683853,0.12231951951980591,0.2966042459011078
1727009949973879000,9.002879150390624,0.028961343690752983,0.20100900530815125,0.05042269453406334
1727009949983917300,9.012917236328125,-0.023085078224539757,0.12307585775852203,-0.12635821104049683
1727009949993955000,9.022955078125,-0.10793392360210419,-0.01561304833739996,-0.16887716948986053
1727009950003993300,9.032993408203126,-0.095489501953125,-0.14063887298107147,-0.05115479603409767
1727009950014031000,9.043031005859374,0.011217234656214714,-0.2057821899652481,0.12093254923820496
1727009950024069000,9.053069091796875,0.05626620352268219,-0.22267355024814606,0.14259150624275208
1727009950034106400,9.0631064453125,-0.03472522273659706,-0.09357708692550659,0.05493488907814026
1727009950044144000,9.07314404296875,-0.13059182465076447,0.02991129271686077,-0.03491643816232681
1727009950054182400,9.083182373046874,-0.10783538967370987,0.14876870810985565,-0.031133951619267464
1727009950064220200,9.09322021484375,-0.03735402971506119,0.10847427695989609,-0.16150180995464325
1727009950074258200,9.103258056640625,-0.02352370135486126,0.07075566053390503,-0.11467438191175461
1727009950084296200,9.113296142578125,-0.07380125671625137,0.059665728360414505,0.008874451741576195
1727009950094333200,9.123333251953126,-0.07066484540700912,-0.07944795489311218,0.08620492368936539
1727009950104371000,9.133370849609374,0.016510533168911934,-0.12446842342615128,0.1300693154335022
1727009950114409200,9.1434091796875,0.049125734716653824,-0.13925430178642273,0.18707561492919922
1727009950124447200,9.153447265625,-0.005176652688533068,-0.0578361339867115,-0.14914368093013763
1727009950134485200,9.1634853515625,-0.03780410438776016,-0.047794684767723083,0.01546204648911953
1727009950144522200,9.173522216796876,-0.042214833199977875,-0.07035698741674423,-0.1267872452735901
1727009950154560000,9.18356005859375,-0.006463758181780577,-0.06856255233287811,-0.11645923554897308
1727009950164598300,9.193598388671875,0.04911002144217491,-0.06566876173019409,0.035162247717380524
1727009950174636000,9.203635986328125,0.09914416074752808,-0.055158328264951706,0.08338623493909836
1727009950184674300,9.21367431640625,0.09509455412626266,-0.16235269606113434,0.08952349424362183
1727009950194712000,9.223712158203124,0.027120834216475487,-0.16189515590667725,-0.002115881536155939
1727009950204750000,9.23375,-0.01329982653260231,-0.0902518630027771,-0.035100728273391724
1727009950214787300,9.243787353515625,0.008436094969511032,-0.08632556349039078,-0.025296568870544434
1727009950224825000,9.2538251953125,0.05278891324996948,-0.10603801906108856,-0.19367200136184692
1727009950234863400,9.26386328125,0.03838573768734932,-0.1997344195842743,-0.16291221976280212
1727009950244901000,9.273901123046874,-0.008024903014302254,-0.2980266213417053,-0.27459320425987244
1727009950254939100,9.283939208984375,0.021464811637997627,-0.3760601878166199,0.18076471984386444
1727009950264976400,9.293976318359375,0.06987734884023666,-0.20088383555412292,0.34680110216140747
1727009950275014100,9.30401416015625,0.06799636036157608,0.1375970095396042,0.2566421627998352
1727009950285052200,9.31405224609375,0.06690579652786255,0.43060359358787537,0.09004893153905869
1727009950295090200,9.324090087890625,0.044626325368881226,0.4178808629512787,-0.28758758306503296
1727009950305128200,9.334128173828125,0.044859085232019424,0.2616097629070282,-0.3024860918521881
1727009950315166200,9.344166259765625,0.10719169676303864,-0.06035735085606575,-0.10599354654550552
1727009950325203200,9.354203125,0.19100457429885864,-0.21139825880527496,0.10147522389888763
1727009950335241000,9.364240966796874,0.20858091115951538,-0.2681390345096588,0.3898220658302307
1727009950345279200,9.374279296875,0.15973000228405,-0.03250974044203758,0.16948623955249786
1727009950355317000,9.38431689453125,0.1377948820590973,0.12020310759544373,0.16384433209896088
1727009950365355300,9.394355224609376,0.15064597129821777,0.17266738414764404,-0.15045449137687683
1727009950375393300,9.404393310546874,0.1470930427312851,0.07848149538040161,-0.2625216245651245
1727009950385430000,9.414429931640624,0.13286536931991577,-0.11261096596717834,-0.3169633150100708
1727009950395468300,9.42446826171875,0.18553444743156433,-0.1862465739250183,0.01649615168571472
1727009950405506000,9.434506103515625,0.24890968203544617,-0.1832646280527115,-0.010104565881192684
1727009950415544300,9.44454443359375,0.3093069791793823,0.061592258512973785,0.3997894823551178
1727009950425582000,9.45458203125,0.28330814838409424,0.3398747444152832,0.35821273922920227
1727009950435620000,9.4646201171875,0.2084173858165741,0.5772249698638916,-0.004600876942276955
1727009950445657300,9.4746572265625,0.17315126955509186,0.5695787668228149,-0.24383343756198883
1727009950455695000,9.484695068359375,0.19015422463417053,0.28872448205947876,-0.14845098555088043
1727009950465733400,9.4947333984375,0.21204115450382233,-0.16151565313339233,-0.017223462462425232
1727009950475771100,9.504771240234374,0.1911236196756363,-0.3513636291027069,0.2424456626176834
1727009950485809200,9.51480908203125,0.12941178679466248,-0.07851318269968033,0.3112572133541107
1727009950495846100,9.52484619140625,0.0834600031375885,0.2910715341567993,0.07183264195919037
1727009950505884200,9.53488427734375,0.08294228464365005,0.513002336025238,-0.1171623095870018
1727009950515922200,9.544922119140624,0.07627532631158829,0.5165565609931946,-0.31485727429389954
1727009950525960200,9.554960205078125,0.07192692160606384,0.2654167711734772,-0.2515816390514374
1727009950535998200,9.564998291015625,0.08887021988630295,-0.017110543325543404,-0.04945729672908783
1727009950546036200,9.5750361328125,0.10834644734859467,-0.18316689133644104,0.22857964038848877
1727009950556073200,9.5850732421875,0.09928636997938156,-0.06571190059185028,0.16492050886154175
1727009950566111000,9.595111083984374,0.07597758620977402,0.018921226263046265,0.24164804816246033
1727009950576149200,9.605149169921875,0.019349196925759315,0.16799166798591614,0.09699419140815735
1727009950586183700,9.61518359375,-0.06233847513794899,0.3195268511772156,0.10283796489238739
1727009950596221700,9.6252216796875,-0.08360780775547028,0.41520386934280396,-0.3381921648979187
1727009950606259700,9.635259765625,-0.022115688771009445,0.19720761477947235,-0.38018834590911865
1727009950616296700,9.645296630859375,0.018037855625152588,-0.1605963408946991,-0.18704524636268616
1727009950626335000,9.6553349609375,0.018063955008983612,-0.3794213533401489,0.15132373571395874
1727009950636372700,9.665372802734375,0.02839994989335537,-0.2839859127998352,0.3592609465122223
1727009950646410800,9.67541064453125,0.0644594132900238,0.026919499039649963,0.2527478337287903
1727009950656448800,9.68544873046875,0.0486769899725914,0.3112444281578064,0.042704854160547256
1727009950666486800,9.69548681640625,-0.02292528934776783,0.5186657905578613,-0.01684289611876011
1727009950676523800,9.705523681640624,-0.039629433304071426,0.4398181140422821,-0.11910109221935272
1727009950686561800,9.715561767578125,0.02900661714375019,0.24461907148361206,-0.03603017330169678
1727009950696599800,9.725599853515625,0.0503835454583168,-0.11552899330854416,-0.12674862146377563
1727009950706637800,9.735637939453126,-0.004303401801735163,-0.31056079268455505,0.16010764241218567
1727009950716675800,9.74567578125,-0.07464014738798141,-0.10103127360343933,0.15800800919532776
1727009950726713900,9.7557138671875,-0.02779248170554638,0.1659032106399536,0.04120389372110367
1727009950736750800,9.765750732421875,0.05969422310590744,0.33683741092681885,0.10888493806123734
1727009950746788900,9.775788818359375,0.015873771160840988,0.19919352233409882,-0.14461363852024078
1727009950756827000,9.785826904296876,-0.09047184139490128,-0.008378570899367332,0.06994260102510452
1727009950766865000,9.795864990234374,-0.09886746108531952,-0.11474069952964783,0.02899809554219246
1727009950776903000,9.80590283203125,-0.0029734193813055754,-0.12064386159181595,-0.008412659168243408
1727009950786940000,9.81593994140625,0.05730083957314491,0.03116297908127308,0.06668874621391296
1727009950796977700,9.825977783203125,-0.01950206235051155,0.2474670559167862,0.10050929337739944
1727009950807016000,9.836015869140626,-0.10550139099359512,0.29649823904037476,0.1410982608795166
1727009950817053700,9.8460537109375,-0.060633253306150436,0.20190782845020294,0.2155919373035431
1727009950827091700,9.856091796875,0.002837864449247718,0.0634484812617302,0.07163557410240173
1727009950837129700,9.866129638671875,-0.023807061836123466,-0.08413644880056381,-0.006180131807923317
1727009950847166700,9.876166748046876,-0.07651954144239426,-0.10554080456495285,-0.2702229619026184
1727009950857205000,9.886205078125,-0.026499517261981964,-0.11517319083213806,-0.0605379119515419
1727009950867242800,9.89624267578125,0.03905099630355835,-0.10358817875385284,-0.08606963604688644
1727009950877280800,9.90628076171875,0.05151139572262764,0.0017976337112486362,0.2543790340423584
1727009950887318800,9.91631884765625,-0.027168504893779755,0.17656224966049194,0.272906631231308
1727009950897356800,9.926356689453126,-0.0760369747877121,0.3007843494415283,0.07285689562559128
1727009950907393800,9.936393798828124,-0.011489409022033215,0.3448125123977661,0.08607682585716248
1727009950917431800,9.946431884765625,0.005152151454240084,0.21870411932468414,-0.006560430862009525
1727009950927469800,9.9564697265625,-0.06411053985357285,-0.04140762612223625,-0.09028515219688416
1727009950937507800,9.9665078125,-0.10703723877668381,-0.16109222173690796,-0.21332372725009918
1727009950947545900,9.9765458984375,-0.06294913589954376,-0.12988662719726562,-0.13990676403045654
1727009950957584000,9.986583984375,0.005362008698284626,-0.009793508797883987,0.18788307905197144
1727009950967620900,9.996620849609375,-0.02401665225625038,0.1502438336610794,0.2727780044078827
1727009950977658600,10.00665869140625,-0.11402377486228943,0.15030774474143982,0.13540096580982208
1727009950987697000,10.01669677734375,-0.1363791525363922,0.10863540321588516,-0.019284747540950775
1727009950997735000,10.02673486328125,-0.10086056590080261,-0.07240922003984451,-0.2743564546108246
1727009951007772700,10.036772705078125,-0.0659734234213829,-0.24048557877540588,-0.06649087369441986
1727009951017810000,10.046809814453125,-0.09693426638841629,-0.3129938542842865,-0.23437921702861786
1727009951027847700,10.05684765625,-0.14079226553440094,-0.21344970166683197,-0.28870344161987305
1727009951037886000,10.066885986328124,-0.15194904804229736,-0.0897061824798584,-0.1948895901441574
1727009951047923700,10.076923828125,-0.14264848828315735,0.016208264976739883,0.004165982827544212
1727009951057961700,10.086961669921875,-0.13351304829120636,-0.009812949225306511,0.2925413250923157
1727009951067999700,10.096999755859375,-0.14264875650405884,0.027393274009227753,0.5703281760215759
1727009951078036700,10.10703662109375,-0.17120717465877533,0.06722591072320938,0.23122389614582062
1727009951088074800,10.11707470703125,-0.13909929990768433,0.031382158398628235,0.13684600591659546
1727009951098112800,10.12711279296875,-0.09584583342075348,-0.08186929672956467,-0.1909872591495514
1727009951108150800,10.13715087890625,-0.09294485300779343,-0.23631133139133453,-0.24669286608695984
1727009951118188800,10.147188720703125,-0.15269100666046143,-0.2688988447189331,-0.2254275232553482
1727009951128226800,10.157226806640624,-0.2159557342529297,-0.054498929530382156,-0.18245689570903778
1727009951138263800,10.167263916015624,-0.19790136814117432,0.06867999583482742,0.15793903172016144
1727009951148301800,10.1773017578125,-0.16384485363960266,0.07888282835483551,0.4485093355178833
1727009951158339800,10.18733984375,-0.2091638743877411,-0.051237355917692184,0.559264063835144
1727009951168377900,10.1973779296875,-0.2852866053581238,-0.06418697535991669,0.15026061236858368
1727009951178415900,10.207415771484374,-0.27795571088790894,-0.14697320759296417,-0.4745798408985138
1727009951188454000,10.217453857421875,-0.21365129947662354,-0.3667524456977844,-0.5971102714538574
1727009951198491000,10.227490966796875,-0.1847357600927353,-0.5424891114234924,-0.3009135127067566
1727009951208528600,10.237528564453125,-0.23453500866889954,-0.4634459614753723,0.23676779866218567
1727009951218567000,10.24756689453125,-0.29359033703804016,-0.1694106012582779,0.3492392301559448
1727009951228604700,10.257604736328124,-0.29226407408714294,-0.006057093385607004,0.3238542377948761
1727009951238642700,10.267642578125,-0.3000013530254364,0.020591028034687042,0.19467733800411224
1727009951248680000,10.277679931640625,-0.3493199050426483,-0.11681103706359863,-0.05564089119434357
1727009951258717700,10.2877177734375,-0.389092355966568,-0.20041139423847198,-0.20101380348205566
1727009951268756000,10.297755859375,-0.3669274151325226,-0.16494686901569366,-0.4811703562736511
1727009951278793700,10.307793701171875,-0.32234662771224976,-0.22120028734207153,-0.4571411907672882
1727009951288831700,10.317831787109375,-0.299956351518631,-0.31513771414756775,-0.038602251559495926
1727009951298869800,10.327869873046875,-0.30166345834732056,-0.2915428876876831,0.5249026417732239
1727009951308906800,10.33790673828125,-0.306041419506073,0.0029920614324510098,0.5826663374900818
1727009951318944800,10.34794482421875,-0.27563345432281494,0.20201940834522247,0.3384936451911926
1727009951328982800,10.357982666015625,-0.22939856350421906,0.16800498962402344,-0.22036193311214447
1727009951339020800,10.368020751953125,-0.22966915369033813,-0.10072287917137146,-0.46613815426826477
1727009951349058800,10.378058837890626,-0.2594637870788574,-0.5898733735084534,-0.5034053325653076
1727009951359096800,10.388096923828124,-0.22654445469379425,-0.8172993659973145,-0.26207101345062256
1727009951369133800,10.3981337890625,-0.15413124859333038,-0.6452445387840271,-0.28984060883522034
1727009951379171800,10.408171875,-0.06914977729320526,-0.1269765943288803,-0.042443063110113144
1727009951389209900,10.4182099609375,0.007993211969733238,0.17617955803871155,0.1588761955499649
1727009951399248000,10.428247802734376,0.07030771672725677,0.12613236904144287,0.38442304730415344
1727009951409286000,10.438285888671874,0.06173180788755417,0.1181010752916336,0.4481743276119232
1727009951419323600,10.44832373046875,-0.026263028383255005,0.162209153175354,-0.15863358974456787
1727009951429361000,10.45836083984375,-0.01589268073439598,0.1310269981622696,-0.11209724098443985
1727009951439398700,10.468398681640625,0.09961873292922974,-0.0036996633280068636,-0.34850364923477173
1727009951449437000,10.47843701171875,0.17938414216041565,-0.13504543900489807,-0.07869614660739899
1727009951459474700,10.488474609375,0.109562449157238,-0.01474645547568798,0.20019647479057312
1727009951469512700,10.4985126953125,0.07729212194681168,0.10573948174715042,0.4756954312324524
1727009951479550000,10.508550048828125,0.16294577717781067,0.08873333036899567,0.3619251847267151
1727009951489587700,10.518587646484375,0.19738417863845825,0.016572851687669754,0.17827732861042023
1727009951499625700,10.528625732421874,0.06667143851518631,0.15078897774219513,0.10343717783689499
1727009951509663700,10.538663818359375,-0.10645906627178192,0.22200296819210052,-0.4724098742008209
1727009951519701800,10.54870166015625,-0.03826989233493805,0.16513782739639282,-0.42260050773620605
1727009951529739800,10.55873974609375,0.13383956253528595,0.03019705042243004,-0.250190407037735
1727009951539776800,10.56877685546875,0.17825469374656677,-0.010656905360519886,-0.02888304740190506
1727009951549814800,10.578814697265624,0.14233504235744476,-0.052019525319337845,0.2366386353969574
1727009951559852800,10.588852783203125,0.17752818763256073,-0.2548959255218506,0.4256487786769867
1727009951569890800,10.598890869140625,0.22882120311260223,-0.2801363170146942,0.5069066286087036
1727009951579928800,10.6089287109375,0.15653342008590698,-0.05566645786166191,0.2668287754058838
1727009951589966000,10.618966064453126,0.023569773882627487,0.19880284368991852,-0.14254756271839142
1727009951600004000,10.629004150390625,0.0014058827655389905,0.2296273410320282,-0.328239381313324
1727009951610042000,10.6390419921875,0.07097910344600677,0.10373571515083313,-0.15390567481517792
1727009951620080000,10.649080078125,0.0870392918586731,-0.10605799406766891,-0.286612331867218
1727009951630118100,10.6591181640625,0.03551431745290756,-0.22215397655963898,-0.10619461536407471
1727009951640156200,10.66915625,-0.013734987005591393,-0.23466336727142334,-0.0858246237039566
1727009951650193200,10.679193115234375,0.007035272661596537,-0.11497612297534943,0.3348536193370819
1727009951660231200,10.689231201171875,0.026317890733480453,0.0016138756182044744,0.39031821489334106
1727009951670269200,10.699269287109376,0.007671235594898462,0.1423952281475067,0.2481115311384201
1727009951680307200,10.70930712890625,-0.028652416542172432,0.11323361098766327,0.004941495135426521
1727009951690345200,10.71934521484375,-0.07616161555051804,-0.10232024639844894,-0.20873883366584778
1727009951700383200,10.72938330078125,-0.11634578555822372,-0.3337039351463318,-0.2452917844057083
1727009951710420200,10.739420166015625,-0.13079316914081573,-0.40646496415138245,-0.10759144276380539
1727009951720458200,10.749458251953126,-0.11562486737966537,-0.264911025762558,-0.15692277252674103
1727009951730496300,10.759496337890624,-0.06386792659759521,-0.08527041971683502,0.05968090519309044
1727009951740534000,10.769533935546875,-0.08353777229785919,-0.007194529753178358,0.03730742633342743
1727009951750572300,10.779572265625,-0.11336784064769745,-0.03289536386728287,0.12822800874710083
1727009951760609000,10.789609130859375,-0.09827783703804016,-0.09266176074743271,0.11383175849914551
1727009951770647300,10.799647216796876,-0.05217878147959709,-0.28534066677093506,-0.20370492339134216
1727009951780685300,10.809685302734374,-0.019784091040492058,-0.42894044518470764,-0.1850617378950119
1727009951790723000,10.81972314453125,-0.05662759393453598,-0.4918845295906067,-0.34807807207107544
1727009951800761300,10.82976123046875,-0.07305583357810974,-0.408895879983902,-0.20452597737312317
1727009951810799000,10.839799072265626,-0.043059587478637695,-0.15158073604106903,-0.049804575741291046
1727009951820836000,10.849836181640624,0.01745089516043663,-0.012064918875694275,0.3022938072681427
1727009951830874000,10.8598740234375,0.05588270723819733,0.17872260510921478,0.18525773286819458
1727009951840912100,10.869912109375,0.018486598506569862,0.21375569701194763,0.05170127749443054
1727009951850950100,10.8799501953125,-0.029231388121843338,0.15764449536800385,-0.21179907023906708
1727009951860988200,10.88998828125,-0.005653624422848225,-0.07084940373897552,-0.19847048819065094
1727009951871026200,10.900026123046874,0.0700904056429863,-0.2087060809135437,0.06845389306545258
1727009951881063200,10.910063232421875,0.10975951701402664,-0.21365316212177277,0.06254193931818008
1727009951891101200,10.92010107421875,0.10008744895458221,-0.21992623805999756,0.03236539661884308
1727009951901139200,10.93013916015625,0.07716935127973557,-0.15273122489452362,0.05668218806385994
1727009951911177200,10.94017724609375,0.054548729211091995,-0.0439288429915905,-0.05379106104373932
1727009951921215000,10.950215087890625,0.07939815521240234,0.15166090428829193,0.001811482128687203
1727009951931252200,10.960252197265625,0.1429843157529831,0.1291409432888031,-0.24665771424770355
1727009951941290200,10.970290283203125,0.19799883663654327,-0.08315427601337433,-0.13426992297172546
1727009951951328300,10.980328369140626,0.184235081076622,-0.29877179861068726,-0.06011713296175003
1727009951961366300,10.9903662109375,0.16442915797233582,-0.2817392647266388,0.3081384003162384
1727009951971404000,11.000404052734375,0.15640266239643097,-0.07573231309652328,0.15751080214977264
1727009951981442300,11.0104423828125,0.19040776789188385,0.11861719191074371,0.18974250555038452
1727009951991479000,11.02047900390625,0.20048809051513672,0.2706490755081177,0.009518137201666832
1727009952001517000,11.03051708984375,0.17229586839675903,0.1505943089723587,-0.05795464664697647
1727009952011555000,11.04055517578125,0.16327200829982758,-0.01804691180586815,0.10569500178098679
1727009952021593000,11.050593017578125,0.17283116281032562,-0.19961270689964294,-0.13123472034931183
1727009952031631000,11.060631103515625,0.1936672031879425,-0.22226768732070923,-0.04571981728076935
1727009952041668000,11.070668212890626,0.1648038625717163,-0.18982239067554474,-0.1914655715227127
1727009952051706000,11.0807060546875,0.13169065117835999,0.010274209082126617,0.013846040703356266
1727009952061744000,11.090744140625,0.14746321737766266,0.3213101029396057,0.0708928182721138
1727009952071782100,11.1007822265625,0.2067403942346573,0.504414975643158,0.1549307256937027
1727009952081820200,11.110820068359375,0.23739764094352722,0.5101982951164246,0.19303177297115326
1727009952091858200,11.120858154296876,0.19415216147899628,0.33794447779655457,0.059306733310222626
1727009952101895200,11.130895263671874,0.15841840207576752,0.06873326003551483,-0.15962880849838257
1727009952111933200,11.14093310546875,0.172634094953537,-0.29060307145118713,-0.24122513830661774
1727009952121971200,11.15097119140625,0.15387319028377533,-0.3719432055950165,-0.16982072591781616
1727009952132009200,11.16100927734375,0.10093806684017181,-0.07424227148294449,-0.0755528137087822
1727009952142047200,11.171047119140624,0.11481872946023941,0.2780334949493408,0.0017188041238114238
1727009952152085000,11.1810849609375,0.17796067893505096,0.3721083104610443,0.2002878189086914
1727009952162122200,11.191122314453125,0.18840612471103668,0.2416837364435196,0.21542389690876007
1727009952172160300,11.20116015625,0.14238643646240234,0.010578341782093048,0.3538459539413452
1727009952182198300,11.2111982421875,0.09179569780826569,-0.10957283526659012,0.17426075041294098
1727009952192236300,11.221236328125,0.0786207765340805,-0.10605346411466599,-0.012811935506761074
1727009952202274000,11.231274169921875,0.0655587688088417,0.05127996578812599,-0.3202823996543884
1727009952212311300,11.241311279296875,0.041490186005830765,0.24286484718322754,-0.37372565269470215
1727009952222349000,11.25134912109375,0.0362943597137928,0.3294311463832855,-0.3929869532585144
1727009952232387000,11.261386962890626,0.08363471180200577,0.32054898142814636,-0.0912524163722992
1727009952242425000,11.271425048828124,0.14166046679019928,0.25450578331947327,0.0049646650440990925
1727009952252463000,11.281463134765625,0.21021395921707153,0.060688648372888565,0.38466113805770874
1727009952262501000,11.291501220703125,0.23449479043483734,-0.10762366652488708,0.4727630317211151
1727009952272538000,11.3015380859375,0.20934070646762848,-0.02901593968272209,0.5866765379905701
1727009952282576100,11.311576171875,0.1520177572965622,0.03473454341292381,-0.08066821098327637
1727009952292614100,11.3216142578125,0.1273651421070099,0.0750444158911705,-0.11772849410772324
1727009952302652200,11.331652099609375,0.04199565201997757,0.08254361152648926,-0.42409083247184753
1727009952312690200,11.341690185546875,-0.024641962721943855,0.15208619832992554,-0.5058980584144592
1727009952322728200,11.351728271484374,0.013034575618803501,0.2351967990398407,-0.17676572501659393
1727009952332765200,11.36176513671875,0.1310805231332779,0.2782214879989624,-0.005306348204612732
1727009952342803200,11.37180322265625,0.2614627480506897,0.17152808606624603,0.4902772903442383
1727009952352841200,11.38184130859375,0.26161909103393555,-0.002597114769741893,0.6189393997192383
1727009952362879200,11.391879150390626,0.12792307138442993,-0.13549230992794037,0.5684552192687988
1727009952372917200,11.401917236328124,-0.010182330384850502,-0.06790288537740707,0.20027263462543488
1727009952382954200,11.411954345703125,-0.040823861956596375,0.14616040885448456,-0.1459750533103943
1727009952392992300,11.4219921875,-0.003457315731793642,0.2610108256340027,-0.49247148633003235
1727009952403030300,11.4320302734375,0.016930246725678444,0.22257767617702484,-0.5466969013214111
1727009952413068000,11.442068115234376,0.003388339886441827,0.03467968478798866,-0.2560988962650299
1727009952423106300,11.452106201171874,0.03465891256928444,-0.20744426548480988,0.17858944833278656
1727009952433144000,11.46214404296875,0.07209709286689758,-0.24844416975975037,0.5115562081336975
1727009952443181300,11.472181396484375,0.050338272005319595,-0.03543442487716675,0.31440427899360657
1727009952453219000,11.482218994140625,-0.022474415600299835,0.3757115602493286,0.14996126294136047
1727009952463257000,11.492257080078126,-0.10573841631412506,0.6424146294593811,-0.08242589980363846
1727009952473295000,11.502295166015625,-0.11725924909114838,0.5341677665710449,-0.18028748035430908
1727009952483333000,11.5123330078125,-0.064472995698452,-0.04820667579770088,-0.12924933433532715
1727009952493370000,11.5223701171875,-0.07163743674755096,-0.5150846242904663,-0.00242187874391675
1727009952503408000,11.532408203125,-0.18205341696739197,-0.5315243601799011,-0.19557136297225952
1727009952513446100,11.542446044921874,-0.23824985325336456,-0.26875075697898865,-0.1896229237318039
1727009952523484200,11.552484130859375,-0.15275359153747559,-0.013201289810240269,-0.027051856741309166
1727009952533522200,11.562522216796875,-0.06439656764268875,0.12165159732103348,0.21713551878929138
1727009952543560200,11.572560302734376,-0.10860130935907364,-0.010757839307188988,0.08112254738807678
1727009952553597200,11.58259716796875,-0.15036900341510773,-0.18887192010879517,0.006142580881714821
1727009952563635200,11.59263525390625,-0.1146557405591011,-0.3883986175060272,-0.19313617050647736
1727009952573673200,11.602673095703125,-0.04314294457435608,-0.48734596371650696,-0.006450442597270012
1727009952583711200,11.612711181640625,-0.07451444864273071,-0.361558198928833,-0.08438119292259216
1727009952593752600,11.622752685546875,-0.16715224087238312,-0.0929214209318161,-0.03696414455771446
1727009952603789600,11.63278955078125,-0.2037762999534607,0.1443241536617279,-0.06524877995252609
1727009952613827600,11.64282763671875,-0.1578357070684433,0.13757330179214478,-0.040948230773210526
1727009952623865600,11.652865478515626,-0.07519301772117615,-0.04152454063296318,0.05221553519368172
1727009952633903600,11.662903564453124,-0.028691299259662628,-0.3036879897117615,0.15572860836982727
1727009952643941600,11.672941650390625,-0.0757213905453682,-0.4181500971317291,0.05458841100335121
1727009952653979600,11.682979736328125,-0.12638670206069946,-0.28070196509361267,0.07425585389137268
1727009952664016400,11.693016357421875,-0.10557835549116135,-0.00509888818487525,-0.09849381446838379
1727009952674054700,11.7030546875,-0.02339853346347809,0.1411757618188858,0.002098304685205221
1727009952684092400,11.713092529296874,-0.005065065808594227,0.17115123569965363,-0.14431776106357574
1727009952694130700,11.723130615234375,-0.032819200307130814,-0.015558186918497086,-0.16399478912353516
1727009952704168400,11.73316845703125,0.006223541218787432,-0.286693811416626,-0.023185480386018753
1727009952714206700,11.743206787109376,0.08313003927469254,-0.3953758180141449,0.22127406299114227
1727009952724243700,11.75324365234375,0.11501500010490417,-0.2629144489765167,0.18527425825595856
1727009952734281500,11.763281494140625,0.10491123795509338,0.013954431749880314,0.06878652423620224
1727009952744319700,11.77331982421875,0.07034580409526825,0.14230281114578247,0.006738862954080105
1727009952754357500,11.783357421875,0.051045872271060944,0.17603494226932526,-0.08362378925085068
1727009952764395500,11.7933955078125,0.1159399151802063,0.009325324557721615,-0.16403740644454956
1727009952774432800,11.803432861328124,0.23879073560237885,-0.22444722056388855,0.07020225375890732
1727009952784470500,11.813470458984375,0.24895496666431427,-0.26091256737709045,0.18568038940429688
1727009952794508800,11.8235087890625,0.15615685284137726,-0.009040366858243942,0.2531435787677765
1727009952804546600,11.833546630859376,0.10013218969106674,0.33478623628616333,-0.11913837492465973
1727009952814584600,11.84358447265625,0.1403762847185135,0.4955567419528961,-0.12902748584747314
1727009952824622600,11.85362255859375,0.15309607982635498,0.48276132345199585,-0.17032992839813232
1727009952834659600,11.86365966796875,0.14527755975723267,0.23107662796974182,0.03544241189956665
1727009952844697600,11.873697509765625,0.17627516388893127,0.023627830669283867,0.17803631722927094
1727009952854735600,11.883735595703126,0.2240261733531952,-0.14435984194278717,0.2899569869041443
1727009952864773600,11.893773681640624,0.2419487088918686,-0.18235382437705994,0.1650259643793106
1727009952874811600,11.903811767578125,0.18844980001449585,-0.0919879823923111,0.08428638428449631
1727009952884848600,11.9138486328125,0.08449944108724594,0.11785633116960526,-0.08178860694169998
1727009952894886400,11.923886474609375,0.046605050563812256,0.45344579219818115,-0.3813915550708771
1727009952904924700,11.933924560546876,0.11690185219049454,0.4609353840351105,-0.39598968625068665
1727009952914962400,11.94396240234375,0.19424989819526672,0.2859622538089752,-0.06751805543899536
1727009952925000700,11.954000732421875,0.17090916633605957,-0.1321476548910141,0.34774360060691833
1727009952935038500,11.96403857421875,0.11049748212099075,-0.19106823205947876,0.5246885418891907
1727009952945075500,11.974075439453125,0.10050796717405319,-0.06389269977807999,0.27721163630485535
1727009952955113700,11.98411376953125,0.11266955733299255,0.22481340169906616,0.11384507268667221
1727009952965151500,11.9941513671875,0.04646443575620651,0.3606356978416443,-0.3891243040561676
1727009952975189800,12.004189697265625,-0.006706904619932175,0.271750807762146,-0.3697972297668457
1727009952985227500,12.0142275390625,0.0033478597179055214,0.04749561473727226,-0.2732224762439728
1727009952995265500,12.024265625,0.056408945471048355,-0.04910602793097496,0.07412642240524292
1727009953005302800,12.034302734375,0.08317691087722778,-0.06624080240726471,0.003201119601726532
1727009953015340500,12.044340576171875,0.08189965784549713,-0.06985711306333542,0.23912496864795685
1727009953025378800,12.05437890625,0.03566798195242882,-0.01267132069915533,0.13505369424819946
1727009953035416600,12.06441650390625,-0.014006096869707108,0.14962518215179443,0.3349798619747162
1727009953045454600,12.07445458984375,-0.08104505389928818,0.37176209688186646,-0.024020647630095482
1727009953055491600,12.08449169921875,-0.11135635524988174,0.4577859342098236,-0.3514155447483063
1727009953065529600,12.094529541015625,-0.11469408869743347,0.26392486691474915,-0.3375817537307739
1727009953075567400,12.1045673828125,-0.12115571647882462,0.06529272347688675,0.0031494542490690947
1727009953085605600,12.114605712890626,-0.0839790552854538,-0.0937533900141716,0.23990367352962494
1727009953095643600,12.1246435546875,-0.01092508528381586,-0.15898005664348602,0.19945664703845978
1727009953105681700,12.134681640625,-0.0008234494016505778,-0.09283566474914551,0.0499289445579052
1727009953115718700,12.14471875,-0.07390990853309631,0.004655738361179829,-0.05440864711999893
1727009953125756400,12.15475634765625,-0.1226673275232315,0.03404185548424721,0.04017698019742966
1727009953135794700,12.164794677734376,-0.08342591673135757,0.022172147408127785,0.003257844829931855
1727009953145832400,12.17483251953125,-0.012544553726911545,0.09304126352071762,0.0023220102302730083
1727009953155870700,12.18487060546875,-0.010643589310348034,0.0778505876660347,-0.13659752905368805
1727009953165908500,12.194908447265625,0.0034328147303313017,-0.058291271328926086,0.08248795568943024
1727009953175945500,12.204945556640626,0.05101870745420456,-0.1889861673116684,0.1786981076002121
1727009953185983700,12.214983642578124,0.07245396077632904,-0.11693301051855087,0.25932663679122925
1727009953196021500,12.225021484375,0.046243127435445786,-0.011872638016939163,0.021765483543276787
1727009953206059800,12.235059814453125,0.043718986213207245,0.06810874491930008,0.13034042716026306
1727009953216097500,12.24509765625,0.03230094909667969,0.0008974852971732616,-0.19831602275371552
1727009953226135600,12.255135498046876,0.03582377731800079,-0.09005159884691238,0.03717293590307236
1727009953236172800,12.2651728515625,0.021037906408309937,-0.042030274868011475,-0.11569330841302872
1727009953246210600,12.27521044921875,-0.004806206561625004,0.11738681048154831,0.06238934025168419
1727009953256248600,12.28524853515625,-0.04525376483798027,0.2908949553966522,0.031500402837991714
