time,seconds_elapsed,z,y,x
1727009940995027700,0.02402783203125,0.18217697739601135,-0.2552640438079834,-0.049764398485422134
1727009941005066000,0.03406591796875,0.16168928146362305,-0.3483439087867737,0.027258211746811867
1727009941015103700,0.044103759765625,0.09821900725364685,-0.32731926441192627,-0.08797930181026459
1727009941025141800,0.054141845703125,0.1896706223487854,-0.17769089341163635,-0.13303358852863312
1727009941035179800,0.0641796875,0.27765926718711853,0.031977370381355286,-0.0010250452905893326
1727009941045216800,0.074216796875,0.29760023951530457,0.23035410046577454,0.03661181032657623
1727009941055254800,0.0842548828125,0.3150293231010437,0.2103772759437561,-0.004731385037302971
1727009941065292800,0.094292724609375,0.3464716672897339,0.1608794927597046,0.004971575923264027
1727009941075330800,0.104330810546875,0.36809197068214417,0.14677833020687103,0.0719863623380661
1727009941085368800,0.114368896484375,0.43606382608413696,0.08245552331209183,0.1101265549659729
1727009941095405800,0.12440576171875,0.507854163646698,0.059342414140701294,0.25260987877845764
1727009941105443800,0.13444384765625,0.5882440209388733,-0.007925570011138916,0.10594215244054794
1727009941115481900,0.14448193359375,0.5891495943069458,0.0793708860874176,0.08217412233352661
1727009941125520000,0.154519775390625,0.5218669772148132,0.28409844636917114,0.04967609420418739
1727009941135558000,0.164557861328125,0.49980849027633667,0.4523467719554901,0.07897313684225082
1727009941145596000,0.174595947265625,0.5008252859115601,0.6128989458084106,0.14757215976715088
1727009941155632600,0.184632568359375,0.4857359826564789,0.7460198402404785,0.23141716420650482
1727009941165671000,0.1946708984375,0.46902066469192505,0.8688866496086121,0.26880553364753723
1727009941175708700,0.204708740234375,0.5014069676399231,0.705737829208374,0.3150494694709778
1727009941185747000,0.214746826171875,0.5493113398551941,0.5780333876609802,0.1708259880542755
1727009941195784700,0.22478466796875,0.6111947298049927,0.3450566828250885,-0.08965849876403809
1727009941205821700,0.23482177734375,0.45341017842292786,0.13182644546031952,-0.25941210985183716
1727009941215860000,0.24485986328125,0.2097695916891098,0.08079881221055984,-0.2123195230960846
1727009941225897700,0.254897705078125,0.2085847556591034,0.16393576562404633,-0.053764235228300095
1727009941235935700,0.264935791015625,0.42487800121307373,0.22784100472927094,-0.04386604577302933
1727009941245973800,0.274973876953125,0.522956371307373,0.21302317082881927,0.13655033707618713
1727009941256010800,0.2850107421875,0.40213391184806824,0.140541210770607,0.20925676822662354
1727009941266049000,0.295049072265625,0.302368700504303,0.132114440202713,0.33741313219070435
1727009941276086800,0.305086669921875,0.37257906794548035,0.10500069707632065,-0.04689503461122513
1727009941286124800,0.315124755859375,0.5115681290626526,0.08381391316652298,-0.2826191484928131
1727009941296162800,0.325162841796875,0.5625583529472351,0.08935429155826569,-0.3879559338092804
1727009941306200800,0.335200927734375,0.5669858455657959,0.19400906562805176,-0.019994424656033516
1727009941316237600,0.345237548828125,0.5846300721168518,0.36869072914123535,0.04028879851102829
1727009941326275800,0.35527587890625,0.6897594332695007,0.5268604159355164,0.23334108293056488
1727009941336313600,0.365313720703125,0.790160059928894,0.6101673245429993,0.3374977111816406
1727009941346351900,0.375351806640625,0.7438654899597168,0.5721011757850647,0.2587035596370697
1727009941356390000,0.385389892578125,0.6398651003837585,0.4953916668891907,0.16889497637748718
1727009941366426600,0.395426513671875,0.6546304821968079,0.39764833450317383,-0.08482837677001953
1727009941376465000,0.40546484375,0.7122568488121033,0.31339478492736816,-0.03729366138577461
1727009941386502700,0.415502685546875,0.6610860824584961,0.29802408814430237,-0.2278050184249878
1727009941396541000,0.425541015625,0.5938435196876526,0.38543954491615295,0.032778553664684296
1727009941406578700,0.43557861328125,0.5930836796760559,0.45198875665664673,0.11936164647340775
1727009941416615700,0.44561572265625,0.5860698819160461,0.46415168046951294,0.3063397705554962
1727009941426654000,0.455654052734375,0.5539340972900391,0.4616139829158783,0.03754826635122299
1727009941436691700,0.465691650390625,0.5295230150222778,0.38163119554519653,0.18083959817886353
1727009941446730000,0.47572998046875,0.4902549684047699,0.2347131222486496,-0.09791107475757599
1727009941456767700,0.485767822265625,0.48643168807029724,0.17461621761322021,-0.010698756203055382
1727009941466805800,0.4958056640625,0.5035006403923035,0.29428350925445557,-0.11057555675506592
1727009941476843000,0.505843017578125,0.5175338983535767,0.3821735382080078,0.02882371097803116
1727009941486880800,0.515880859375,0.4972432851791382,0.39680734276771545,0.12368790060281754
1727009941496919000,0.5259189453125,0.47308310866355896,0.5253887176513672,0.15418215095996857
1727009941506956800,0.535956787109375,0.4680316150188446,0.5841470956802368,0.15708154439926147
1727009941516994800,0.545994873046875,0.46984925866127014,0.47208458185195923,0.1344141811132431
1727009941527031800,0.55603173828125,0.4739989936351776,0.332904577255249,0.05447886884212494
1727009941537069800,0.56606982421875,0.482441782951355,0.26029151678085327,0.10989516228437424
1727009941547107600,0.576107666015625,0.4416773021221161,0.3054259717464447,-0.12123845517635345
1727009941557145900,0.586145751953125,0.41221266984939575,0.46741169691085815,-0.06968675553798676
1727009941567183600,0.59618359375,0.4263918995857239,0.5941957235336304,0.036342471837997437
1727009941577222100,0.60622216796875,0.42882663011550903,0.6542841792106628,0.37787699699401855
1727009941587259400,0.61625927734375,0.3621181845664978,0.5313543081283569,0.22002451121807098
1727009941597297200,0.626297119140625,0.30608195066452026,0.36525821685791016,0.2759156823158264
1727009941607335200,0.636335205078125,0.23389644920825958,0.12360724061727524,0.012517078779637814
1727009941617373200,0.646373291015625,0.13008959591388702,0.0726555660367012,-0.015998316928744316
1727009941627411200,0.6564111328125,0.03260990232229233,0.2491653561592102,-0.18869924545288086
1727009941637448200,0.6664482421875,-0.003233593888580799,0.2858549952507019,-0.035970915108919144
1727009941647486200,0.676486328125,-0.01753530278801918,0.20866352319717407,-0.06349601596593857
1727009941657524200,0.686524169921875,-0.06186798959970474,0.11628303676843643,0.1940675973892212
1727009941667562200,0.696562255859375,-0.134016752243042,0.16885729134082794,0.05614941567182541
1727009941677600300,0.706600341796875,-0.0963619202375412,0.14126072824001312,0.029722830280661583
1727009941687637000,0.716636962890625,-0.02579321898519993,0.07403481751680374,-0.026103682816028595
1727009941697675300,0.72667529296875,-0.07437470555305481,0.05382513254880905,-0.0961279422044754
1727009941707713000,0.736713134765625,-0.15661178529262543,0.06231022998690605,-0.16475866734981537
1727009941717751300,0.746751220703125,-0.12988443672657013,0.1914941370487213,-0.05493732914328575
1727009941727789000,0.7567890625,-0.029881132766604424,0.27848950028419495,0.026512790471315384
1727009941737827000,0.7668271484375,0.07206585258245468,0.22134868800640106,-0.0183260440826416
1727009941747864300,0.7768642578125,0.10014888644218445,0.0312943235039711,0.11367326229810715
1727009941757902000,0.786902099609375,0.07149648666381836,-0.026146940886974335,0.11857941001653671
1727009941767940400,0.7969404296875,0.09380125254392624,0.07717039436101913,0.13697414100170135
1727009941777978000,0.80697802734375,0.18231691420078278,0.19901445508003235,0.01164875365793705
1727009941788016000,0.81701611328125,0.24480506777763367,0.3655685484409332,-0.05001114681363106
1727009941798053400,0.827053466796875,0.24872979521751404,0.3501696288585663,-0.15033607184886932
1727009941808091100,0.837091064453125,0.28197669982910156,0.17712141573429108,0.08018555492162704
1727009941818129200,0.847129150390625,0.3191344439983368,0.13987809419631958,0.18961764872074127
1727009941828167200,0.857167236328125,0.32606157660484314,0.2784721851348877,0.2155192792415619
1727009941838205200,0.867205078125,0.3238011598587036,0.43722179532051086,0.09401270002126694
1727009941848243200,0.8772431640625,0.3190324902534485,0.43273836374282837,0.10263921320438385
1727009941858280200,0.8872802734375,0.2910769283771515,0.3350067734718323,0.06529982388019562
1727009941868318200,0.897318115234375,0.254014790058136,0.21179695427417755,0.15911179780960083
1727009941878356200,0.907356201171875,0.22556015849113464,0.13788370788097382,0.11245349049568176
1727009941888394200,0.917394287109375,0.20377762615680695,0.18880920112133026,-0.06218702718615532
1727009941898432300,0.927432373046875,0.14437545835971832,0.2532467544078827,0.028884388506412506
1727009941908469200,0.93746923828125,0.04269862547516823,0.24294884502887726,0.06407780200242996
1727009941918507000,0.947507080078125,0.00060997623950243,0.18429803848266602,-0.010257773101329803
1727009941928545300,0.957545166015625,0.02098901756107807,0.11719304323196411,-0.09203412383794785
1727009941938583000,0.9675830078125,0.029346946626901627,-0.030499150976538658,0.021110832691192627
1727009941948621300,0.977621337890625,-0.01612306758761406,-0.18035122752189636,-0.0371740460395813
1727009941958659000,0.9876591796875,-0.061477065086364746,-0.07250992208719254,0.04619088023900986
1727009941968696000,0.997696044921875,-0.08619306236505508,0.1538260132074356,0.04429258033633232
1727009941978734300,1.007734375,-0.07485867291688919,0.22700783610343933,0.08971335738897324
1727009941988772000,1.017772216796875,-0.058459989726543427,0.21510803699493408,0.14621871709823608
1727009941998810400,1.027810302734375,-0.09874845296144485,0.09795857965946198,0.028686556965112686
1727009942008848100,1.03784814453125,-0.13784979283809662,-0.12356928735971451,-0.07645504176616669
1727009942018885000,1.047885009765625,-0.11785013228654861,-0.2321964055299759,-0.0009707668796181679
1727009942028923400,1.05792333984375,-0.09079001843929291,-0.1498999446630478,-0.007050231099128723
1727009942038961200,1.067961181640625,-0.060828231275081635,0.10484711080789566,-0.06195599585771561
1727009942048999200,1.077999267578125,-0.022567663341760635,0.32429665327072144,0.2210938185453415
1727009942059037200,1.088037109375,-0.05066089332103729,0.40332528948783875,0.09915753453969955
1727009942069075200,1.0980751953125,-0.08440288156270981,0.34343424439430237,0.22799167037010193
1727009942079112200,1.1081123046875,-0.058548714965581894,0.25230973958969116,0.04929901659488678
1727009942089150200,1.118150146484375,0.007431631907820702,0.09388896077871323,0.1529063731431961
1727009942099188000,1.12818798828125,-0.0036249165423214436,-0.02316439151763916,0.00864112377166748
1727009942109226200,1.138226318359375,-0.09535963088274002,-0.05131693556904793,0.13386215269565582
1727009942119264000,1.148263916015625,-0.2348276525735855,-0.06979110836982727,-0.13868391513824463
1727009942129301000,1.158301025390625,-0.2928352952003479,-0.04108383134007454,-0.08363158255815506
1727009942139339300,1.16833935546875,-0.3156256675720215,-0.14266586303710938,-0.24022190272808075
1727009942149377000,1.178376953125,-0.3660446107387543,-0.2703529894351959,0.026331499218940735
1727009942159415300,1.188415283203125,-0.44488024711608887,-0.2811559736728668,0.0568622387945652
1727009942169453000,1.198453125,-0.5186340808868408,-0.2668183147907257,0.2328745424747467
1727009942179491300,1.2084912109375,-0.5708382725715637,-0.12276580929756165,0.06187637895345688
1727009942189528300,1.2185283203125,-0.5846347808837891,0.005250471644103527,0.11564294248819351
1727009942199566000,1.228566162109375,-0.6173110008239746,-0.08907530456781387,-0.1504674255847931
1727009942209604400,1.238604248046875,-0.6807240843772888,-0.21825991570949554,-0.11286493390798569
1727009942219642000,1.24864208984375,-0.784622073173523,-0.3972364068031311,-0.23095253109931946
1727009942229680000,1.25868017578125,-0.831535279750824,-0.42611122131347656,-0.2224690318107605
1727009942239718100,1.26871826171875,-0.7883892059326172,-0.44962939620018005,-0.12579262256622314
1727009942249755100,1.278755126953125,-0.7197529077529907,-0.513637125492096,0.016048144549131393
1727009942259793400,1.28879345703125,-0.7315356731414795,-0.5413475632667542,-0.04956686869263649
1727009942269831200,1.2988310546875,-0.7548023462295532,-0.5050100684165955,-0.164704367518425
1727009942279869200,1.308869140625,-0.7250014543533325,-0.3680518567562103,-0.05674368143081665
1727009942289907200,1.3189072265625,-0.6690798401832581,-0.2781946659088135,-0.11698651313781738
1727009942299944200,1.328944091796875,-0.6317148804664612,-0.3512531518936157,0.09801961481571198
1727009942309982000,1.33898193359375,-0.6507388949394226,-0.3222920596599579,0.10119517147541046
1727009942320020200,1.349020263671875,-0.6643495559692383,-0.39499014616012573,-0.04174908250570297
1727009942330058000,1.35905810546875,-0.6074495315551758,-0.44403332471847534,-0.09989813715219498
1727009942340096300,1.36909619140625,-0.5469292402267456,-0.42514631152153015,-0.03128249943256378
1727009942350134000,1.379134033203125,-0.525913417339325,-0.3908059298992157,-0.17336587607860565
1727009942360171000,1.3891708984375,-0.4637238085269928,-0.29775485396385193,-0.1896466165781021
1727009942370209300,1.399209228515625,-0.4039105474948883,-0.11885463446378708,-0.06697183102369308
1727009942380247000,1.4092470703125,-0.38310497999191284,0.05967147648334503,-0.06758900731801987
1727009942390285300,1.419285400390625,-0.313301146030426,0.1169920265674591,-0.030470939353108406
1727009942400323000,1.429322998046875,-0.20423275232315063,0.04961764067411423,0.13898076117038727
1727009942410361300,1.439361328125,-0.16012467443943024,-0.08879376202821732,0.12660212814807892
1727009942420398300,1.4493984375,-0.16804362833499908,-0.16166749596595764,0.057187918573617935
1727009942430436000,1.45943603515625,-0.17410604655742645,-0.1415417194366455,-0.0075548551976680756
1727009942440474400,1.469474365234375,-0.150930717587471,-0.02738887444138527,-0.10785884410142899
1727009942450512100,1.47951220703125,-0.11858369410037994,0.08488599956035614,-0.18481327593326569
1727009942460550100,1.489550048828125,-0.13205403089523315,0.1128116324543953,-0.14118093252182007
1727009942470588200,1.499588134765625,-0.1431460976600647,0.05007101967930794,0.006667387206107378
1727009942480625200,1.509625244140625,-0.07907656580209732,0.019629713147878647,0.23745542764663696
1727009942490663200,1.5196630859375,-0.02502504363656044,-0.03719708323478699,0.14647358655929565
1727009942500701200,1.529701171875,-0.012491711415350437,-0.17093761265277863,0.12547139823436737
1727009942510739200,1.5397392578125,-0.028042174875736237,-0.321378231048584,0.07386760413646698
1727009942520777200,1.549777099609375,-0.05049553140997887,-0.243135005235672,-0.10752960294485092
1727009942530814200,1.559814208984375,-0.02614571526646614,-0.15734286606311798,-0.20130296051502228
1727009942540852000,1.56985205078125,0.02852817252278328,-0.05076811462640762,-0.15943361818790436
1727009942550890200,1.57989013671875,0.04816765338182449,0.1141824871301651,0.010704029351472855
1727009942560928000,1.589927978515625,0.05841077119112015,0.1208868995308876,0.11895555257797241
1727009942570966300,1.59996630859375,0.08554784953594208,0.0546058788895607,0.29326263070106506
1727009942581007400,1.61000732421875,0.0755847617983818,0.027612600475549698,0.1620134562253952
1727009942591044400,1.62004443359375,0.06557953357696533,0.014670703560113907,0.11950515955686569
1727009942601082600,1.63008251953125,0.07184898853302002,-0.11900855600833893,-0.22015465795993805
1727009942611120400,1.640120361328125,0.07827439904212952,-0.0036910208873450756,-0.10792612284421921
1727009942621158400,1.650158447265625,0.09623857587575912,0.12390457093715668,-0.1646813303232193
1727009942631196400,1.660196533203125,0.1431962251663208,0.14649005234241486,-0.06290117651224136
1727009942641234400,1.670234375,0.1673763245344162,0.11590375751256943,0.1317218393087387
1727009942651271700,1.680271728515625,0.19178898632526398,0.07246014475822449,0.17633990943431854
1727009942661309400,1.690309326171875,0.2157895565032959,0.02151336520910263,0.198166623711586
1727009942671347500,1.700347412109375,0.21537169814109802,0.1060841754078865,0.14637000858783722
1727009942681385500,1.710385498046875,0.22908273339271545,0.04869560897350311,-0.09073061496019363
1727009942691423500,1.720423583984375,0.26274964213371277,-0.025314170867204666,-0.0552637055516243
1727009942701461500,1.73046142578125,0.2505616247653961,0.2638779282569885,-0.06677252799272537
1727009942711498500,1.74049853515625,0.2648526728153229,0.35690855979919434,-0.18298327922821045
1727009942721536500,1.75053662109375,0.35683250427246094,0.1707966923713684,-0.02569751814007759
1727009942731574500,1.760574462890625,0.40514224767684937,-0.019312258809804916,0.24469536542892456
1727009942741612500,1.770612548828125,0.33603373169898987,0.03032386489212513,0.1401168406009674
1727009942751650600,1.780650634765625,0.30184513330459595,0.1155247762799263,0.1407346874475479
1727009942761688600,1.7906884765625,0.3632798194885254,0.3647134006023407,-0.06833255290985107
1727009942771725300,1.800725341796875,0.4531439244747162,0.6292811036109924,-0.10641628503799438
1727009942781763600,1.810763671875,0.4408310651779175,0.5914900898933411,-0.17345374822616577
1727009942791801300,1.82080126953125,0.3941040337085724,0.4568515717983246,0.15397870540618896
1727009942801839400,1.83083935546875,0.4111127555370331,0.17123587429523468,0.1126173734664917
1727009942811877400,1.84087744140625,0.45621100068092346,0.1319742202758789,0.31987521052360535
1727009942821915400,1.850915283203125,0.40215906500816345,0.2943192720413208,0.05237049236893654
1727009942831952600,1.86095263671875,0.32568639516830444,0.4458773732185364,-0.07326946407556534
1727009942841990400,1.870990478515625,0.2818899154663086,0.4489796757698059,-0.05834031105041504
1727009942852028400,1.8810283203125,0.2670326828956604,0.38873445987701416,0.07224166393280029
1727009942862066400,1.89106640625,0.20403723418712616,0.2507568895816803,-0.1527189314365387
1727009942872104400,1.9011044921875,0.13577882945537567,-0.036832552403211594,0.00349650951102376
1727009942882142500,1.911142578125,0.03664499148726463,-0.15804047882556915,0.2845675051212311
1727009942892179500,1.921179443359375,-0.10213419795036316,-0.20997931063175201,0.21441452205181122
1727009942902217500,1.931217529296875,-0.17267340421676636,-0.15696057677268982,0.09807557612657547
1727009942912255500,1.94125537109375,-0.23578126728534698,-0.20045559108257294,-0.17460495233535767
1727009942922293500,1.95129345703125,-0.3735722303390503,-0.2808101773262024,-0.33885473012924194
1727009942932331500,1.96133154296875,-0.5030398964881897,-0.37949255108833313,-0.3893498480319977
1727009942942369500,1.97136962890625,-0.5011320114135742,-0.4058088958263397,-0.10050158202648163
1727009942952407300,1.9814072265625,-0.4681823253631592,-0.40006473660469055,-0.011579963378608227
1727009942962444500,1.991444580078125,-0.5020860433578491,-0.24452130496501923,0.08836612850427628
1727009942972482600,2.001482666015625,-0.5622165203094482,-0.04138336330652237,0.1111539974808693
1727009942982520600,2.0115205078125,-0.5816067457199097,-0.06156197190284729,0.028045061975717545
1727009942992558600,2.02155859375,-0.5518501996994019,-0.23454652726650238,-0.08694224059581757
1727009943002596400,2.031596435546875,-0.566914975643158,-0.46768656373023987,-0.205727219581604
1727009943012634600,2.041634521484375,-0.6047025918960571,-0.6024824380874634,-0.18418918550014496
1727009943022671400,2.05167138671875,-0.5813151001930237,-0.5625418424606323,-0.10144801437854767
1727009943032709400,2.06170947265625,-0.4827246367931366,-0.5180675983428955,-0.0015099667944014072
1727009943042747400,2.071747314453125,-0.39036935567855835,-0.360209196805954,-0.0009465785697102547
1727009943052785400,2.081785400390625,-0.4354950189590454,-0.21078909933567047,-0.03892884775996208
1727009943062823400,2.091823486328125,-0.4910687506198883,-0.23914453387260437,0.03748280927538872
1727009943072861400,2.101861328125,-0.47000131011009216,-0.3717028498649597,0.018260646611452103
1727009943082898400,2.1118984375,-0.4283596873283386,-0.5388544201850891,-0.022334372624754906
1727009943092936400,2.1219365234375,-0.40990400314331055,-0.6079607605934143,-0.13828495144844055
1727009943102974500,2.131974365234375,-0.42862412333488464,-0.5104209184646606,-0.17939037084579468
1727009943113012500,2.142012451171875,-0.4780217707157135,-0.20143884420394897,-0.23864597082138062
1727009943123050500,2.152050537109375,-0.41672608256340027,-0.03648346662521362,0.06139925867319107
1727009943133088300,2.162088134765625,-0.3101096451282501,-0.13483187556266785,0.1828649789094925
1727009943143125500,2.17212548828125,-0.31764528155326843,-0.34124457836151123,0.34431079030036926
1727009943153163500,2.18216357421875,-0.378909707069397,-0.28704363107681274,0.0980147048830986
1727009943163201500,2.192201416015625,-0.36035457253456116,-0.11321621388196945,-0.03583548963069916
1727009943173239600,2.202239501953125,-0.2784152328968048,-0.04733413830399513,-0.20218399167060852
1727009943183277300,2.21227734375,-0.1844409853219986,-0.12428949773311615,-0.33652421832084656
1727009943193315600,2.222315673828125,-0.19145148992538452,-0.3578875958919525,-0.19183868169784546
1727009943203353300,2.232353271484375,-0.22694112360477448,-0.46131011843681335,0.05405452102422714
1727009943213390300,2.242390380859375,-0.14633283019065857,-0.5036924481391907,0.032960955053567886
1727009943223428600,2.2524287109375,-0.015123410150408745,-0.24009038507938385,0.28109273314476013
1727009943233466400,2.26246630859375,0.03359273076057434,0.028100058436393738,0.11002936959266663
1727009943243504600,2.272504638671875,0.026970794424414635,0.12361320108175278,0.1531192809343338
1727009943253542400,2.28254248046875,-0.01566801220178604,0.04052071273326874,-0.24192871153354645
1727009943263580700,2.29258056640625,0.031773269176483154,-0.21711471676826477,-0.17232121527194977
1727009943273617400,2.302617431640625,0.11794304102659225,-0.26495760679244995,-0.05749209225177765
1727009943283655400,2.312655517578125,0.15726794302463531,-0.188071608543396,-0.03448878228664398
1727009943293693400,2.322693359375,0.1570948362350464,0.022122375667095184,-0.20249588787555695
1727009943303731500,2.3327314453125,0.1712707132101059,0.2535249590873718,0.26402387022972107
1727009943313769500,2.34276953125,0.1799483597278595,0.4022199213504791,0.38488611578941345
1727009943323807500,2.352807373046875,0.18721070885658264,0.19844405353069305,0.08931498229503632
1727009943333845500,2.362845458984375,0.1673629730939865,-0.05041263625025749,0.1655237227678299
1727009943343882500,2.372882568359375,0.09850414097309113,-0.11927686631679535,-0.04527917504310608
1727009943353920500,2.38292041015625,0.08569247275590897,-0.11522939801216125,-0.3127843737602234
1727009943363958300,2.392958251953125,0.15938958525657654,0.08533838391304016,-0.3894253373146057
1727009943373996500,2.40299658203125,0.20595015585422516,0.1920352727174759,-0.07331954687833786
1727009943384034300,2.413034423828125,0.16355493664741516,0.13183288276195526,0.11429981887340546
1727009943394072600,2.423072509765625,0.13893935084342957,0.14029693603515625,0.3201887905597687
1727009943404110300,2.4331103515625,0.14753571152687073,0.0337076336145401,0.2703934609889984
1727009943414147300,2.443147216796875,0.11717274785041809,0.027421776205301285,0.08023390918970108
1727009943424185600,2.453185546875,0.03633847460150719,0.019323645159602165,-0.024339908733963966
1727009943434223400,2.463223388671875,-0.02219940349459648,0.11850135773420334,-0.22626318037509918
1727009943444261600,2.47326171875,-0.02138678729534149,0.1018291562795639,-0.24355116486549377
1727009943454299400,2.48329931640625,-0.03684989735484123,0.011394064873456955,-0.20276671648025513
1727009943464337400,2.49333740234375,-0.03267230838537216,-0.13679994642734528,0.15766453742980957
1727009943474374700,2.503374755859375,-0.0784086361527443,-0.19858768582344055,0.46140044927597046
1727009943484412400,2.513412353515625,-0.14067015051841736,-0.12339241802692413,0.20052644610404968
1727009943494450700,2.52345068359375,-0.13431930541992188,-0.145855113863945,0.04104650765657425
1727009943504488400,2.533488525390625,-0.14333924651145935,-0.1368415355682373,-0.2948918044567108
1727009943514526500,2.5435263671875,-0.2259606271982193,-0.24816086888313293,-0.4712889492511749
1727009943524564500,2.553564453125,-0.2883990406990051,-0.19224373996257782,-0.35790276527404785
1727009943534602500,2.5636025390625,-0.28808584809303284,-0.14828453958034515,-0.05661696195602417
1727009943544639200,2.57363916015625,-0.21437232196331024,-0.14342035353183746,0.27496767044067383
1727009943554677500,2.583677490234375,-0.19314374029636383,-0.08951478451490402,0.3588851988315582
1727009943564715300,2.59371533203125,-0.28147751092910767,-0.11909617483615875,0.19051222503185272
1727009943574753500,2.60375341796875,-0.3305662274360657,-0.15095210075378418,0.0032294155098497868
1727009943584791800,2.613791748046875,-0.2948024272918701,-0.05370625481009483,-0.17859505116939545
1727009943594830000,2.623830078125,-0.26061704754829407,-0.021750984713435173,-0.40648573637008667
1727009943604867800,2.633867919921875,-0.22230979800224304,-0.053634073585271835,-0.3265892565250397
1727009943614904800,2.64390478515625,-0.2139512002468109,-0.18418197333812714,-0.03533395379781723
1727009943624943000,2.653943115234375,-0.23086784780025482,-0.32468321919441223,0.24278736114501953
1727009943634980900,2.66398095703125,-0.21571579575538635,-0.3590422570705414,0.3741786777973175
1727009943645019000,2.674018798828125,-0.17301049828529358,-0.2852735221385956,0.3100467622280121
1727009943655057000,2.684056884765625,-0.18191611766815186,-0.13019925355911255,-0.061384037137031555
1727009943665095000,2.694094970703125,-0.2238818109035492,0.03942370414733887,-0.39689233899116516
1727009943675133000,2.7041328125,-0.22524693608283997,0.06732537597417831,-0.373516708612442
1727009943685170000,2.714169921875,-0.1746845841407776,-0.11492767184972763,-0.32216545939445496
1727009943695208000,2.7242080078125,-0.13385885953903198,-0.24963781237602234,-0.024980910122394562
1727009943705246000,2.734245849609375,-0.11577516794204712,-0.372633695602417,0.3891097903251648
1727009943715284000,2.744283935546875,-0.12213506549596786,-0.4490557610988617,0.4274481236934662
1727009943725322000,2.754322021484375,-0.1682577133178711,-0.33806368708610535,0.31954336166381836
1727009943735360000,2.764360107421875,-0.23133307695388794,-0.0992167741060257,-0.10428433120250702
1727009943745397800,2.774397705078125,-0.21224236488342285,0.0014140463899821043,-0.4830476641654968
1727009943755435000,2.78443505859375,-0.14440500736236572,0.024838678538799286,-0.3121049404144287
1727009943765472800,2.79447265625,-0.10282959043979645,-0.19782161712646484,-0.34446269273757935
1727009943775511000,2.804510986328125,-0.052987996488809586,-0.40121737122535706,0.05463118478655815
1727009943785548800,2.814548828125,-0.04889240488409996,-0.46008217334747314,0.28156501054763794
1727009943795586800,2.8245869140625,-0.07765480875968933,-0.2694791853427887,0.15920527279376984
1727009943805625000,2.834625,-0.06568139046430588,0.031159229576587677,0.2968892753124237
1727009943815662800,2.844662841796875,-0.03313436731696129,0.12775661051273346,0.009194370359182358
1727009943825699800,2.854699951171875,0.033549629151821136,-0.07505102455615997,-0.04054749011993408
1727009943835737900,2.86473779296875,0.07376974821090698,-0.28425803780555725,-0.07001243531703949
1727009943845776000,2.87477587890625,0.08677911013364792,-0.4353572130203247,-0.3022086024284363
1727009943855814000,2.88481396484375,0.09763175994157791,-0.36032772064208984,-0.0012263879179954529
1727009943865852000,2.894851806640625,0.13392651081085205,-0.2498750239610672,0.05425456911325455
1727009943875890000,2.904889892578125,0.19809670746326447,-0.04256126284599304,0.1868099421262741
1727009943885927000,2.914927001953125,0.21251176297664642,0.10582127422094345,0.17521198093891144
1727009943895965000,2.92496484375,0.20129717886447906,0.22167383134365082,0.07737942785024643
1727009943906003000,2.9350029296875,0.1887379288673401,0.1580575704574585,-0.18167778849601746
1727009943916041000,2.945041015625,0.21682389080524445,-0.08708161860704422,-0.033820945769548416
1727009943926079000,2.955078857421875,0.2583688497543335,-0.38995376229286194,-0.0018009534105658531
1727009943936117000,2.965116943359375,0.21309031546115875,-0.4200810492038727,0.01425391435623169
1727009943946154800,2.97515478515625,0.14434680342674255,-0.24532285332679749,-0.12246865779161453
1727009943956192000,2.98519189453125,0.16902124881744385,0.080219566822052,0.10112475603818893
1727009943966230000,2.99522998046875,0.21794044971466064,0.16134372353553772,-0.07065935432910919
1727009943976267800,3.005267822265625,0.2416686713695526,0.046692781150341034,0.08709166198968887
1727009943986306000,3.01530615234375,0.1919258087873459,-0.23032085597515106,-0.048394788056612015
1727009943996343800,3.02534375,0.11737034469842911,-0.30173593759536743,0.06707561016082764
1727009944006382000,3.035382080078125,0.11754457652568817,-0.2645178735256195,-0.08388184010982513
1727009944016419800,3.045419921875,0.17366376519203186,-0.1965412050485611,0.1031719371676445
1727009944026458000,3.0554580078125,0.17499123513698578,-0.1700359582901001,-0.01920636184513569
1727009944036494800,3.065494873046875,0.14368097484111786,-0.16438525915145874,-0.03593341261148453
1727009944046532900,3.075532958984375,0.158191978931427,-0.1678064912557602,-0.23792369663715363
1727009944056571000,3.08557080078125,0.19484640657901764,-0.11551638692617416,-0.11030768603086472
1727009944066609000,3.09560888671875,0.24595215916633606,-0.16106157004833221,0.003703176509588957
1727009944076647200,3.105647216796875,0.3438374400138855,-0.22121119499206543,0.2085718959569931
1727009944086685000,3.115684814453125,0.36300668120384216,-0.219692200422287,0.2472570240497589
1727009944096723000,3.125722900390625,0.3085240125656128,-0.1335892677307129,0.23492471873760223
1727009944106760000,3.135760009765625,0.3448571264743805,0.02308662049472332,0.08269240707159042
1727009944116798000,3.1457978515625,0.44908207654953003,0.05064447969198227,-0.10365936160087585
1727009944126835700,3.155835693359375,0.47458478808403015,0.005098271183669567,-0.268656462430954
1727009944136874000,3.1658740234375,0.4109562933444977,0.017450811341404915,-0.21928252279758453
1727009944146911700,3.175911865234375,0.42406877875328064,0.07122710347175598,-0.08063339442014694
1727009944156950000,3.185949951171875,0.5568270683288574,0.18057756125926971,0.04371225833892822
1727009944166987000,3.195987060546875,0.6824031472206116,0.2017442137002945,0.15106268227100372
1727009944177024800,3.206024658203125,0.7187406420707703,0.2558865547180176,0.34295037388801575
1727009944187063000,3.21606298828125,0.6754782199859619,0.215759739279747,0.28252363204956055
1727009944197100800,3.226100830078125,0.7119840383529663,0.12098928540945053,0.23382745683193207
1727009944207139000,3.23613916015625,0.8203505277633667,0.17828993499279022,0.016986887902021408
1727009944217176800,3.2461767578125,0.8001267313957214,0.4504900276660919,-0.16932518780231476
1727009944227214800,3.25621484375,0.7364668846130371,0.6759579181671143,-0.22095511853694916
1727009944237252900,3.2662529296875,0.7899926900863647,0.8087649345397949,-0.008760029450058937
1727009944247289900,3.276289794921875,0.9039965867996216,0.6638956069946289,0.04309023916721344
1727009944257328000,3.286328125,0.9557204842567444,0.4157683551311493,0.06646906584501266
1727009944267366000,3.296365966796875,0.883698046207428,0.28243696689605713,0.20061680674552917
1727009944277404000,3.30640380859375,0.8325925469398499,0.31568360328674316,0.041096657514572144
1727009944287442000,3.31644189453125,0.9308015704154968,0.38780447840690613,0.07419518381357193
1727009944297480000,3.32647998046875,0.9999372363090515,0.5690491199493408,-0.06668364256620407
1727009944307518000,3.33651806640625,0.9562625885009766,0.6575164198875427,-0.1062217578291893
1727009944317555000,3.346554931640625,0.8756060600280762,0.7600483894348145,0.1082303524017334
1727009944327593000,3.356593017578125,0.894131600856781,0.8137196898460388,0.258980393409729
1727009944337631000,3.366630859375,0.9929319620132446,0.9125921726226807,0.3944985568523407
1727009944347669000,3.3766689453125,1.003218650817871,1.0107020139694214,0.3986174166202545
1727009944357707000,3.38670703125,0.8851532936096191,0.9009280204772949,0.18882903456687927
1727009944367745000,3.3967451171875,0.7242435216903687,0.6926973462104797,0.2399064153432846
1727009944377782800,3.40678271484375,0.5612335801124573,0.5042635202407837,0.22164832055568695
1727009944387820000,3.416820068359375,0.4641623795032501,0.4288657307624817,0.07007972151041031
1727009944397857800,3.42685791015625,0.39101892709732056,0.36871105432510376,-0.04253176972270012
1727009944407896000,3.43689599609375,0.2579672634601593,0.3132654130458832,0.023691773414611816
1727009944417933800,3.446933837890625,0.11062175035476685,0.35473617911338806,-0.059418026357889175
1727009944427971800,3.456971923828125,0.050302743911743164,0.47290557622909546,0.0712047666311264
1727009944438009900,3.467009765625,0.06784205883741379,0.4396735727787018,0.03797278180718422
1727009944448047900,3.4770478515625,0.05832357332110405,0.1810787469148636,0.15917983651161194
1727009944458084900,3.4870849609375,-0.09037376195192337,0.02452828362584114,0.13785164058208466
1727009944468123000,3.497122802734375,-0.19264258444309235,0.05602249503135681,-0.03716016188263893
1727009944478161000,3.507160888671875,-0.1198597326874733,0.2762259840965271,-0.041321348398923874
1727009944488199000,3.517198974609375,-0.05529509484767914,0.2779906094074249,-0.15375150740146637
1727009944498237000,3.52723681640625,-0.11303295940160751,0.07146140933036804,0.08813994377851486
1727009944508275000,3.53727490234375,-0.28384608030319214,0.023098856210708618,0.3644075393676758
1727009944518313000,3.54731298828125,-0.35388481616973877,0.09567372500896454,0.16166667640209198
1727009944528350000,3.557349853515625,-0.21288588643074036,0.3657775819301605,0.018230818212032318
1727009944538388000,3.567387939453125,-0.12412964552640915,0.41660425066947937,-0.32178428769111633
1727009944548426000,3.577426025390625,-0.19856475293636322,0.26486265659332275,-0.19495031237602234
1727009944558463700,3.587463623046875,-0.3146727383136749,0.11285766959190369,0.012654008343815804
1727009944568502000,3.597501953125,-0.2883490324020386,-0.09854310005903244,0.06430893391370773
1727009944578539800,3.607539794921875,-0.16273996233940125,-0.18535734713077545,0.2640324532985687
1727009944588573400,3.617573486328125,-0.14859633147716522,-0.09155084937810898,0.39607447385787964
1727009944598610400,3.6276103515625,-0.23750276863574982,0.11306460946798325,0.1852109432220459
1727009944608648400,3.6376484375,-0.25009751319885254,0.32209473848342896,0.05522138252854347
1727009944618686500,3.6476865234375,-0.17289835214614868,0.263808012008667,-0.23556731641292572
1727009944628724200,3.65772412109375,-0.10080013424158096,0.017437804490327835,-0.2891542315483093
1727009944638762500,3.667762451171875,-0.13099052011966705,-0.14770056307315826,-0.12135590612888336
1727009944648800300,3.67780029296875,-0.17959550023078918,-0.17226579785346985,0.0617525689303875
1727009944658838500,3.687838623046875,-0.1103767529129982,0.09284921735525131,0.2209579348564148
1727009944668875500,3.69787548828125,-0.009619766846299171,0.32308173179626465,0.24501588940620422
1727009944678913300,3.707913330078125,0.031165478751063347,0.2884979248046875,0.1049376130104065
1727009944688951600,3.71795166015625,-0.04092497378587723,0.0743313580751419,0.3016675114631653
1727009944698989300,3.7279892578125,-0.14087794721126556,-0.010278332978487015,0.09436997026205063
1727009944709027600,3.738027587890625,-0.09443572163581848,0.1517086923122406,-0.15191799402236938
1727009944719065300,3.7480654296875,0.013939758762717247,0.3867204189300537,-0.37737375497817993
1727009944729103400,3.758103271484375,0.047117915004491806,0.34943193197250366,-0.21360819041728973
1727009944739140600,3.768140625,-0.017101285979151726,0.12960182130336761,0.2897374927997589
1727009944749178400,3.778178466796875,-0.10351630300283432,0.1069398894906044,0.4070180058479309
1727009944759216400,3.78821630859375,-0.08155294507741928,0.13237813115119934,0.08534195274114609
1727009944769254400,3.79825439453125,-0.00026734499260783195,0.2958877980709076,0.17502658069133759
1727009944779292400,3.80829248046875,-0.0401601679623127,0.3549670875072479,-0.02417413890361786
1727009944789330400,3.818330322265625,-0.12964002788066864,0.29309919476509094,-0.031101902946829796
1727009944799368400,3.828368408203125,-0.13281185925006866,0.08553936332464218,-0.16514040529727936
1727009944809405400,3.838405517578125,-0.08543170243501663,-0.1520390510559082,-0.3008020520210266
1727009944819443500,3.848443359375,-0.09564173221588135,-0.10741033405065536,0.03322787210345268
1727009944829481500,3.8584814453125,-0.12474802136421204,0.09815555810928345,0.12124723941087723
1727009944839519500,3.86851953125,-0.06754704564809799,0.3343483805656433,0.25028353929519653
1727009944849557500,3.8785576171875,-0.008689885959029198,0.5390976667404175,0.2846623659133911
1727009944859595500,3.888595458984375,-0.07658211886882782,0.5946463942527771,-0.24942447245121002
1727009944869633500,3.898633544921875,-0.1624300181865692,0.19709843397140503,0.050101567059755325
1727009944879670300,3.908670166015625,-0.22100411355495453,-0.3460644483566284,0.3633529543876648
1727009944889708500,3.91870849609375,-0.2606939375400543,-0.45858433842658997,0.2202022671699524
1727009944899746300,3.928746337890625,-0.3375770151615143,-0.2799813151359558,-0.4209079444408417
1727009944909784300,3.938784423828125,-0.3927384614944458,0.06914415210485458,-0.3431861996650696
1727009944919822300,3.948822265625,-0.43112075328826904,0.23503032326698303,-0.27496880292892456
1727009944929860400,3.9588603515625,-0.42257440090179443,0.16544538736343384,0.15987664461135864
1727009944939898400,3.9688984375,-0.4052382707595825,-0.08839967101812363,0.057690903544425964
1727009944949935400,3.978935302734375,-0.4244604706764221,-0.3698257803916931,0.11124884337186813
1727009944959973400,3.988973388671875,-0.4468717873096466,-0.42638546228408813,0.32188570499420166
1727009944970011400,3.999011474609375,-0.4607606530189514,-0.3632066547870636,0.20426307618618011
1727009944980049400,4.00904931640625,-0.4605441391468048,-0.24563850462436676,-0.11753946542739868
1727009944990087400,4.01908740234375,-0.510979175567627,-0.1899958848953247,-0.295309454202652
1727009945000125400,4.02912548828125,-0.6039080023765564,-0.2657870352268219,-0.3040323555469513
1727009945010163200,4.0391630859375,-0.6570882201194763,-0.4614065885543823,-0.1637287139892578
1727009945020201500,4.049201416015625,-0.6307357549667358,-0.7332115173339844,0.01728234440088272
1727009945030238500,4.059238525390625,-0.6039789915084839,-0.8434079885482788,0.07566621154546738
1727009945040276500,4.0692763671875,-0.6709353923797607,-0.6447082161903381,-0.05603775754570961
1727009945050314500,4.079314453125,-0.7410026788711548,-0.33919158577919006,-0.12424381077289581
1727009945060352300,4.089352294921875,-0.6931227445602417,-0.14351074397563934,-0.02193821780383587
1727009945070390500,4.099390625,-0.5999373197555542,-0.23390711843967438,-0.12422578781843185
1727009945080428300,4.10942822265625,-0.5924695730209351,-0.4826415777206421,-0.2826292812824249
1727009945090465300,4.11946533203125,-0.6691085696220398,-0.6570103168487549,-0.08406880497932434
1727009945100503600,4.129503662109375,-0.6979228854179382,-0.5905089974403381,0.1294725090265274
1727009945110541300,4.139541259765625,-0.6050599217414856,-0.47376400232315063,0.06710303574800491
1727009945120579600,4.14957958984375,-0.48485153913497925,-0.5240316987037659,-0.04584455490112305
1727009945130617300,4.159617431640625,-0.529610276222229,-0.5306481719017029,-0.15516699850559235
1727009945140655600,4.169655517578125,-0.6540965437889099,-0.38458412885665894,-0.12484531104564667
1727009945150693400,4.179693359375,-0.5687224864959717,-0.44972509145736694,-0.0251154825091362
1727009945160730400,4.18973046875,-0.33374112844467163,-0.6958110332489014,-0.02187521383166313
1727009945170768400,4.199768310546875,-0.1976909041404724,-0.7794703245162964,-0.11607865244150162
1727009945180806400,4.209806396484375,-0.19901342689990997,-0.5782895088195801,0.014643670991063118
1727009945190844400,4.219844482421875,-0.25428834557533264,-0.23171940445899963,0.06576133519411087
1727009945200882400,4.22988232421875,-0.17643988132476807,-0.07167194783687592,0.014443019405007362
1727009945210920400,4.23992041015625,0.012758666649460793,0.07631740719079971,0.23850521445274353
1727009945220958500,4.24995849609375,0.04547560214996338,-0.07749825716018677,-0.1174294501543045
1727009945230995500,4.259995361328125,-0.002045426517724991,-0.26091858744621277,-0.22598226368427277
1727009945241033200,4.270033203125,0.06527049839496613,-0.3703729212284088,0.02696824260056019
1727009945251071500,4.280071533203125,0.22115571796894073,-0.43472278118133545,-0.13953335583209991
1727009945261109200,4.290109130859375,0.3463575839996338,-0.266640305519104,0.21870467066764832
1727009945271147500,4.3001474609375,0.3470185399055481,0.13004958629608154,0.17261552810668945
1727009945281185300,4.310185302734375,0.31277376413345337,0.36439576745033264,-0.023427488282322884
1727009945291223600,4.3202236328125,0.36804553866386414,0.3421115577220917,-0.004422592930495739
1727009945301260500,4.330260498046875,0.46361681818962097,0.2883809804916382,-0.1510799378156662
1727009945311298300,4.34029833984375,0.49579548835754395,-0.2606814503669739,-0.10787336528301239
1727009945321336600,4.350336669921875,0.4635097086429596,-0.5031566619873047,-0.04339984059333801
1727009945331374300,4.360374267578125,0.5217096209526062,-0.49585095047950745,0.21252603828907013
1727009945341412400,4.370412353515625,0.6403191089630127,-0.26031139492988586,0.42862263321876526
1727009945351450400,4.380450439453125,0.6656016707420349,0.37928467988967896,0.29240185022354126
1727009945361488400,4.39048828125,0.43851661682128906,1.2452192306518555,0.16127952933311462
1727009945371525600,4.400525634765625,0.20351165533065796,1.1049919128417969,-0.40117162466049194
1727009945381563400,4.4105634765625,0.4575636386871338,0.6994411945343018,-0.4948832094669342
1727009945391601400,4.420601318359375,0.8605765700340271,0.007358279079198837,-0.017522893846035004
1727009945401639400,4.430639404296875,0.8598875999450684,-0.49285662174224854,-0.03461799398064613
1727009945411677400,4.440677490234375,0.6533753871917725,-0.6166933178901672,0.09971309453248978
1727009945421715500,4.450715576171875,0.5393875241279602,-0.15571880340576172,0.43639683723449707
1727009945431753500,4.46075341796875,0.5590416193008423,0.6736177206039429,0.5516735911369324
1727009945441790500,4.47079052734375,0.64051353931427,1.4361580610275269,0.21014954149723053
1727009945451828500,4.480828369140625,0.6554474234580994,1.505841612815857,-0.07744495570659637
1727009945461866500,4.490866455078125,0.5410910248756409,0.8614245057106018,-0.30343547463417053
1727009945471904500,4.500904541015625,0.41566404700279236,-0.05087314173579216,-0.30097633600234985
1727009945481942500,4.510942626953125,0.40863996744155884,-0.6771525144577026,-0.0326995812356472
1727009945491980300,4.520980224609375,0.4863075613975525,-0.3753931522369385,0.29207751154899597
1727009945502018600,4.5310185546875,0.5446669459342957,0.23131810128688812,-0.007223446853458881
1727009945512055300,4.54105517578125,0.5422632694244385,0.9010568857192993,0.23706397414207458
1727009945522093600,4.551093505859375,0.4192049503326416,1.0556344985961914,0.26576992869377136
1727009945532131300,4.56113134765625,0.30187445878982544,0.8148301243782043,0.15752707421779633
1727009945542169300,4.57116943359375,0.2873879075050354,0.47462379932403564,0.029020236805081367
1727009945552207400,4.581207275390625,0.31441208720207214,0.10256672650575638,-0.19626621901988983
1727009945562245400,4.591245361328125,0.327949196100235,0.015605200082063675,-0.27415168285369873
1727009945572282400,4.601282470703125,0.2881280779838562,0.09078188240528107,-0.06631471961736679
1727009945582321000,4.61132080078125,0.2431483268737793,0.4157695472240448,0.20267227292060852
1727009945592359000,4.62135888671875,0.22374726831912994,0.638815701007843,0.2821597158908844
1727009945602396700,4.631396728515625,0.22399334609508514,0.6349833607673645,0.3197057545185089
1727009945612435000,4.64143505859375,0.21262450516223907,0.5642328262329102,0.2295515537261963
1727009945622472700,4.65147265625,0.19732438027858734,0.3401847779750824,-0.008928128518164158
1727009945632511000,4.661510986328125,0.20578943192958832,0.12958867847919464,-0.10156504064798355
1727009945642548000,4.6715478515625,0.1872389167547226,0.011515840888023376,-0.14606566727161407
1727009945652585700,4.681585693359375,0.13414353132247925,-0.025475358590483665,-0.16174980998039246
1727009945662624000,4.6916240234375,0.11376874893903732,0.12317217141389847,0.03541678935289383
1727009945672661800,4.701661865234375,0.13513189554214478,0.34769922494888306,0.6063940525054932
1727009945682700000,4.711699951171875,0.14358343183994293,0.6767218112945557,-0.061343804001808167
1727009945692737800,4.72173779296875,0.10327383875846863,0.5418902635574341,-0.4462035894393921
1727009945702776000,4.731776123046875,0.0671619102358818,0.029157202690839767,0.3456553816795349
1727009945712812800,4.741812744140625,0.06211906298995018,-0.3899797797203064,0.436488538980484
1727009945722850800,4.751850830078125,0.09648902714252472,-0.20415183901786804,0.24920599162578583
1727009945732888800,4.761888916015625,0.0408732108771801,0.08944214135408401,-0.5572758316993713
1727009945742926800,4.7719267578125,0.02583407238125801,0.8515424132347107,0.6770868301391602
1727009945752964600,4.781964599609375,-0.04989009350538254,0.9617027640342712,0.09674312174320221
1727009945763003000,4.7920029296875,-0.043739791959524155,0.6572664380073547,0.3812592625617981
1727009945773041000,4.802041015625,-0.11917728930711746,0.1574264019727707,-0.19357545673847198
1727009945783078000,4.812077880859375,-0.2410520613193512,-0.3390566110610962,-0.04793357104063034
1727009945793116000,4.822115966796875,-0.31402042508125305,-0.4759409427642822,-0.09211284667253494
1727009945803153700,4.832153564453125,-0.2939694821834564,-0.2850170433521271,-0.29541802406311035
1727009945813192000,4.84219189453125,-0.21269439160823822,0.07076272368431091,0.07353082299232483
1727009945823229700,4.852229736328125,-0.2224293202161789,0.2818523049354553,-0.24277228116989136
1727009945833268000,4.86226806640625,-0.2733158469200134,0.29173633456230164,0.4928916096687317
1727009945843305700,4.8723056640625,-0.3563060760498047,0.26002103090286255,0.11952336877584457
1727009945853342700,4.8823427734375,-0.37264204025268555,0.12039464712142944,0.2341856211423874
1727009945863381000,4.892381103515625,-0.3692161440849304,-0.1378592699766159,0.3274537920951843
1727009945873418800,4.902418701171875,-0.4521014988422394,-0.24697604775428772,-0.1432007998228073
1727009945883457000,4.91245703125,-0.6030609607696533,-0.30881303548812866,-0.27563607692718506
1727009945893494800,4.922494873046875,-0.708805501461029,-0.24067774415016174,-0.19342896342277527
1727009945903532800,4.93253271484375,-0.6968740224838257,-0.19784292578697205,-0.3473748564720154
1727009945913570000,4.942570068359375,-0.6464311480522156,-0.3300480246543884,-0.05966285243630409
1727009945923607800,4.95260791015625,-0.6820045709609985,-0.35710999369621277,0.13347624242305756
1727009945933645800,4.962645751953125,-0.756854236125946,-0.47063273191452026,-0.30968520045280457
1727009945943683800,4.972683837890625,-0.7158527374267578,-0.7851060032844543,0.043855566531419754
1727009945953721900,4.982721923828125,-0.6749475002288818,-0.9510791897773743,-0.06837096065282822
1727009945963759900,4.992759765625,-0.7187144160270691,-0.808837890625,-0.2752583920955658
1727009945973798000,5.0027978515625,-0.7469810247421265,-0.270020455121994,-0.14551417529582977
1727009945983834600,5.012834716796875,-0.6738263368606567,0.19580133259296417,-0.07672072947025299
1727009945993873000,5.022872802734375,-0.5813300609588623,0.02252926491200924,0.1264427751302719
1727009946003910700,5.03291064453125,-0.5918934941291809,-0.2762492001056671,0.05840327590703964
1727009946013949000,5.042948974609375,-0.7211567163467407,-0.6757343411445618,-0.10993659496307373
1727009946023987000,5.052987060546875,-0.7719429135322571,-0.9517185091972351,-0.13072016835212708
1727009946034025000,5.06302490234375,-0.6444936990737915,-0.9976345896720886,-0.18553577363491058
1727009946044063000,5.07306298828125,-0.4934852719306946,-0.8502064943313599,-0.1138613373041153
1727009946054099700,5.083099609375,-0.4635857939720154,-0.6198727488517761,-0.03186545521020889
1727009946064138000,5.093137939453125,-0.5092427134513855,-0.3654729425907135,-0.12090983986854553
1727009946074175700,5.10317578125,-0.4948875904083252,-0.2348293960094452,-0.051734164357185364
1727009946084213800,5.1132138671875,-0.3631191849708557,-0.160592719912529,0.04073531553149223
1727009946094251800,5.123251708984375,-0.20791815221309662,-0.24773317575454712,-0.0566728375852108
1727009946104289800,5.133289794921875,-0.130910724401474,-0.40397632122039795,-0.01876673474907875
1727009946114327000,5.1433271484375,-0.1646852344274521,-0.5399511456489563,0.002073368988931179
1727009946124364800,5.15336474609375,-0.17858800292015076,-0.5070134401321411,-0.04721428453922272
1727009946134402800,5.16340283203125,-0.0657447800040245,-0.2616126239299774,0.09056639671325684
1727009946144440800,5.17344091796875,0.06914272904396057,-0.07689442485570908,0.00237740995362401
1727009946154478800,5.183478759765625,0.12222464382648468,-0.013902245089411736,-0.0913529247045517
1727009946164516900,5.193516845703125,0.11177307367324829,-0.16590295732021332,0.025088733062148094
1727009946174555000,5.203554931640625,0.12766268849372864,-0.2592412233352661,-0.018523337319493294
1727009946184592000,5.213591796875,0.24124650657176971,-0.1709001660346985,0.0986911728978157
1727009946194630000,5.2236298828125,0.35410523414611816,-0.1048455685377121,-0.11685200035572052
1727009946204668000,5.23366796875,0.3818817436695099,-0.06616581976413727,0.0012413510121405125
1727009946214706000,5.243705810546875,0.34262239933013916,-0.104913130402565,0.062056172639131546
1727009946224744000,5.253743896484375,0.3479386270046234,-0.06118881702423096,0.10981330275535583
1727009946234781700,5.26378173828125,0.41088858246803284,0.009064774960279465,0.04678183048963547
1727009946244820000,5.273820068359375,0.4641115963459015,0.12625718116760254,-0.05976671725511551
1727009946254856700,5.283856689453125,0.4777573347091675,0.1693720519542694,-0.13112027943134308
1727009946264894700,5.293894775390625,0.4754007160663605,0.039638832211494446,-0.1640113890171051
1727009946274932700,5.3039326171875,0.49477419257164,-0.044668421149253845,0.025902511551976204
1727009946284970800,5.313970703125,0.5207765102386475,0.03186150640249252,0.09156301617622375
1727009946295009000,5.324009033203125,0.5699986219406128,0.26710060238838196,0.12793250381946564
1727009946305046800,5.334046875,0.6151455640792847,0.46247971057891846,0.14796186983585358
1727009946315083800,5.344083740234375,0.6246803402900696,0.4292677938938141,0.09958458691835403
1727009946325121800,5.354121826171875,0.6018660664558411,0.3370835483074188,-0.07264683395624161
1727009946335159800,5.364159912109375,0.5886713862419128,0.12114627659320831,-0.17883360385894775
1727009946345197800,5.37419775390625,0.6197823882102966,0.11057992279529572,0.02113036997616291
1727009946355235800,5.38423583984375,0.6328796148300171,0.2948443293571472,0.010493149049580097
1727009946365273900,5.39427392578125,0.6189744472503662,0.4455840587615967,0.042700886726379395
1727009946375312000,5.404311767578125,0.6031453013420105,0.515766441822052,0.1842472106218338
1727009946385348900,5.414348876953125,0.5698272585868835,0.469735324382782,0.14453761279582977
1727009946395387000,5.424386962890625,0.5289874076843262,0.4744534492492676,0.26126226782798767
1727009946405425000,5.4344248046875,0.48362576961517334,0.4284052550792694,0.04097679257392883
1727009946415462700,5.444462646484375,0.47224685549736023,0.41840431094169617,-0.16225488483905792
1727009946425501000,5.4545009765625,0.44711169600486755,0.28329575061798096,-0.22143670916557312
1727009946435538700,5.46453857421875,0.3989298641681671,0.1391383856534958,-0.018714552745223045
1727009946445576000,5.474575927734375,0.34296807646751404,0.2078801691532135,0.17599792778491974
1727009946455614000,5.484614013671875,0.31206783652305603,0.3214375376701355,0.11725292354822159
1727009946465651700,5.494651611328125,0.3041457533836365,0.37057870626449585,0.04065428301692009
1727009946475690000,5.50468994140625,0.27666202187538147,0.353167861700058,0.03859667479991913
1727009946485727700,5.514727783203125,0.18787170946598053,0.2780166566371918,0.09810101240873337
1727009946495766000,5.52476611328125,0.09709572046995163,0.27093183994293213,-0.04529822617769241
1727009946505803800,5.5348037109375,0.06822039932012558,0.20761997997760773,0.03777216002345085
1727009946515840800,5.5448408203125,0.10215994715690613,0.23045144975185394,-0.059836287051439285
1727009946525878800,5.554878662109375,0.1153670996427536,0.2082284390926361,0.08025264739990234
1727009946535916800,5.564916748046875,0.05417796969413757,0.19145990908145905,0.09375935792922974
1727009946545954800,5.574954833984375,-0.0005742241628468037,0.1593208760023117,0.15679931640625
1727009946555992800,5.584992919921875,-0.024766648188233376,0.0544225238263607,-0.22564613819122314
1727009946566030800,5.59503076171875,-0.010571468621492386,0.006817189045250416,-0.0043694032356143
1727009946576067800,5.60506787109375,-0.03119579702615738,-0.005523940548300743,-0.059279680252075195
1727009946586106600,5.615106689453125,-0.054808713495731354,0.11605176329612732,-0.10122446715831757
1727009946596144400,5.625144287109375,-0.04768593609333038,0.19498154520988464,0.048155199736356735
1727009946606182400,5.635182373046875,-0.013803338631987572,0.1729564070701599,0.09003207832574844
1727009946616220400,5.645220458984375,-0.014927949756383896,0.04755142331123352,0.1130557656288147
1727009946626258400,5.655258544921875,-0.07283386588096619,-0.03348696976900101,0.14629068970680237
1727009946636295400,5.66529541015625,-0.09573271125555038,0.05070337653160095,0.18330658972263336
1727009946646333400,5.67533349609375,-0.059271372854709625,0.11608744412660599,0.023580584675073624
1727009946656371500,5.685371337890625,-0.007034492678940296,0.09856685250997543,-0.029408201575279236
1727009946666409500,5.695409423828125,-0.035884518176317215,0.0775957852602005,-0.0867183655500412
1727009946676447500,5.705447509765625,-0.12315197288990021,0.06257043778896332,-0.1892675906419754
1727009946686485500,5.715485595703125,-0.14220501482486725,0.17100423574447632,0.08567740768194199
1727009946696523500,5.7255234375,-0.07621440291404724,0.17749381065368652,-0.2005140334367752
1727009946706560300,5.735560302734375,-0.006281659007072449,0.033998701721429825,0.09992408752441406
1727009946716598500,5.7455986328125,-0.04985467344522476,-0.08177570253610611,0.24594326317310333
1727009946726636300,5.75563623046875,-0.1042015329003334,-0.11015328019857407,0.24739627540111542
1727009946736674300,5.76567431640625,-0.06466913968324661,0.032970085740089417,0.20982758700847626
1727009946746712300,5.77571240234375,-0.03505052998661995,0.1794886738061905,-0.17432168126106262
1727009946756750300,5.785750244140625,-0.053976789116859436,0.1906232386827469,0.033522769808769226
1727009946766787600,5.79578759765625,-0.13184203207492828,0.11239580065011978,-0.19659486413002014
1727009946776825300,5.805825439453125,-0.13738913834095,0.003937302622944117,-0.07566891610622406
1727009946786863400,5.81586328125,-0.07958602905273438,-0.00009845150634646416,-0.10768543928861618
1727009946796901400,5.8259013671875,-0.029707608744502068,0.10109058767557144,-0.004470537416636944
1727009946806939400,5.835939453125,-0.036077357828617096,0.11868742108345032,0.3815181851387024
1727009946816977400,5.845977294921875,-0.08204583823680878,0.09437008947134018,0.4164678156375885
1727009946827015400,5.856015380859375,-0.10482918471097946,0.12079157680273056,0.3547258973121643
1727009946837052400,5.866052490234375,-0.12224607914686203,0.12374067306518555,-0.10604991763830185
1727009946847090400,5.87609033203125,-0.15564770996570587,-0.020786676555871964,-0.3528714179992676
1727009946857128400,5.88612841796875,-0.18961897492408752,-0.2155381292104721,-0.31258341670036316
1727009946867166500,5.89616650390625,-0.18774092197418213,-0.40110692381858826,-0.36378562450408936
1727009946877204500,5.90620458984375,-0.13011687994003296,-0.42854103446006775,-0.035550858825445175
1727009946887242200,5.9162421875,-0.07290339469909668,-0.27655550837516785,0.22057652473449707
1727009946897279500,5.926279541015625,-0.055619578808546066,-0.13923093676567078,0.09188750386238098
1727009946907317500,5.9363173828125,-0.05463261157274246,-0.0881807953119278,0.08066201210021973
1727009946917355500,5.94635546875,-0.06556976586580276,-0.05610625445842743,0.037305962294340134
1727009946927393500,5.9563935546875,-0.07600057125091553,-0.06146053969860077,-0.17751605808734894
1727009946937431300,5.966431396484375,-0.0603208988904953,-0.0315234437584877,-0.2672540247440338
1727009946947469600,5.976469482421875,-0.030662603676319122,0.01445416547358036,-0.11728474497795105
1727009946957507300,5.98650732421875,-0.01153838075697422,-0.015039760619401932,0.06722994148731232
1727009946967544300,5.99654443359375,-0.007661882787942886,-0.019731717184185982,0.36751148104667664
1727009946977582300,6.006582275390625,-0.02098175138235092,0.035264477133750916,0.2621583640575409
1727009946987620400,6.016620361328125,-0.01994391717016697,0.024121280759572983,0.04529877007007599
1727009946997658400,6.026658447265625,0.02397800423204899,-0.08892202377319336,-0.07637353241443634
1727009947007696400,6.0366962890625,0.03437844663858414,-0.20197375118732452,-0.1545732617378235
1727009947017734400,6.046734375,0.01655961386859417,-0.23050682246685028,-0.1032039150595665
1727009947027771400,6.056771484375,0.007973847910761833,-0.2074262797832489,-0.18753105401992798
1727009947037809400,6.066809326171875,0.07441756874322891,-0.17200005054473877,0.03473535552620888
1727009947047847400,6.076847412109375,0.12997405230998993,-0.05130745843052864,0.10993370413780212
1727009947057885400,6.086885498046875,0.09834402799606323,0.16385000944137573,0.14155979454517365
1727009947067923200,6.096923095703125,0.05991914123296738,0.2511500120162964,-0.17424476146697998
1727009947077961500,6.10696142578125,0.11651857197284698,0.21900081634521484,-0.06275761127471924
1727009947087998500,6.11699853515625,0.16979831457138062,0.03288314491510391,-0.06103933975100517
1727009947098036500,6.127036376953125,0.18523140251636505,-0.07897777110338211,0.014986556023359299
1727009947108074500,6.137074462890625,0.18760454654693604,-0.14725616574287415,0.17060305178165436
1727009947118112300,6.1471123046875,0.2088276594877243,-0.037421055138111115,0.17216244339942932
1727009947128150500,6.157150634765625,0.21441470086574554,0.09435801208019257,0.10783352702856064
1727009947138188300,6.167188232421875,0.18234039843082428,0.16589291393756866,-0.034621354192495346
1727009947148226600,6.1772265625,0.1428648829460144,0.2716294527053833,-0.10433918237686157
1727009947158263600,6.187263671875,0.13094110786914825,0.2750055193901062,-0.3376940190792084
1727009947168301300,6.19730126953125,0.18546666204929352,0.22510747611522675,-0.10934048891067505
1727009947178339600,6.207339599609375,0.20737873017787933,0.036959048360586166,0.07710304111242294
1727009947188377300,6.21737744140625,0.16461102664470673,0.028840400278568268,0.30260327458381653
1727009947198415600,6.22741552734375,0.08937498182058334,0.1804334968328476,0.18627552688121796
1727009947208453400,6.237453369140625,0.06452209502458572,0.2916591167449951,0.10182534903287888
1727009947218490400,6.247490478515625,0.05347403883934021,0.3064531683921814,0.0030500791035592556
1727009947228528400,6.2575283203125,-0.0036843223497271538,0.15431849658489227,-0.23605304956436157
1727009947238566400,6.26756640625,-0.04687987267971039,0.06610975414514542,-0.040076497942209244
1727009947248604400,6.2776044921875,-0.056860603392124176,0.023718353360891342,-0.1464093178510666
1727009947258642400,6.287642333984375,-0.026317335665225983,0.03065897710621357,-0.0036960511934012175
1727009947268680400,6.297680419921875,-0.0504240021109581,-0.04471620172262192,0.06698717176914215
1727009947278717400,6.307717529296875,-0.12964250147342682,0.016124000772833824,0.18885394930839539
1727009947288755500,6.31775537109375,-0.18983978033065796,0.08233631402254105,0.05321116000413895
1727009947298793200,6.327793212890625,-0.15741370618343353,0.08667506277561188,-0.07149042189121246
1727009947308831500,6.33783154296875,-0.14071249961853027,0.00788863468915224,-0.10246564447879791
1727009947318869200,6.347869140625,-0.17950551211833954,-0.05887116491794586,-0.18294109404087067
1727009947328907500,6.357907470703125,-0.18734905123710632,-0.011430412530899048,-0.04955240711569786
1727009947338945300,6.3679453125,-0.17353004217147827,-0.05920970439910889,-0.14216023683547974
1727009947348982300,6.377982177734375,-0.14761774241924286,0.0362078994512558,0.020794318988919258
1727009947359020500,6.3880205078125,-0.19599062204360962,0.015190191566944122,-0.05497729778289795
1727009947369058300,6.398058349609375,-0.2529639005661011,-0.022031744942069054,-0.01249455101788044
1727009947379096600,6.4080966796875,-0.22558873891830444,-0.07463593780994415,0.16676147282123566
1727009947389134300,6.41813427734375,-0.15048573911190033,-0.11093401908874512,0.15122511982917786
1727009947399172400,6.42817236328125,-0.14859579503536224,-0.10065563023090363,0.22382614016532898
1727009947409209600,6.438209716796875,-0.2288466840982437,-0.14145711064338684,-0.18613262474536896
1727009947419247400,6.448247314453125,-0.2866100072860718,-0.1585514396429062,-0.11143999546766281
1727009947429285600,6.45828564453125,-0.27027231454849243,-0.11158286780118942,-0.2707923650741577
1727009947439323400,6.468323486328125,-0.17875723540782928,-0.025061415508389473,-0.15631480515003204
1727009947449361400,6.478361328125,-0.13206109404563904,-0.027431361377239227,-0.08841404318809509
1727009947459399400,6.4883994140625,-0.133297398686409,-0.12554317712783813,0.04637930542230606
1727009947469436400,6.4984365234375,-0.1291724294424057,-0.2197498381137848,0.25359001755714417
1727009947479474400,6.508474365234375,-0.12295264005661011,-0.20750045776367188,0.2980796992778778
1727009947489512400,6.518512451171875,-0.10494328290224075,-0.06520829349756241,0.17383232712745667
1727009947499550500,6.528550537109375,-0.07737905532121658,-0.0245243888348341,-0.17693999409675598
1727009947509588500,6.53858837890625,-0.05221138894557953,-0.029002759605646133,-0.22532935440540314
1727009947519626500,6.54862646484375,-0.051698654890060425,-0.03516228124499321,-0.13752803206443787
1727009947529663200,6.558663330078125,-0.022016922011971474,-0.005934889428317547,-0.0702294185757637
1727009947539701500,6.568701416015625,0.06447939574718475,0.05330214276909828,0.2580162286758423
1727009947549739300,6.5787392578125,0.12732413411140442,0.07498826086521149,0.1135525181889534
1727009947559777500,6.588777587890625,0.1347668319940567,0.11272400617599487,0.2879713773727417
1727009947569815300,6.598815185546875,0.07630379498004913,0.17232687771320343,-0.01412400882691145
1727009947579853600,6.608853515625,0.08477217704057693,0.20602354407310486,-0.13250599801540375
1727009947589890300,6.618890380859375,0.16228295862674713,0.13769428431987762,-0.20765508711338043
1727009947599927300,6.62892724609375,0.20768243074417114,0.08661822974681854,-0.1709955483675003
1727009947609965300,6.63896533203125,0.19209308922290802,0.06121460720896721,0.1413959115743637
1727009947620003300,6.64900341796875,0.1710033267736435,0.10088113695383072,0.12384855002164841
1727009947630041300,6.659041259765625,0.2195700705051422,0.1629391759634018,0.32804110646247864
1727009947640079400,6.669079345703125,0.2403029203414917,0.2708739638328552,0.15529103577136993
1727009947650117400,6.679117431640625,0.18875370919704437,0.38967543840408325,-0.029637793079018593
1727009947660154400,6.689154296875,0.13080881536006927,0.3066726624965668,-0.28453925251960754
1727009947670192000,6.699192138671875,0.1557900607585907,0.10143137723207474,-0.18578681349754333
1727009947680230400,6.70923046875,0.1967538297176361,-0.1158502995967865,-0.197330504655838
1727009947690268200,6.71926806640625,0.2045411765575409,-0.14351175725460052,-0.002068859990686178
1727009947700306400,6.729306396484375,0.17267869412899017,-0.022324062883853912,0.20973944664001465
1727009947710344200,6.73934423828125,0.15974105894565582,0.2026272863149643,0.2060975730419159
1727009947720381200,6.749381103515625,0.16345348954200745,0.3488442003726959,0.30629798769950867
1727009947730419500,6.75941943359375,0.0950470119714737,0.4141254723072052,0.1174180656671524
1727009947740457200,6.769457275390625,0.02279726229608059,0.32169947028160095,-0.1054607406258583
1727009947750495200,6.7794951171875,0.006254239473491907,-0.04350168630480766,-0.21381251513957977
1727009947760533200,6.789533203125,-0.003061688970774412,-0.3644769489765167,-0.32313036918640137
1727009947770571300,6.7995712890625,-0.020020965486764908,-0.47462502121925354,-0.3456740379333496
1727009947780608500,6.8096083984375,0.0006100521422922611,-0.3787977695465088,-0.15188713371753693
1727009947790646300,6.819646240234375,0.061155952513217926,-0.21746185421943665,0.18505547940731049
1727009947800684300,6.829684326171875,0.08132727444171906,0.03565167263150215,0.29133307933807373
1727009947810722300,6.839722412109375,0.022529736161231995,0.18815599381923676,0.251039981842041
1727009947820760300,6.84976025390625,-0.028686488047242165,0.20898275077342987,0.2829500436782837
1727009947830798300,6.85979833984375,-0.044520579278469086,0.14534997940063477,-0.04419400915503502
1727009947840836400,6.86983642578125,-0.02646758407354355,0.008218947798013687,-0.28782835602760315
1727009947850873300,6.879873291015625,-0.014953140169382095,-0.11178895086050034,-0.3882835805416107
1727009947860911400,6.889911376953125,-0.05535958334803581,-0.3325690031051636,-0.2334572672843933
1727009947870949400,6.899949462890625,-0.07898128777742386,-0.31470853090286255,-0.025586353614926338
1727009947880987400,6.9099873046875,-0.03982428461313248,-0.10615832358598709,0.18270795047283173
1727009947891025400,6.920025390625,0.020011084154248238,0.22279320657253265,0.2330443561077118
1727009947901063200,6.930063232421875,0.042182281613349915,0.3347361385822296,0.17401403188705444
1727009947911100400,6.940100341796875,0.02229645662009716,0.15522633492946625,0.13390682637691498
1727009947921138200,6.95013818359375,-0.010783988982439041,-0.16414284706115723,0.04586447402834892
1727009947931176200,6.96017626953125,-0.011188256554305553,-0.33237525820732117,-0.020123332738876343
1727009947941214200,6.970214111328125,-0.020116101950407028,-0.32245880365371704,-0.15536390244960785
1727009947951252200,6.980252197265625,-0.0331147238612175,-0.14278332889080048,-0.18513697385787964
1727009947961290200,6.990290283203125,-0.027751576155424118,0.1378186196088791,-0.07920964062213898
1727009947971327200,7.0003271484375,-0.021169573068618774,0.267555832862854,0.04463028162717819
1727009947981365200,7.010365234375,-0.013186367228627205,0.2468874752521515,-0.011441810056567192
1727009947991403300,7.0204033203125,0.00890029314905405,0.10537534952163696,0.18880659341812134
1727009948001441300,7.030441162109375,0.0095225740224123,-0.12097440659999847,0.014688845723867416
1727009948011479300,7.040479248046875,0.008951857686042786,-0.20505626499652863,0.14549772441387177
1727009948021517300,7.050517333984375,0.004284325987100601,-0.22188086807727814,0.026202388107776642
1727009948031554300,7.06055419921875,-0.006241285242140293,-0.06273835897445679,0.04461761191487312
1727009948041592300,7.07059228515625,-0.036157719790935516,0.042220667004585266,-0.06603645533323288
1727009948051630300,7.08063037109375,-0.03497394546866417,0.20636379718780518,0.0676795244216919
1727009948061668400,7.09066845703125,-0.054687827825546265,0.281831294298172,0.13737636804580688
1727009948071706400,7.100706298828125,-0.09114676713943481,0.32946857810020447,-0.10820729285478592
1727009948081744100,7.110744140625,-0.0719340592622757,0.12527430057525635,-0.23009465634822845
1727009948091781400,7.120781494140625,-0.06014850735664368,-0.20805253088474274,-0.18928304314613342
1727009948101819400,7.1308193359375,-0.09085007011890411,-0.33294907212257385,0.22444559633731842
1727009948111857400,7.140857421875,-0.129129558801651,-0.048601485788822174,0.17848077416419983
1727009948121895400,7.1508955078125,-0.13111364841461182,0.42496436834335327,0.11908400058746338
1727009948131933200,7.16093310546875,-0.13125079870224,0.6259539127349854,-0.11131750792264938
1727009948141971500,7.170971435546875,-0.16206352412700653,0.4646878242492676,-0.09192241728305817
1727009948152008200,7.18100830078125,-0.2072696089744568,0.0698813796043396,-0.12980109453201294
1727009948162046200,7.191046142578125,-0.19546787440776825,-0.3313482999801636,-0.03499408811330795
1727009948172084200,7.201084228515625,-0.11910651624202728,-0.41912129521369934,-0.0882546454668045
1727009948182122200,7.211122314453125,-0.071250781416893,-0.2303544133901596,0.060756292194128036
1727009948192160300,7.22116015625,-0.11274416744709015,0.0594148226082325,0.012809005565941334
1727009948202198300,7.2311982421875,-0.16263462603092194,0.27179017663002014,-0.010138263925909996
1727009948212236300,7.241236328125,-0.16877028346061707,0.25170645117759705,0.04844355583190918
1727009948222273300,7.251273193359375,-0.15967720746994019,0.1497126817703247,-0.08736129850149155
1727009948232311300,7.261311279296875,-0.1608644425868988,-0.0665876716375351,-0.09629860520362854
1727009948242349300,7.271349365234375,-0.15210244059562683,-0.19695942103862762,-0.08489563316106796
1727009948252387300,7.28138720703125,-0.13053375482559204,-0.3575770854949951,0.1332915723323822
1727009948262425000,7.291425048828125,-0.11669344455003738,-0.11824719607830048,0.16690003871917725
1727009948272463400,7.30146337890625,-0.11740317940711975,0.22499032318592072,0.07579170912504196
1727009948282500400,7.311500244140625,-0.08398222923278809,0.3944849669933319,-0.043936483561992645
1727009948292538400,7.321538330078125,0.019939636811614037,0.13328346610069275,-0.15157052874565125
1727009948302576400,7.331576416015625,0.057843346148729324,-0.2302999198436737,0.04459637776017189
1727009948312614100,7.3416142578125,-0.04622100293636322,-0.37391382455825806,-0.11238551139831543
1727009948322652400,7.35165234375,-0.056718260049819946,-0.15611015260219574,0.09141487628221512
1727009948332690200,7.361690185546875,0.07491007447242737,0.15680301189422607,0.09682907909154892
1727009948342727200,7.37172705078125,0.16906186938285828,0.3473585844039917,0.043842561542987823
1727009948352765400,7.381765380859375,0.1423242688179016,0.39014917612075806,0.08145572245121002
1727009948362803200,7.39180322265625,0.09087894856929779,0.3419607877731323,0.20314601063728333
1727009948372841500,7.401841552734375,0.13880600035190582,0.2545230984687805,0.2533753514289856
1727009948382879200,7.411879150390625,0.2269899696111679,0.1362299770116806,0.21561990678310394
1727009948392917500,7.42191748046875,0.20895345509052277,0.11505544930696487,-0.13537727296352386
1727009948402954200,7.431954345703125,0.08972790092229843,0.19413813948631287,-0.29815471172332764
1727009948412992300,7.4419921875,0.026328692212700844,0.324176549911499,-0.001576318871229887
1727009948423030300,7.4520302734375,0.11297643184661865,0.2826022803783417,-0.05228853598237038
1727009948433068300,7.462068359375,0.23919427394866943,0.2813876271247864,0.2408919334411621
1727009948443106300,7.472106201171875,0.1395554542541504,0.23370492458343506,0.30997201800346375
1727009948453144300,7.482144287109375,-0.027166955173015594,0.18722663819789886,0.11826889961957932
1727009948463181300,7.492181396484375,-0.02319297380745411,0.22290387749671936,0.17222875356674194
1727009948473219300,7.50221923828125,0.013046523556113243,0.2540958821773529,0.008249674923717976
1727009948483257300,7.51225732421875,-0.05360632762312889,0.20579971373081207,-0.12259870767593384
1727009948493295000,7.522295166015625,-0.13268357515335083,0.0663539469242096,-0.06879832595586777
1727009948503333400,7.53233349609375,-0.18878282606601715,-0.07384590804576874,-0.006733263842761517
1727009948513371100,7.54237109375,-0.18922117352485657,-0.13658732175827026,-0.0015369043685495853
1727009948523408400,7.552408447265625,-0.15559174120426178,-0.03733634948730469,0.13730236887931824
1727009948533446400,7.5624462890625,-0.20807971060276031,-0.02863100916147232,-0.16477972269058228
1727009948543484200,7.572484130859375,-0.28216779232025146,0.07134179025888443,-0.07647985965013504
1727009948553522400,7.5825224609375,-0.2916811406612396,0.035806965082883835,-0.10793871432542801
1727009948563560200,7.592560302734375,-0.2128833532333374,-0.1910916268825531,0.03028516285121441
1727009948573598500,7.602598388671875,-0.19208300113677979,-0.4606490731239319,0.01885806955397129
1727009948583635500,7.612635498046875,-0.30581578612327576,-0.4146684408187866,0.08847393095493317
1727009948593677600,7.622677490234375,-0.4075317680835724,-0.19405724108219147,-0.006127940025180578
1727009948603715300,7.63271533203125,-0.3670654594898224,-0.002476343885064125,-0.12261869758367538
1727009948613753300,7.64275341796875,-0.314005970954895,0.03210187330842018,-0.1615397334098816
1727009948623791400,7.652791259765625,-0.3898523449897766,-0.06934810429811478,-0.35444363951683044
1727009948633829400,7.662829345703125,-0.48192766308784485,-0.2565408945083618,-0.27711743116378784
1727009948643866600,7.67286669921875,-0.4058368504047394,-0.5536479353904724,0.1697072833776474
1727009948653904400,7.682904296875,-0.26558759808540344,-0.7082686424255371,0.4170244038105011
1727009948663942400,7.6929423828125,-0.24279126524925232,-0.4980827569961548,0.21550236642360687
1727009948673980400,7.70298046875,-0.3217010200023651,-0.28551536798477173,-0.036616429686546326
1727009948684018400,7.713018310546875,-0.34499260783195496,-0.16192777454853058,-0.21347448229789734
1727009948694056400,7.723056396484375,-0.3135840892791748,-0.16750124096870422,-0.28827494382858276
1727009948704093400,7.733093505859375,-0.29684576392173767,-0.15795393288135529,-0.19257986545562744
1727009948714131500,7.74313134765625,-0.3384605646133423,-0.1302458792924881,-0.09072886407375336
1727009948724169500,7.75316943359375,-0.32991087436676025,-0.008057861588895321,0.06657301634550095
1727009948734207500,7.76320751953125,-0.25660577416419983,-0.18282382190227509,0.06501613557338715
1727009948744245500,7.77324560546875,-0.20537714660167694,-0.4164196848869324,0.3061492443084717
1727009948754283500,7.783283447265625,-0.260794073343277,-0.5282849669456482,0.31175172328948975
1727009948764321300,7.7933212890625,-0.34785789251327515,-0.5759444832801819,-0.17013786733150482
1727009948774358500,7.803358642578125,-0.341401070356369,-0.3122401535511017,-0.19244131445884705
1727009948784396300,7.813396240234375,-0.275635689496994,-0.06338740885257721,-0.3790394365787506
1727009948794434300,7.823434326171875,-0.18256594240665436,-0.05574839562177658,-0.10854244977235794
1727009948804472300,7.833472412109375,-0.16018998622894287,-0.3228989243507385,0.1975405365228653
1727009948814510300,7.84351025390625,-0.2383470982313156,-0.37877896428108215,0.2717495560646057
1727009948824548600,7.853548583984375,-0.269161194562912,-0.2779272496700287,0.22023463249206543
1727009948834585300,7.86358544921875,-0.1982089877128601,-0.11307892203330994,-0.003709250595420599
1727009948844623400,7.873623291015625,-0.15836811065673828,-0.019093237817287445,-0.11341279745101929
1727009948854661400,7.883661376953125,-0.19642069935798645,-0.06984056532382965,-0.35024452209472656
1727009948864699400,7.893699462890625,-0.215016707777977,-0.06637028604745865,-0.005250310525298119
1727009948874737400,7.9037373046875,-0.19737060368061066,-0.3041418194770813,-0.18901801109313965
1727009948884775400,7.913775390625,-0.10326429456472397,-0.44027286767959595,0.07121957838535309
1727009948894812400,7.9238125,-0.03318800404667854,-0.4045359194278717,0.15182946622371674
1727009948904850400,7.933850341796875,-0.04773634672164917,-0.08972299098968506,0.0951433777809143
1727009948914888400,7.943888427734375,-0.07412347197532654,0.03912980109453201,-0.2268785983324051
1727009948924926500,7.953926513671875,-0.025340519845485687,0.04124714061617851,-0.026675112545490265
1727009948934964500,7.963964599609375,0.008471239358186722,-0.19261808693408966,-0.25153645873069763
1727009948945002200,7.974002197265625,0.026914546266198158,-0.25429993867874146,0.06435170024633408
1727009948955039500,7.98403955078125,0.0207876767963171,-0.2220010906457901,0.06324809044599533
1727009948965077500,7.994077392578125,0.05296669155359268,-0.044768717139959335,0.18645189702510834
1727009948975115500,8.004115478515626,0.08954307436943054,0.03625982254743576,0.2449658066034317
1727009948985153500,8.014153564453125,0.09194711595773697,0.13483166694641113,0.12600266933441162
1727009948995191300,8.02419140625,0.07254332304000854,0.015116453170776367,-0.07173596322536469
1727009949005229600,8.0342294921875,0.06564448028802872,-0.17105263471603394,-0.0836760550737381
1727009949015266300,8.044266357421876,0.07306857407093048,-0.21576257050037384,-0.06245225667953491
1727009949025304300,8.05430419921875,0.0840764045715332,-0.19141744077205658,-0.16095910966396332
1727009949035342300,8.06434228515625,0.10190200060606003,-0.08403771370649338,0.06767486035823822
1727009949045380400,8.07438037109375,0.06620223075151443,0.002734644804149866,0.05154787376523018
1727009949055418400,8.08441845703125,0.028966980054974556,0.1086147353053093,0.20961126685142517
1727009949065456400,8.094456298828124,0.044154562056064606,0.20062750577926636,0.16006812453269958
1727009949075493400,8.104493408203124,0.09723616391420364,0.13213872909545898,0.3459932506084442
1727009949085531400,8.114531494140625,0.08390089869499207,-0.014340129680931568,-0.05617358162999153
1727009949095569400,8.1245693359375,0.010843999683856964,-0.08152102679014206,-0.012611724436283112
1727009949105607400,8.134607421875,-0.044152356684207916,-0.07441335171461105,-0.1021462008357048
1727009949115645400,8.1446455078125,-0.008427385240793228,-0.09280354529619217,-0.18959856033325195
1727009949125683200,8.15468310546875,0.04622894152998924,-0.14492662250995636,0.06471244990825653
1727009949135720400,8.164720458984375,-0.0000376235693693161,-0.0808858573436737,-0.07773018628358841
1727009949145758500,8.174758544921875,-0.05439962446689606,0.04394403100013733,0.10246048867702484
1727009949155796500,8.18479638671875,-0.011363474652171135,0.018532682210206985,0.07223547250032425
1727009949165834500,8.19483447265625,0.08984959870576859,-0.14089088141918182,0.1307976394891739
1727009949175872300,8.204872314453125,0.07972399890422821,-0.23153290152549744,-0.06273134797811508
1727009949185910500,8.21491064453125,-0.01753612607717514,-0.1567583531141281,0.0015693102031946182
1727009949195947500,8.224947509765625,-0.03159921616315842,-0.008242380805313587,-0.07835374772548676
1727009949205985300,8.2349853515625,0.10845546424388885,0.11020833998918533,0.17546655237674713
1727009949216023600,8.2450234375,0.1655040979385376,0.1450137197971344,0.018835661932826042
1727009949226061300,8.255061279296875,0.06445296853780746,0.057813260704278946,-0.014590349048376083
1727009949236099600,8.265099609375,-0.049308210611343384,-0.06890925765037537,-0.2289135754108429
1727009949246137300,8.275137451171876,-0.017966609448194504,-0.1768062710762024,0.06738297641277313
1727009949256174300,8.28517431640625,0.09381105750799179,-0.18386897444725037,0.13061627745628357
1727009949266212400,8.29521240234375,0.11741834878921509,-0.09742370247840881,0.15755850076675415
1727009949276250400,8.30525048828125,0.024153651669621468,0.03901776298880577,0.012190386652946472
1727009949286288400,8.315288330078126,0.010947436094284058,0.07271436601877213,-0.11434723436832428
1727009949296326400,8.325326416015624,0.09137463569641113,-0.09080665558576584,0.01688987948000431
1727009949306364400,8.335364501953125,0.10134828835725784,-0.25133591890335083,-0.14405174553394318
1727009949316401400,8.3454013671875,0.01781558059155941,-0.20899485051631927,-0.18649214506149292
1727009949326439400,8.355439453125,-0.03652612864971161,0.0018076908309012651,-0.2053656429052353
1727009949336477400,8.3654775390625,0.04547659680247307,0.14211660623550415,0.24138414859771729
1727009949346515500,8.375515380859374,0.1367463767528534,0.008805908262729645,0.24057048559188843
1727009949356553200,8.38555322265625,0.0677180364727974,-0.026707077398896217,0.13062773644924164
1727009949366591500,8.395591552734375,-0.10877369344234467,-0.05406889319419861,-0.16904759407043457
1727009949376628500,8.40562841796875,-0.12393905967473984,-0.06245998293161392,-0.3170354664325714
1727009949386666500,8.41566650390625,0.05180125683546066,-0.2571891248226166,-0.2765524685382843
1727009949396704500,8.42570458984375,0.13201913237571716,-0.35010576248168945,-0.13820365071296692
1727009949406742300,8.4357421875,0.03665901720523834,-0.37825462222099304,-0.044266894459724426
1727009949416780500,8.445780517578125,-0.045708559453487396,-0.3118934631347656,0.07206691056489944
1727009949426818300,8.455818359375,0.0025442298501729965,-0.08026974648237228,0.23668473958969116
1727009949436855300,8.465855224609374,0.06465047597885132,0.06510928273200989,0.0398947149515152
1727009949446893600,8.4758935546875,0.056878138333559036,0.18400965631008148,-0.05821511894464493
1727009949456931300,8.485931396484375,-0.041568007320165634,0.12528002262115479,-0.2889905273914337
1727009949466969600,8.495969482421875,-0.08544312417507172,-0.058465246111154556,-0.2587125897407532
1727009949477007400,8.50600732421875,0.003799405414611101,-0.24707457423210144,0.06327424943447113
1727009949487045600,8.516045654296875,0.10058943927288055,-0.3817644417285919,0.3066663146018982
1727009949497082400,8.526082275390625,0.07680554687976837,-0.25363844633102417,0.09759990125894547
1727009949507120400,8.536120361328125,-0.00885993055999279,-0.08586970716714859,-0.006082185544073582
1727009949517158400,8.546158447265626,-0.005344292148947716,0.1089802086353302,-0.22112365067005157
1727009949527196400,8.556196533203124,0.08490242063999176,0.05166676640510559,-0.11067592352628708
1727009949537234400,8.566234375,0.12842725217342377,-0.09695040434598923,-0.08966384828090668
1727009949547272400,8.5762724609375,0.08811216801404953,-0.36246487498283386,0.12179078161716461
1727009949557309400,8.586309326171875,0.022850075736641884,-0.3116759955883026,0.19567139446735382
1727009949567347500,8.596347412109376,0.03264756500720978,-0.09598678350448608,0.23877017199993134
1727009949577385500,8.606385498046874,0.10907336324453354,0.13952107727527618,0.06528014689683914
1727009949587423000,8.616423095703125,0.13102132081985474,0.16162346303462982,-0.08627413958311081
1727009949597461200,8.626461181640625,0.06305079907178879,0.012714400887489319,-0.1326991617679596
1727009949607499000,8.6364990234375,0.027216685935854912,-0.04155575484037399,-0.08655156195163727
1727009949617536000,8.646535888671876,0.0893879160284996,-0.09891757369041443,0.015173738822340965
1727009949627574300,8.65657421875,0.19378012418746948,-0.1792927086353302,0.02044963464140892
1727009949637612000,8.666612060546875,0.16776689887046814,-0.21573540568351746,0.05009301379323006
1727009949647650300,8.676650390625,0.005420750472694635,-0.06155617535114288,-0.02222498133778572
1727009949657688000,8.68668798828125,-0.0729970932006836,-0.023161914199590683,-0.12144264578819275
1727009949667726300,8.696726318359374,0.02538251504302025,0.09611900895833969,0.021109305322170258
1727009949677763300,8.706763427734375,0.08247189968824387,0.091078981757164,-0.017512120306491852
1727009949687801000,8.716801025390625,0.048072461038827896,0.025265492498874664,-0.062268681824207306
1727009949697839400,8.72683935546875,-0.017202947288751602,-0.05905444547533989,0.20186150074005127
1727009949707877000,8.736877197265626,-0.027763554826378822,-0.16980469226837158,0.044533759355545044
1727009949717915100,8.7469150390625,0.024073012173175812,-0.1679183691740036,-0.0021999203599989414
1727009949727953200,8.756953125,0.038387808948755264,-0.11761890351772308,-0.17018426954746246
1727009949737990100,8.766990234375,0.004702816251665354,0.051583170890808105,-0.0038962229155004025
1727009949748028200,8.777028076171876,-0.007363008800894022,0.17280465364456177,-0.11640030145645142
1727009949758066200,8.787066162109374,0.046493832021951675,0.10804643481969833,0.07546927034854889
1727009949768104200,8.797104248046875,0.08021757006645203,0.07652909308671951,-0.0002820286899805069
1727009949778142200,8.80714208984375,0.08004046976566315,-0.01880434900522232,0.22331909835338593
1727009949788180200,8.81718017578125,0.05241243913769722,-0.1098954826593399,-0.08840461820363998
1727009949798217000,8.827217041015626,0.0742759257555008,-0.021392520517110825,0.03698179870843887
1727009949808255200,8.837255126953124,0.09843605011701584,0.09443752467632294,-0.17406411468982697
1727009949818293000,8.84729296875,0.1323940008878708,0.32922953367233276,-0.02940094843506813
1727009949828331300,8.857331298828125,0.12232820689678192,0.3013623058795929,-0.08364817500114441
1727009949838369000,8.867369140625,0.12645317614078522,0.2798740565776825,-0.12023015320301056
1727009949848406000,8.877406005859376,0.1452198475599289,0.09823387861251831,-0.012210424989461899
1727009949858444300,8.8874443359375,0.17304375767707825,0.08717217296361923,0.1693849414587021
1727009949868482000,8.89748193359375,0.1952880322933197,0.027555903419852257,0.314403235912323
1727009949878520300,8.907520263671875,0.18313656747341156,0.12113992124795914,0.2830738127231598
1727009949888558000,8.91755810546875,0.1057131364941597,0.17529749870300293,-0.09528063237667084
1727009949898596400,8.927596435546874,0.044537123292684555,0.15403534471988678,-0.2106921672821045
1727009949908633300,8.93763330078125,0.03836217522621155,0.066407710313797,-0.1440725475549698
1727009949918671000,8.947671142578125,0.040704160928726196,-0.052921079099178314,-0.3388199508190155
1727009949928709400,8.95770947265625,0.056744083762168884,-0.06755368411540985,-0.08587226271629333
1727009949938747100,8.9677470703125,0.030261611565947533,-0.15935632586479187,-0.010419851168990135
1727009949948785200,8.97778515625,0.002309005241841078,-0.07960976660251617,0.20232300460338593
1727009949958823200,8.9878232421875,0.0034272666089236736,0.037493690848350525,0.37273335456848145
1727009949968861200,8.997861083984375,0.025513527914881706,0.15695926547050476,0.15767279267311096
1727009949978898200,9.007898193359376,0.009978512302041054,0.15483112633228302,-0.040534570813179016
1727009949988936200,9.017936279296874,-0.07612232118844986,0.03207690268754959,-0.18255682289600372
1727009949998974200,9.02797412109375,-0.12594741582870483,-0.09629784524440765,-0.13707216084003448
1727009950009012200,9.03801220703125,-0.049442365765571594,-0.16299933195114136,0.03268638998270035
1727009950019050200,9.04805029296875,0.04246784746646881,-0.19774319231510162,0.15093953907489777
1727009950029087000,9.0580869140625,0.016891930252313614,-0.14556501805782318,0.08296230435371399
1727009950039125200,9.068125244140624,-0.0978650152683258,0.012415565550327301,0.0215239729732275
1727009950049163000,9.0781630859375,-0.1369960755109787,0.13247786462306976,-0.05564143508672714
1727009950059201300,9.088201171875,-0.07581288367509842,0.16120965778827667,-0.0753277912735939
1727009950069239000,9.098239013671876,-0.027246156707406044,0.10104576498270035,-0.21695661544799805
1727009950079277300,9.10827734375,-0.047530654817819595,0.10291264206171036,0.001365060918033123
1727009950089314300,9.118314208984375,-0.08912913501262665,0.05682826787233353,-0.028309687972068787
1727009950099352000,9.12835205078125,-0.032129768282175064,-0.09837622940540314,0.16315588355064392
1727009950109390300,9.138390380859375,0.044545236974954605,-0.15707650780677795,0.12085552513599396
1727009950119428000,9.148427978515626,0.026970237493515015,-0.08094258606433868,0.08249002695083618
1727009950129466000,9.158466064453124,-0.03951766714453697,-0.07066963613033295,-0.14711880683898926
1727009950139504000,9.168504150390625,-0.04590073227882385,-0.06222662329673767,-0.023732688277959824
1727009950149541000,9.178541015625,-0.031232694163918495,-0.04734718054533005,-0.18086554110050201
1727009950159579400,9.188579345703126,0.01717505231499672,-0.009510586969554424,-0.03408143296837807
1727009950169617200,9.1986171875,0.07147298008203506,-0.0133802630007267,0.10055322200059891
1727009950179655200,9.2086552734375,0.0985189750790596,-0.15554992854595184,0.05028446391224861
1727009950189693200,9.218693115234375,0.06136123836040497,-0.17426881194114685,0.04491175711154938
1727009950199731200,9.228731201171875,-0.0051653278060257435,-0.1006861999630928,-0.06441366672515869
1727009950209768000,9.238767822265626,-0.014509588479995728,-0.004662074148654938,0.023169001564383507
1727009950219806200,9.24880615234375,0.02693186141550541,-0.0875987708568573,-0.1361628770828247
1727009950229844000,9.258843994140625,0.05017991364002228,-0.18367943167686462,-0.2253885567188263
1727009950239882200,9.26888232421875,0.010339022614061832,-0.19444045424461365,-0.22903816401958466
1727009950249920300,9.278920166015626,-0.01065099984407425,-0.4103839099407196,-0.10878278315067291
1727009950259958300,9.288958251953124,0.047625087201595306,-0.3375728130340576,0.3298656642436981
1727009950269995300,9.298995361328124,0.06838757544755936,-0.04999324306845665,0.2964729964733124
1727009950280033000,9.309032958984375,0.06257309019565582,0.3056088089942932,0.20447863638401031
1727009950290071300,9.3190712890625,0.05048491060733795,0.4678674042224884,-0.11796220391988754
1727009950300109000,9.329109130859376,0.030769262462854385,0.31915515661239624,-0.3430323600769043
1727009950310147300,9.339147216796874,0.06329435855150223,0.11028814315795898,-0.20380382239818573
1727009950320184300,9.349184326171875,0.14754292368888855,-0.16470108926296234,-0.04855431616306305
1727009950330222000,9.35922216796875,0.2075282484292984,-0.22969692945480347,0.29234597086906433
1727009950340260400,9.36926025390625,0.18326738476753235,-0.13813665509223938,0.2757701873779297
1727009950350298000,9.379298095703126,0.13839173316955566,0.07175776362419128,0.15091541409492493
1727009950360336100,9.389336181640624,0.13777200877666473,0.16351085901260376,0.02643526718020439
1727009950370374100,9.3993740234375,0.14664790034294128,0.1497945487499237,-0.2501624524593353
1727009950380411100,9.4094111328125,0.12909287214279175,-0.027917394414544106,-0.29291871190071106
1727009950390449400,9.419449462890626,0.14289657771587372,-0.20378659665584564,-0.21649129688739777
1727009950400487200,9.429487060546874,0.21187271177768707,-0.1677391082048416,0.006385201122611761
1727009950410525200,9.439525146484375,0.28416547179222107,-0.04297314211726189,0.16145002841949463
1727009950420563200,9.449563232421875,0.30303850769996643,0.21481925249099731,0.4506179392337799
1727009950430601200,9.459601318359375,0.24205538630485535,0.48395487666130066,0.20727334916591644
1727009950440638000,9.469637939453126,0.17502522468566895,0.5631858110427856,-0.14427830278873444
1727009950450676200,9.47967626953125,0.17150244116783142,0.4094574749469757,-0.27734264731407166
1727009950460714000,9.4897138671875,0.20004406571388245,0.05482696369290352,-0.08611062169075012
1727009950470752300,9.499752197265625,0.20674580335617065,-0.2393048107624054,0.11329791694879532
1727009950480790000,9.5097900390625,0.15825310349464417,-0.24206703901290894,0.3441718816757202
1727009950490828300,9.519828369140624,0.09054237604141235,0.058552272617816925,0.1626540571451187
1727009950500865300,9.529865234375,0.0804535299539566,0.47373348474502563,-0.021440953016281128
1727009950510903000,9.539903076171875,0.07643625885248184,0.5535289645195007,-0.25178760290145874
1727009950520941300,9.54994140625,0.06896529346704483,0.4379025101661682,-0.28126293420791626
1727009950530979000,9.55997900390625,0.06960918009281158,0.10493524372577667,-0.24178266525268555
1727009950541017000,9.57001708984375,0.10064192861318588,-0.07131461799144745,0.15416653454303741
1727009950551055000,9.58005517578125,0.099273681640625,-0.15634314715862274,0.20475509762763977
1727009950561092000,9.590092041015625,0.08584016561508179,-0.028239771723747253,0.19069360196590424
1727009950571130400,9.60013037109375,0.04639867693185806,0.09219306707382202,0.15796484053134918
1727009950581168000,9.610168212890626,-0.028604991734027863,0.26815104484558105,0.10855361819267273
1727009950591202800,9.620202880859376,-0.09250269085168839,0.3928469121456146,-0.1234627515077591
1727009950601240800,9.63024072265625,-0.061516813933849335,0.34356406331062317,-0.39788445830345154
1727009950611278800,9.64027880859375,0.000191474799066782,-0.019031066447496414,-0.3262459635734558
1727009950621315800,9.65031591796875,0.016386689618229866,-0.30712729692459106,-0.004027964547276497
1727009950631353900,9.660353759765625,0.011336028575897217,-0.3908090591430664,0.27350834012031555
1727009950641391900,9.670391845703126,0.04115571081638336,-0.12373688071966171,0.32506632804870605
1727009950651430000,9.680429931640624,0.06225014105439186,0.1503620445728302,0.13828571140766144
1727009950661468000,9.690468017578125,0.010636484250426292,0.45235544443130493,-0.01539625134319067
1727009950671504600,9.700504638671875,-0.04843178763985634,0.47403568029403687,-0.06336110085248947
1727009950681543000,9.71054296875,-0.01339311059564352,0.3824346661567688,-0.10079262405633926
1727009950691580700,9.72058056640625,0.0464966706931591,0.05106459930539131,-0.07878027856349945
1727009950701619000,9.730618896484375,0.02324807271361351,-0.2293204516172409,-0.061297692358493805
1727009950711656700,9.74065673828125,-0.05017770081758499,-0.191390261054039,0.26243600249290466
1727009950721694700,9.75069482421875,-0.074814073741436,0.003366714809089899,0.028225092217326164
1727009950731732000,9.76073193359375,0.022326618432998657,0.2564134895801544,0.10743220895528793
1727009950741769700,9.770769775390624,0.05363687127828598,0.2622727155685425,-0.0397641696035862
1727009950751807700,9.780807861328125,-0.044907934963703156,0.09603531658649445,-0.07593028247356415
1727009950761845800,9.790845703125,-0.11976832151412964,-0.1143040731549263,0.08092297613620758
1727009950771883800,9.8008837890625,-0.06382664293050766,-0.10524378716945648,-0.016877230256795883
1727009950781921800,9.810921875,0.0380704291164875,-0.0714767649769783,0.038412123918533325
1727009950791958800,9.820958740234374,0.025497684255242348,0.13161838054656982,0.06672858446836472
1727009950801996800,9.830996826171875,-0.08063621073961258,0.3045262396335602,0.1086035966873169
1727009950812034800,9.841034912109375,-0.10296360403299332,0.29118427634239197,0.18057522177696228
1727009950822072800,9.85107275390625,-0.022397125139832497,0.1500401794910431,0.16006994247436523
1727009950832110800,9.86111083984375,-0.004814110696315765,-0.012311341241002083,0.003085661679506302
1727009950842148900,9.87114892578125,-0.061738912016153336,-0.0693778246641159,-0.1588880568742752
1727009950852185600,9.881185546875,-0.06687415391206741,-0.11413288861513138,-0.1850828379392624
1727009950862224000,9.891223876953125,0.003172044176608324,-0.11620429158210754,-0.08971503376960754
1727009950872262000,9.901261962890626,0.046505216509103775,-0.09296221286058426,0.031132284551858902
1727009950882300000,9.9112998046875,0.011767742224037647,0.09808337688446045,0.32976824045181274
1727009950892338000,9.921337890625,-0.06871053576469421,0.279607355594635,0.14627546072006226
1727009950902375700,9.931375732421875,-0.05314356088638306,0.3512488007545471,0.08832775056362152
1727009950912413000,9.941412841796875,0.007346572820097208,0.28745007514953613,0.04610326513648033
1727009950922450700,9.95145068359375,-0.03167033568024635,0.05063484609127045,-0.07109606266021729
1727009950932489000,9.961489013671875,-0.10154415667057037,-0.12679986655712128,-0.1510538011789322
1727009950942526700,9.971526611328125,-0.10036198049783707,-0.16500450670719147,-0.2519564628601074
1727009950952564700,9.981564697265625,-0.021642904728651047,-0.04745883122086525,0.06407119333744049
1727009950962602000,9.99160205078125,0.00038756290450692177,0.04942963272333145,0.24979762732982635
1727009950972639700,10.0016396484375,-0.07683802396059036,0.12789800763130188,0.17496880888938904
1727009950982677800,10.011677734375,-0.14183247089385986,0.11309242248535156,0.09704312682151794
1727009950992715800,10.0217158203125,-0.12680986523628235,0.01952105388045311,-0.19202694296836853
1727009951002753800,10.03175390625,-0.0856214165687561,-0.18845531344413757,-0.16266879439353943
1727009951012791800,10.041791748046874,-0.07585401087999344,-0.31345051527023315,-0.13246454298496246
1727009951022828800,10.051828857421874,-0.12681519985198975,-0.24658145010471344,-0.3037039339542389
1727009951032866800,10.06186669921875,-0.1552068591117859,-0.13154634833335876,-0.26685255765914917
1727009951042904800,10.07190478515625,-0.152750626206398,0.017139261588454247,-0.11383049935102463
1727009951052942800,10.08194287109375,-0.14588665962219238,-0.04488331079483032,0.1255040168762207
1727009951062980900,10.09198095703125,-0.13950945436954498,0.025555703788995743,0.4860001504421234
1727009951073019000,10.102018798828125,-0.1664789915084839,0.03251255303621292,0.4277505874633789
1727009951083055600,10.1120556640625,-0.16468268632888794,0.09283208101987839,0.13565562665462494
1727009951093094000,10.122093994140625,-0.12015879899263382,-0.0217788964509964,0.00924886204302311
1727009951103131600,10.132131591796876,-0.09283769875764847,-0.13853347301483154,-0.2729202210903168
1727009951113170000,10.142169921875,-0.12521551549434662,-0.2603248655796051,-0.21801459789276123
1727009951123207700,10.152207763671875,-0.19661353528499603,-0.1588810533285141,-0.24184376001358032
1727009951133244700,10.16224462890625,-0.22450067102909088,0.03153745085000992,-0.06048751622438431
1727009951143283000,10.172282958984376,-0.17686177790164948,0.14972853660583496,0.3292999267578125
1727009951153320700,10.18232080078125,-0.18147282302379608,0.03414429724216461,0.536689043045044
1727009951163358700,10.192358642578125,-0.2544301152229309,-0.07326418161392212,0.42364585399627686
1727009951173396700,10.202396728515625,-0.30446454882621765,-0.13378247618675232,-0.22454173862934113
1727009951183434800,10.212434814453125,-0.2492915838956833,-0.24182851612567902,-0.5784356594085693
1727009951193472000,10.222471923828126,-0.1943853795528412,-0.5122087001800537,-0.5024827718734741
1727009951203509800,10.232509765625,-0.21051642298698425,-0.570691704750061,-0.0328228659927845
1727009951213547800,10.2425478515625,-0.2732197940349579,-0.3230321705341339,0.34661033749580383
1727009951223585800,10.252585693359375,-0.30591675639152527,-0.04242979362607002,0.3070240318775177
1727009951233623800,10.262623779296876,-0.2946012616157532,0.10460778325796127,0.3032715320587158
1727009951243661800,10.272661865234374,-0.3284465968608856,-0.0189431831240654,0.01798892207443714
1727009951253698800,10.28269873046875,-0.3790964186191559,-0.09311766922473907,-0.1310749500989914
1727009951263736800,10.29273681640625,-0.38881003856658936,-0.1743752509355545,-0.33318865299224854
1727009951273774800,10.30277490234375,-0.3495205342769623,-0.19992712140083313,-0.5361059904098511
1727009951283812900,10.312812744140626,-0.31103891134262085,-0.28875869512557983,-0.32325926423072815
1727009951293851000,10.322850830078124,-0.3013627231121063,-0.30750957131385803,0.301913321018219
1727009951303889000,10.332888916015625,-0.31233999133110046,-0.16138221323490143,0.5778977870941162
1727009951313925600,10.342925537109375,-0.2989967465400696,0.15683512389659882,0.5344120264053345
1727009951323964000,10.3529638671875,-0.25108087062835693,0.2682662904262543,0.022345533594489098
1727009951334001700,10.363001708984376,-0.225371852517128,0.10902030020952225,-0.367717981338501
1727009951344040000,10.3730400390625,-0.2618696987628937,-0.3537987470626831,-0.5889257192611694
1727009951354077700,10.38307763671875,-0.25788983702659607,-0.7429947853088379,-0.3600938022136688
1727009951364114700,10.39311474609375,-0.19817191362380981,-0.8099544048309326,-0.2784929573535919
1727009951374153000,10.403153076171876,-0.11968483775854111,-0.4459753930568695,-0.2107345163822174
1727009951384190700,10.413190673828124,-0.03359442576766014,0.09197437018156052,0.09401766210794449
1727009951394228700,10.423228759765625,0.03950090333819389,0.29915404319763184,0.1991177201271057
1727009951404266800,10.433266845703125,0.07380267977714539,-0.024120129644870758,0.5978310108184814
1727009951414304800,10.4433046875,0.007579416036605835,0.0009468477219343185,0.045665860176086426
1727009951424342000,10.453342041015626,-0.04456740617752075,0.03555276244878769,-0.13077016174793243
1727009951434379800,10.4633798828125,0.028608014807105064,0.012128284201025963,-0.22426435351371765
1727009951444417800,10.473417724609375,0.1497754454612732,-0.10705802589654922,-0.30139032006263733
1727009951454455800,10.483455810546875,0.1551114022731781,-0.0446569100022316,0.10518862307071686
1727009951464493800,10.493493896484376,0.06841354072093964,0.04245349019765854,0.2836046814918518
1727009951474531800,10.50353173828125,0.1121518611907959,0.2043968290090561,0.5119543671607971
1727009951484568800,10.51356884765625,0.19007940590381622,0.09408017992973328,0.15622872114181519
1727009951494606800,10.52360693359375,0.1502133011817932,0.08686608821153641,0.22976046800613403
1727009951504644900,10.533644775390625,-0.04367414116859436,0.17818455398082733,-0.21999818086624146
1727009951514683000,10.543682861328126,-0.1101909950375557,0.149654820561409,-0.5302703380584717
1727009951524721000,10.553720947265624,0.04801648110151291,0.07363008707761765,-0.31809839606285095
1727009951534758000,10.5637578125,0.17086730897426605,0.030532732605934143,-0.16279733180999756
1727009951544795600,10.573795654296875,0.1494794636964798,-0.02659446932375431,0.1210721954703331
1727009951554834000,10.583833984375,0.1473359614610672,-0.1125127449631691,0.3170790672302246
1727009951564871700,10.59387158203125,0.20747092366218567,-0.20656120777130127,0.5006004571914673
1727009951574909700,10.60390966796875,0.20504599809646606,-0.1317756026983261,0.41675788164138794
1727009951584947700,10.61394775390625,0.08045720309019089,0.1485482007265091,0.01961079239845276
1727009951594985200,10.623985107421875,-0.011223845183849335,0.27983155846595764,-0.26961562037467957
1727009951605023200,10.634023193359376,0.02779306285083294,0.16253527998924255,-0.2768881618976593
1727009951615061200,10.644061279296874,0.08571652323007584,-0.0342402420938015,-0.198648139834404
1727009951625099300,10.654099365234375,0.05783429369330406,-0.21191143989562988,-0.25060880184173584
1727009951635137000,10.664136962890625,0.0017003403045237064,-0.2627868354320526,-0.07391420751810074
1727009951645175300,10.67417529296875,-0.01834207773208618,-0.22241251170635223,0.06765144318342209
1727009951655212300,10.68421240234375,0.01685485988855362,-0.07273657619953156,0.4555751085281372
1727009951665250000,10.69425,0.013819389045238495,0.07817118614912033,0.27565139532089233
1727009951675288300,10.704288330078125,-0.010859538801014423,0.18597008287906647,0.1835082471370697
1727009951685326000,10.714326171875,-0.056623298674821854,0.06834252923727036,-0.18324632942676544
1727009951695364400,10.7243642578125,-0.1036909818649292,-0.21190118789672852,-0.21620601415634155
1727009951705401000,10.734401123046876,-0.13366618752479553,-0.39841753244400024,-0.23777441680431366
1727009951715439000,10.744439208984375,-0.1289977878332138,-0.3163561224937439,-0.10565868765115738
1727009951725477000,10.75447705078125,-0.09217505902051926,-0.1694263368844986,-0.08540508151054382
1727009951735515100,10.76451513671875,-0.06867432594299316,-0.04950147494673729,0.08946869522333145
1727009951745553200,10.77455322265625,-0.1104326918721199,-0.05407359078526497,0.027680158615112305
1727009951755591200,10.784591064453124,-0.11541645973920822,-0.0594375804066658,0.1909622848033905
1727009951765628200,10.794628173828125,-0.08158978819847107,-0.19579435884952545,-0.09520502388477325
1727009951775666200,10.804666259765625,-0.031576722860336304,-0.36803412437438965,-0.17288875579833984
1727009951785704200,10.8147041015625,-0.039759550243616104,-0.4625265300273895,-0.3050459921360016
1727009951795742200,10.8247421875,-0.07613866776227951,-0.4466063678264618,-0.2886020839214325
1727009951805780200,10.8347802734375,-0.06692492216825485,-0.3197338879108429,-0.17313088476657867
1727009951815818000,10.84481787109375,-0.022970709949731827,-0.1196855679154396,0.14188767969608307
1727009951825855200,10.854855224609375,0.040459927171468735,0.09652476757764816,0.2796061336994171
1727009951835893200,10.864893310546876,0.04698089882731438,0.2288360893726349,0.15037262439727783
1727009951845931300,10.87493115234375,-0.016874516382813454,0.17896918952465057,-0.12432071566581726
1727009951855969300,10.88496923828125,-0.032673053443431854,0.0664103701710701,-0.26959431171417236
1727009951866007000,10.895007080078125,0.028451286256313324,-0.13668443262577057,-0.0735880583524704
1727009951876044300,10.905044189453125,0.09749685227870941,-0.1729714274406433,0.13824953138828278
1727009951886082000,10.91508203125,0.09985428303480148,-0.23788997530937195,-0.02577563002705574
1727009951896120000,10.9251201171875,0.08301680535078049,-0.19443176686763763,0.08070341497659683
1727009951906158300,10.935158447265625,0.049974165856838226,-0.11047402024269104,-0.07456766813993454
1727009951916196000,10.945196044921875,0.05740214139223099,0.1264747530221939,0.03388310223817825
1727009951926234400,10.955234375,0.10185988247394562,0.1682823896408081,-0.1463140994310379
1727009951936271000,10.96527099609375,0.17322930693626404,0.06241659075021744,-0.221878319978714
1727009951946309000,10.97530908203125,0.1910027116537094,-0.21347303688526154,-0.12730413675308228
1727009951956347100,10.98534716796875,0.16766148805618286,-0.3082152009010315,0.13614360988140106
1727009951966385200,10.99538525390625,0.1509685218334198,-0.22348353266716003,0.28904446959495544
1727009951976423200,11.005423095703126,0.16815918684005737,0.012517739087343216,0.08520174026489258
1727009951986460200,11.015460205078124,0.19939619302749634,0.2173055112361908,0.1854225993156433
1727009951996498200,11.025498291015625,0.1777796596288681,0.21947458386421204,-0.14214125275611877
1727009952006536200,11.0355361328125,0.16218605637550354,0.08293591439723969,0.11469506472349167
1727009952016574200,11.04557421875,0.15653032064437866,-0.15418779850006104,-0.059264153242111206
1727009952026612200,11.0556123046875,0.1818343549966812,-0.21703200042247772,-0.09550791233778
1727009952036650200,11.065650146484375,0.17685456573963165,-0.2208518385887146,-0.13699886202812195
1727009952046687200,11.075687255859375,0.14009389281272888,-0.08623357862234116,-0.12445057183504105
1727009952056725200,11.085725341796875,0.1252591907978058,0.1932440549135208,0.08724095672369003
1727009952066763300,11.09576318359375,0.16900241374969482,0.443808913230896,0.07081271708011627
1727009952076801000,11.105801025390624,0.22784413397312164,0.5386683940887451,0.20049703121185303
1727009952086839300,11.11583935546875,0.21599972248077393,0.45974379777908325,0.14405906200408936
1727009952096876000,11.1258759765625,0.16513754427433014,0.20752595365047455,-0.07322205603122711
1727009952106914300,11.135914306640625,0.15698480606079102,-0.12211133539676666,-0.22462409734725952
1727009952116952000,11.1459521484375,0.16473793983459473,-0.3460303246974945,-0.2504054307937622
1727009952126990000,11.155989990234374,0.12111323326826096,-0.2181280255317688,-0.08641543239355087
1727009952137028000,11.166028076171875,0.0873585045337677,0.09448879957199097,-0.09975427389144897
1727009952147066000,11.176066162109375,0.141168475151062,0.4086182415485382,0.12845730781555176
1727009952157103000,11.18610302734375,0.1900911033153534,0.3428092300891876,0.20595765113830566
1727009952167141000,11.19614111328125,0.16433407366275787,0.13524217903614044,0.27605098485946655
1727009952177179100,11.20617919921875,0.11049000918865204,-0.09598172456026077,0.27532529830932617
1727009952187217200,11.216217041015625,0.07356421649456024,-0.09968005865812302,0.10420412570238113
1727009952197255200,11.226255126953125,0.06524965167045593,-0.057653993368148804,-0.21259890496730804
1727009952207293200,11.236293212890626,0.05215595290064812,0.15838535130023956,-0.3369629681110382
1727009952217330200,11.246330078125,0.024490177631378174,0.25211992859840393,-0.4609872102737427
1727009952227368200,11.2563681640625,0.05214923992753029,0.39683184027671814,-0.2315790206193924
1727009952237406200,11.26640625,0.10653632879257202,0.3183550238609314,-0.0350123830139637
1727009952247444200,11.2764443359375,0.16737677156925201,0.09431952983140945,0.14626286923885345
1727009952257482200,11.286482177734374,0.22476595640182495,-0.06273655593395233,0.41516876220703125
1727009952267519200,11.296519287109374,0.2271857112646103,-0.051815465092659,0.6241022348403931
1727009952277557200,11.30655712890625,0.17159025371074677,-0.012121807783842087,0.28381699323654175
1727009952287595300,11.31659521484375,0.13513344526290894,0.04467303305864334,-0.2121320366859436
1727009952297633300,11.32663330078125,0.09024804830551147,0.11416790634393692,-0.17276622354984283
1727009952307671000,11.336671142578124,-0.009441260248422623,0.1431223303079605,-0.6085381507873535
1727009952317709300,11.346709228515625,-0.02055717259645462,0.24896955490112305,-0.31162774562835693
1727009952327746000,11.35674609375,0.05831899866461754,0.2881894111633301,-0.1367560476064682
1727009952337784300,11.366784423828125,0.19542181491851807,0.2701226770877838,0.23373731970787048
1727009952347822000,11.376822021484376,0.2779736816883087,0.10044974833726883,0.6063370108604431
1727009952357860000,11.386860107421874,0.19999046623706818,-0.1001102477312088,0.5900424122810364
1727009952367898000,11.396898193359375,0.05183135345578194,-0.15251487493515015,0.4558369517326355
1727009952377936100,11.40693603515625,-0.04953838512301445,0.008153993636369705,-0.06917726993560791
1727009952387973000,11.41697314453125,-0.02866426110267639,0.1980307251214981,-0.27668148279190063
1727009952398011100,11.42701123046875,0.004295844119042158,0.2783353328704834,-0.6614591479301453
1727009952408049200,11.437049072265625,0.010016847401857376,0.1375635713338852,-0.29660528898239136
1727009952418087200,11.447087158203125,0.004398629069328308,-0.13683225214481354,-0.15168987214565277
1727009952428125200,11.457125244140625,0.0547691248357296,-0.23548611998558044,0.4408019483089447
1727009952438162200,11.467162109375,0.06448815762996674,-0.08927001059055328,0.3819029927253723
1727009952448200200,11.4772001953125,0.019916163757443428,0.2723976671695709,0.2810395061969757
1727009952458238200,11.48723828125,-0.07778427004814148,0.5670744180679321,-0.05789284035563469
1727009952468276200,11.497276123046875,-0.12649908661842346,0.6284539103507996,-0.10834482312202454
1727009952478314200,11.507314208984376,-0.1000290960073471,0.2057425081729889,-0.2185487598180771
1727009952488352000,11.51735205078125,-0.05762758105993271,-0.39403650164604187,0.008192241191864014
1727009952498389200,11.52738916015625,-0.13019776344299316,-0.6480623483657837,-0.13901758193969727
1727009952508427300,11.53742724609375,-0.22882501780986786,-0.4291830062866211,-0.1959410458803177
1727009952518465300,11.54746533203125,-0.21081973612308502,-0.08075133711099625,-0.1493639051914215
1727009952528503300,11.55750341796875,-0.09705376625061035,0.12312456220388412,0.13242702186107635
1727009952538541000,11.567541015625,-0.08144818246364594,0.09544132649898529,0.12144952267408371
1727009952548578300,11.577578369140625,-0.13993358612060547,-0.036238666623830795,0.08402971923351288
1727009952558616000,11.587615966796875,-0.14949403703212738,-0.2965322434902191,-0.12871012091636658
1727009952568654000,11.597654052734375,-0.07851413637399673,-0.46842411160469055,-0.1192588210105896
1727009952578692000,11.607692138671876,-0.04799576476216316,-0.46373042464256287,-0.035691991448402405
1727009952588733700,11.617733642578125,-0.12389692664146423,-0.19949932396411896,-0.10220843553543091
1727009952598771500,11.627771484375,-0.19691124558448792,0.0657021701335907,-0.054547570645809174
1727009952608808400,11.637808349609376,-0.19160889089107513,0.252586305141449,-0.06725776940584183
1727009952618846700,11.6478466796875,-0.1230124831199646,0.046241145581007004,-0.0020777317695319653
1727009952628884500,11.657884521484375,-0.04685007035732269,-0.23615698516368866,0.11047118157148361
1727009952638922800,11.6679228515625,-0.04923684895038605,-0.4067210257053375,0.09701467305421829
1727009952648960500,11.67796044921875,-0.11132152378559113,-0.36804285645484924,0.08885661512613297
1727009952658997500,11.68799755859375,-0.1313185691833496,-0.11595360934734344,-0.04181387275457382
1727009952669035800,11.698035888671875,-0.07152100652456284,0.08244497328996658,-0.05644182115793228
1727009952679073500,11.708073486328125,-0.007180395070463419,0.2362508922815323,-0.08557698130607605
1727009952689111800,11.71811181640625,-0.026268869638442993,0.14577293395996094,-0.16885508596897125
1727009952699149600,11.728149658203124,-0.031600840389728546,-0.10307013243436813,-0.1344006359577179
1727009952709187600,11.7381875,0.04162171110510826,-0.39065638184547424,0.11802389472723007
1727009952719224600,11.748224609375,0.10261286050081253,-0.35322174429893494,0.2144545465707779
1727009952729262600,11.7582626953125,0.10656844824552536,-0.09746159613132477,0.11711440980434418
1727009952739300600,11.768300537109376,0.0827794000506401,0.0698879063129425,0.0381404310464859
1727009952749338600,11.778338623046874,0.04731275513768196,0.22976572811603546,-0.050597693771123886
1727009952759376600,11.788376708984375,0.06473802775144577,0.07989659160375595,-0.13380397856235504
1727009952769414700,11.79841455078125,0.1790156066417694,-0.1114555299282074,-0.0835658460855484
1727009952779451600,11.80845166015625,0.2579447031021118,-0.3388719856739044,0.132126122713089
1727009952789489400,11.818489501953126,0.19934821128845215,-0.1654573380947113,0.24936939775943756
1727009952799527700,11.828527587890624,0.10926995426416397,0.1884356290102005,0.08178970217704773
1727009952809565400,11.8385654296875,0.11284152418375015,0.45436182618141174,-0.16214360296726227
1727009952819603700,11.848603759765625,0.14595484733581543,0.5402210354804993,-0.17126613855361938
1727009952829640700,11.858640625,0.13998910784721375,0.4066843092441559,-0.13372434675693512
1727009952839678500,11.868678466796876,0.15234048664569855,0.14293783903121948,0.1567590832710266
1727009952849716700,11.878716796875,0.19312840700149536,-0.10150732100009918,0.20665420591831207
1727009952859754500,11.88875439453125,0.23631097376346588,-0.18444029986858368,0.25757429003715515
1727009952869792800,11.898792724609375,0.21912851929664612,-0.2386273741722107,0.09618380665779114
1727009952879830500,11.90883056640625,0.13380038738250732,-0.04877398535609245,0.01364108920097351
1727009952889867500,11.918867431640624,0.044874247163534164,0.2524532377719879,-0.22462153434753418
1727009952899905800,11.92890576171875,0.06485141068696976,0.46594423055648804,-0.4441927671432495
1727009952909943600,11.938943603515625,0.1575387418270111,0.36237600445747375,-0.26624780893325806
1727009952919981600,11.948981689453126,0.18568861484527588,0.02541668713092804,0.11633449047803879
1727009952930019600,11.95901953125,0.134127676486969,-0.07011569291353226,0.5137361884117126
1727009952940057600,11.9690576171875,0.0887024998664856,-0.1293613612651825,0.4195917844772339
1727009952950094600,11.979094482421875,0.11038755625486374,0.117477186024189,0.179344043135643
1727009952960132600,11.989132568359375,0.07930582761764526,0.283756822347641,-0.15565882623195648
1727009952970170600,11.999170654296876,0.006810854189097881,0.35106661915779114,-0.45317572355270386
1727009952980208600,12.009208740234374,-0.016772262752056122,0.1002100482583046,-0.33739152550697327
1727009952990246700,12.01924658203125,0.022622548043727875,-0.03895076736807823,-0.07957781106233597
1727009953000283400,12.029283447265625,0.06828725337982178,-0.11307117342948914,0.05506528913974762
1727009953010321700,12.03932177734375,0.0815063863992691,-0.08548295497894287,0.08614730834960938
1727009953020359400,12.049359375,0.055951621383428574,-0.03863327205181122,0.22209562361240387
1727009953030397700,12.059397705078124,0.0034793601371347904,0.05744399130344391,0.1880899965763092
1727009953040435500,12.069435546875,-0.04892854392528534,0.26371535658836365,0.2788204848766327
1727009953050473700,12.0794736328125,-0.10871756821870804,0.44204434752464294,-0.285102516412735
1727009953060510700,12.0895107421875,-0.11505502462387085,0.3943118155002594,-0.35133296251296997
1727009953070548500,12.099548583984374,-0.12788879871368408,0.1912524551153183,-0.24812935292720795
1727009953080586800,12.109586669921875,-0.11484025418758392,0.02314355969429016,0.2067863494157791
1727009953090624500,12.11962451171875,-0.05488104745745659,-0.1662982702255249,0.17823247611522675
1727009953100662800,12.129662841796875,0.0007275952957570553,-0.12714435160160065,0.1439339816570282
1727009953110700500,12.139700439453126,-0.04015032947063446,-0.01987355388700962,-0.06384877860546112
1727009953120737500,12.149737548828124,-0.1126364916563034,0.020467350259423256,0.017603112384676933
1727009953130775800,12.15977587890625,-0.11629780381917953,0.0033786443527787924,0.015509068965911865
1727009953140813600,12.1698134765625,-0.04798099398612976,0.011740915477275848,0.006710558198392391
1727009953150851600,12.1798515625,-0.011274646036326885,0.11220148205757141,-0.09205223619937897
1727009953160889600,12.1898896484375,-0.01619073376059532,0.04036587476730347,-0.0772748813033104
1727009953170926600,12.199926513671874,0.02033931389451027,-0.08804083615541458,0.16530686616897583
1727009953180964600,12.209964599609375,0.06526900827884674,-0.12919965386390686,0.2249322384595871
1727009953191002600,12.220002685546875,0.05551997572183609,-0.020970115438103676,0.14493781328201294
1727009953201040400,12.230040283203126,0.0314476378262043,0.08187782764434814,0.027837645262479782
1727009953211078700,12.24007861328125,0.036662109196186066,0.09971887618303299,-0.03703375905752182
1727009953221116400,12.250116455078125,0.02924702689051628,0.020701488479971886,-0.1260412633419037
1727009953231153400,12.2601533203125,0.02935994416475296,-0.03095345012843609,0.03275211155414581
1727009953241191700,12.270191650390625,0.0038622021675109863,-0.029675906524062157,-0.12075436115264893
1727009953251229400,12.2802294921875,-0.03155118227005005,0.12951160967350006,0.08631066977977753
1727009953261267700,12.290267822265625,-0.05845101550221443,0.3411404490470886,0.04443792253732681
