time,seconds_elapsed,z,y,x
1726407023200603600,0.023603759765625,-0.45309038922488687,-0.057600832836329934,-0.45506037412360306
1726407023210601000,0.03360107421875,-0.22703064004182813,-0.22968597685620187,-0.7667420587517321
1726407023220596700,0.0435966796875,-0.26816169185340405,-0.238548205486685,-0.9648241060763597
1726407023230593800,0.05359375,-0.6435732135921717,-0.08164747885614633,-1.0394551302991806
1726407023240589800,0.06358984375,-1.1533370916754007,0.2887329168476164,-1.036820251750946
1726407023250586600,0.073586669921875,-1.863871963906288,0.7125717848859727,-0.995247301390767
1726407023260584000,0.083583984375,-2.3721184231638905,1.2183764039494096,-0.6962386358529329
1726407023270579700,0.093579833984375,-2.700253814464807,0.844907394580543,-1.2192255681246518
1726407023280577000,0.103576904296875,-2.2363614607185123,0.33264161667898295,-1.9877735072545706
1726407023290573800,0.11357373046875,-1.1390344255566596,-0.2752100029297173,-2.4273311918199063
1726407023300569900,0.12356982421875,-0.08837737163305281,-1.1501366881988941,-2.348648700249195
1726407023310567000,0.13356689453125,-0.1018809963285923,-1.4873146331332623,-1.8959861810475587
1726407023320563000,0.14356298828125,-0.36303134811520577,-0.9429825688853859,-1.475525557270646
1726407023330559700,0.153559814453125,0.20824176841974257,-0.5636641028359533,-0.9264064048767089
1726407023340556800,0.163556884765625,0.8577098852694034,-0.726596949237585,-0.2968041412308812
1726407023350552800,0.173552734375,0.8998176731586456,-1.1794131976962088,0.4828735330700874
1726407023360550000,0.1835498046875,1.1645388691693543,-1.0581661143794656,0.6780529908210039
1726407023370546000,0.1935458984375,1.5436434002071617,-0.46672757717221974,0.48489247167706484
1726407023380542700,0.203542724609375,1.3465338511765002,-0.5409963439539075,0.544850389033556
1726407023390539800,0.213539794921875,1.1866419799059629,-0.6079013039693236,0.3598610475160181
1726407023400535800,0.223535888671875,0.9039835606664418,-0.4988143217846751,-0.1736316428095102
1726407023410532600,0.23353271484375,1.0039058241426944,-0.41176615292876956,-0.9995657491117715
1726407023420529000,0.24352880859375,0.6196341196000575,-0.4083928771033883,-1.5198451759904623
1726407023430525700,0.253525634765625,0.2896609914779663,-0.3179436676323414,-1.7981411622367798
1726407023440523000,0.26352294921875,0.4451671950101852,-0.18356150067150592,-1.6143030365809796
1726407023450518800,0.273518798828125,0.46800972593724727,0.0011579378634691238,-0.8689718685179948
1726407023460515800,0.283515869140625,0.731546680599451,0.587846065673232,-0.12236907308399676
1726407023470511900,0.293511962890625,0.9392319841802119,1.078935930685699,0.2174859821051359
1726407023480509000,0.303509033203125,0.4410755417823791,0.5099085472509265,0.45484556232914325
1726407023490506000,0.313506103515625,0.3230670019954443,-0.21589169865101573,0.24579466948360204
1726407023500501800,0.323501708984375,1.0455693753957749,-0.4991238261252641,-0.38176176754832264
1726407023510498800,0.333498779296875,2.0497557700455187,-0.08820026150047779,-1.3690100330092012
1726407023520495900,0.343495849609375,2.3901158521473405,0.7699290182247758,-1.5644728377461432
1726407023530492000,0.353491943359375,1.633922221547365,1.2322180284276605,-0.6713821347549558
1726407023540488700,0.36348876953125,1.7861358132749794,1.8107792561441658,-0.7401186210464685
1726407023550485000,0.373485107421875,1.5951251656413077,2.4153066997662185,-0.7197289631642401
1726407023560481800,0.383481689453125,2.6737019076257944,2.7677374511510133,-0.679962989160791
1726407023570478800,0.393478759765625,1.6401818664640186,1.452694424520433,-1.5074292004011571
1726407023580475000,0.403474853515625,1.56147599401772,0.43937662891000506,-1.6029789478816092
1726407023590471700,0.4134716796875,1.3108201482385395,0.29599428615272044,-2.168772025570273
1726407023600468000,0.423468017578125,1.3365315126001833,1.0279714671239257,-2.3940885551705957
1726407023610464800,0.43346484375,0.9120844495356082,2.549835581721365,-1.4087778336435555
1726407023620461800,0.4434619140625,0.4663455921173095,1.9146864976033566,-1.753193328616023
1726407023630457900,0.453457763671875,0.38140988537073134,1.4213932773277163,-1.5009356005981564
1726407023640454700,0.46345458984375,0.704526571726799,1.7366536972254514,-1.501184314662218
1726407023650452000,0.473451904296875,1.343525901532173,2.108019742965698,-2.3561744195789096
1726407023660447700,0.48344775390625,0.46546880928277967,4.032355235663056,-0.6119713298872113
1726407023670444800,0.49344482421875,0.39867257033884523,5.251312508240342,1.426537362217903
1726407023680440800,0.50344091796875,1.1371785685569047,6.6665797039031975,2.4418384406000375
1726407023690438000,0.51343798828125,0.7584966468453407,7.7058958641231055,4.253023354935646
1726407023700435000,0.52343505859375,-0.35916239772737024,9.395946215605735,6.012825288036465
1726407023710431000,0.533430908203125,-0.815477594217658,11.309850915181636,7.77189013903439
1726407023720427800,0.543427734375,-0.4279679306671023,13.026036409395932,8.313436810347437
1726407023730424800,0.5534248046875,0.6410176838904619,14.314206918931006,8.486257136774062
1726407023740420900,0.5634208984375,1.1200984005488455,15.002019671744108,8.46322872788608
1726407023750417700,0.573417724609375,1.6916522337213158,16.0714994995594,6.942009925454855
1726407023760414000,0.5834140625,3.0945413015872236,16.56024630857706,3.3474446340322492
1726407023770410800,0.59341064453125,3.763576873216033,15.565513970971107,0.20605098037719724
1726407023780407800,0.60340771484375,2.8613784424006936,14.345613280063867,-0.70844111482203
1726407023790403800,0.61340380859375,0.5422258857488632,14.329863922268151,-0.3766220665723085
1726407023800400600,0.623400634765625,-2.234353628027439,14.857342320740223,-1.0780839900314807
1726407023810398000,0.63339794921875,-4.482032017052173,14.775054498153924,-4.467037861537933
1726407023820393700,0.643393798828125,-6.292470496934652,13.56981946145892,-9.630258829349279
1726407023830391000,0.65339111328125,-7.853171999448537,12.166250302374362,-13.293374509906767
1726407023840386800,0.66338671875,-8.668986862796544,10.976070211470127,-14.635544320654867
1726407023850384000,0.6733837890625,-7.652180056026578,10.30853919918537,-15.232998172628879
1726407023860381000,0.683380859375,-5.873973282185196,8.084234086963534,-17.81628564983606
1726407023870376700,0.693376708984375,-3.664778060811758,5.612541775369644,-20.834464427232742
1726407023880373800,0.703373779296875,-1.8071891226977108,3.3529221886605023,-22.722984510183334
1726407023890369800,0.713369873046875,-0.33890155385658144,0.7052285825163126,-24.2463093449831
1726407023900366800,0.723366943359375,1.0537585270702838,-1.44899761582911,-25.60706695182323
1726407023910364000,0.733364013671875,1.9238859953641891,-2.366041733598709,-25.176021805667876
1726407023920360000,0.74335986328125,2.7665879888549445,-3.095527974537015,-23.70165184817314
1726407023930356700,0.753356689453125,3.9180873437091708,-3.1940865484446284,-22.597723807311056
1726407023940353500,0.763353515625,5.492987175184488,-2.7761721020191907,-20.665437063348293
1726407023950349600,0.773349609375,7.267447163712978,-2.8955905086040494,-17.839370757347343
1726407023960346400,0.783346435546875,9.06616481066346,-1.961831402876973,-16.869944710433483
1726407023970343700,0.79334375,10.946304018759728,-2.7668653444916007,-14.971191987282037
1726407023980339500,0.80333935546875,13.840335022962092,-2.2245780839443206,-13.371094878447055
1726407023990336500,0.81333642578125,14.350746551299094,-1.4255559499651194,-11.020255390155315
1726407024000332500,0.82333251953125,10.41344568081498,-1.1611615016907453,-8.690471549373864
1726407024010329600,0.83332958984375,6.343516209039092,-0.0215717803388834,-7.129860063230991
1726407024020326700,0.84332666015625,3.7385435542464256,0.798319538667798,-5.875009639495611
1726407024030322400,0.853322509765625,3.1590082208007573,0.6898609175145626,-5.360809240269661
1726407024040319500,0.863319580078125,3.3691105223953723,0.19630057073533533,-5.491214904814958
1726407024050316500,0.873316650390625,5.115037074878812,-0.20496318514049053,-5.231463898432255
1726407024060312600,0.8833125,6.952687971335649,-0.4581073406040668,-5.507489163267612
1726407024070309600,0.8933095703125,7.139376079595088,-0.04989011232852936,-5.536348178005218
1726407024080305700,0.9033056640625,6.856902369272708,0.9025216714203357,-5.3429053347885604
1726407024090302500,0.913302490234375,6.508558302679657,1.999758105689287,-4.581563235384226
1726407024100299500,0.923299560546875,6.164480076837539,2.69939047563374,-2.5257676006525753
1726407024110295600,0.933295654296875,5.784212347239255,3.2525434135884046,-1.4026134657949207
1726407024120292400,0.943292236328125,6.4841229496032,4.148120964959263,3.701706984758377
1726407024130289700,0.95328955078125,4.719538458400964,3.577178687813878,5.945264494460821
1726407024140285400,0.963285400390625,4.584162896488607,4.086363304704427,7.448558348622917
1726407024150282500,0.973282470703125,3.1392703778907656,3.772905258053541,8.294605268627405
1726407024160279600,0.983279541015625,1.6647902380198238,2.285466560149193,7.893744832855463
1726407024170275300,0.993275390625,6.501021477434039,1.2667296620994806,5.229323963794112
1726407024180272600,1.003272705078125,7.426440624839067,2.6009704334139823,7.136624735060334
1726407024190268400,1.013268310546875,0.32342034547775983,6.235265677678584,9.840863235247134
1726407024200265700,1.023265625,-0.2645195359587669,3.547410741537809,8.758077935656905
1726407024210262500,1.033262451171875,-3.343204512244463,3.2464994572490453,8.47978881754279
1726407024220258600,1.043258544921875,-1.0363196087524293,3.995273751503229,7.529833779296278
1726407024230255600,1.053255615234375,1.0045739326626062,2.5978034938156602,5.844170849117637
1726407024240252400,1.06325244140625,2.338926347658038,0.5776420670449733,3.437435286080837
1726407024250248400,1.07324853515625,5.568195268642902,-0.2783703666567802,1.4929583381086586
1726407024260245500,1.08324560546875,8.259505898195505,0.12592471973896027,0.21016484543681144
1726407024270241500,1.093241455078125,5.139108270817995,1.002949546331167,-0.6054711542129516
1726407024280238600,1.103238525390625,0.6390262178122997,4.556635130354762,-0.8713193084269761
1726407024290235400,1.1132353515625,3.320454920297861,6.376615930086374,0.7281962011277675
1726407024300231400,1.1232314453125,3.919080154138803,9.624608840763567,1.5883961496472359
1726407024310228500,1.133228515625,0.7211679099261761,10.256914225888252,1.4209826507002115
1726407024320225500,1.1432255859375,-2.9659833107352256,7.39900141377151,1.4227303711503743
1726407024330221600,1.1532216796875,-5.526967770719528,3.886897547936439,-0.02818623004257679
1726407024340218600,1.163218505859375,-7.121246548664569,0.717085609048605,-2.4192606980890035
1726407024350214400,1.17321435546875,-7.619713956707716,-0.6570873596817255,-5.100386618235707
1726407024360211700,1.183211669921875,-7.2436501085400575,-1.6711241172164677,-6.550272122815251
1726407024370208500,1.19320849609375,-9.065724081158637,-1.5514859304010866,-6.624403526952863
1726407024380204500,1.20320458984375,-11.967080313682555,-2.0532149705886837,-6.375510014671087
1726407024390201600,1.21320166015625,-10.718270339155197,-3.999906672000885,-5.757045523372292
1726407024400198400,1.223198486328125,-8.322781561797857,-4.035119439679384,-4.89918424693346
1726407024410194700,1.233194580078125,-6.0054480372667305,-2.6798855646967885,-5.591096251758933
1726407024420191500,1.24319140625,-3.7004727667883035,-8.448131696519255,0.05251636917889118
1726407024430188500,1.2531884765625,-1.7287597291052341,-9.917879839432238,2.4403631073504686
1726407024440184600,1.2631845703125,-0.6563745352372526,-8.088485899189115,3.1128093642055985
1726407024450181400,1.273181396484375,-0.5049915491148829,-5.661455736142397,4.529802068486809
1726407024460177400,1.283177490234375,-1.0135764465466142,-3.069486355307698,5.340953616198897
1726407024470174500,1.293174560546875,-1.8117039697736501,-2.1261130335390566,4.972435945627093
1726407024480171500,1.303171630859375,-2.4249527722507715,-2.824366516345739,3.7188770230069754
1726407024490167600,1.31316748046875,-2.306619238293171,-3.0156875451028347,2.364107550665736
1726407024500164600,1.32316455078125,-1.7912088787555693,-4.317894178774953,-0.43405718745291233
1726407024510161700,1.33316162109375,-0.21799773101955652,-4.970564306536317,-3.469751455534994
1726407024520157700,1.34315771484375,1.274524261498451,0.7629185549408197,-9.346329074999689
1726407024530154500,1.353154541015625,1.2423626980841158,7.905674924623966,-6.715674281939863
1726407024540150500,1.363150634765625,-3.187699477756023,12.483183916181325,-3.04187997097969
1726407024550147600,1.373147705078125,-4.5666380534529685,12.574447656905651,-3.354458896708488
1726407024560144400,1.383144287109375,-4.508619579726457,10.733234099531174,-0.7929162183195352
1726407024570140700,1.393140625,-3.5717128236234186,7.014247478669882,1.3517162222504615
1726407024580137500,1.403137451171875,-2.5322818048521873,4.5567128717660905,0.2500137484833598
1726407024590134500,1.413134521484375,-1.8523254646278917,2.774911288303137,-0.425122478108108
1726407024600130600,1.423130615234375,-0.26157237659096716,1.7610475492477415,-1.1430217416271566
1726407024610127400,1.43312744140625,1.0574727252878249,1.379326698231697,-1.6071026036828755
1726407024620123600,1.44312353515625,3.136421418200433,0.559591446569562,-1.7251631659179925
1726407024630120400,1.453120361328125,2.0020750043295323,0.28032909950912,0.311006561845541
1726407024640117800,1.46311767578125,0.5849756248034537,0.12141922501325607,1.4592968915253877
1726407024650113500,1.473113525390625,-1.5107774879157543,0.1631575950682163,1.584007559299469
1726407024660110600,1.483110595703125,-3.4245606069386003,0.7959405345767736,1.5423480996996164
1726407024670107600,1.493107666015625,-3.6212662513434886,1.0142886864691971,5.062518952134251
1726407024680103400,1.503103515625,-3.3348975794091817,-0.5100438640683889,11.765052012950182
1726407024690100500,1.5131005859375,-3.004211626842618,-1.8218436709940433,11.069770239430666
1726407024700096500,1.523096435546875,-0.3742962539732456,-1.7097347106397152,7.317394559186696
1726407024710093600,1.533093505859375,2.5978233675599096,-1.1447007807552814,4.238690878200531
1726407024720090600,1.543090576171875,4.427442056469619,-0.7303297060251236,1.796314092940092
1726407024730086700,1.553086669921875,4.861494275486469,-1.5319593921542167,-0.44702509783655403
1726407024740083500,1.56308349609375,3.377407810619473,-1.947461516740918,-2.501473117351532
1726407024750080500,1.57308056640625,2.678585588014126,-1.1476122842878103,-2.4357623355567455
1726407024760076500,1.58307666015625,2.462989949700236,-0.15307868412435055,-1.6678186459302902
1726407024770073600,1.593073486328125,2.011410549560189,0.6122019237726927,-0.7624556136041879
1726407024780070700,1.603070556640625,1.4957120207309722,0.8242343166470527,0.20659867738783358
1726407024790066400,1.61306640625,1.333605980542302,0.24682547383606432,0.39898002885282036
1726407024800063500,1.6230634765625,1.1802739061787724,-0.11773673710823059,0.45551673958897587
1726407024810059500,1.6330595703125,0.4669461883589625,-0.2922211973547935,0.012478957822918892
1726407024820056300,1.643056396484375,-0.6064107731506229,-0.6296008023411035,-1.008494320976734
1726407024830053600,1.6530537109375,-1.7526275114268064,-1.2069833416670561,-1.9470003289699553
1726407024840049400,1.66304931640625,-2.583960554163158,-1.289049045935273,-1.9908529146999119
1726407024850046700,1.673046630859375,-2.5153610651895404,-0.6665858403891325,-1.2925994318932295
1726407024860043500,1.68304345703125,-2.5545170175358654,-0.39501638591885563,-0.7278396427750587
1726407024870039600,1.69303955078125,-2.9596479702338576,-0.3437316043615341,-0.6632903059750795
1726407024880036600,1.70303662109375,-2.423463118214905,-0.23368191462457177,-1.2339876684486866
1726407024890032600,1.71303271484375,-1.5677625269412994,0.30827450653314586,-0.9664081603974103
1726407024900029400,1.723029541015625,-0.8479998076379298,0.8064040609240531,-0.6349708049416541
1726407024910026500,1.733026611328125,0.0011938859596848487,1.2267939575523137,-0.35161154395639893
1726407024920022500,1.7430224609375,0.8822554207220673,1.454240192657709,-0.34413901611864567
1726407024930019600,1.75301953125,1.7516402539551257,1.5527748011678457,-0.6445207235753536
1726407024940016600,1.7630166015625,2.253732574497163,1.3186620939105749,-0.9992822559952735
1726407024950012700,1.7730126953125,2.3829712410897015,0.8857418015331029,-1.283580843657255
1726407024960009700,1.783009765625,2.4849659269258377,0.6864443870693445,-1.115715509289503
1726407024970005800,1.793005859375,2.165503086902201,0.4953378778457641,-1.3896937784671783
1726407024980002600,1.80300244140625,1.8446163515552878,0.29902210954129693,-1.2274410232841968
1726407024989999900,1.812999755859375,1.4383049569010733,0.3883008139282465,-1.0650871458142994
1726407024999995600,1.82299560546875,0.7466542333602905,0.38870881020724773,-1.225689211180806
1726407025009992700,1.83299267578125,0.022104279780387877,0.25735212854743,-1.3669231437325478
1726407025019989800,1.84298974609375,-0.529421056972444,0.3650590545505285,-1.2788111450374127
1726407025029985800,1.85298583984375,-0.9731558810919523,0.6216781926482916,-1.4018079946309328
1726407025039982800,1.86298291015625,-1.219074176955223,0.9230243612229824,-1.285681030806899
1726407025049978600,1.872978515625,-1.2553966594412922,1.2147627434968948,-1.391115335702896
1726407025059975700,1.8829755859375,-1.0723184122420846,1.2623223670512438,-1.7757833460867405
1726407025069972700,1.89297265625,-0.6852163065791129,0.9816717805027961,-2.3334148907601833
1726407025079968800,1.90296875,-0.2770361954435706,0.7482903101295232,-2.649220961841941
1726407025089965600,1.912965576171875,0.1435239431850612,0.5563040954619646,-2.5881203041911123
1726407025099962600,1.922962646484375,0.5840764840066432,0.5316396098047494,-2.3315625408917664
1726407025109958700,1.932958740234375,0.909827172128111,0.710776279771328,-2.116302418142557
1726407025119955700,1.942955810546875,1.0759083995580672,1.1930576921671627,-1.8402023345053196
1726407025129951700,1.95295166015625,1.0030861783228815,1.4714420873492955,-1.52913673594892
1726407025139948500,1.962948486328125,0.9352573814608156,1.5354863972365855,-1.320678109908104
1726407025149945900,1.97294580078125,0.8719862479031085,1.45578625305593,-1.267207801005244
1726407025159941600,1.982941650390625,0.8889934968054294,1.4612906956911087,-1.3026865261435507
1726407025169938700,1.992938720703125,1.0097615644335747,1.525942323821783,-1.5799369488596915
1726407025179935700,2.002935791015625,1.181490588492155,1.7445535105645655,-1.7678233269929884
1726407025189931500,2.012931640625,1.2907131797552107,2.047169260683656,-1.9962872147083282
1726407025199928800,2.0229287109375,1.27611182295084,2.030162011781335,-2.130606837826967
1726407025209924600,2.032924560546875,1.172720275928825,2.1200117940545082,-2.0799434030383823
1726407025219921700,2.042921630859375,0.9182605078220367,2.4971020626604554,-1.8944792836159468
1726407025229918700,2.052918701171875,0.4218482787430286,2.8891566761642693,-1.9475562092870473
1726407025239914800,2.062914794921875,-0.07525704716667532,3.0441233659923075,-1.991011320132017
1726407025249911800,2.072911865234375,-0.3344213397026062,3.150325148129463,-1.9013304646849631
1726407025259908600,2.08290869140625,-0.5532135821007191,2.9039883345931767,-1.6903320910334587
1726407025269904600,2.092904541015625,-0.507943676918745,2.430835400548577,-1.363880707296729
1726407025279901700,2.102901611328125,-0.40970089096203444,1.8901357014536857,-1.1598971808433531
1726407025289897700,2.112897705078125,-0.4305203916288912,1.5269646526068448,-1.4853338345795868
1726407025299894800,2.122894775390625,-0.4916577280282974,1.236547289803624,-1.3917062873333692
1726407025309891600,2.1328916015625,-0.5530418787956237,0.8563689920544624,-1.0921481712192296
1726407025319887600,2.1428876953125,-0.6774795748472213,0.638417730525136,-0.9597405192017555
1726407025329884700,2.152884765625,-0.8795384168483317,0.4807961422741413,-0.8218728482127189
1726407025339881700,2.1628818359375,-1.1086381182491778,0.31286826406419277,-0.6131903502881526
1726407025349877500,2.17287744140625,-1.2432885807573795,0.2639630711197853,-0.3948679173588753
1726407025359874800,2.182874755859375,-1.1956068651933223,0.24369185198545454,-0.15790683493316174
1726407025369870600,2.19287060546875,-1.0310662182688712,0.31124270868897436,0.011834230178594588
1726407025379868000,2.202867919921875,-0.7596529772736131,0.4955722711235285,0.32907764058709144
1726407025389864700,2.21286474609375,-0.5138217021066696,0.6906079364895821,0.5656757349193096
1726407025399860700,2.22286083984375,-0.18989603745527564,0.7240408350139856,0.609452332803607
1726407025409857800,2.23285791015625,0.030008184772729873,0.8055366304397582,0.7154992166399955
1726407025419854600,2.2428544921875,0.26149529276676475,0.8359370294004678,0.7272112817436456
1726407025429851000,2.252850830078125,0.3975181396067142,0.7647036847919225,0.7343412797540426
1726407025439847700,2.26284765625,0.4606313791889697,0.6903758812993764,0.8279138819426297
1726407025449843700,2.27284375,0.472922632420063,0.6003636019408702,0.8628297125011682
1726407025459840800,2.2828408203125,0.4442203426141292,0.511994413614273,0.9027993193179369
1726407025469837600,2.292837646484375,0.46162148620486254,0.33537586394846436,0.8463350892961025
1726407025479833600,2.30283349609375,0.40563846382871266,0.17912497952878473,0.5681383256405592
1726407025489830700,2.31283056640625,0.2045849994778633,-0.005244914916157722,0.496958757045865
1726407025499827700,2.32282763671875,0.09847213773317634,-0.1134662201821804,0.4330798668533563
1726407025509823700,2.33282373046875,-0.07238952890634537,-0.16319149733781813,0.3467980061948299
1726407025519820800,2.34282080078125,-0.21137948192358016,-0.2599374688655138,0.2486871760547161
1726407025529816600,2.352816650390625,-0.36005846978425976,-0.2913350621700287,0.23832652556002137
1726407025539813600,2.362813720703125,-0.41395610072109845,-0.23628069894611833,0.2188765596807003
1726407025549810700,2.372810791015625,-0.3985130323955789,-0.15371055228710173,0.19653554853498933
1726407025559806500,2.382806396484375,-0.3790588652651757,-0.1342179163098335,0.1503051277577877
1726407025569803800,2.3928037109375,-0.39250995605587957,-0.005557634127140045,0.1669873824894428
1726407025579800600,2.402800537109375,-0.3334580476284027,0.00014379238486289978,0.0362941331744194
1726407025589796900,2.412796875,-0.2760135743975639,-0.0034621231526136397,0.0032838439762592313
1726407025599793700,2.422793701171875,-0.2340741288125515,0.003762567403912544,-0.008742693904042243
1726407025609789700,2.432789794921875,-0.17582535346150396,-0.04991992294490337,-0.12555997807979583
1726407025619786800,2.442786865234375,-0.13316694595217704,-0.0792681825041771,-0.17590426391661165
1726407025629783600,2.452783447265625,-0.09514383356068283,-0.10370061297118663,-0.23771394661962986
1726407025639779800,2.46277978515625,-0.022317118813470004,-0.15614567047953604,-0.3858428993821144
1726407025649776600,2.472776611328125,0.009109152596257627,-0.1590443145304918,-0.45202714390754695
1726407025659773700,2.482773681640625,0.0383936627369374,-0.12476970448493957,-0.5276449872106314
1726407025669769700,2.492769775390625,0.09826276929881424,-0.050935237467288966,-0.6129506963133812
1726407025679766500,2.5027666015625,0.15329199808146804,0.1262806935697794,-0.6150777714699507
1726407025689762600,2.512762451171875,0.18861001623272894,0.23539397923946379,-0.720716659027338
1726407025699759600,2.522759521484375,0.17952661913223564,0.2535088971227407,-0.8297925352960824
1726407025709756700,2.532756591796875,0.14245616782307624,0.18762685041427613,-1.0513917979389429
1726407025719752700,2.542752685546875,0.21360307625718414,0.1734843432933092,-1.1506377695888281
1726407025729749800,2.552749755859375,0.3345044148761779,0.4230494712263346,-1.0293205436453223
1726407025739746800,2.562746826171875,0.3344903132855892,0.5596913998126983,-1.031350295907259
1726407025749742800,2.572742919921875,0.2777718162417412,0.5455529843449592,-1.1906693357259035
1726407025759739600,2.58273974609375,0.19929270175602287,0.4223801936626434,-1.4075474150657652
1726407025769736000,2.59273583984375,0.11830971469059585,0.21411270627975462,-1.541373117187619
1726407025779732700,2.602732666015625,0.04468779444508254,-0.004022679644823074,-1.6534847078904509
1726407025789729500,2.6127294921875,-0.019380480839684605,-0.13501228155791759,-1.7114391764700412
1726407025799725800,2.622725830078125,-0.060395212795212865,-0.20079203693568706,-1.7554525057196617
1726407025809722600,2.63272265625,-0.06101824006438255,-0.21256489231586456,-1.7974156244412063
1726407025819719700,2.6427197265625,-0.07232523149847984,-0.11240648199617861,-1.7892697273865341
1726407025829715700,2.6527158203125,-0.052720367318391796,0.04244154988825321,-1.7211346410542725
1726407025839712500,2.66271240234375,-0.021967501658201216,0.28336335263848306,-1.5958984881013631
1726407025849708800,2.672708740234375,-0.0016460136413574218,0.5027203893125057,-1.4276067450150847
1726407025859705600,2.68270556640625,-0.05484576197452843,0.5761755016237498,-1.28763742557168
1726407025869703000,2.692702880859375,-0.10088036791868507,0.6064291855901479,-1.1399354660496115
1726407025879698700,2.70269873046875,-0.1274655194401741,0.5418880320966244,-1.0726099425345659
1726407025889695700,2.71269580078125,-0.11885426989607513,0.5806114382445812,-0.9726496851354837
1726407025899691800,2.72269189453125,-0.11636077257990836,0.5990238777697086,-0.9011731794208288
1726407025909688800,2.732688720703125,-0.10168941927924752,0.619980156558752,-0.7686433623284101
1726407025919685600,2.742685546875,-0.12526669422164557,0.5897983687847852,-0.6145476101160049
1726407025929681700,2.752681640625,-0.18504099863953888,0.5144032283216714,-0.4692638176515698
1726407025939678700,2.7626787109375,-0.24569215895719826,0.42051381526887416,-0.3423714219242334
1726407025949675800,2.77267578125,-0.3293406754374504,0.31109540917277334,-0.12491583495736121
1726407025959671800,2.782671875,-0.4459399329483509,0.2433756256431341,0.1302665483355522
1726407025969668900,2.7926689453125,-0.5720750805675983,0.15138298612236975,0.31286797180324794
1726407025979665000,2.802664794921875,-0.6793734257698059,0.09560264671146869,0.45964667900055645
1726407025989661700,2.81266162109375,-0.7586873471118509,0.03353109820187092,0.5748325625821947
1726407025999658800,2.82265869140625,-0.8343211186364292,-0.0975152023345232,0.6288795023292303
1726407026009654800,2.83265478515625,-0.9353415526129305,-0.3949398135513067,0.6101154728874564
1726407026019651800,2.84265185546875,-0.9742075821019709,-0.6364554905414581,0.5055515210852026
1726407026029649000,2.85264892578125,-0.9573184066213667,-0.6377338399142026,0.4425023597151041
1726407026039644700,2.862644775390625,-0.7809506168462336,-0.3083744597762823,0.5689136939272285
1726407026049641700,2.872641845703125,-0.6252994518853724,0.2603694305419922,0.775836780963838
1726407026059637800,2.8826376953125,-0.5826185402832925,0.7315104402422905,0.9588193127036094
1726407026069634600,2.892634521484375,-0.7112276768006384,0.8027876239925622,0.9996332613900303
1726407026079632000,2.9026318359375,-0.9242319834470748,0.5584960525482893,0.8778905035108328
1726407026089627600,2.912627685546875,-1.0919945880927144,0.20860475651323795,0.5842196918696164
1726407026099625000,2.922625,-1.1375134995996952,-0.049400282984972,0.3294894362583756
1726407026109621800,2.932621826171875,-1.055983217382431,-0.15175357300043105,0.1290817224651575
1726407026119617800,2.94261767578125,-0.8331962062597275,-0.17667641733288764,-0.10130202739685773
1726407026129614800,2.95261474609375,-0.6009222587369382,-0.15448153665959835,-0.29781711766570806
1726407026139611000,2.96261083984375,-0.38843832270279527,-0.16983166600465774,-0.4863572835326194
1726407026149608000,2.97260791015625,-0.2656441560745239,-0.24041794488131998,-0.711015056963265
1726407026159604700,2.982604736328125,-0.2171720938503742,-0.2880231611430645,-0.900260740751028
1726407026169600800,2.992600830078125,-0.19658289480805397,-0.3269797915250063,-1.0240762132510541
1726407026179597800,3.002597900390625,-0.21295769102573395,-0.33144086258709426,-1.0272799777284265
1726407026189593900,3.01259375,-0.2789703783765435,-0.3118073568344116,-1.0584607134118675
1726407026199590700,3.022590576171875,-0.35755912724919614,-0.33308687622845173,-1.1284811750993131
1726407026209587700,3.032587646484375,-0.42236835709437726,-0.33952772293090816,-1.1406062049180268
1726407026219583700,3.042583740234375,-0.5016201729856431,-0.29966566814184187,-1.1207669474601745
1726407026229580800,3.052580810546875,-0.5110989260792732,-0.2536515204638243,-1.0117845946937798
1726407026239577900,3.062577880859375,-0.4770377395886928,-0.15482465100884438,-0.8457388769686222
1726407026249573600,3.07257373046875,-0.4586708197057247,-0.01901157446205616,-0.7059615729659795
1726407026259571000,3.082571044921875,-0.4256605305075645,0.12037877604961394,-0.5509411071240902
1726407026269566700,3.092566650390625,-0.3583187865100801,0.3016892829239368,-0.41438422647267575
1726407026279563800,3.102563720703125,-0.32538463128805156,0.6181172852963209,-0.23250176492929459
1726407026289560800,3.112560791015625,-0.3293861220143735,0.9763216516464948,0.041003041517734526
1726407026299556600,3.122556640625,-0.25955109989643094,1.2345067238867282,0.2831841966792941
1726407026309554000,3.132553955078125,-0.2119591815076768,1.2608850277245045,0.41849195405244827
1726407026319550700,3.14255078125,-0.27242460999488827,0.9174059368193149,0.32634909240603444
1726407026329546800,3.152546630859375,-0.33227029914855954,0.2769792045593262,0.11999620647281407
1726407026339543800,3.162543701171875,-0.2839454633753747,-0.29866145953536033,-0.045350423072278497
1726407026349539800,3.172539794921875,-0.10430208599567413,-0.5420265637844801,-0.1862766048491001
1726407026359537000,3.182536865234375,0.10927753632068633,-0.48316520949304104,-0.19583616809397936
1726407026369533700,3.19253369140625,0.3051356239855289,-0.2869955716609955,-0.08575082252174615
1726407026379529700,3.20252978515625,0.39951596236042675,-0.23870588026642797,0.056845338293910024
1726407026389526800,3.21252685546875,0.3752080350559205,-0.48357495933771133,0.08284954812228679
1726407026399523800,3.22252392578125,0.19369294552020727,-0.7329705759227275,0.07486001067310571
1726407026409519600,3.23251953125,0.011157317297719418,-0.8827227459728717,0.15544307516813277
1726407026419517000,3.242516845703125,-0.0434567913454026,-0.846548439785838,0.30766309663653374
1726407026429512700,3.2525126953125,0.014090484672784804,-0.7705892356991767,0.4421209591820836
1726407026439509800,3.262509765625,0.12877141440697012,-0.5633885007649659,0.6467647031098603
1726407026449506800,3.2725068359375,0.1880710505178198,-0.4377507812738418,0.8955877805039286
1726407026459502600,3.282502685546875,0.20750052159838378,-0.3551256895571947,1.1030416134163736
1726407026469500000,3.2925,0.1849602615535259,-0.3411579544812441,1.2656401132971047
1726407026479495700,3.30249560546875,0.1974223413068801,-0.24779461112916468,1.4027087428629397
1726407026489493000,3.312492919921875,0.21024313483741133,-0.2549772161096334,1.3856310590729117
1726407026499489800,3.32248974609375,0.23899923718981445,-0.3109977940171957,1.1934551670521496
1726407026509485800,3.33248583984375,0.26115035178661344,-0.2869680991321802,0.9956658190637826
1726407026519483000,3.34248291015625,0.3062042030651122,-0.19914076259732244,0.7637468224585056
1726407026529479700,3.352479736328125,0.3715957628428936,-0.2467430562496185,0.47231706774234766
1726407026539475700,3.362475830078125,0.45235210154559463,-0.18166589618325232,0.17466595429331064
1726407026549472800,3.37247265625,0.5316822799026966,-0.016734861701726913,0.07398936531841754
1726407026559468800,3.38246875,0.5584114430047571,0.1164373449474573,0.037252164551615716
1726407026569465900,3.3924658203125,0.5649906752645969,0.08624094412624836,-0.1774842265844345
1726407026579462700,3.402462646484375,0.5218132123172283,0.10249649787843226,-0.30369419300556183
1726407026589458700,3.412458740234375,0.48346156209111213,0.07676584429442881,-0.3364765186667442
1726407026599455700,3.422455810546875,0.4396400290865451,-0.006568272474408149,-0.49600160245150327
1726407026609452800,3.432452880859375,0.39993915620855985,0.02928980737030506,-0.5692465791434049
1726407026619448800,3.44244873046875,0.3540869576266035,0.15513853926360607,-0.42666795398443935
1726407026629446000,3.45244580078125,0.290810124980472,0.2647866624623537,-0.260653215919435
1726407026639441700,3.462441650390625,0.1758405510306358,0.24025661683976648,-0.07482260127216576
1726407026649439000,3.47243896484375,0.02011931650824845,0.018434066835045813,0.010797872868180274
1726407026659435800,3.482435791015625,-0.12947284067459403,-0.1704910066962242,0.15107231273800134
1726407026669431800,3.492431884765625,-0.18056699503064155,-0.33223990401029585,0.29512101044952865
1726407026679428900,3.502428955078125,-0.18086049808450042,-0.44203298863768575,0.3700990945443511
1726407026689424600,3.512424560546875,-0.13291099842973053,-0.4329524410814047,0.5414996173009277
1726407026699422000,3.522421875,-0.07777538666315377,-0.43803719699978827,0.6376862013801932
1726407026709418800,3.532418701171875,-0.011646014130115508,-0.45315351758897304,0.6815846720784903
1726407026719414800,3.542414794921875,0.0296060337126255,-0.5203074839293956,0.7490005042254925
1726407026729411800,3.552411865234375,0.11133614935092627,-0.5149994406491518,0.8221674472451209
1726407026739408600,3.56240869140625,0.21701423640754072,-0.5327887798398733,0.8169260394603014
1726407026749404700,3.57240478515625,0.31444932271055875,-0.42398996694684027,0.9082774584680795
1726407026759401700,3.582401611328125,0.3893851020336151,-0.2667436417490244,0.903216667947173
1726407026769397800,3.592397705078125,0.4868739278178662,-0.22947452606260776,0.7868243311852217
1726407026779394800,3.602394775390625,0.5748024597048759,-0.2317991696178913,0.681157971099019
1726407026789392000,3.612391845703125,0.6199005154512822,-0.14321955341100692,0.5286290298119187
1726407026799387600,3.6223876953125,0.6876829889535904,-0.019877835902571677,0.354837812526524
1726407026809384700,3.632384765625,0.6666426120776683,0.0490600912451744,0.13750848228782414
1726407026819381800,3.6423818359375,0.6321510713458061,0.07381400875151158,-0.10251461805701255
1726407026829377800,3.652377685546875,0.5826957702379674,0.17897241931557653,-0.30940847899913787
1726407026839374800,3.662374755859375,0.6129694740790873,0.43345746799409385,-0.45285044298917054
1726407026849370600,3.67237060546875,0.5771008728403598,0.713301414334774,-0.5676011500239372
1726407026859368000,3.682367919921875,0.545752890831232,0.9292582871764897,-0.6423094772666692
1726407026869364700,3.69236474609375,0.5178385365325957,0.9207856423854828,-0.6904708661064505
1726407026879360800,3.70236083984375,0.3710346948940307,0.5957230826586485,-0.8122308673813938
1726407026889357800,3.71235791015625,0.2968014378171414,0.17797347140610217,-1.068840360867977
1726407026899354600,3.722354736328125,0.22481756710223852,-0.036601007166504856,-1.3080819554463028
1726407026909351000,3.732350830078125,0.20310499005317686,-0.06419745462238788,-1.3694763353466988
1726407026919347700,3.74234765625,0.2787291169665754,-0.0022311200529336927,-1.2416869907796382
1726407026929343700,3.75234375,0.3809328424435109,0.02123100407719612,-1.0068246341988443
1726407026939341300,3.76234130859375,0.44394430215172465,-0.022354455149173735,-0.8333987430945038
1726407026949338400,3.77233837890625,0.5044517431497574,-0.06079787531197071,-0.6926727600648999
1726407026959334400,3.78233447265625,0.5261584749799222,-0.033251696738600726,-0.5533513831362128
1726407026969331500,3.79233154296875,0.5840671316564082,0.038268063595890994,-0.4334820179134607
1726407026979327500,3.802327392578125,0.6779015265863388,0.11510229695141315,-0.34876141522228715
1726407026989324300,3.81232421875,0.7486112126469612,0.08839256920218468,-0.311217281986773
1726407026999321300,3.8223212890625,0.772955380308628,0.02824760484099388,-0.3994090679198503
1726407027009317400,3.8323173828125,0.8594878547273576,0.016113514932990073,-0.5270268553122878
1726407027019314400,3.842314453125,1.023337596778199,0.2329138528615236,-0.7238239773929118
1726407027029311500,3.8523115234375,1.2691957599520682,0.5080447992056608,-0.9578983984664082
1726407027039307300,3.862307373046875,1.4877636920750141,0.7685930934458971,-1.1308619327560065
1726407027049304600,3.8723046875,1.5939445775546133,0.8873556664705275,-1.2688012076765298
1726407027059300400,3.88230029296875,1.5109375007830559,0.8018471282720565,-1.4253002216383814
1726407027069297400,3.89229736328125,1.3957375886760652,0.5953887361377477,-1.5773229669690132
1726407027079294500,3.90229443359375,1.2473567069791256,0.5507680886447429,-1.5746753750696778
1726407027089290500,3.91229052734375,1.0915582425020633,0.3791127143442631,-1.6478996012344955
1726407027099287600,3.92228759765625,0.9358953871034085,0.30836744551360606,-1.7397899494245648
1726407027109283300,3.932283447265625,0.8547885909952223,0.42347208055257796,-1.798413987828791
1726407027119280400,3.9422802734375,0.8747418302215635,0.486167898440361,-1.767981147903204
1726407027129277400,3.95227734375,0.9491199025966226,0.5802583870232105,-1.570152344687283
1726407027139273500,3.9622734375,0.95206691583395,0.5553875651389361,-1.3525342606350779
1726407027149270300,3.972270263671875,0.903142141406238,0.4503624255657196,-1.3377867733582853
1726407027159267300,3.982267333984375,0.8498068570598959,0.24549860914647578,-1.3322273856654763
1726407027169263400,3.992263427734375,0.7736372250929474,0.18272855697870252,-1.245211950035393
1726407027179260400,4.002260498046875,0.6810567026816308,0.24294834014177322,-1.2163052967637777
1726407027189256400,4.01225634765625,0.6661375120997428,0.37033085747361183,-1.1741802654787898
1726407027199253200,4.022253173828125,0.6610439883530139,0.587247515258193,-1.0382409322038293
1726407027209250600,4.03225048828125,0.6173097683057188,0.78986735214293,-0.9249109056219458
1726407027219246300,4.042246337890625,0.49269379307776684,0.9163602271586656,-0.7827028673410416
1726407027229243400,4.052243408203125,0.2960224893338978,0.8472954587608575,-0.7137728312388062
1726407027239239400,4.062239501953125,0.09616817163974047,0.6969558442115783,-0.7173994973033666
1726407027249236200,4.072236328125,-0.06477437772750855,0.44140287404060363,-0.6873708542644977
1726407027259233500,4.082233642578125,-0.13156301788687705,0.25169454117715356,-0.6687248982444405
1726407027269229300,4.092229248046875,-0.17281170472875237,0.19859189654290674,-0.6382409126535058
1726407027279226400,4.102226318359375,-0.18304419879913328,0.09785831668376922,-0.5918734214931726
1726407027289223400,4.112223388671875,-0.12789587368145583,0.001267243456840515,-0.5641963100165128
1726407027299219500,4.122219482421875,-0.1399181737780571,-0.09003332214653491,-0.5532184044063091
1726407027309216500,4.132216552734375,-0.13029460538625717,-0.19770926848948,-0.45955198645442724
1726407027319212500,4.142212646484375,-0.10064268670529126,-0.3069605013251304,-0.4282107995122671
1726407027329209300,4.152209228515625,-0.10460603737831115,-0.3403156584382057,-0.40469197675883767
1726407027339206400,4.162206298828125,-0.0740991093032062,-0.36184067702591416,-0.2962769024863839
1726407027349202400,4.172202392578125,-0.05446341159343719,-0.2607125448912382,-0.1582104940548539
1726407027359199500,4.182199462890625,-0.052762599024921655,-0.07335983524322509,-0.08958587063997983
1726407027369196300,4.1921962890625,-0.012006225744634866,0.13563187476098537,-0.022931670515239238
1726407027379192300,4.2021923828125,0.0009366963282227516,0.22846622580289838,-0.01798719985038042
1726407027389189400,4.212189453125,0.09920388607382774,0.30179625042974945,-0.12368687768429518
1726407027399185400,4.222185302734375,0.17675971170216798,0.3284545402526855,-0.19987872148305177
1726407027409182200,4.23218212890625,0.3501990468099713,0.319311448854208,-0.39901948408037424
1726407027419179500,4.242179443359375,0.5558814861357212,0.44566813026964663,-0.4317077017173171
1726407027429175300,4.25217529296875,0.7391258836820721,0.5084720847070217,-0.5417305034473539
1726407027439172600,4.262172607421875,0.8510575877733528,0.44092531965672965,-0.7789078589722513
1726407027449168400,4.27216845703125,0.914166224245727,0.39940731435418125,-0.9408478949442505
1726407027459165400,4.28216552734375,1.0270075905278324,0.3562941488146782,-1.0891136258289218
1726407027469162500,4.29216259765625,1.1552771198272704,0.3573153085559606,-1.1879907641664147
1726407027479158500,4.302158447265625,1.2349337171271442,0.2762958984702825,-1.1645163650766015
1726407027489155300,4.3121552734375,1.2432638847075401,0.2044324392646551,-1.0114546320870519
1726407027499152400,4.32215234375,1.1533224786281584,0.15655542032420636,-0.8433461366131901
1726407027509148400,4.3321484375,0.9841802561923861,0.050637715825438495,-0.47418110804855823
1726407027519145500,4.3421455078125,0.7385644504070281,-0.1023772554129362,-0.2539440736696124
1726407027529141500,4.3521416015625,0.46337388283014297,-0.23014146553874015,-0.0749821757480502
1726407027539138300,4.36213818359375,0.22663842585384844,-0.3811152863383293,0.07915683108419179
1726407027549135400,4.37213525390625,0.11600333744436502,-0.3820779938906431,0.11591127524673939
1726407027559131400,4.38213134765625,-0.02698445303738117,-0.4176876519322395,0.05517185212373733
1726407027569128400,4.39212841796875,-0.09413140511512756,-0.4225239860475063,-0.11183920350223779
1726407027579124500,4.40212451171875,-0.1672483715131879,-0.24500819528102874,-0.1201388298138976
1726407027589121300,4.412121337890625,-0.22791560618281362,-0.19744506459534167,-0.19556319637149572
1726407027599118600,4.42211865234375,-0.2537485510975122,-0.17381927433609962,-0.33873569577038287
1726407027609114400,4.4321142578125,-0.288811096650362,-0.3183271139919758,-0.5393357172653078
1726407027619111400,4.442111328125,-0.2610939454242587,-0.3391553824871778,-0.5225450337231159
1726407027629108500,4.4521083984375,-0.15640958211272954,-0.24339959104061126,-0.5659890386521816
1726407027639104300,4.462104248046875,-0.02477671386003494,-0.18510171585083007,-0.647423751540482
1726407027649101600,4.4721015625,0.12045125676393509,-0.1212520517528057,-0.601514817802608
1726407027659097300,4.482097412109375,0.21535276946872473,0.03502162902057171,-0.33786417363286014
1726407027669094400,4.492094482421875,0.2684422623604536,0.07578735465109347,-0.12520458877086638
1726407027679091500,4.502091552734375,0.28845161568820477,0.074374565243721,0.08474895200282334
1726407027689087500,4.51208740234375,0.20533932497650384,0.26773323730826376,0.506949697445333
1726407027699084500,4.52208447265625,0.14683277547210455,0.37042028932273385,0.9219424112051725
1726407027709080600,4.53208056640625,-0.03802285666316747,0.30154373697340486,1.1648550955116748
1726407027719077400,4.542077392578125,-0.4001253994956612,0.02136076793670654,1.3778338293254375
1726407027729074400,4.552074462890625,-0.6429857690930366,-0.2815945894002914,1.2581529724121092
1726407027739070500,4.562070556640625,-0.7906240157291292,-0.6041542263954878,0.9758888131871819
1726407027749067300,4.5720673828125,-0.7442544787421822,-0.7893640787959099,0.9329615256085991
1726407027759064300,4.582064208984375,-0.4788894318699836,-0.6544453207403421,1.0871870416805147
1726407027769060400,4.592060302734375,-0.017221768435835838,-0.4600473687559366,0.9853227042257785
1726407027779057400,4.602057373046875,0.40131022536605593,-0.13198562721312046,0.9650409636974334
1726407027789053400,4.612053466796875,0.6374152754843234,0.05151099152863026,0.7429875275462865
1726407027799050200,4.62205029296875,0.8008294756621122,0.0503717583656311,0.27845161519944667
1726407027809047600,4.632047607421875,0.8309072185397147,-0.008950783696770668,0.07395487852692603
1726407027819043300,4.642043212890625,0.7612813091278076,-0.0521972202271223,-0.020992519146203995
1726407027829040600,4.65204052734375,0.6953156757891178,-0.18912381097376346,-0.31742987289130686
1726407027839037400,4.662037353515625,0.5732967313170433,-0.476141594466567,-0.5425204847812652
1726407027849033500,4.672033447265625,0.4865434537544846,-0.5946043077617883,-0.712234661886096
1726407027859030500,4.682030517578125,0.3526338727414608,-0.49246495275795454,-0.6260510009050368
1726407027869026300,4.6920263671875,0.22852000181674956,-0.3526367953509092,-0.5230500606358051
1726407027879023400,4.7020234375,0.05669628521203995,-0.33182898512184617,-0.5073007028400898
1726407027889020400,4.7120205078125,-0.13308482062667606,-0.5055693490028381,-0.5830073934704065
1726407027899016400,4.722016357421875,-0.254416659617424,-0.5323772764295339,-0.6061632281303405
1726407027909013500,4.732013427734375,-0.21679566175341605,-0.5261638087421655,-0.6827005243659019
1726407027919009500,4.742009521484375,-0.15507292668148875,-0.43745384415388106,-0.7586310868799686
1726407027929006300,4.75200634765625,-0.17293123945519326,-0.33947102430760856,-0.843208481708169
1726407027939003000,4.7620029296875,-0.287505567009747,-0.2959358339637518,-0.8321779691278934
1726407027948999000,4.7719990234375,-0.49346594649404285,-0.18354454953670502,-0.792616358590126
1726407027958996000,4.781995849609375,-0.6897055808223783,0.000412087932229042,-0.7912509154558182
1726407027968992000,4.791991943359375,-0.7494611074745655,0.2575923670440912,-0.8703910876661538
1726407027978989000,4.801989013671875,-0.7804606413722038,0.36339608977437016,-0.9752104755342006
1726407027988986000,4.811986083984375,-0.7837897857949138,0.5910615205883979,-0.8776987803310156
1726407027998982000,4.82198193359375,-0.8276796347953379,0.8375117313712834,-0.8871540064185858
1726407028008979200,4.831979248046875,-0.7436793092027306,1.1812468428641556,-0.9016238457977771
1726407028018976000,4.84197607421875,-0.6673160543598234,1.2684545861959458,-0.8872007681697607
1726407028028972000,4.851971923828125,-0.5847554061815142,1.2026111179322003,-0.8568623285293578
1726407028038969000,4.861968994140625,-0.4386836782097816,0.9835790754288435,-0.9007692747950553
1726407028048964900,4.87196484375,-0.2616153389498591,0.7569342198342085,-0.8414648529112339
1726407028058962200,4.881962158203125,-0.10219283875674008,0.5181926837325096,-0.7504477804243564
1726407028068959000,4.891958984375,0.0874652252241969,0.27019232089817524,-0.5834960537701844
1726407028078955000,4.901955078125,0.14529562903270124,0.031927170136570926,-0.22524901732206343
1726407028088952000,4.9119521484375,0.18314327525943516,-0.138057056081295,0.2493962011069059
1726407028098948000,4.921947998046875,0.2000363962627947,-0.33470775542855263,0.5690928498864174
1726407028108945200,4.931945068359375,0.2379005552329123,-0.4725175587505102,0.7895435270160436
1726407028118942000,4.94194189453125,0.36206001886501904,-0.47205870906710623,1.0589233624875545
1726407028128938000,4.95193798828125,0.5422038200475275,-0.4175181405842304,1.263069970548153
1726407028138935000,4.96193505859375,0.763784085728973,-0.48715924756526946,1.19973030179888
1726407028148932000,4.97193212890625,0.9252335617050528,-0.6498404572933912,0.8297744151175022
1726407028158928000,4.981927978515625,1.0583622214734554,-0.7587333782106638,0.5592714208349585
1726407028168925000,4.991925048828125,1.202228402224928,-0.821208831346035,0.16310791070759295
1726407028178921000,5.0019208984375,1.356011435226351,-0.7968447899401188,-0.32036037338525053
1726407028188918000,5.01191796875,1.4589023392498492,-0.7431085235774516,-0.5611874835893511
1726407028198915000,5.0219150390625,1.460890882718563,-0.5967722994506359,-0.6235057003363966
1726407028208910800,5.031910888671875,1.3862930301129817,-0.32809564381241796,-0.5424614480704069
1726407028218908200,5.041908203125,1.177740296047926,-0.01338788936138153,-0.4371034232810139
1726407028228904000,5.051904052734375,0.9142880970597267,0.20917174274623393,-0.21904899363815783
1726407028238901200,5.0619013671875,0.612326134674251,0.41252573912441726,0.07576572734117508
1726407028248898000,5.07189794921875,0.3041255701601505,0.6157558168619871,0.41508740630596874
1726407028258894000,5.08189404296875,0.018480097933858634,0.8078665346920489,0.6619184330999851
1726407028268891100,5.09189111328125,-0.30389746049270033,0.8933025921761989,0.7407774502813815
1726407028278888000,5.101887939453125,-0.5836100355386734,0.8301946863561869,0.6656725249364972
1726407028288884000,5.111884033203125,-0.7137773612834513,0.694244831687212,0.4241875353455543
1726407028298881000,5.121881103515625,-0.7385295252241194,0.5983803191691637,0.10669161148071288
1726407028308877000,5.131876953125,-0.6758196788109838,0.6358189462035894,-0.1469458804577589
1726407028318874000,5.1418740234375,-0.5547483904525637,0.6954466086924076,-0.4078796668842435
1726407028328871000,5.151870849609375,-0.38777269840091466,0.7492173618465662,-0.6575909252896904
1726407028338867000,5.161866943359375,-0.29463541888967154,0.7457406256467104,-0.8604305424049496
1726407028348864000,5.171864013671875,-0.2696434548437595,0.6689303576886654,-1.0791387597814202
1726407028358860000,5.181860107421875,-0.21996026326417922,0.644219694802165,-1.261724985679984
1726407028368857000,5.191857177734375,-0.17045359729528425,0.6325631592780351,-1.4295149167239665
1726407028378854100,5.201854248046875,-0.11244579109326004,0.5834498765408992,-1.5609195291787386
1726407028388850000,5.211849853515625,-0.07361015674248338,0.523126633003354,-1.6780676527440548
1726407028398847000,5.221846923828125,-0.050396016024053095,0.42247137907743454,-1.7888889113754034
1726407028408844000,5.231843994140625,-0.0202580673918128,0.30296529420912266,-1.8553835370242595
1726407028418839800,5.24183984375,-0.043693011254072184,0.23583996944129465,-1.8714175569802523
1726407028428837000,5.251837158203125,-0.0957229120902717,0.14235621457993983,-1.7272563388049602
1726407028438833000,5.2618330078125,-0.06677811876535415,0.06529635577499866,-1.403422444090247
1726407028448830200,5.271830322265625,0.027711013746261594,-0.028725743746757505,-1.0329343502283095
1726407028458827000,5.281826904296875,0.09815759189128875,-0.10569032548367976,-0.7583025855779647
1726407028468823000,5.291822998046875,0.262624515992403,-0.11816226904392242,-0.5746189198315144
1726407028478820000,5.301820068359375,0.4085609271466732,-0.150832366502285,-0.544665680116415
1726407028488816000,5.311816162109375,0.5185549411736429,-0.11721183645129203,-0.5752022726774215
1726407028498813200,5.321813232421875,0.5968481411658227,-0.0834288093149662,-0.5485059889316558
1726407028508810000,5.33181005859375,0.710650169173628,-0.05254968692660331,-0.5737567500442267
1726407028518806000,5.341805908203125,0.787624687782675,0.06040390755832195,-0.6141346454009413
1726407028528803000,5.351802978515625,0.7486028832100331,0.1717769548535347,-0.5881567390576005
1726407028538799000,5.361799072265625,0.69637000714764,0.27435294770896435,-0.5040355635643005
1726407028548796000,5.3717958984375,0.5466460402786731,0.5330564908653498,-0.45247401089221234
1726407028558793000,5.38179296875,0.42439343318119643,0.8696662805229425,-0.42336745113432406
1726407028568789000,5.3917890625,0.3071498864173889,1.0706886190831661,-0.3924634865656495
1726407028578786000,5.4017861328125,0.10606281205788254,1.1466174280315637,-0.4153519024610519
1726407028588783000,5.411783203125,-0.06540069293230771,1.1672826149195432,-0.4867182257995009
1726407028598779000,5.42177880859375,-0.1831982203170657,1.1733645651817322,-0.49910249107629057
1726407028608776200,5.431776123046875,-0.1964367643356323,1.1568325325757265,-0.49727469112724065
1726407028618772000,5.44177197265625,-0.1403787770271301,1.1019418354809283,-0.5588493960306048
1726407028628769000,5.45176904296875,-0.1995157333895564,0.9487567683726549,-0.6230415899559855
1726407028638766000,5.46176611328125,-0.1786521013200283,0.7457248435556888,-0.7182029226407408
1726407028648762000,5.47176220703125,-0.1422553845539689,0.6116039578795432,-0.8098273133710027
1726407028658759200,5.48175927734375,-0.19794263885393737,0.4230015404313803,-0.7655231844812631
1726407028668755000,5.4917548828125,-0.32253815581575035,0.20678397082686423,-0.6970058208331465
1726407028678752000,5.501751953125,-0.48975773962587116,0.06168810214996338,-0.6703229810908437
1726407028688749000,5.5117490234375,-0.6419874057054519,-0.14270985032320022,-0.5976479132413863
1726407028698745000,5.5217451171875,-0.7199241934753954,-0.2770470090985298,-0.5060343361660837
1726407028708742100,5.5317421875,-0.7160312776900828,-0.26166414652764797,-0.36872225323319435
1726407028718738200,5.54173828125,-0.7095873622477055,-0.2006201875001192,-0.15385931310802697
1726407028728735000,5.55173486328125,-0.6988786289677024,-0.14327625203430652,-0.00027501754909753796
1726407028738732000,5.56173193359375,-0.6827386644192039,-0.07360182730555534,0.2097656169861555
1726407028748728000,5.57172802734375,-0.6127510820880532,-0.08945406095385551,0.2748787251487374
1726407028758724900,5.581724853515625,-0.5753134779669344,-0.12987608771324158,0.3226154588356614
1726407028768722200,5.59172216796875,-0.5819441481530666,-0.16490648456215856,0.36586627928018567
1726407028778718000,5.601718017578125,-0.5650599411085248,-0.15767653330862522,0.4200079115733504
1726407028788715000,5.611715087890625,-0.49054275252372026,-0.14760112949609755,0.4389432059288025
1726407028798711000,5.6217109375,-0.4196063450351357,-0.14238836328387258,0.43765988811999557
1726407028808707800,5.631707763671875,-0.3482920441448688,-0.16161913345456122,0.3706216571137309
1726407028818705200,5.641705078125,-0.26894685088172554,-0.31320845580399037,0.16728519639223813
1726407028828701000,5.651700927734375,-0.23877456158846616,-0.4435702812075615,0.06844605197757482
1726407028838698200,5.6616982421875,-0.12216989725008606,-0.49225803200900553,-0.09841682734936476
1726407028848694000,5.671694091796875,-0.07170885316580533,-0.44159576626420016,-0.16506985843032598
1726407028858691000,5.681691162109375,-0.027045389444380997,-0.24427637387514112,-0.1920356067672372
1726407028868688100,5.691688232421875,0.02623436532244086,-0.022342764711380005,-0.22034517092853784
1726407028878684200,5.70168408203125,0.0004439443752169609,0.08881576305031776,-0.2251300671175122
1726407028888681000,5.711680908203125,-0.0896308788254857,0.17416121964156628,-0.22577917867600916
1726407028898677000,5.721677001953125,-0.07513882761448622,0.29246786559224125,-0.214602535623312
1726407028908674000,5.731674072265625,0.037899230283498765,0.48343233599662777,-0.21274726314544676
1726407028918671000,5.741671142578125,0.10176058481931685,0.6745382606983185,-0.2163923416495323
1726407028928667100,5.751667236328125,0.17871873681545256,0.7855962506949901,-0.3088943919971585
1726407028938664700,5.761664794921875,0.22346417973190544,0.8551490948706865,-0.36988691309839483
1726407028948660700,5.77166064453125,0.2429731823220849,0.9855898307293653,-0.40795243985950946
1726407028958657500,5.781657470703125,0.26168022087961434,0.9938882879972457,-0.5706500162005425
1726407028968654600,5.791654541015625,0.26965309945493937,0.9855284559309482,-0.6117383979141712
1726407028978650600,5.801650634765625,0.24254151290655135,1.0202034634709358,-0.5787810079470277
1726407028988647400,5.8116474609375,0.28994609202966093,1.0415618933200836,-0.615634820830822
1726407028998644500,5.82164453125,0.2638273159109056,1.0177554857969284,-0.6303486980989575
1726407029008640500,5.831640625,0.14382745617628095,0.9262409851819277,-0.6353323317304254
1726407029018637600,5.841637451171875,-0.05503858113288879,0.7619739675670861,-0.6746367526367306
1726407029028633600,5.851633544921875,-0.2605424490213394,0.4604623792976141,-0.7437164263427257
1726407029038630400,5.86163037109375,-0.3982090444803238,0.24068039520978926,-0.7375383222296834
1726407029048627700,5.871627685546875,-0.4213020430371165,0.02899754642546177,-0.6427361782461405
1726407029058623500,5.88162353515625,-0.48201720850169655,-0.2610352009743452,-0.5199009489551186
1726407029068620800,5.891620849609375,-0.4857553721167147,-0.3955798650205135,-0.38223639932274817
1726407029078616600,5.901616455078125,-0.47531917216777797,-0.342594124764204,-0.2835252652019262
1726407029088613600,5.911613525390625,-0.5462564564391971,-0.3086947777718305,-0.14355477671474218
1726407029098610700,5.921610595703125,-0.6564451162554323,-0.3694517365515232,0.00696866996884346
1726407029108606500,5.9316064453125,-0.8104615196213125,-0.43735739804208273,0.12528145339936017
1726407029118603500,5.941603515625,-0.8334063418790697,-0.3908446531921625,0.309857684071362
1726407029128599600,5.951599609375,-0.8241071831360459,-0.3413087611287832,0.5028106979444623
1726407029138596600,5.9615966796875,-0.8416801030971109,-0.28052783695161343,0.693922175604105
1726407029148593700,5.97159375,-0.8780217286750673,-0.30611002197563647,0.784984548537433
1726407029158589700,5.981589599609375,-0.8333134028986096,-0.3740431559950113,0.8443512220025062
1726407029168586500,5.99158642578125,-0.8414578386485576,-0.48459085838198657,0.7782470569759606
1726407029178583600,6.00158349609375,-0.7613155036583542,-0.5812269397944212,0.6722726538538932
1726407029188579600,6.01157958984375,-0.6227785551056265,-0.5904688153922557,0.6330670171469449
1726407029198576600,6.02157666015625,-0.42897330831736324,-0.5168927070498466,0.6582695552036166
1726407029208572700,6.03157275390625,-0.22781711424440143,-0.41936522975564,0.7380608847990632
1726407029218569500,6.041569580078125,-0.11357932516783475,-0.31037177107334135,0.6987213925793767
1726407029228565800,6.051565673828125,-0.1712017853140831,-0.16333996589779853,0.7072501514717936
1726407029238562600,6.0615625,-0.3809729552581906,-0.03313128522932529,0.6387114527747034
1726407029248559400,6.071559326171875,-0.5253548304468393,-0.024147768306732178,0.5525958885937928
1726407029258555600,6.0815556640625,-0.6664426325261592,0.013192074528336524,0.5867059557273984
1726407029268552400,6.091552490234375,-0.740000912950933,0.08106149566173552,0.6735057027801871
1726407029278549800,6.1015498046875,-0.7441197464466095,0.09762918410301208,0.6849035873681306
1726407029288545500,6.111545654296875,-0.7905372142285109,0.07377016960978508,0.6735863668009638
1726407029298542600,6.12154248046875,-0.7466095174357295,-0.043270986449718475,0.6037035600185394
1726407029308538600,6.13153857421875,-0.5169345003649592,-0.26531507025063034,0.4513920608744025
1726407029318535700,6.14153564453125,-0.31047961536198854,-0.48861821420192714,0.34601854625493284
1726407029328532500,6.151532470703125,-0.21668489485532044,-0.6196434719502926,0.23822043483704328
1726407029338528500,6.161528564453125,-0.08875994120985269,-0.6868243262976408,0.20958207711279392
1726407029348525600,6.171525634765625,0.003382335914671421,-0.733784814915061,0.19896628281325102
1726407029358521300,6.181521240234375,0.1081789274290204,-0.6602227350980043,0.13288959031552075
1726407029368518700,6.1915185546875,0.13354922326803206,-0.632958880597353,0.15395429791510104
1726407029378515500,6.201515380859375,0.1190343757033348,-0.5380307721465826,0.17990999242663383
1726407029388511700,6.21151171875,0.06755904000997542,-0.3766746735423803,0.19049772967547177
1726407029398508500,6.221508544921875,0.020278817918896675,-0.258036603680253,0.2643511936545372
1726407029408504600,6.231504638671875,-0.0070204001560807226,-0.16709025834202765,0.31610446950644255
1726407029418501600,6.241501708984375,-0.12345745284259318,-0.02296644956767559,0.41497079418897626
1726407029428498400,6.25149853515625,-0.2542053549543023,-0.04275076196789741,0.3935208866640925
1726407029438494700,6.26149462890625,-0.2294485148385167,-0.05157821154594421,0.3554059678032994
1726407029448491500,6.271491455078125,-0.25436434490829707,0.053987610775232314,0.29123744701445103
1726407029458487600,6.281487548828125,-0.21272534357458353,0.17945055822134018,0.1874053166180849
1726407029468484600,6.291484619140625,-0.29158085362464187,0.1784644697934389,0.04962970782667398
1726407029478481400,6.3014814453125,-0.2903147792115807,0.25385142695009705,-0.11080518427938223
1726407029488477400,6.3114775390625,-0.310131824837625,0.2612123111069202,-0.2045797387808561
1726407029498474500,6.321474609375,-0.3082151775613427,0.3005313450604677,-0.28450960006415843
1726407029508471600,6.331471435546875,-0.36178631649017334,0.3192150027424097,-0.24356238038688896
1726407029518467600,6.341467529296875,-0.4970099027112126,0.21627426822781562,-0.36643326551318167
1726407029528464600,6.351464599609375,-0.5490396574169397,0.13488310222029684,-0.5190323494270443
1726407029538460400,6.36146044921875,-0.6176566820472479,0.22320202166438102,-0.6411404334872961
1726407029548457700,6.371457763671875,-0.6306272227793932,0.32137305755913254,-0.6832999515637755
1726407029558454500,6.38145458984375,-0.6520701160416007,0.37369361190497874,-0.666304977621138
1726407029568450800,6.391450927734375,-0.7339177936449647,0.40828444829285143,-0.4739724337339401
1726407029578447600,6.401447509765625,-0.7792801994159817,0.2956371432781219,-0.4088704314872622
1726407029588443400,6.411443359375,-0.7998620919346809,0.08513912036418915,-0.42698710293620823
1726407029598440700,6.421440673828125,-0.6947890215665101,0.0888140094846487,-0.4554071417346596
1726407029608437500,6.4314375,-0.6199290108934045,0.25422669000327586,-0.3823252466499805
1726407029618433500,6.44143359375,-0.534600213176012,0.2993038490921259,-0.3972594886705279
1726407029628430600,6.4514306640625,-0.39408407350480557,0.24337270303368566,-0.4224579350739717
1726407029638426600,6.461426513671875,-0.3222831581413746,0.10498948373794555,-0.4352896518573165
1726407029648423700,6.471423583984375,-0.3522749763011932,-0.08847966296374797,-0.3527145367622375
1726407029658420500,6.48142041015625,-0.3134557085633278,-0.213537536740303,-0.32955168783962724
1726407029668416500,6.49141650390625,-0.23514117352217434,-0.24747429313361644,-0.2924424388900399
1726407029678413600,6.50141357421875,-0.13643997627347706,-0.19499299526810646,-0.22334376822263002
1726407029688409600,6.51140966796875,-0.028363486305624245,-0.025697335836291312,-0.1713572681367397
1726407029698406400,6.521406494140625,0.022398002029955386,0.1298439390093088,-0.1511760653734207
1726407029708403700,6.53140380859375,0.1407835584357381,0.23974925183951853,-0.13016104213446378
1726407029718399500,6.5413994140625,0.23565569891557095,0.27345161495506765,-0.11454787793904542
1726407029728396500,6.551396484375,0.31483941800668835,0.261048644977808,-0.09669278003573417
1726407029738392600,6.561392578125,0.39904783339202404,0.20058394714295863,-0.13883914636969566
1726407029748389400,6.571389404296875,0.5194001598261296,0.24271043973267076,-0.17959961130321025
1726407029758386700,6.58138671875,0.619045798318088,0.2979688010960817,-0.26703444138914345
1726407029768382500,6.591382568359375,0.6758660021707416,0.36821196562349795,-0.285838218319416
1726407029778379800,6.6013798828125,0.7538891530498861,0.3796937291026115,-0.28985446822345257
1726407029788376600,6.61137646484375,0.7782008797466754,0.30362346585690975,-0.2772738035917282
1726407029798372600,6.62137255859375,0.7933905578330158,0.2639373521566391,-0.27847119668275117
1726407029808369700,6.63136962890625,0.7557584540531039,0.20764497157037257,-0.36023645669966936
1726407029818365700,6.64136572265625,0.762341631835699,0.27250118236243726,-0.40318770967572926
1726407029828362500,6.651362548828125,0.7916891607426106,0.28172259969413277,-0.4839888008356094
1726407029838359600,6.661359619140625,0.8451565470360219,0.27897359324693677,-0.5072299756914377
1726407029848355600,6.67135546875,0.8728279594242573,0.23797639694809913,-0.5230284333258867
1726407029858352600,6.6813525390625,0.9376657577767967,0.17829729653298854,-0.5565592392668127
1726407029868348700,6.6913486328125,0.994008991767466,0.1754535975396633,-0.5874892150595784
1726407029878345500,6.701345458984375,1.0519655061736701,0.1684866811364889,-0.5359925443172454
1726407029888342500,6.711342529296875,1.0890341308519245,0.14637129544019697,-0.44228257948458194
1726407029898338600,6.721338623046875,0.9687737204849719,0.06473755284845828,-0.3917658596903085
1726407029908335600,6.731335693359375,0.743668349417299,-0.04128478106856346,-0.41950639179199933
1726407029918331600,6.74133154296875,0.5648674872763455,-0.10871931791603565,-0.4837772039115429
1726407029928328400,6.751328369140625,0.39335634375214573,-0.11022796891331672,-0.4618526646122336
1726407029938325000,6.761324951171875,0.2572051212921738,-0.11421440820097922,-0.30701866125315425
1726407029948320800,6.77132080078125,0.15346256887540222,-0.1708615935742855,-0.18644991558939217
1726407029958318000,6.781318115234375,0.04829305239543318,-0.1957353380680084,-0.1246773500263691
1726407029968313900,6.79131396484375,-0.1715542520135641,-0.25511633231937886,-0.05475158088505268
1726407029978311000,6.801310791015625,-0.34309944393783803,-0.2733697818905115,-0.04359978001266718
1726407029988308000,6.811307861328125,-0.41418490450829265,-0.1813315496623516,-0.03814940565228462
1726407029998304000,6.821303955078125,-0.5342150132507085,-0.12977554994821547,0.008344049975275993
1726407030008301000,6.831301025390625,-0.5854755371496081,-0.14709785614907742,-0.016029928302764892
1726407030018297900,6.8412978515625,-0.7187170096427202,-0.16712766774296758,-0.0878729292422533
1726407030028294000,6.8512939453125,-0.8741203373223543,-0.10317103613913059,-0.062389236156642436
1726407030038291000,6.861291015625,-0.8852373591423034,-0.03785129948854446,-0.11014292097836732
1726407030048287000,6.871286865234375,-0.8861261246755718,0.03337269276976585,-0.0863715847685933
1726407030058283800,6.88128369140625,-0.8557567053750157,0.0816506937265396,-0.10967676477134228
1726407030068280800,6.89128076171875,-0.7864800477921963,0.1541349151790142,-0.22421295227259397
1726407030078276900,6.90127685546875,-0.7201634090587496,0.1959755765646696,-0.21497721415460108
1726407030088274000,6.91127392578125,-0.6934300081729888,0.08691840499639511,-0.18293460094481706
1726407030098270000,6.92127001953125,-0.5779772903487086,0.06020224750638008,-0.18844459653794765
1726407030108266800,6.931266845703125,-0.47214726413339375,0.06718377695679664,-0.17389643122553824
1726407030118264000,6.94126416015625,-0.39800913799405097,0.06078033965528011,-0.18822364726364613
1726407030128259800,6.951259765625,-0.3184413880214095,0.20688333954811094,-0.16703560554534197
1726407030138257200,6.961257080078125,-0.25254560504853724,0.3243476894557476,-0.13287322370260954
1726407030148253000,6.9712529296875,-0.1880582275688648,0.4238537733465433,-0.09420388582944869
1726407030158249700,6.981249755859375,-0.18560440467596054,0.4532277518689632,-0.10062485878765583
1726407030168247000,6.9912470703125,-0.12385638903230428,0.38720132825374604,-0.148142981287837
1726407030178242800,7.001242919921875,-0.15053776746988295,0.2703933964282274,-0.12571809125095604
1726407030188240000,7.011239990234375,-0.16705314120203255,0.12301380072832106,-0.14576894563287496
1726407030198236000,7.02123583984375,-0.13453092778176068,-0.051986207824945445,-0.2359948677420616
1726407030208233000,7.03123291015625,-0.060334057192504405,-0.1851040539383888,-0.22515403251498936
1726407030218230000,7.04122998046875,0.03809942903071642,-0.17272446483671663,-0.24357962378263473
1726407030228226000,7.05122607421875,0.19121844516545533,-0.13329787885546684,-0.3588657528683543
1726407030238222800,7.061222900390625,0.2338540563210845,-0.11071019947230815,-0.4479939428687095
1726407030248219100,7.07121923828125,0.37818566262722014,-0.02157645651400089,-0.500819524127245
1726407030258216000,7.0812158203125,0.4085927835896611,0.047480128577351566,-0.5340305965945125
1726407030268212700,7.091212646484375,0.3632438218221068,0.08724281464517115,-0.5170116572543978
1726407030278209000,7.101208984375,0.24608897625505924,0.1293167002648115,-0.48412470217496156
1726407030288205800,7.111205810546875,0.10098901592493056,0.039404958671331404,-0.48547903939336534
1726407030298201900,7.121201904296875,0.03730798639208078,-0.03812894738614559,-0.4530594095647335
1726407030308199000,7.131198974609375,-0.004012450511753559,-0.12260229731798171,-0.42342093488723037
1726407030318195700,7.14119580078125,0.03923486280143261,-0.19611293920874595,-0.36041385909318924
1726407030328192000,7.15119189453125,0.05303659366071224,-0.23187223485410213,-0.2793263522073626
1726407030338188800,7.161188720703125,-0.03242898217886686,-0.3527361640721559,-0.2879407435566187
1726407030348184800,7.171184814453125,-0.09709931501001119,-0.4697627070844173,-0.26245851177573204
1726407030358182000,7.181181884765625,-0.15958382823467254,-0.38515667068362236,-0.23562486538589
1726407030368179000,7.191178955078125,-0.198848793913424,-0.20615034909844399,-0.1179670387327671
1726407030378175000,7.201175048828125,-0.19441256503164767,-0.09151683870255947,-0.03782353469878435
1726407030388172000,7.211172119140625,-0.33438948325961826,-0.06515899313092231,-0.033033085551857945
1726407030398167800,7.221167724609375,-0.5192433618292213,-0.08183072646856307,-0.01575198814421892
1726407030408164900,7.231164794921875,-0.6634183162689209,0.007756020954251289,0.020188217025995252
1726407030418162000,7.241161865234375,-0.830028389878571,0.0858031372308731,0.12501403463482855
1726407030428157700,7.25115771484375,-0.9068462566211819,0.10059913982450962,0.18875790027081965
1726407030438155000,7.261155029296875,-0.9541945755124092,0.16781331191956997,0.1599772114664316
1726407030448150800,7.27115087890625,-0.9694988198891281,0.2739642406523228,0.22048019548505543
1726407030458148000,7.281148193359375,-0.9173892779454589,0.25244214467406273,0.2081637347474694
1726407030468145000,7.291144775390625,-0.872149621771276,0.21484686577320097,0.2339870350509882
1726407030478141000,7.301140869140625,-0.9165057731091976,0.1796066255658865,0.23235768028348683
1726407030488138000,7.311137939453125,-0.8979317132815718,0.08648468975424765,0.30722587426304815
1726407030498134800,7.321134765625,-0.9080854430273174,0.14960545505583286,0.3483522498995065
1726407030508131000,7.331131103515625,-0.8062637756705283,0.3059849342912435,0.49915889743864533
1726407030518127900,7.3411279296875,-0.6296206760853529,0.3877338276952505,0.5918056169539689
1726407030528124000,7.3511240234375,-0.5509036977231502,0.5027069453090429,0.7836483314976096
1726407030538121000,7.361120849609375,-0.3966358038142323,0.6773036337584257,0.9359604151636362
1726407030548117800,7.37111767578125,-0.3431166873335838,0.6934387760013342,0.9667787472754716
1726407030558113800,7.38111376953125,-0.2897708815932274,0.5964414600610732,0.8190683121860027
1726407030568110800,7.39111083984375,-0.13661065666526556,0.5228279423177242,0.5256099742516875
1726407030578107000,7.40110693359375,0.08998919074386358,0.536164978274703,0.2803144864618778
1726407030588104000,7.41110400390625,0.2573871998608112,0.4491799377828836,0.07732844661325215
1726407030598101000,7.42110107421875,0.32564620483368634,0.4497071765273809,-0.18661182815283536
1726407030608096800,7.4310966796875,0.20420652155429123,0.31253859371840953,-0.4377899442404508
1726407030618094000,7.441093994140625,-0.09659458035826682,0.09382394660115241,-0.5653884424105287
1726407030628089900,7.45108984375,-0.34452918448001146,-0.19595687186419963,-0.5929495262920856
1726407030638087000,7.4610869140625,-0.4327323685899377,-0.46992637321352954,-0.45093817962706084
1726407030648084000,7.471083984375,-0.5081763166308403,-0.4906552729874849,-0.3586889349967241
1726407030658079700,7.481079833984375,-0.6174617439970373,-0.4789081365704536,-0.4774442014977336
1726407030668077000,7.4910771484375,-0.6919426922246813,-0.38453298582732676,-0.6656985361605883
1726407030678072800,7.50107275390625,-0.6325029535233974,-0.22082477113902568,-0.815179195792973
1726407030688070000,7.51106982421875,-0.5250236987963318,-0.2112216610133648,-0.9917980377197265
1726407030698067000,7.52106689453125,-0.5166320102870464,-0.27668460552692414,-1.0815110418707132
1726407030708063000,7.53106298828125,-0.570941692623496,-0.3165928375452757,-1.125741813263297
1726407030718060000,7.54106005859375,-0.6672957422241568,-0.2807107923030853,-1.104538573975861
1726407030728056000,7.55105615234375,-0.8679343421638012,-0.2217208431959152,-1.0390510795429349
1726407030738052900,7.561052978515625,-1.0940768011942505,-0.2229553534269333,-0.8961793166562915
1726407030748050000,7.5710498046875,-1.1815417341575025,-0.22547055111825465,-0.6783011203631758
1726407030758046000,7.5810458984375,-1.15215431163162,-0.214113875323534,-0.47683512968868014
1726407030768042800,7.591042724609375,-1.140517942112684,-0.15083412006795405,-0.20573007785975933
1726407030778039000,7.6010390625,-1.1821294709175825,-0.04171498917937279,0.07162292844802141
1726407030788035800,7.611035888671875,-1.2131357268169523,0.1457785902440548,0.2691775908976793
1726407030798033000,7.621032958984375,-1.3283368079677222,0.1851397097736597,0.2307245261237025
1726407030808029000,7.63102880859375,-1.3815376522794365,0.2154296340972185,0.1350347856506705
1726407030818025700,7.641025634765625,-1.1549351745218037,0.3978939871817827,0.19304916772395372
1726407030828022000,7.65102197265625,-0.7631567476108669,0.5489899730563164,0.24865122795850036
1726407030838018800,7.661018798828125,-0.5557762721955776,0.6197843417257071,0.2562421214789152
1726407030848016100,7.67101611328125,-0.41889089024215936,0.6707388684153557,0.20875380959510803
1726407030858012000,7.681011962890625,-0.24500907206386327,0.7877350162893533,0.1774099923044443
1726407030868009000,7.691009033203125,-0.03067190937846899,1.0084680174916982,0.1540808469042182
1726407030878005000,7.7010048828125,0.1917030138120055,1.1040256560176611,0.10349369222223759
1726407030888001800,7.711001708984375,0.4373705497846007,1.080462994122505,-0.019018004202842713
1726407030897998800,7.720998779296875,0.7182856324881315,1.0217933630108833,-0.11036240894794463
1726407030907995000,7.730994873046875,1.021511915720999,1.044446508845687,-0.10145341856628656
1726407030917992000,7.740991943359375,1.1484209703221917,1.1461340284287929,-0.06428776325434446
1726407030927987700,7.75098779296875,1.089570137424767,1.2378297308295965,0.09696633628010749
1726407030937985000,7.760985107421875,0.8960717646285891,1.176130522763729,0.2709861016243696
1726407030947981800,7.77098193359375,0.583370089302957,0.8348293604195117,0.34523967083692547
1726407030957978000,7.78097802734375,0.20435089846104382,0.24591712681949138,0.3203606656461954
1726407030967975000,7.790974853515625,-0.10617986256629228,-0.33304186804294583,0.24335166024565696
1726407030977971000,7.800970947265625,-0.22101590979695318,-0.8271160095632076,0.2640276607885957
1726407030987968000,7.810968017578125,-0.1137470829501748,-1.363194478598237,0.24486411063522098
1726407030997964800,7.82096484375,-0.07935702983140945,-1.8199018892765044,0.1394248373031616
1726407031007961000,7.830961181640625,-0.07764584199935197,-2.1774773100733755,0.042917935228347776
1726407031017958000,7.8409580078125,0.034738135904073715,-2.389354220125079,0.015150222858786581
1726407031027954000,7.850953857421875,0.41665041783899065,-2.3170921169906853,-0.03439823642522096
1726407031037951000,7.860950927734375,0.7140998712360859,-2.1543828502118587,-0.022407646641135214
1726407031047947800,7.87094775390625,1.0411717249587178,-1.7497347125947473,-0.027302725206315517
1726407031057944000,7.880944091796875,1.1876128707647322,-1.3074895425111055,-0.10972089617401361
1726407031067940900,7.89094091796875,1.245605917789042,-0.9157792124003171,-0.08475041330754757
1726407031077937000,7.90093701171875,1.140277703616023,-0.592070405369997,-0.0937543884962797
1726407031087934000,7.910933837890625,0.7831447658896445,-0.4189519727796316,-0.1263707099407911
1726407031097931000,7.920930908203125,0.6205220083504915,-0.29419395873248577,-0.06227437760531902
1726407031107926800,7.9309267578125,0.454326653021574,-0.18951076446473597,-0.07722673980444669
1726407031117924000,7.940924072265625,0.40060412292331454,-0.042484804508090016,-0.040834406952559944
1726407031127919900,7.950919921875,0.42811259983479977,0.23764321947097777,0.04695698148608207
1726407031137917000,7.9609169921875,0.4098012825965881,0.5585615189999341,0.032813889843225474
1726407031147914000,7.9709140625,0.41452100459486246,0.829993026304245,-0.11400514936447143
1726407031157909800,7.98090966796875,0.5281669652581215,1.1318711097985505,-0.19253449620008467
1726407031167907000,7.990906982421875,0.5732511386096477,1.5551310089051722,-0.24010668697506188
1726407031177902800,8.00090283203125,0.5713341990724206,1.9225696520686149,-0.31874007870703935
1726407031187900200,8.010900146484374,0.6026517128780484,2.072428789624572,-0.5760644424647092
1726407031197897000,8.02089697265625,0.5230331095010042,2.063463392880559,-0.7614666025668382
1726407031207893000,8.03089306640625,0.06928221054077148,1.8683476480156183,-0.834317903766036
1726407031217890000,8.04089013671875,-0.1788169364929199,1.6765455577433108,-0.7914736182957888
1726407031227886000,8.050885986328124,-0.26644787367284295,1.5526403611332178,-0.7170932078331709
1726407031237883000,8.0608828125,-0.39838293974250555,1.3852321228832005,-0.7373591662704945
1726407031247880000,8.0708798828125,-0.5309791000694036,1.0855617785662413,-0.696850045749545
1726407031257876000,8.0808759765625,-0.7779848989084363,0.8337719603210687,-0.771543759945035
1726407031267873000,8.090873046875,-0.8924006749004125,0.6517512593507766,-0.9349337024644017
1726407031277869000,8.100869140625,-0.840534001801908,0.35813889989852904,-1.0605898343950508
1726407031287865900,8.110865966796876,-0.8089595906257628,0.01056932480931282,-1.0636568207502364
1726407031297863000,8.12086279296875,-0.7807236762225628,-0.25029168864190576,-1.0653703466698528
1726407031307859000,8.13085888671875,-0.713993195991218,-0.40969197700321675,-0.9058955317676067
1726407031317855700,8.140855712890625,-0.6091100952371955,-0.4988566996216774,-0.7958139855876565
1726407031327852000,8.15085205078125,-0.7321756261527538,-0.5637544114679098,-0.6984925522595643
1726407031337848800,8.160848876953125,-0.787137050396204,-0.6487707822352647,-0.697053459367156
1726407031347846100,8.17084619140625,-0.7689768320664763,-0.6991670905202627,-0.679591452434659
1726407031357842000,8.180842041015625,-0.6433914272844791,-0.5366583147495985,-0.5841951419502497
1726407031367839000,8.1908388671875,-0.5439937722042203,-0.4463263019174337,-0.45097997294217346
1726407031377835000,8.2008349609375,-0.5832455861404537,-0.4104997862547636,-0.1271387717038393
1726407031387831800,8.210831787109376,-0.5991282149270176,-0.3812655084639787,0.2128697204813361
1726407031397829000,8.2208291015625,-0.6238868086084723,-0.28939269593060013,0.458151764267683
1726407031407825000,8.230824951171876,-0.6529258560881018,-0.14917816955447197,0.6674985713198781
1726407031417822000,8.240822021484375,-0.7272144966140389,-0.00768061763048172,0.8095061185926199
1726407031427818000,8.25081787109375,-0.8039388398542999,0.06902326734364032,0.881660961960256
1726407031437815000,8.26081494140625,-0.8012056154981255,0.09414192650914191,0.9666481066331267
1726407031447811800,8.270811767578126,-0.8485451665610074,0.13836743720471859,1.0631602694049478
1726407031457808100,8.28080810546875,-0.7753133416116237,0.19223580551445482,1.1104971901193261
1726407031467805000,8.290804931640626,-0.6402399775162338,0.15331249288022517,1.1217857691138982
1726407031477801000,8.300801025390625,-0.5758613211080431,0.23915771568715571,1.2730965667828917
1726407031487798000,8.310798095703126,-0.5644578835621475,0.25315584590137,1.3921052235230802
1726407031497794800,8.320794921875,-0.7059270861744881,0.1979056678444147,1.3766536796301603
1726407031507791000,8.330791015625,-0.7632827120780944,0.06839315274655819,1.2903130745217204
1726407031517788000,8.340787841796875,-0.6679223496899008,-0.15634499244391917,1.1139750953629612
1726407031527784000,8.350783935546875,-0.5436237698480486,-0.3416273255586624,0.8853186076849698
1726407031537781000,8.360781005859375,-0.235042973844707,-0.3703092301636934,0.604379267323017
1726407031547777800,8.37077783203125,-0.006809387753903866,-0.3286813347458839,0.3864335587516427
1726407031557774000,8.380774169921875,0.04281622841954231,-0.31012977901101113,0.20705138959139585
1726407031567771000,8.39077099609375,0.03140051591396332,-0.23202421054542063,0.14884236172884702
1726407031577767000,8.400766845703124,-0.19112609070688485,-0.20131109237372874,0.2544756963282823
1726407031587764000,8.410763916015625,-0.4477744548991322,-0.21475684940218925,0.13861352092027662
1726407031597761000,8.420760986328125,-0.5784416929900645,-0.22778934945464133,0.02428951486498117
1726407031607756800,8.4307568359375,-0.6384463720977306,-0.1889823566764593,-0.08008300601840018
1726407031617753900,8.44075390625,-0.47870793782323595,-0.044560441738367075,-0.2254521386787295
1726407031627750000,8.45075,-0.3786439277887344,-0.03380465444624424,-0.2943678539946675
1726407031637747000,8.460746826171874,-0.43025721064805983,-0.14209844042658806,-0.34297026460021734
1726407031647744000,8.470743896484375,-0.5538964497983455,-0.32421617203056813,-0.34640608426779507
1726407031657739800,8.48073974609375,-0.580503593955934,-0.5400467881441116,-0.4046408310934901
1726407031667737000,8.490737060546875,-0.5005567815378308,-0.6492074200868606,-0.42962534248530865
1726407031677732900,8.50073291015625,-0.353785965386033,-0.6708060884326696,-0.3982677889302373
1726407031687730000,8.51072998046875,-0.1295090079665184,-0.6767191118687391,-0.31613837177604437
1726407031697727000,8.52072705078125,0.09923048181980848,-0.5705734438329935,-0.2333282788813114
1726407031707723000,8.530722900390625,0.30034020640254017,-0.4046966529339552,-0.204018597766757
1726407031717720000,8.540719970703124,0.39884354299157854,-0.16634674649834633,-0.05537643478512764
1726407031727716000,8.550716064453125,0.5174819051146506,0.09040273998081684,0.1155009408801794
1726407031737713000,8.560712890625,0.5162368734896182,0.4345002550452947,0.2823050757572055
1726407031747710000,8.5707099609375,0.40483781497031446,0.6362947470217942,0.33765520705729724
1726407031757706000,8.5807060546875,0.2766492419525981,0.6347083546131849,0.40313218009620905
1726407031767703000,8.590703125,0.18811609523594378,0.5136164618581534,0.44050475615710016
1726407031777699000,8.600698974609376,0.18345014925152062,0.2375198853522539,0.3851043559744954
1726407031787695900,8.61069580078125,0.22259061176776884,-0.0511082559466362,0.33199615838229657
1726407031797693000,8.62069287109375,0.5217661583051085,-0.19220541037619113,0.36839404419213534
1726407031807689000,8.63068896484375,0.6731251790300011,-0.20638298881053924,0.41938539576083417
1726407031817685800,8.640685791015626,0.7153072011992335,-0.2094651727348566,0.29976065294891596
1726407031827682000,8.65068212890625,0.7017714277997612,-0.21523498830795287,0.23507629159241913
1726407031837678800,8.660678955078126,0.6821478589192033,-0.12703121967613695,0.30002661040872336
1726407031847676200,8.67067626953125,0.6272837575703859,-0.025343700093030927,0.3521531034871936
1726407031857672000,8.680671875,0.4921113170146942,-0.08147475263774394,0.30476562162935733
1726407031867669000,8.6906689453125,0.4581713457509875,-0.21352350821495056,0.1870966890603304
1726407031877665000,8.7006650390625,0.35781712059825654,-0.32936756344437595,0.059949149528145784
1726407031887661800,8.710661865234375,0.28977234289795156,-0.4133405626386404,-0.04725187277942896
1726407031897659100,8.7206591796875,0.42447132072299715,-0.5310936663597822,-0.100771866042912
1726407031907655000,8.730655029296875,0.5209460740938783,-0.49637131254673,-0.07299334001839161
1726407031917652000,8.74065185546875,0.571180469815433,-0.4576479063987732,-0.07749328178614377
1726407031927648000,8.75064794921875,0.5489125239059329,-0.4299199415177107,-0.08250088081508875
1726407031937645000,8.76064501953125,0.5580816265285015,-0.3509504496991634,-0.112525139939785
1726407031947642000,8.77064208984375,0.6073068452075123,-0.28558804295063017,-0.06921119113117456
1726407031957638100,8.78063818359375,0.5905488948911428,-0.2850812624722719,-0.18750702342689035
1726407031967635200,8.79063525390625,0.6580450987979769,-0.31843466601967807,-0.22635697856396436
1726407031977631000,8.800630859375,0.5915969426393508,-0.2785924849748611,-0.11339929242581129
1726407031987628000,8.8106279296875,0.557558479437232,-0.21708207747936248,0.021241817732155322
1726407031997625000,8.820625,0.45347617367208004,-0.20754092667400836,-0.047022155676782126
1726407032007621000,8.83062109375,0.35633594212979075,-0.10921616152226925,-0.060165714888274664
1726407032017618200,8.8406181640625,0.3280634951084852,0.07973989166915416,0.13818886576741932
1726407032027614200,8.8506142578125,0.20396569853574037,0.21458616901040076,0.14790712670534847
1726407032037611000,8.860611083984375,0.10866524964123964,0.1223024375885725,0.11376695669442415
1726407032047608000,8.870608154296875,0.029536183346807954,0.20675766734182832,0.14572013805508613
1726407032057604000,8.88060400390625,-0.0764133775949478,0.3581581891208887,0.09592296470701694
1726407032067601000,8.890600830078125,-0.06339724415540694,0.42334640834629533,-0.08566840493530034
1726407032077597200,8.90059716796875,0.010501228009164332,0.5239133994668722,-0.10734715277999639
1726407032087594000,8.910593994140624,0.024403496633470058,0.4633697911769151,-0.17869009524285792
1726407032097591000,8.920591064453125,-0.028010288953781125,0.39929508615136144,-0.2569312727868557
1726407032107587000,8.930587158203124,-0.08133125251382589,0.3303337781280279,-0.2983466944977641
1726407032117584000,8.940583984375,-0.1015954573854804,0.4044938238382339,-0.3515525072455406
1726407032127580200,8.950580078125,-0.07703530888557433,0.3918780878931284,-0.39378976673334837
1726407032137577000,8.960576904296875,-0.1154118012920022,0.21796762814223766,-0.49708267568647857
1726407032147574300,8.97057421875,-0.1741106584981084,0.23846564176976678,-0.40558161907494067
1726407032157570000,8.980570068359375,-0.26698651059418915,0.19429449160993098,-0.38533378081619735
1726407032167567000,8.990567138671874,-0.33275866718739266,0.0688631083458662,-0.3937561567246914
1726407032177563100,9.000563232421875,-0.2775871073246002,0.1965542532354593,-0.3361260977938771
1726407032187560200,9.010560302734374,-0.2718038477480411,0.3978945717036724,-0.2550239778608084
1726407032197556000,9.020555908203125,-0.2375523263171315,0.3466583054631948,-0.27586130644530055
1726407032207553000,9.030552978515624,-0.3474351350545883,0.2300087790697813,-0.16163140841424464
1726407032217550000,9.040550048828125,-0.37525574665516614,0.17272914101183415,-0.15732582017481325
1726407032227545900,9.0505458984375,-0.35301585779637096,0.019236615389585494,-0.2698147197574377
1726407032237543200,9.060543212890625,-0.2098413125708699,-0.10061024574041366,-0.3140399381920695
1726407032247539000,9.0705390625,0.055638008330762385,-0.14834581038355826,-0.38081250399947164
1726407032257536300,9.080536376953125,0.16495763022750615,-0.14663900646567343,-0.5345248098522425
1726407032267533000,9.090532958984374,0.2532204355701804,-0.10308861855268478,-0.6506628795921802
1726407032277529000,9.100529052734375,0.2053612445473671,-0.1690016449213028,-0.7196940379813314
1726407032287526100,9.110526123046874,0.18675211340636014,-0.326014161363244,-0.8182064346596598
1726407032297522200,9.120522216796875,0.10036328524202108,-0.47650575160384173,-0.787129451611638
1726407032307519000,9.13051904296875,0.010234978288412093,-0.3690080844372511,-0.6650579001694917
1726407032317516000,9.14051611328125,-0.1790808481261134,-0.21248013664186,-0.607973200161755
1726407032327512000,9.150511962890626,-0.13258446988910436,-0.040621348723769185,-0.5307894227162003
1726407032337509000,9.160509033203125,-0.18375994585305452,0.1570271294891834,-0.4876327102959156
1726407032347505200,9.170505126953126,-0.29034049817472696,0.1038590184032917,-0.47056437885612246
1726407032357502000,9.180501953125,-0.43630145924836394,0.029743980878591536,-0.3205158562079072
1726407032367499000,9.1904990234375,-0.3693123280808329,0.05823825395703315,-0.1253188628003001
1726407032377495000,9.2004951171875,-0.170866269749403,0.09797872819304465,-0.04260638506114483
1726407032387492000,9.2104921875,-0.04653846381306648,0.11138999843001365,0.07364362062066793
1726407032397488000,9.220488037109375,-0.10960925249308347,0.10047522118389605,0.1902238811701536
1726407032407485000,9.23048486328125,0.0770019911378622,0.15548282265663146,0.3921002062112093
1726407032417482200,9.240482177734375,0.22963322375565767,0.21056933458447455,0.548151476405561
1726407032427478000,9.25047802734375,0.5076218976184725,0.19700959578752517,0.6546446427047252
1726407032437475000,9.26047509765625,0.747723908418417,0.032466683840751645,0.6702355950683355
1726407032447471000,9.27047119140625,1.0041586298599838,-0.12619593789577482,0.6531225477039814
1726407032457468200,9.28046826171875,1.2336384166195988,-0.22783143503069878,0.5571870157763361
1726407032467465200,9.29046533203125,1.2177306533917784,-0.24824878463745115,0.3661687693580985
1726407032477461000,9.3004609375,1.0811863399609922,-0.2759995458722114,0.15909867506623268
1726407032487458000,9.3104580078125,1.0013687068805097,-0.3642097442448139,0.05568477008193731
1726407032497454000,9.3204541015625,0.8013783417165279,-0.4025169708073139,0.046797407010197634
1726407032507451100,9.330451171875,0.47993660283535716,-0.5555266813486814,0.04397562758773565
1726407032517448200,9.3404482421875,0.1952957776069641,-0.7064227607369422,-0.08152882091253995
1726407032527444200,9.3504443359375,0.03448533018678426,-0.8098486484199762,-0.15265870514661073
1726407032537441000,9.36044091796875,-0.0978136007592082,-0.682224723547697,-0.1839285804182291
1726407032547437300,9.370437255859375,-0.11311170765608548,-0.45387189499139785,-0.16405863556116818
1726407032557434000,9.38043408203125,-0.2365638998016715,-0.15835340965688227,-0.15169336724579333
1726407032567431000,9.390430908203125,-0.5083665785059333,0.11326865178346633,-0.06843699188828468
1726407032577427200,9.40042724609375,-0.7713806783378124,0.27395605734586714,0.046316930016875264
1726407032587424000,9.410424072265625,-1.102173598410189,0.3233154237985611,0.24803923353999852
1726407032597420000,9.420419921875,-1.3059636481180785,0.10970482182204723,0.18424831389188764
1726407032607417000,9.4304169921875,-1.526388021762669,-0.29112697237730023,0.13639642939269542
1726407032617413000,9.4404130859375,-1.552031873846054,-0.3658306234449148,0.02199351288229227
1726407032627410200,9.45041015625,-1.3523647492870687,-0.24164310276210307,-0.07536796019524336
1726407032637407000,9.460406982421874,-1.1420444210276006,-0.07430851427018642,-0.04252659782320261
1726407032647403000,9.470403076171875,-1.087206915424764,0.042460839110612866,-0.00632686493396759
1726407032657400000,9.480400146484374,-1.1918474395945668,0.12935937036275863,0.03701426414251327
1726407032667396000,9.49039599609375,-1.460450445474684,0.04869301149845123,0.19072393964678047
1726407032677393000,9.500392822265624,-1.6147198006883263,0.12558102086782455,0.3194263074055314
1726407032687390200,9.51039013671875,-1.6872309101477265,0.07070259873270988,0.5067424844354391
1726407032697386000,9.520385986328124,-1.5564882687330246,0.10846095924079417,0.5822291025742888
1726407032707383000,9.530383056640625,-1.340861358498037,0.17296879498660564,0.5300511715695262
1726407032717379000,9.540379150390624,-1.0270701343700288,0.2053612445473671,0.3854804958105087
1726407032727376000,9.5503759765625,-0.7811153058886527,0.2715045725405216,0.2599018130302429
1726407032737373200,9.560373291015624,-0.4922796593189239,0.4601163423389196,0.09711948101520537
1726407032747369000,9.570368896484375,-0.4436652660146355,0.6116524731963873,-0.06374649598449468
1726407032757366300,9.5803662109375,-0.2436205403149128,0.6810545107245445,-0.2097398980230093
1726407032767362000,9.590362060546875,-0.047968204355239866,0.5898743566304445,-0.3125666507691145
1726407032777359000,9.600359130859376,0.2456093760445714,0.4416793528944254,-0.3798693779304623
1726407032787356200,9.610356201171875,0.4661299035400152,0.22239947310984134,-0.3555059210464358
1726407032797352200,9.620352294921876,0.6976049557700753,0.02314239065647125,-0.2751569575682282
1726407032807349000,9.630348876953125,0.9298851869031787,-0.05729600467085838,-0.10675386306196451
1726407032817345000,9.640344970703126,0.7940607121795416,-0.2250029336065054,0.07690086885094642
1726407032827342000,9.650342041015625,0.6398617918536067,-0.2128285116881132,0.2212859589099884
1726407032837339100,9.660339111328126,0.4536173357084393,-0.16350830820202827,0.356798006683588
1726407032847335200,9.670335205078125,0.30322189931869503,-0.16103051991164682,0.3317562121465802
1726407032857332000,9.68033203125,0.06734072108417749,-0.0738344670176506,0.2213885425016284
1726407032867328300,9.690328369140625,0.050880876931548115,-0.039344168394804,0.18948183063119647
1726407032877325000,9.700324951171876,0.07393675834834575,-0.10470306801199912,0.06715104373097419
1726407032887321000,9.710321044921875,-0.15935235756635666,-0.08795008613169193,0.07418518015146255
1726407032897318100,9.720318115234376,-0.06759644941091537,-0.11639759745895861,0.042461423632502555
1726407032907315000,9.73031494140625,0.02127425869703293,-0.09662439097464084,0.06802431943416595
1726407032917311200,9.740311279296876,0.06277268251627684,0.005917699611186981,0.021812603357434273
1726407032927308000,9.75030810546875,0.17887158928960561,0.04697568618655205,0.06693214028328656
1726407032937304000,9.760303955078125,0.13548632881045342,0.12259586757719516,0.14040537277311085
1726407032947301400,9.77030126953125,0.22007629085928201,0.18054010702371595,0.18902035059928893
1726407032957298400,9.78029833984375,0.3705439157024026,0.1612672512769699,0.22049597757607697
1726407032967294500,9.79029443359375,0.6018178924024105,0.16255436847805976,0.10699965451657771
1726407032977291300,9.800291259765626,0.7296937462091445,0.08723696942627429,-0.09626491001248359
1726407032987287600,9.81028759765625,0.7722761658728122,0.1319265905022621,-0.24597090283334253
1726407032997284400,9.820284423828125,0.8052960996821522,0.049205637195706364,-0.3360334510743618
1726407033007281400,9.830281494140625,0.7487474062472581,-0.0013087445110082625,-0.3541170970365405
1726407033017277400,9.84027734375,0.733898504422605,-0.0561842440366745,-0.46359804697483775
1726407033027274500,9.8502744140625,0.6624573622822761,-0.04219605069458485,-0.5086217223107814
1726407033037270300,9.860270263671875,0.612091156874597,-0.01607669005393982,-0.40679888591021296
1726407033047267300,9.870267333984375,0.6832157804116606,0.16546178035736084,-0.34096564677953717
1726407033057264400,9.880264404296875,0.8244073351264,0.23630758695304394,-0.423238856318593
1726407033067260400,9.890260498046874,0.6713447253540158,0.2088759746700525,-0.5000386028826237
1726407033077257500,9.900257568359375,0.6656295625776052,0.277708687877655,-0.5524532652527093
1726407033087253200,9.910253173828124,0.6138157887101173,0.20319559094607828,-0.6517781473577022
1726407033097250600,9.92025048828125,0.4728437219649553,0.15387597198188305,-0.7348045133516192
1726407033107247400,9.930247314453124,0.5646858470991254,0.155489252397418,-0.7913572984397411
1726407033117243600,9.94024365234375,0.5551616474285721,0.07918634943962097,-0.9205094557926058
1726407033127240400,9.950240478515624,0.492536848950386,0.010106383472681045,-0.8718860023990272
1726407033137236500,9.960236572265625,0.17571575560718775,-0.03682780165970325,-0.755832688333094
1726407033147233500,9.970233642578124,0.14330635491162538,-0.002921440404653549,-0.7076146008700132
1726407033157229300,9.980229248046875,0.14898527733087538,-0.0031587562918663024,-0.7716200400516391
1726407033167226400,9.990226318359374,0.3159659378185868,0.11553016697466373,-0.621192454957962
1726407033177223400,10.000223388671875,0.3201297794997692,0.3245820827335119,-0.5370613425925373
1726407033187219500,10.010219482421874,0.44156303303837774,0.33281331998407837,-0.3663593234941363
1726407033197216500,10.020216552734375,0.21798604058176277,0.1725508618354797,-0.11140402695536612
1726407033207212500,10.030212646484374,0.0067900985315442084,0.10025076477825641,0.13685557133704424
1726407033217209300,10.040209228515625,-0.0855547154277563,0.0912497121989727,0.2023591401219368
1726407033227206400,10.050206298828124,-0.12312982832342385,0.13961539143919943,0.24361235700845718
1726407033237202400,10.060202392578125,-0.09837971020936966,0.09625321957468987,0.15147417153716086
1726407033247199200,10.07019921875,-0.09159370333105325,0.013799977293610571,0.1597828579381108
1726407033257195500,10.080195556640625,0.07700754409581423,-0.08887187715172767,0.15415975735932588
1726407033267192300,10.0901923828125,0.06413520304113626,-0.1281190149128437,0.17865093227624892
1726407033277189400,10.100189453125,0.07238806760162114,-0.10621405709683894,0.31561259433627126
1726407033287185400,10.110185302734376,-0.014295359595119952,-0.054207975527644156,0.3912956118300557
1726407033297182200,10.12018212890625,0.181265498688817,-0.00793897630572319,0.4209881547823548
1726407033307178500,10.130178466796876,0.041783670501410956,-0.009824059399962424,0.5702408508777618
1726407033317175300,10.14017529296875,-0.30585487817078827,-0.09444470884799956,0.41785862458497286
1726407033327172600,10.150172607421876,-0.5622659264758229,-0.1932400141209364,0.35475422589629885
1726407033337168400,10.16016845703125,-0.7165820434406399,-0.38049393956959243,0.4505597017034888
1726407033347165400,10.17016552734375,-0.8121899508491158,-0.37849721279442305,0.5301487867251038
1726407033357161500,10.180161376953125,-0.8431342474281788,-0.4158019843161106,0.5757523077756166
1726407033367158500,10.190158447265626,-0.7616659245312214,-0.47498657921254633,0.5604477711379527
1726407033377154300,10.200154296875,-0.7719348050892353,-0.5161456880748272,0.3687348204538226
1726407033387151400,10.2101513671875,-0.6875260448262095,-0.5784463691651821,0.14360504559725523
1726407033397148400,10.2201484375,-0.4066381423905492,-0.6151636961877346,-0.0325602073431015
1726407033407144200,10.230144287109376,-0.33795798939615485,-0.6580266863584519,-0.16789719081073998
1726407033417141500,10.2401416015625,-0.2856222374811768,-0.6426484999626875,-0.37287937291264533
1726407033427137300,10.25013720703125,-0.199318749512732,-0.5615525175094604,-0.3620306466400623
1726407033437134600,10.260134521484375,-0.27384412140399217,-0.26741058122515676,-0.26134207496643064
1726407033447131400,10.27013134765625,-0.29685090298205613,0.03151800481379032,-0.19476269364356993
1726407033457127400,10.28012744140625,-0.43008740703910586,0.1532154622465372,-0.10831482876837253
1726407033467124500,10.29012451171875,-0.6082517248421907,0.3727408412247896,0.002299509114027023
1726407033477120500,10.30012060546875,-0.7516615401282906,0.5324035799145698,0.07230448097139597
1726407033487117300,10.310117431640625,-0.8608721486926079,0.7198609189808368,0.21841040347367524
1726407033497114400,10.3201142578125,-0.8764896968021988,0.8449930270373821,0.3734881524607539
1726407033507110400,10.3301103515625,-0.7782862199425696,0.8140607131570577,0.46053924392610784
1726407033517107500,10.340107421875,-0.6581093962058424,0.6807184106379747,0.5550450353115797
1726407033527103500,10.350103515625,-0.6055611705839633,0.4601122506856918,0.6520818064793944
1726407033537100300,10.360100341796874,-0.7439432208359241,0.16674071425199508,0.5335778843909502
1726407033547097300,10.370097412109375,-0.5873053829252719,-0.08169687095582484,0.37814445383399725
1726407033557093400,10.38009326171875,-0.283454830314219,-0.20685762058496474,0.3228632961168885
1726407033567090400,10.39009033203125,-0.05892185230702161,-0.2890022353082895,0.22192513359636068
1726407033577086500,10.40008642578125,0.05064794495850801,-0.43435938526988027,0.09337035761475562
1726407033587083300,10.410083251953125,0.2899824785172939,-0.5817524249732494,0.09701339029222726
1726407033597080600,10.42008056640625,0.34845483349114653,-0.7114122395873069,0.13370412156879902
1726407033607076400,10.430076416015625,0.3072819883644581,-0.7280038934260606,0.18833061476945875
1726407033617073400,10.440073486328124,0.14732143577188253,-0.7120809326291084,0.26962942631840703
1726407033627069400,10.4500693359375,-0.06982026294022799,-0.7164666003674268,0.2954071339145303
1726407033637066200,10.460066162109374,-0.03087444621324539,-0.6927408568650484,0.3910094883650541
1726407033647062300,10.470062255859375,-0.01603665030449629,-0.76054948772192,0.4319397569075227
1726407033657059300,10.480059326171874,0.030731822872161862,-0.8440805883675813,0.5168631886944175
1726407033667056400,10.490056396484375,-0.022922610425949095,-0.9259311885803937,0.5678682765275239
1726407033677052400,10.500052490234374,-0.03421791142225265,-0.9142845899283886,0.7158990296125411
1726407033687049500,10.510049560546875,0.042785541020333766,-0.8205255252569913,0.931115313220024
1726407033697045200,10.520045166015626,0.15561580138653516,-0.7557277666538953,1.0445037919908762
1726407033707042600,10.53004248046875,0.03838526023477316,-0.6274123523861169,1.04872082516402
1726407033717039400,10.540039306640624,0.007331950323283672,-0.4536018458783626,1.2586258506208658
1726407033727035600,10.55003564453125,0.20276684413999319,-0.17139117040634155,1.4030381209477782
1726407033737032400,10.560032470703124,0.26925065613389015,0.032660745108127595,1.3070406296998263
1726407033747028200,10.5700283203125,0.048337622189521784,0.07841068889200686,1.1067965820357202
1726407033757025500,10.580025634765626,-0.00516132828593254,0.07287059042155743,0.8767907255753874
1726407033767022300,10.590022216796875,0.07193827800750732,-0.03564239126741886,0.7073512737587094
1726407033777018400,10.600018310546876,0.2112333514511585,-0.10206512072384356,0.5559533823281526
1726407033787015400,10.610015380859375,0.337610783393681,-0.10213935500383377,0.35261341447532174
1726407033797011500,10.620011474609376,0.4374021139666438,0.046539048334956166,0.15357640451341867
1726407033807008500,10.630008544921875,0.6952139689803123,0.2424514965355396,-0.09847557179927825
1726407033817004500,10.640004638671876,0.7625102664008736,0.38284254852235317,-0.38000381796509025
1726407033827001300,10.65000146484375,0.7823015930637717,0.5319365469247103,-0.6882078896105289
1726407033836998400,10.659998291015626,0.6523945256903767,0.565443679729104,-0.8734200800985097
1726407033846994400,10.669994384765625,0.48005526077896354,0.5346382070988417,-0.9088090811267494
1726407033856991200,10.6799912109375,0.34114100334644315,0.5088339037567376,-0.9068757749766111
1726407033866987500,10.689987548828125,0.08318009525090456,0.45979193269014357,-0.8853630313485861
1726407033876984300,10.699984375,-0.16865765378922223,0.5554857648164033,-0.7568468338117003
1726407033886981400,10.7099814453125,-0.16473551190942526,0.6651689593285322,-0.721203565761447
1726407033896977400,10.719977294921875,-0.08466448858976364,0.6624328123629093,-0.6794868230164051
1726407033906974200,10.72997412109375,-0.13394114519506692,0.4617401441484689,-0.5635097890570759
1726407033916970500,10.739970458984375,-0.21587445525527,0.25331951203048225,-0.4650894545763731
1726407033926967300,10.74996728515625,-0.3353855085596442,0.1659206300407648,-0.379707757627964
1726407033936964600,10.759964599609376,-0.299037014849484,-0.012684709528088568,-0.45049803464412685
1726407033946959600,10.769959716796874,-0.026027882964909075,-0.151360189768672,-0.5580234666004776
1726407033956956700,10.779956787109375,0.2147849064528942,-0.18056757955253122,-0.49645782178640363
1726407033966952400,10.789952392578124,0.29660540378838773,-0.29314065028727054,-0.45509939095973967
1726407033976949800,10.79994970703125,0.5210390130743384,-0.3549509175121784,-0.32720249436497684
1726407033986945500,10.809945556640624,0.6525859566092491,-0.24988719949424265,-0.07029723280221223
1726407033996942800,10.81994287109375,0.6800678377747535,-0.10117723197340965,0.05740764835178852
1726407034006939600,10.829939697265624,0.498038661237061,-0.00013502455651760102,0.10213000265359878
1726407034016935700,10.839935791015625,0.2536693483814597,-0.008280921611189842,0.3490855326101184
1726407034026932700,10.8499326171875,0.06941431248784065,-0.09425766184329987,0.4640390687406063
1726407034036928800,10.8599287109375,0.0687044106528163,-0.29907763912081714,0.3936369142591953
1726407034046925600,10.869925537109374,0.03293751622289419,-0.34282734899818895,0.44743630898594855
1726407034056922600,10.879922607421875,0.12985036875009537,-0.4310480687648058,0.4056026618629694
1726407034066918700,10.889918701171876,0.2851893990218639,-0.34332360808253287,0.4358554690465331
1726407034076915700,10.899915771484375,0.3840723825782537,-0.23625381093919276,0.4471355724737048
1726407034086911700,10.909911865234376,0.5026131295457482,-0.13404723591804504,0.40838498605787754
1726407034096908500,10.919908447265625,0.46666211072057484,-0.04203355360925198,0.27340046928972006
1726407034106905600,10.929905517578124,0.30720629277974365,-0.07163432662487029,0.24286826064288614
1726407034116901600,10.939901611328125,-0.12994798390567303,-0.12771511028707028,0.15046557901650667
1726407034126898700,10.949898681640626,-0.1521589389309287,-0.1953951463282108,-0.04139233309626579
1726407034136894700,10.959894775390625,-0.02941840218603611,-0.21533669511675835,-0.13337825061529873
1726407034146891500,10.9698916015625,0.10765110416263342,-0.2520329793512821,-0.3338064226746559
1726407034156887800,10.9798876953125,0.05096563260555267,-0.3082861969709396,-0.50624651761204
1726407034166884600,10.989884521484376,-0.02544569916278124,-0.2628472188323736,-0.5715802827879786
1726407034176881700,10.999881591796875,-0.09556289922297,-0.08561959735751151,-0.39494478198736904
1726407034186877700,11.009877685546876,-0.2464148472085595,0.19635843840241432,-0.3038008682504296
1726407034196874500,11.01987451171875,-0.6712777975976467,0.5105810396850109,-0.3384995489269495
1726407034206870500,11.02987060546875,-0.9492065579667687,0.6007908874422312,-0.24556378333717582
1726407034216867600,11.03986767578125,-0.8581558754712343,0.7448615047246218,-0.15078677379488944
1726407034226864600,11.04986474609375,-0.7489163330733776,0.7200374445915222,-0.12867811010032892
1726407034236860700,11.059860595703125,-0.542103136152029,0.6345932038009167,-0.05789601639062166
1726407034246857700,11.069857666015626,-0.4507014482617378,0.6708657096654176,-0.06426993533670902
1726407034256853500,11.079853515625,-0.48692660785317415,0.6878823109179735,-0.15747954943180084
1726407034266850800,11.089850830078126,-0.4135404691249132,0.5479623835742473,-0.2452376201227307
1726407034276847600,11.09984765625,-0.25445231545269487,0.399693145558238,-0.41144758849889035
1726407034286844000,11.109843994140626,0.020082710824906824,0.2761369085162878,-0.5074763516679406
1726407034296840700,11.1198408203125,-0.1776172053143382,0.0730722504734993,-0.5264435024663806
1726407034306836500,11.12983642578125,-0.33705344177186486,-0.10660685580670833,-0.6529726178392767
1726407034316833800,11.139833740234375,-0.4925640292182564,-0.16877601947188375,-0.7323921915128827
1726407034326829600,11.14982958984375,-0.3286053469002247,-0.022448563173413275,-0.6542445374712348
1726407034336826600,11.15982666015625,-0.5826531732052564,-0.005800795233249664,-0.521340041847527
1726407034346823700,11.16982373046875,-0.6479694027245044,0.11313187366127968,-0.36385727754533287
1726407034356819700,11.17981982421875,-0.6388865170806646,0.22429098594486713,-0.1006651907980442
1726407034366816800,11.189816650390625,-0.8055021436482668,0.0008399579554796219,-0.01352116035223007
1726407034376812800,11.199812744140624,-0.8758750720351934,-0.19074585921764373,0.07500467984080314
1726407034386809600,11.2098095703125,-0.8277540152058005,-0.28536183297932144,0.09517506894916296
1726407034396806700,11.219806640625,-1.0172048661768436,-0.3463853337407112,0.18663053285330533
1726407034406802700,11.229802734375,-0.9252037510886788,-0.411832496163249,0.24244623583853242
1726407034416799500,11.239799560546874,-0.6143716690272093,-0.45622751820683477,0.2881549708291888
1726407034426795800,11.249795654296875,-0.561100097566843,-0.40800037065446376,0.22158961803168056
1726407034436792600,11.25979248046875,-0.6295233531907201,-0.43570320109426974,0.20772797367870807
1726407034446789600,11.26978955078125,-0.5693889102235437,-0.3039952217787504,0.2383852700099349
1726407034456785700,11.27978564453125,-0.3425575921460986,-0.24491700986623763,0.31499212435036894
1726407034466782500,11.289782470703125,-0.36496699235290286,-0.36842122446000575,0.42739597599804396
1726407034476778800,11.29977880859375,-0.43575346997678277,-0.4546124842256307,0.4800055764183402
1726407034486775600,11.309775634765625,-0.6560308363661169,-0.47384091630876063,0.5430351563051342
1726407034496771600,11.319771484375,-0.7133455457374454,-0.32052842342853544,0.6606272242456674
1726407034506768600,11.3297685546875,-0.5375315904527902,0.03538052546083927,0.8019213625520467
1726407034516765700,11.339765625,-0.3298413184359669,0.2724672800928354,0.8422636020734906
1726407034526761700,11.34976171875,-0.46031244943290944,0.4040589395523071,0.7227446577236056
1726407034536758800,11.3597587890625,-0.7300050041154027,0.37466450276374813,0.5753010568767786
1726407034546754600,11.369754638671875,-0.8535136026233434,0.08935235414505005,0.4149310467004776
1726407034556751600,11.379751708984376,-0.8760182798981666,0.22128888151943682,0.4207672055080533
1726407034566748700,11.389748779296875,-0.6774708070188761,0.2907593081086874,0.46630029167085885
1726407034576744400,11.399744384765626,-0.36867724504768845,0.2225228072285652,0.3528574523642659
1726407034586741800,11.40974169921875,-0.25116788695454595,0.3031751375675201,0.262829683175683
1726407034596737500,11.419737548828126,-0.3443593808710575,0.3364882091045379,0.11857581828087567
1726407034606734800,11.42973486328125,-0.4815437457710504,0.19880933868587017,0.00995060838907957
1726407034616731600,11.439731689453126,-0.6289578282624483,-0.04587912312150001,-0.0413701212644577
1726407034626727700,11.449727783203125,-0.5019453132867813,-0.13950316323637962,-0.06493629029095173
1726407034636724700,11.459724853515626,-0.5705915640115737,-0.2880406967997551,-0.22561375898122787
1726407034646720800,11.469720703125,-0.7112289919748902,-0.5089519771784544,-0.3093073567122221
1726407034656717800,11.4797177734375,-0.3351671896338463,-0.6558616172790527,-0.2615165547505021
1726407034666713600,11.489713623046875,0.08141630044877529,-0.5736071124404668,-0.1709729449942708
1726407034676710700,11.499710693359376,0.4912491472274065,-0.2751262701690197,-0.14981003771722315
1726407034686707700,11.509707763671875,0.7744096707701683,0.06697510264217853,-0.31207448333799837
1726407034696703700,11.519703857421876,0.9022288259536028,0.3224561766207218,-0.4051666085332632
1726407034706700500,11.529700439453125,0.7913736650526523,0.43240766668021674,-0.3880120601147413
1726407034716696800,11.53969677734375,0.6788456025034189,0.3082663232266903,-0.40625820316225286
1726407034726693600,11.549693603515625,0.6442816541224717,0.12236264334321022,-0.25212182667851446
1726407034736690700,11.559690673828126,0.32344343409240245,0.040842297998070716,0.047185237284004686
1726407034746686700,11.569686767578125,0.025150807869434355,-0.1696247452557087,0.27588205697238444
1726407034756683500,11.57968359375,-0.18069266723692415,-0.3307634017169475,0.3456245785012841
1726407034766679800,11.5896796875,-0.22089199115633965,-0.31555238858163354,0.4326689479649067
1726407034776676600,11.599676513671875,-0.18054010702371595,-0.21142624367475507,0.3055789838388562
1726407034786672600,11.609672607421874,-0.2532233581796288,-0.1223848551750183,0.19303864632993936
1726407034796669700,11.619669677734375,-0.08452098846584558,-0.017239304092526435,-0.026318098083138463
1726407034806666500,11.62966650390625,0.01109130285680294,0.23730828842818735,-0.20915625291615722
1726407034816662500,11.63966259765625,0.04252396747469902,0.28001111960113045,-0.4109589281991124
1726407034826659600,11.64965966796875,0.07646949169635772,0.2904582793354988,-0.36986528578847644
1726407034836655600,11.659655517578125,0.2989358925625682,0.4942629420906305,-0.22477760041803121
1726407034846652700,11.669652587890624,0.27966800525188446,0.6633125178068876,-0.32908202450126406
1726407034856649700,11.679649658203125,-0.003441664886474609,0.6425818644672632,-0.6067515494123101
1726407034866645500,11.6896455078125,-0.02647650351524353,0.6614969928175211,-0.723385585975647
1726407034876642800,11.699642822265625,0.0014133739292621612,0.6448784509718418,-0.828105605122447
1726407034886638600,11.709638671875,-0.21031477530151604,0.4604343222469091,-0.9181272368311881
1726407034896635600,11.7196357421875,-0.36858021441400046,0.2282826859295368,-0.9019520548388361
1726407034906631700,11.729631591796876,-0.32115444637238977,0.20834172166287898,-0.7930518273979424
1726407034916628500,11.73962841796875,-0.15311697030812502,0.2181266180962324,-0.7206406711816787
1726407034926625800,11.749625732421874,-0.05118921222835779,0.16122925735414026,-0.9319257528200745
1726407034936621600,11.75962158203125,-0.11229425379335879,0.1171656592220068,-0.9521861582994461
1726407034946619400,11.769619384765624,-0.1379746384948492,0.19799977586865425,-0.7752464138552546
1726407034956615200,11.779615234375,-0.008151742273569107,0.1847603550672531,-0.7967559426128864
1726407034966612200,11.7896123046875,-0.16691285594850777,0.09935235463380813,-0.6777008163824677
1726407034976609300,11.799609375,-0.24959493854939935,0.1972732151597738,-0.4077975415587425
1726407034986605000,11.80960498046875,-0.11067162102758883,0.20644494813084602,-0.26996435736119745
1726407034996602400,11.819602294921875,-0.22226912472844124,0.1834142011553049,-0.18131430626660586
1726407035006598100,11.82959814453125,-0.26085925988554953,0.28199089524149895,-0.14149784418493508
1726407035016595500,11.839595458984375,-0.48207916782200333,0.4249515054553747,-0.2008174636378884
1726407035026591200,11.84959130859375,-0.45691608499288555,0.48466275457441804,-0.21652415133565664
1726407035036588300,11.85958837890625,-0.19372867442071437,0.35623569662570953,-0.20532178931981324
1726407035046585300,11.86958544921875,-0.07794687077254056,0.21596096449494362,-0.0012833178088068962
1726407035056581400,11.879581298828125,-0.02500292383134365,0.08063830181360244,0.03663958561122417
1726407035066578400,11.889578369140626,0.23989713587760925,-0.2098445274412632,0.0030967969715595244
1726407035076574200,11.89957421875,0.4364353147611022,-0.27819559461176396,-0.04714490527361631
1726407035086571300,11.9095712890625,0.5530640906274319,-0.29265257450938226,-0.19987404530793426
1726407035096568300,11.919568359375,0.595919774274528,-0.25909575734436513,-0.20469401281028984
1726407035106564400,11.929564453125,0.2888376923963427,0.0009416647642850875,-0.2565235687687993
1726407035116561200,11.93956103515625,-0.1495186535552144,0.2554173610925674,-0.13014175291210411
1726407035126557400,11.949557373046876,-0.3011035919904709,0.3279512669056654,-0.013479659298062325
1726407035136554200,11.95955419921875,-0.3798591487973928,0.32205577912628647,-0.0034980712488293644
1726407035146551300,11.96955126953125,-0.6941922247171401,0.4038368212342262,-0.06653729574680328
1726407035156547300,11.97954736328125,-0.8931459403097629,0.4940560213416815,-0.029150691160559652
1726407035166544100,11.989544189453126,-0.9632979194223881,0.4760077389538288,0.052474283602833745
1726407035176540400,11.99954052734375,-0.8057008810907602,0.4981926827549934,0.18281155908703803
1726407035186537200,12.009537109375,-0.7447244343414903,0.4236217181563377,0.17165829690992832
1726407035196533200,12.019533203125,-0.7163298222452402,0.3789624922186136,0.17178163102865218
1726407035206530300,12.0295302734375,-0.6904238120943308,0.2800228100389242,0.3845432149603963
1726407035216527000,12.039527099609375,-0.7771534165203571,0.217704008769989,0.5517454092442989
1726407035226523400,12.0495234375,-0.6815390793710947,0.09555939209163189,0.7061164712667465
1726407035236520200,12.059520263671875,-0.435788541290164,0.08969897562563418,0.8344076278761029
1726407035246516200,12.06951611328125,-0.4431856658041477,-0.025428455767035483,0.7091440023943781
1726407035256513300,12.07951318359375,-0.3719610890239477,-0.04908522568643093,0.5798655883133411
1726407035266510300,12.08951025390625,-0.1251230479672551,-0.10281798491775988,0.49215223354697224
1726407035276506000,12.099506103515624,-0.055103463062644,-0.07242986091673374,0.5291892940431833
1726407035286503400,12.10950341796875,-0.04328384593129158,0.026660627910494804,0.7628989734575152
1726407035296499200,12.119499267578124,-0.0481669417977333,0.14397124856114388,0.8793944783329963
1726407035306496300,12.129496337890625,-0.1400397543311119,0.20991876172125337,0.9232926567703484
1726407035316492300,12.1394921875,-0.08465279815196991,0.1861632076025009,0.8700558643624186
1726407035326489000,12.149489013671875,-0.22473405353724954,0.11914251225292682,0.8296072418570518
1726407035336486400,12.159486328125,-0.49842239985764025,0.1016974564552307,0.7445002701967954
1726407035346482200,12.169482177734375,-0.45015375125110146,0.07225216626226902,0.5940712237983942
1726407035356479200,12.179479248046874,-0.2943219690263271,-0.029503157860040662,0.4934972184151411
1726407035366475300,12.189475341796875,-0.1891138741016388,-0.08375789513885974,0.40387832228839393
1726407035376472300,12.199472412109374,-0.329574484193325,-0.3425543772757053,0.04517623554915189
1726407035386469400,12.209469482421875,-0.44121407347023484,-0.6117869132310152,-0.2903340684339404
1726407035396465400,12.21946533203125,-0.6511801814645528,-0.8184533951580524,-0.4135825547009706
1726407035406462200,12.229462158203125,-0.6162941615223885,-1.0466834741175175,-0.45640082894712686
1726407035416458500,12.23945849609375,-0.5374249152079225,-1.3130506837695837,-0.6080126553893089
1726407035426455300,12.249455322265625,-0.5416904636979103,-1.5311246948957442,-0.6028086570054292
1726407035436451000,12.259451171875,-0.5135036491334438,-1.6724369533807038,-0.6887608473181724
1726407035446448400,12.269448486328125,-0.4165782293856144,-1.5632114395081995,-0.6051873688355088
1726407035456445200,12.279445068359376,-0.3509928275361657,-1.2337895155280827,-0.42571664460897446
1726407035466441500,12.28944140625,-0.3479293483123183,-0.8851502653807402,-0.29997137309014793
1726407035476438300,12.299438232421876,-0.30196693082153797,-0.42160336407124993,-0.08066402077674865
1726407035486434300,12.309434326171875,-0.4265764763087034,0.050663434788584705,0.18333558296114205
1726407035496431400,12.319431396484376,-0.678319532802701,0.36069150699079033,0.42014527421742676
1726407035506428200,12.32942822265625,-0.6996133729830384,0.6732575732380152,0.6040475511506199
1726407035516424200,12.339424072265626,-0.6863996711447835,0.8800374524116515,0.6885857830122113
1726407035526421200,12.349421142578125,-0.6548495176270603,1.1024176362991331,0.78812343108505
1726407035536417300,12.359417236328126,-0.6957765712991356,1.1646984436452388,0.8828101319953798
1726407035546414300,12.369414306640625,-0.6056447572141885,1.1035755741626023,0.8893506396800279
1726407035556410400,12.379410400390626,-0.5411474428623915,1.0143068066477774,0.9102692168071865
1726407035566407200,12.3894072265625,-0.4805114801138639,0.8684107275038957,1.0009595415577293
1726407035576404200,12.399404296875,-0.47789779048413034,0.6214198339730501,1.074502332152426
1726407035586400300,12.409400146484375,-0.3223597305089235,0.406990901350975,1.1625491566568613
1726407035596397300,12.419397216796876,-0.23808394897580146,0.0821563051611185,1.0559835096433758
