time,seconds_elapsed,z,y,x
1726407023200603600,0.023603759765625,-0.32346293330192566,-0.06939497590065002,0.4338952600955963
1726407023210601000,0.03360107421875,-0.4018022119998932,0.2687279284000397,0.4500393271446228
1726407023220596700,0.0435966796875,-0.42614760994911194,0.7662856578826904,0.5109596848487854
1726407023230593800,0.05359375,-0.37679871916770935,1.3246687650680542,0.6251152753829956
1726407023240589800,0.06358984375,-0.13061212003231049,1.7570229768753052,0.8481534719467163
1726407023250586600,0.073586669921875,0.28190383315086365,2.2509751319885254,1.1096769571304321
1726407023260584000,0.083583984375,0.40928152203559875,2.5632405281066895,1.3756970167160034
1726407023270579700,0.093579833984375,0.3074089586734772,2.460848808288574,1.577246904373169
1726407023280577000,0.103576904296875,0.010589435696601868,1.7690273523330688,1.5785707235336304
1726407023290573800,0.11357373046875,-0.3839360475540161,0.6807129979133606,1.457326054573059
1726407023300569900,0.12356982421875,-0.7177888751029968,0.044495150446891785,1.4781020879745483
1726407023310567000,0.13356689453125,-0.8705142140388489,0.0052835652604699135,1.5734137296676636
1726407023320563000,0.14356298828125,-0.9213700890541077,0.14735297858715057,1.5321910381317139
1726407023330559700,0.153559814453125,-0.9452418684959412,0.33924493193626404,1.3688219785690308
1726407023340556800,0.163556884765625,-0.95108562707901,0.4204893112182617,1.2257198095321655
1726407023350552800,0.173552734375,-0.8559823036193848,0.039799489080905914,1.1441650390625
1726407023360550000,0.1835498046875,-0.7944068908691406,-0.6206601858139038,1.087865948677063
1726407023370546000,0.1935458984375,-0.7595183849334717,-1.2669368982315063,1.0123462677001953
1726407023380542700,0.203542724609375,-0.7137844562530518,-1.7628719806671143,0.9708471298217773
1726407023390539800,0.213539794921875,-0.6967276930809021,-2.0210437774658203,0.9593833088874817
1726407023400535800,0.223535888671875,-0.7115144729614258,-2.0373263359069824,0.9231979846954346
1726407023410532600,0.23353271484375,-0.7542241215705872,-1.7539029121398926,0.9460516571998596
1726407023420529000,0.24352880859375,-0.7996776700019836,-1.3835954666137695,1.0024265050888062
1726407023430525700,0.253525634765625,-0.7327691912651062,-1.120648980140686,1.040834665298462
1726407023440523000,0.26352294921875,-0.5554501414299011,-0.8482393026351929,1.009258508682251
1726407023450518800,0.273518798828125,-0.3620849549770355,-0.6723511219024658,0.7406497001647949
1726407023460515800,0.283515869140625,-0.13269077241420746,-0.7343950271606445,0.4249767065048218
1726407023470511900,0.293511962890625,0.20919892191886902,-0.7111362814903259,0.31020858883857727
1726407023480509000,0.303509033203125,0.5305490493774414,-0.8500444293022156,0.2766645550727844
1726407023490506000,0.313506103515625,0.7941218614578247,-1.0029852390289307,0.1780700832605362
1726407023500501800,0.323501708984375,0.9139131307601929,-0.7733534574508667,-0.12057656049728394
1726407023510498800,0.333498779296875,0.96694415807724,-0.30036038160324097,-0.5217426419258118
1726407023520495900,0.343495849609375,1.0865979194641113,-0.04558439925312996,-0.8067523241043091
1726407023530492000,0.353491943359375,1.2156027555465698,-0.4673801064491272,-0.9179373979568481
1726407023540488700,0.36348876953125,1.4016883373260498,-1.8726780414581299,-0.8076600432395935
1726407023550485000,0.373485107421875,1.4915359020233154,-3.5948233604431152,-0.4132126271724701
1726407023560481800,0.383481689453125,1.4344366788864136,-4.376132965087891,-0.16171114146709442
1726407023570478800,0.393478759765625,1.5080301761627197,-4.7380475997924805,-0.03827495872974396
1726407023580475000,0.403474853515625,1.6182644367218018,-4.706089496612549,0.058682143688201904
1726407023590471700,0.4134716796875,1.9816635847091675,-4.726534843444824,0.26517006754875183
1726407023600468000,0.423468017578125,2.434054374694824,-4.834566116333008,0.7785888314247131
1726407023610464800,0.43346484375,2.4695024490356445,-5.041373252868652,1.4013924598693848
1726407023620461800,0.4434619140625,2.13090443611145,-5.197740077972412,1.970146894454956
1726407023630457900,0.453457763671875,1.3246835470199585,-5.252564907073975,2.0473270416259766
1726407023640454700,0.46345458984375,0.8989139795303345,-5.548984050750732,2.1181347370147705
1726407023650452000,0.473451904296875,1.3330392837524414,-6.623171806335449,2.725154161453247
1726407023660447700,0.48344775390625,1.7418664693832397,-7.708044052124023,3.4463157653808594
1726407023670444800,0.49344482421875,2.031505584716797,-8.093816757202148,4.103219985961914
1726407023680440800,0.50344091796875,2.6153082847595215,-7.511563301086426,4.6484832763671875
1726407023690438000,0.51343798828125,3.6200766563415527,-6.380922317504883,5.1029534339904785
1726407023700435000,0.52343505859375,4.566318511962891,-6.048272132873535,5.796125411987305
1726407023710431000,0.533430908203125,5.442144393920898,-6.118199348449707,6.294926643371582
1726407023720427800,0.543427734375,6.409985065460205,-6.3177900314331055,6.657103061676025
1726407023730424800,0.5534248046875,7.583571910858154,-5.727983474731445,6.847586631774902
1726407023740420900,0.5634208984375,8.647419929504395,-4.560664653778076,6.573475360870361
1726407023750417700,0.573417724609375,9.27077865600586,-3.7181921005249023,5.768108367919922
1726407023760414000,0.5834140625,9.566987037658691,-3.322584629058838,4.837915897369385
1726407023770410800,0.59341064453125,9.800835609436035,-3.3202743530273438,4.239323139190674
1726407023780407800,0.60340771484375,10.25947093963623,-3.351987361907959,4.1198506355285645
1726407023790403800,0.61340380859375,10.833418846130371,-3.2758007049560547,4.2548699378967285
1726407023800400600,0.623400634765625,11.223593711853027,-2.8179664611816406,4.414454460144043
1726407023810398000,0.63339794921875,11.164700508117676,-2.0888612270355225,4.428345203399658
1726407023820393700,0.643393798828125,10.914020538330078,-1.2208315134048462,4.584609508514404
1726407023830391000,0.65339111328125,10.72724723815918,-0.29784703254699707,4.894125461578369
1726407023840386800,0.66338671875,10.500503540039062,0.5629830360412598,5.024420738220215
1726407023850384000,0.6733837890625,9.984624862670898,1.223548412322998,4.967033386230469
1726407023860381000,0.683380859375,9.242423057556152,1.6174418926239014,4.840422630310059
1726407023870376700,0.693376708984375,8.38369369506836,1.736418604850769,4.636967658996582
1726407023880373800,0.703373779296875,7.332983016967773,1.7534801959991455,4.452690601348877
1726407023890369800,0.713369873046875,6.137340545654297,1.7781964540481567,4.285040855407715
1726407023900366800,0.723366943359375,4.973402500152588,1.723423957824707,4.101467609405518
1726407023910364000,0.733364013671875,3.834010124206543,1.5894373655319214,4.006596088409424
1726407023920360000,0.74335986328125,2.74550724029541,1.49965238571167,3.938633680343628
1726407023930356700,0.753356689453125,1.8119100332260132,1.6175681352615356,3.7119951248168945
1726407023940353500,0.763353515625,1.041030764579773,1.8375569581985474,3.4279091358184814
1726407023950349600,0.773349609375,0.21484658122062683,1.7753933668136597,2.8997573852539062
1726407023960346400,0.783346435546875,-0.5304211378097534,1.6059532165527344,2.2992429733276367
1726407023970343700,0.79334375,-1.1184027194976807,1.5487490892410278,1.3339601755142212
1726407023980339500,0.80333935546875,-1.5755029916763306,1.6512528657913208,0.4782463610172272
1726407023990336500,0.81333642578125,-1.9634530544281006,1.817291021347046,0.0859355702996254
1726407024000332500,0.82333251953125,-2.2949798107147217,1.7321261167526245,0.08992988616228104
1726407024010329600,0.83332958984375,-2.6148722171783447,1.3889544010162354,0.2282067984342575
1726407024020326700,0.84332666015625,-2.9747836589813232,1.049422025680542,0.36123085021972656
1726407024030322400,0.853322509765625,-3.3108015060424805,0.8518249988555908,0.42589932680130005
1726407024040319500,0.863319580078125,-3.619450569152832,0.6751073002815247,0.24136534333229065
1726407024050316500,0.873316650390625,-3.972057342529297,0.5162073969841003,-0.13867147266864777
1726407024060312600,0.8833125,-4.285116195678711,0.5647443532943726,-0.5772812962532043
1726407024070309600,0.8933095703125,-4.550522804260254,0.7099470496177673,-0.9866043925285339
1726407024080305700,0.9033056640625,-4.662417888641357,0.7824731469154358,-1.254621148109436
1726407024090302500,0.913302490234375,-4.693764686584473,0.8375915288925171,-1.4835944175720215
1726407024100299500,0.923299560546875,-4.675387382507324,0.47508472204208374,-1.722899079322815
1726407024110295600,0.933295654296875,-4.2157182693481445,0.39493316411972046,-1.968695044517517
1726407024120292400,0.943292236328125,-3.9086999893188477,0.47265878319740295,-2.145336151123047
1726407024130289700,0.95328955078125,-3.579638719558716,0.26205921173095703,-2.3569767475128174
1726407024140285400,0.963285400390625,-3.1479437351226807,-0.3905453085899353,-2.2897751331329346
1726407024150282500,0.973282470703125,-2.822117805480957,-1.2225788831710815,-2.0453646183013916
1726407024160279600,0.983279541015625,-2.808788776397705,-1.3318883180618286,-2.816351890563965
1726407024170275300,0.993275390625,-2.085603952407837,-2.0847716331481934,-3.142108678817749
1726407024180272600,1.003272705078125,-1.5958187580108643,-2.287888765335083,-3.2962868213653564
1726407024190268400,1.013268310546875,-1.140513300895691,-1.78557550907135,-3.3983116149902344
1726407024200265700,1.023265625,-0.6462531685829163,-1.0150295495986938,-3.174901008605957
1726407024210262500,1.033262451171875,-0.20240433514118195,-0.7737079858779907,-3.516345977783203
1726407024220258600,1.043258544921875,-0.019999125972390175,-0.9545983672142029,-3.895677089691162
1726407024230255600,1.053255615234375,-0.08593659847974777,-0.9820425510406494,-4.364921569824219
1726407024240252400,1.06325244140625,-0.2723326086997986,-1.2251478433609009,-5.226211071014404
1726407024250248400,1.07324853515625,-0.47462552785873413,-1.337278127670288,-6.200489521026611
1726407024260245500,1.08324560546875,-0.5780766010284424,-1.4991344213485718,-6.505486965179443
1726407024270241500,1.093241455078125,-0.2551203966140747,-1.2411377429962158,-6.564936637878418
1726407024280238600,1.103238525390625,0.4582374691963196,-0.3917634189128876,-7.084781646728516
1726407024290235400,1.1132353515625,1.1032756567001343,0.3923763930797577,-7.500429630279541
1726407024300231400,1.1232314453125,1.5475764274597168,0.8633170127868652,-7.724122524261475
1726407024310228500,1.133228515625,1.8291410207748413,1.0251929759979248,-7.696105003356934
1726407024320225500,1.1432255859375,1.9148396253585815,1.4123765230178833,-7.307517051696777
1726407024330221600,1.1532216796875,1.7460441589355469,2.173691511154175,-6.816499710083008
1726407024340218600,1.163218505859375,1.3661327362060547,3.081528663635254,-6.424335956573486
1726407024350214400,1.17321435546875,0.8614011406898499,3.57794189453125,-5.979930877685547
1726407024360211700,1.183211669921875,0.5522322058677673,3.9472837448120117,-4.990135669708252
1726407024370208500,1.19320849609375,0.18018598854541779,3.9981296062469482,-3.701897382736206
1726407024380204500,1.20320458984375,-0.09118085354566574,4.133439540863037,-2.534149646759033
1726407024390201600,1.21320166015625,-0.5257666110992432,3.869035482406616,-1.6819437742233276
1726407024400198400,1.223198486328125,-0.6259868741035461,3.003955602645874,-1.1935471296310425
1726407024410194700,1.233194580078125,0.43701598048210144,0.9965464472770691,-1.0197689533233643
1726407024420191500,1.24319140625,1.141679048538208,-0.926203191280365,-0.9033412337303162
1726407024430188500,1.2531884765625,1.941072940826416,-2.8135831356048584,-0.7658337354660034
1726407024440184600,1.2631845703125,3.1467812061309814,-4.546774864196777,-0.5995398163795471
1726407024450181400,1.273181396484375,4.4703688621521,-5.687699794769287,-0.3952194154262543
1726407024460177400,1.283177490234375,5.665554046630859,-6.563609600067139,-0.09890494495630264
1726407024470174500,1.293174560546875,6.701716423034668,-7.46644401550293,0.3840201795101166
1726407024480171500,1.303171630859375,7.46343469619751,-8.394440650939941,0.972253680229187
1726407024490167600,1.31316748046875,7.437633991241455,-9.636959075927734,1.5697911977767944
1726407024500164600,1.32316455078125,6.862645149230957,-11.070226669311523,2.084653377532959
1726407024510161700,1.33316162109375,6.130352020263672,-12.201370239257812,2.323071002960205
1726407024520157700,1.34315771484375,5.805367946624756,-12.397485733032227,2.819124937057495
1726407024530154500,1.353154541015625,4.945629596710205,-10.75030517578125,3.671227216720581
1726407024540150500,1.363150634765625,3.526142120361328,-8.567255973815918,4.176934242248535
1726407024550147600,1.373147705078125,3.420241117477417,-6.196957588195801,4.443778038024902
1726407024560144400,1.383144287109375,3.9586033821105957,-4.186218738555908,4.3986496925354
1726407024570140700,1.393140625,4.6344895362854,-2.5453364849090576,4.153596878051758
1726407024580137500,1.403137451171875,5.192511558532715,-1.3972607851028442,3.581768274307251
1726407024590134500,1.413134521484375,5.4981818199157715,-0.6543118953704834,2.559399127960205
1726407024600130600,1.423130615234375,5.366496562957764,-0.6917294859886169,1.0207288265228271
1726407024610127400,1.43312744140625,4.5321431159973145,-2.1388514041900635,-0.9265420436859131
1726407024620123600,1.44312353515625,3.892110824584961,-3.2308974266052246,-2.3644206523895264
1726407024630120400,1.453120361328125,3.1829493045806885,-3.18923020362854,-3.300820827484131
1726407024640117800,1.46311767578125,1.9815083742141724,-1.9701670408248901,-3.7740073204040527
1726407024650113500,1.473113525390625,0.2564561069011688,-0.14005045592784882,-3.935138702392578
1726407024660110600,1.483110595703125,-0.7721312642097473,3.3183233737945557,-3.8162155151367188
1726407024670107600,1.493107666015625,-0.9363740086555481,7.591830253601074,-3.1299049854278564
1726407024680103400,1.503103515625,-0.6400012969970703,9.620849609375,-1.976074457168579
1726407024690100500,1.5131005859375,-0.16476716101169586,8.826719284057617,-0.8497946858406067
1726407024700096500,1.523096435546875,0.27318066358566284,6.133142948150635,0.23341727256774902
1726407024710093600,1.533093505859375,0.6994150876998901,2.5604140758514404,1.18711256980896
1726407024720090600,1.543090576171875,0.877463161945343,-0.31918442249298096,1.8029216527938843
1726407024730086700,1.553086669921875,0.7427921295166016,-1.5995882749557495,1.9731932878494263
1726407024740083500,1.56308349609375,0.5858209729194641,-1.7217614650726318,1.762136459350586
1726407024750080500,1.57308056640625,0.49392223358154297,-1.234075903892517,1.2510281801223755
1726407024760076500,1.58307666015625,0.5600494146347046,-0.7438693046569824,0.6562070846557617
1726407024770073600,1.593073486328125,0.7347669005393982,-0.5663978457450867,0.20593228936195374
1726407024780070700,1.603070556640625,0.9317308664321899,-0.7881302833557129,-0.07633445411920547
1726407024790066400,1.61306640625,1.0810649394989014,-1.1260651350021362,-0.20871086418628693
1726407024800063500,1.6230634765625,1.125270962715149,-1.2452075481414795,-0.18225975334644318
1726407024810059500,1.6330595703125,1.0045008659362793,-1.0070042610168457,-0.000023365369997918606
1726407024820056300,1.643056396484375,0.7797930240631104,-0.49511945247650146,0.26556187868118286
1726407024830053600,1.6530537109375,0.6373117566108704,0.04560532420873642,0.5469222068786621
1726407024840049400,1.66304931640625,0.6637958288192749,0.4192185699939728,0.7894854545593262
1726407024850046700,1.673046630859375,0.7524519562721252,0.8925703763961792,1.0647741556167603
1726407024860043500,1.68304345703125,0.7744325995445251,1.3608883619308472,1.3728785514831543
1726407024870039600,1.69303955078125,0.7384567260742188,1.5678335428237915,1.6489745378494263
1726407024880036600,1.70303662109375,0.7422718405723572,1.5114039182662964,1.882584810256958
1726407024890032600,1.71303271484375,0.7727333307266235,1.300347924232483,2.0655248165130615
1726407024900029400,1.723029541015625,0.8386052846908569,1.0207314491271973,2.171649694442749
1726407024910026500,1.733026611328125,0.8547174334526062,0.7656936049461365,2.182737112045288
1726407024920022500,1.7430224609375,0.8218755125999451,0.6317066550254822,2.092390298843384
1726407024930019600,1.75301953125,0.7391236424446106,0.625373125076294,1.937569499015808
1726407024940016600,1.7630166015625,0.6730889678001404,0.5411501526832581,1.7272343635559082
1726407024950012700,1.7730126953125,0.6132983565330505,0.3993637263774872,1.47484290599823
1726407024960009700,1.783009765625,0.5552743673324585,0.18776042759418488,1.2206233739852905
1726407024970005800,1.793005859375,0.5187059640884399,-0.08385671675205231,0.9583274126052856
1726407024980002600,1.80300244140625,0.5229845643043518,-0.26196086406707764,0.7199532389640808
1726407024989999900,1.812999755859375,0.5007604360580444,-0.3994201719760895,0.5401611328125
1726407024999995600,1.82299560546875,0.47317758202552795,-0.49509385228157043,0.4172517657279968
1726407025009992700,1.83299267578125,0.42995232343673706,-0.49720096588134766,0.34661462903022766
1726407025019989800,1.84298974609375,0.3667268753051758,-0.45306819677352905,0.3334394693374634
1726407025029985800,1.85298583984375,0.30902791023254395,-0.3440607488155365,0.36187082529067993
1726407025039982800,1.86298291015625,0.21870280802249908,-0.15078358352184296,0.43249642848968506
1726407025049978600,1.872978515625,0.1045067310333252,0.06829950213432312,0.5541952252388
1726407025059975700,1.8829755859375,-0.014311828650534153,0.25218042731285095,0.7194579243659973
1726407025069972700,1.89297265625,-0.10684682428836823,0.3753843903541565,0.902085542678833
1726407025079968800,1.90296875,-0.15106101334095,0.394569993019104,1.0549306869506836
1726407025089965600,1.912965576171875,-0.16777661442756653,0.33806943893432617,1.144065022468567
1726407025099962600,1.922962646484375,-0.18449611961841583,0.25232386589050293,1.1597723960876465
1726407025109958700,1.932958740234375,-0.20791862905025482,0.16933311522006989,1.1281603574752808
1726407025119955700,1.942955810546875,-0.20986883342266083,0.12521928548812866,1.0751756429672241
1726407025129951700,1.95295166015625,-0.21287235617637634,0.07846108824014664,1.0116640329360962
1726407025139948500,1.962948486328125,-0.20053918659687042,0.04579094797372818,0.9316224455833435
1726407025149945900,1.97294580078125,-0.20834678411483765,0.024887530133128166,0.8148886561393738
1726407025159941600,1.982941650390625,-0.2579348683357239,-0.010438412427902222,0.6434648633003235
1726407025169938700,1.992938720703125,-0.3310934901237488,-0.0739007443189621,0.431100457906723
1726407025179935700,2.002935791015625,-0.39035072922706604,-0.18191950023174286,0.2058221399784088
1726407025189931500,2.012931640625,-0.38446033000946045,-0.35942530632019043,-0.005791046656668186
1726407025199928800,2.0229287109375,-0.33979320526123047,-0.5881390571594238,-0.19341377913951874
1726407025209924600,2.032924560546875,-0.26960188150405884,-0.7905662059783936,-0.33740851283073425
1726407025219921700,2.042921630859375,-0.2709219455718994,-0.9029964208602905,-0.415199875831604
1726407025229918700,2.052918701171875,-0.3545747697353363,-0.9084073901176453,-0.4522913098335266
1726407025239914800,2.062914794921875,-0.44356992840766907,-0.8169229030609131,-0.4541754424571991
1726407025249911800,2.072911865234375,-0.48712965846061707,-0.6919074654579163,-0.42705434560775757
1726407025259908600,2.08290869140625,-0.4829969108104706,-0.5740760564804077,-0.4101468026638031
1726407025269904600,2.092904541015625,-0.4995546042919159,-0.44017842411994934,-0.4081241190433502
1726407025279901700,2.102901611328125,-0.582599401473999,-0.2817150950431824,-0.4085954427719116
1726407025289897700,2.112897705078125,-0.6320220232009888,-0.20391510426998138,-0.3862896263599396
1726407025299894800,2.122894775390625,-0.6550354361534119,-0.300076425075531,-0.35359248518943787
1726407025309891600,2.1328916015625,-0.6873912811279297,-0.41688773036003113,-0.27508729696273804
1726407025319887600,2.1428876953125,-0.7195547819137573,-0.553316056728363,-0.17629210650920868
1726407025329884700,2.152884765625,-0.7292702794075012,-0.6776710152626038,-0.03855687752366066
1726407025339881700,2.1628818359375,-0.7119801044464111,-0.7242406606674194,0.09793900698423386
1726407025349877500,2.17287744140625,-0.6887996792793274,-0.6651009321212769,0.2131899744272232
1726407025359874800,2.182874755859375,-0.6981721520423889,-0.6128471493721008,0.28687784075737
1726407025369870600,2.19287060546875,-0.6972251534461975,-0.6134671568870544,0.31276455521583557
1726407025379868000,2.202867919921875,-0.6872158646583557,-0.6607387661933899,0.2902892827987671
1726407025389864700,2.21286474609375,-0.6634881496429443,-0.7278326153755188,0.2154741734266281
1726407025399860700,2.22286083984375,-0.6183143854141235,-0.7824658751487732,0.09347718954086304
1726407025409857800,2.23285791015625,-0.5667065978050232,-0.8019892573356628,-0.05376739427447319
1726407025419854600,2.2428544921875,-0.5133765935897827,-0.8099992275238037,-0.20504651963710785
1726407025429851000,2.252850830078125,-0.4497344493865967,-0.8343951106071472,-0.3343163728713989
1726407025439847700,2.26284765625,-0.3875156342983246,-0.8629281520843506,-0.44228336215019226
1726407025449843700,2.27284375,-0.3255486786365509,-0.9100301265716553,-0.5346068739891052
1726407025459840800,2.2828408203125,-0.2849300801753998,-0.9927104115486145,-0.6129258275032043
1726407025469837600,2.292837646484375,-0.28421103954315186,-1.099448561668396,-0.6583876013755798
1726407025479833600,2.30283349609375,-0.2836170196533203,-1.214087963104248,-0.6643716096878052
1726407025489830700,2.31283056640625,-0.2787708640098572,-1.319435954093933,-0.6415067911148071
1726407025499827700,2.32282763671875,-0.27224040031433105,-1.3771623373031616,-0.5985819101333618
1726407025509823700,2.33282373046875,-0.26469939947128296,-1.394911289215088,-0.5399758219718933
1726407025519820800,2.34282080078125,-0.252704918384552,-1.3780170679092407,-0.46566763520240784
1726407025529816600,2.352816650390625,-0.24926890432834625,-1.3296815156936646,-0.3999248445034027
1726407025539813600,2.362813720703125,-0.2525356411933899,-1.2503812313079834,-0.35472744703292847
1726407025549810700,2.372810791015625,-0.24950255453586578,-1.1368783712387085,-0.3166404962539673
1726407025559806500,2.382806396484375,-0.23934055864810944,-0.9781734347343445,-0.28954342007637024
1726407025569803800,2.3928037109375,-0.2307177633047104,-0.8201691508293152,-0.2766675651073456
1726407025579800600,2.402800537109375,-0.2095629870891571,-0.6700973510742188,-0.26664769649505615
1726407025589796900,2.412796875,-0.18955279886722565,-0.5303202867507935,-0.25668853521347046
1726407025599793700,2.422793701171875,-0.173336461186409,-0.40452173352241516,-0.2416905164718628
1726407025609789700,2.432789794921875,-0.1554650515317917,-0.2946908473968506,-0.23220805823802948
1726407025619786800,2.442786865234375,-0.14612901210784912,-0.21470020711421967,-0.22236962616443634
1726407025629783600,2.452783447265625,-0.1540021151304245,-0.16639205813407898,-0.22080367803573608
1726407025639779800,2.46277978515625,-0.15999436378479004,-0.13923338055610657,-0.2168007344007492
1726407025649776600,2.472776611328125,-0.17251388728618622,-0.12657885253429413,-0.20887383818626404
1726407025659773700,2.482773681640625,-0.18710066378116608,-0.13650940358638763,-0.20663359761238098
1726407025669769700,2.492769775390625,-0.19186079502105713,-0.15705116093158722,-0.20730099081993103
1726407025679766500,2.5027666015625,-0.211088165640831,-0.17071840167045593,-0.20575250685214996
1726407025689762600,2.512762451171875,-0.2325894683599472,-0.18803294003009796,-0.2013242095708847
1726407025699759600,2.522759521484375,-0.26812878251075745,-0.20621953904628754,-0.18936720490455627
1726407025709756700,2.532756591796875,-0.2758980393409729,-0.2453293800354004,-0.20765726268291473
1726407025719752700,2.542752685546875,-0.2486254870891571,-0.28199106454849243,-0.24903547763824463
1726407025729749800,2.552749755859375,-0.22267457842826843,-0.3261212408542633,-0.2929893434047699
1726407025739746800,2.562746826171875,-0.22671827673912048,-0.359768807888031,-0.32871440052986145
1726407025749742800,2.572742919921875,-0.2486182451248169,-0.38227546215057373,-0.34715014696121216
1726407025759739600,2.58273974609375,-0.26629534363746643,-0.40957242250442505,-0.3477917015552521
1726407025769736000,2.59273583984375,-0.272900253534317,-0.4235665202140808,-0.33359038829803467
1726407025779732700,2.602732666015625,-0.28155219554901123,-0.4156312048435211,-0.31637370586395264
1726407025789729500,2.6127294921875,-0.2900937497615814,-0.3962779939174652,-0.296470582485199
1726407025799725800,2.622725830078125,-0.3131966292858124,-0.35451170802116394,-0.27914726734161377
1726407025809722600,2.63272265625,-0.34883373975753784,-0.28488603234291077,-0.26555129885673523
1726407025819719700,2.6427197265625,-0.3848881721496582,-0.21717771887779236,-0.2606644928455353
1726407025829715700,2.6527158203125,-0.41127583384513855,-0.146599680185318,-0.26812639832496643
1726407025839712500,2.66271240234375,-0.43180349469184875,-0.07064434885978699,-0.2841799557209015
1726407025849708800,2.672708740234375,-0.43142399191856384,-0.008107469417154789,-0.2969237267971039
1726407025859705600,2.68270556640625,-0.42223531007766724,0.03569113463163376,-0.3091594874858856
1726407025869703000,2.692702880859375,-0.41244155168533325,0.07036761939525604,-0.32502394914627075
1726407025879698700,2.70269873046875,-0.4038376808166504,0.09846988320350647,-0.349222332239151
1726407025889695700,2.71269580078125,-0.40743961930274963,0.10167419910430908,-0.37781456112861633
1726407025899691800,2.72269189453125,-0.4028107225894928,0.08370883017778397,-0.40703341364860535
1726407025909688800,2.732688720703125,-0.390762597322464,0.042044203728437424,-0.43256139755249023
1726407025919685600,2.742685546875,-0.37834182381629944,-0.0026391535066068172,-0.44817423820495605
1726407025929681700,2.752681640625,-0.36089521646499634,-0.05049242824316025,-0.459121972322464
1726407025939678700,2.7626787109375,-0.3234815001487732,-0.09645573794841766,-0.4668719470500946
1726407025949675800,2.77267578125,-0.27055782079696655,-0.13007068634033203,-0.4705830514431
1726407025959671800,2.782671875,-0.22764478623867035,-0.15692251920700073,-0.47314003109931946
1726407025969668900,2.7926689453125,-0.19782297313213348,-0.17608848214149475,-0.47882989048957825
1726407025979665000,2.802664794921875,-0.17998826503753662,-0.19135421514511108,-0.4881293773651123
1726407025989661700,2.81266162109375,-0.17486141622066498,-0.2117801159620285,-0.49118536710739136
1726407025999658800,2.82265869140625,-0.16601720452308655,-0.2511085569858551,-0.4742078483104706
1726407026009654800,2.83265478515625,-0.14691860973834991,-0.3176310956478119,-0.44061845541000366
1726407026019651800,2.84265185546875,-0.1339699923992157,-0.3962404429912567,-0.41535109281539917
1726407026029649000,2.85264892578125,-0.1340312510728836,-0.47936198115348816,-0.41613274812698364
1726407026039644700,2.862644775390625,-0.13433516025543213,-0.5527815222740173,-0.4471868574619293
1726407026049641700,2.872641845703125,-0.11852795630693436,-0.6120975613594055,-0.4811165928840637
1726407026059637800,2.8826376953125,-0.07927229255437851,-0.6587521433830261,-0.4981067180633545
1726407026069634600,2.892634521484375,-0.03181103989481926,-0.698659360408783,-0.4783377945423126
1726407026079632000,2.9026318359375,-0.00689446646720171,-0.7278721928596497,-0.4220385253429413
1726407026089627600,2.912627685546875,0.0009512057295069098,-0.747346043586731,-0.342307448387146
1726407026099625000,2.922625,-0.012335246428847313,-0.7757290005683899,-0.26988109946250916
1726407026109621800,2.932621826171875,-0.028834860771894455,-0.81825190782547,-0.21437843143939972
1726407026119617800,2.94261767578125,-0.04712158441543579,-0.8704068660736084,-0.18472878634929657
1726407026129614800,2.95261474609375,-0.06252903491258621,-0.9392042756080627,-0.17512303590774536
1726407026139611000,2.96261083984375,-0.0769035816192627,-1.0128957033157349,-0.17793510854244232
1726407026149608000,2.97260791015625,-0.09647621959447861,-1.0794042348861694,-0.19020456075668335
1726407026159604700,2.982604736328125,-0.10250014066696167,-1.1229941844940186,-0.19993044435977936
1726407026169600800,2.992600830078125,-0.09314551949501038,-1.1325080394744873,-0.2114984095096588
1726407026179597800,3.002597900390625,-0.07525036484003067,-1.1136538982391357,-0.21818038821220398
1726407026189593900,3.01259375,-0.06932856142520905,-1.0671406984329224,-0.21829304099082947
1726407026199590700,3.022590576171875,-0.05913164094090462,-0.9975054264068604,-0.20965996384620667
1726407026209587700,3.032587646484375,-0.05829674005508423,-0.9018518328666687,-0.19282932579517365
1726407026219583700,3.042583740234375,-0.060304317623376846,-0.8103580474853516,-0.17893806099891663
1726407026229580800,3.052580810546875,-0.0544339120388031,-0.729184091091156,-0.16811443865299225
1726407026239577900,3.062577880859375,-0.04803146421909332,-0.6560885310173035,-0.15435142815113068
1726407026249573600,3.07257373046875,-0.045883890241384506,-0.602853000164032,-0.14022254943847656
1726407026259571000,3.082571044921875,-0.054298754781484604,-0.5776286721229553,-0.1338217705488205
1726407026269566700,3.092566650390625,-0.06732401251792908,-0.5553523898124695,-0.12332438677549362
1726407026279563800,3.102563720703125,-0.059990037232637405,-0.5394512414932251,-0.1223343163728714
1726407026289560800,3.112560791015625,-0.04191542789340019,-0.5469690561294556,-0.12579509615898132
1726407026299556600,3.122556640625,-0.02623615600168705,-0.5739952921867371,-0.12499938905239105
1726407026309554000,3.132553955078125,-0.03484029322862625,-0.6079628467559814,-0.09882930666208267
1726407026319550700,3.14255078125,-0.04623625427484512,-0.666496992111206,-0.045380059629678726
1726407026329546800,3.152546630859375,-0.06180615723133087,-0.7575941681861877,0.017262017354369164
1726407026339543800,3.162543701171875,-0.09484793990850449,-0.850906252861023,0.07029416412115097
1726407026349539800,3.172539794921875,-0.1389578878879547,-0.9097844958305359,0.08886998146772385
1726407026359537000,3.182536865234375,-0.17103660106658936,-0.9388998746871948,0.0758037343621254
1726407026369533700,3.19253369140625,-0.17957442998886108,-0.9504731893539429,0.042201295495033264
1726407026379529700,3.20252978515625,-0.16716840863227844,-0.9309861063957214,0.009422951377928257
1726407026389526800,3.21252685546875,-0.15427444875240326,-0.8623409867286682,0.0008547628531232476
1726407026399523800,3.22252392578125,-0.14399489760398865,-0.7445775866508484,0.0029414768796414137
1726407026409519600,3.23251953125,-0.14099323749542236,-0.589179515838623,-0.005098606459796429
1726407026419517000,3.242516845703125,-0.14382721483707428,-0.4404526948928833,-0.026975659653544426
1726407026429512700,3.2525126953125,-0.14107376337051392,-0.3196338713169098,-0.054824866354465485
1726407026439509800,3.262509765625,-0.11515709012746811,-0.21671798825263977,-0.07734507322311401
1726407026449506800,3.2725068359375,-0.07605575770139694,-0.12357498705387115,-0.08425277471542358
1726407026459502600,3.282502685546875,-0.03305591270327568,-0.06456147134304047,-0.0764869675040245
1726407026469500000,3.2925,0.004696526564657688,-0.031569432467222214,-0.06436851620674133
1726407026479495700,3.30249560546875,0.02376640774309635,-0.021720483899116516,-0.04214337468147278
1726407026489493000,3.312492919921875,0.01911679469048977,-0.025194844231009483,-0.01922713965177536
1726407026499489800,3.32248974609375,0.00946409348398447,-0.02194690890610218,0.012002561241388321
1726407026509485800,3.33248583984375,-0.006430450361222029,-0.015548665076494217,0.0417197123169899
1726407026519483000,3.34248291015625,-0.02538248337805271,-0.004850020166486502,0.06754843145608902
1726407026529479700,3.352479736328125,-0.05526687949895859,0.04113371670246124,0.08845770359039307
1726407026539475700,3.362475830078125,-0.06379043310880661,0.09186699986457825,0.0996774286031723
1726407026549472800,3.37247265625,-0.054688550531864166,0.1361665427684784,0.1113458052277565
1726407026559468800,3.38246875,-0.052121955901384354,0.19190625846385956,0.11929409205913544
1726407026569465900,3.3924658203125,-0.052001047879457474,0.26127204298973083,0.1266356259584427
1726407026579462700,3.402462646484375,-0.04381639510393143,0.3406931757926941,0.1330505758523941
1726407026589458700,3.412458740234375,-0.06825222820043564,0.4296022653579712,0.13773135840892792
1726407026599455700,3.422455810546875,-0.09865125268697739,0.5074960589408875,0.14773108065128326
1726407026609452800,3.432452880859375,-0.12029529362916946,0.5800309777259827,0.15716533362865448
1726407026619448800,3.44244873046875,-0.12985798716545105,0.6479603052139282,0.17018239200115204
1726407026629446000,3.45244580078125,-0.13033229112625122,0.7112370133399963,0.1945231556892395
1726407026639441700,3.462441650390625,-0.12976476550102234,0.7681738138198853,0.23755423724651337
1726407026649439000,3.47243896484375,-0.11111278086900711,0.8185080885887146,0.28922995924949646
1726407026659435800,3.482435791015625,-0.09377793222665787,0.8601779341697693,0.3438502550125122
1726407026669431800,3.492431884765625,-0.07456349581480026,0.8843820691108704,0.3885977268218994
1726407026679428900,3.502428955078125,-0.05380931496620178,0.8995598554611206,0.41433224081993103
1726407026689424600,3.512424560546875,-0.04295346885919571,0.9112537503242493,0.42724695801734924
1726407026699422000,3.522421875,-0.03468143567442894,0.9054927229881287,0.4312492609024048
1726407026709418800,3.532418701171875,-0.019372252747416496,0.8816483616828918,0.43023326992988586
1726407026719414800,3.542414794921875,0.004673258867114782,0.8426117897033691,0.4285077750682831
1726407026729411800,3.552411865234375,0.03611107915639877,0.7965084314346313,0.41392216086387634
1726407026739408600,3.56240869140625,0.07904490828514099,0.7626765370368958,0.3950618505477905
1726407026749404700,3.57240478515625,0.10945022106170654,0.737560510635376,0.3681167662143707
1726407026759401700,3.582401611328125,0.13972215354442596,0.6947330236434937,0.33584263920783997
1726407026769397800,3.592397705078125,0.17914040386676788,0.635902464389801,0.3021451532840729
1726407026779394800,3.602394775390625,0.21945226192474365,0.5799413919448853,0.2632843255996704
1726407026789392000,3.612391845703125,0.24259325861930847,0.5421493053436279,0.22426395118236542
1726407026799387600,3.6223876953125,0.24493809044361115,0.5077175498008728,0.1914820820093155
1726407026809384700,3.632384765625,0.23805488646030426,0.4736274480819702,0.1674015074968338
1726407026819381800,3.6423818359375,0.22779537737369537,0.4567262828350067,0.14477528631687164
1726407026829377800,3.652377685546875,0.21735072135925293,0.4678058326244354,0.12024784833192825
1726407026839374800,3.662374755859375,0.20457600057125092,0.49498283863067627,0.10176777839660645
1726407026849370600,3.67237060546875,0.20288090407848358,0.5199075937271118,0.08832786977291107
1726407026859368000,3.682367919921875,0.23758113384246826,0.5157298445701599,0.0735844075679779
1726407026869364700,3.69236474609375,0.2794758379459381,0.5615044832229614,0.08737584948539734
1726407026879360800,3.70236083984375,0.3051878809928894,0.6075741648674011,0.09874951094388962
1726407026889357800,3.71235791015625,0.2904616594314575,0.7099980115890503,0.13349390029907227
1726407026899354600,3.722354736328125,0.2597649097442627,0.7684077024459839,0.1673959642648697
1726407026909351000,3.732350830078125,0.23735493421554565,0.8037207126617432,0.1838015764951706
1726407026919347700,3.74234765625,0.24389921128749847,0.834345281124115,0.18039482831954956
1726407026929343700,3.75234375,0.26305800676345825,0.8597730994224548,0.1539269983768463
1726407026939341300,3.76234130859375,0.2855108082294464,0.9119436740875244,0.1265871822834015
1726407026949338400,3.77233837890625,0.304372102022171,0.9224168062210083,0.1030014157295227
1726407026959334400,3.78233447265625,0.3124401569366455,0.852332592010498,0.0771217867732048
1726407026969331500,3.79233154296875,0.32564863562583923,0.7364861369132996,0.052747469395399094
1726407026979327500,3.802327392578125,0.3392283320426941,0.6035323739051819,0.04072743281722069
1726407026989324300,3.81232421875,0.34744498133659363,0.48241177201271057,0.02738233283162117
1726407026999321300,3.8223212890625,0.349681556224823,0.3848456144332886,-0.00375229399651289
1726407027009317400,3.8323173828125,0.34766873717308044,0.3386480212211609,-0.06837975233793259
1726407027019314400,3.842314453125,0.340464323759079,0.38002365827560425,-0.1765701323747635
1726407027029311500,3.8523115234375,0.3401218354701996,0.4717501103878021,-0.3158921003341675
1726407027039307300,3.862307373046875,0.33669719099998474,0.6121076345443726,-0.4559137523174286
1726407027049304600,3.8723046875,0.2987503409385681,0.7613245844841003,-0.5816391706466675
1726407027059300400,3.88230029296875,0.26039421558380127,0.790299117565155,-0.6760373115539551
1726407027069297400,3.89229736328125,0.25749269127845764,0.6617733240127563,-0.7105910181999207
1726407027079294500,3.90229443359375,0.2661858797073364,0.4737742841243744,-0.7001622915267944
1726407027089290500,3.91229052734375,0.27512452006340027,0.3191887140274048,-0.6474807262420654
1726407027099287600,3.92228759765625,0.2693081498146057,0.23926915228366852,-0.5674518942832947
1726407027109283300,3.932283447265625,0.24781936407089233,0.21412038803100586,-0.4900825619697571
1726407027119280400,3.9422802734375,0.24024558067321777,0.24934400618076324,-0.41878968477249146
1726407027129277400,3.95227734375,0.2444741427898407,0.30122798681259155,-0.35355499386787415
1726407027139273500,3.9622734375,0.23186613619327545,0.3563673496246338,-0.29267552495002747
1726407027149270300,3.972270263671875,0.23139449954032898,0.3782913088798523,-0.24474608898162842
1726407027159267300,3.982267333984375,0.22300127148628235,0.3747570216655731,-0.20645488798618317
1726407027169263400,3.992263427734375,0.1999971568584442,0.36691880226135254,-0.16969048976898193
1726407027179260400,4.002260498046875,0.1718863695859909,0.3446747660636902,-0.147675022482872
1726407027189256400,4.01225634765625,0.14455407857894897,0.3273775577545166,-0.13972656428813934
1726407027199253200,4.022253173828125,0.12388717383146286,0.31131666898727417,-0.1303139477968216
1726407027209250600,4.03225048828125,0.11762768030166626,0.2960439622402191,-0.1133410856127739
1726407027219246300,4.042246337890625,0.11475127190351486,0.2895139753818512,-0.07689240574836731
1726407027229243400,4.052243408203125,0.10922414809465408,0.29802969098091125,-0.02292637899518013
1726407027239239400,4.062239501953125,0.10614233464002609,0.3046511113643646,0.0307440385222435
1726407027249236200,4.072236328125,0.09963516891002655,0.33169975876808167,0.07401242107152939
1726407027259233500,4.082233642578125,0.09204249829053879,0.352109432220459,0.09826263040304184
1726407027269229300,4.092229248046875,0.08282715827226639,0.35818302631378174,0.11004791408777237
1726407027279226400,4.102226318359375,0.06209569424390793,0.36750686168670654,0.10293003171682358
1726407027289223400,4.112223388671875,0.040903057903051376,0.36397072672843933,0.09222359210252762
1726407027299219500,4.122219482421875,0.03725546970963478,0.3553991913795471,0.07729458808898926
1726407027309216500,4.132216552734375,0.02844812721014023,0.3441654443740845,0.05918988958001137
1726407027319212500,4.142212646484375,0.032714564353227615,0.3188186287879944,0.03933734819293022
1726407027329209300,4.152209228515625,0.04315735027194023,0.29611411690711975,0.019440341740846634
1726407027339206400,4.162206298828125,0.07004870474338531,0.2928551137447357,0.0008054581703618169
1726407027349202400,4.172202392578125,0.09261234104633331,0.29876041412353516,-0.017551977187395096
1726407027359199500,4.182199462890625,0.1048441007733345,0.3032832145690918,-0.02701227180659771
1726407027369196300,4.1921962890625,0.1174861267209053,0.3240114152431488,-0.03302169591188431
1726407027379192300,4.2021923828125,0.11866289377212524,0.34196871519088745,-0.03228948265314102
1726407027389189400,4.212189453125,0.11928234249353409,0.33491718769073486,-0.02824733778834343
1726407027399185400,4.222185302734375,0.10877426713705063,0.3139883279800415,-0.0297081395983696
1726407027409182200,4.23218212890625,0.11389099806547165,0.2857699990272522,-0.04095626622438431
1726407027419179500,4.242179443359375,0.1203940361738205,0.26282981038093567,-0.05548838898539543
1726407027429175300,4.25217529296875,0.12711985409259796,0.25870242714881897,-0.06657379865646362
1726407027439172600,4.262172607421875,0.12946651875972748,0.26536133885383606,-0.07039356231689453
1726407027449168400,4.27216845703125,0.12981939315795898,0.28492972254753113,-0.07555823028087616
1726407027459165400,4.28216552734375,0.13574466109275818,0.31547239422798157,-0.08392844349145889
1726407027469162500,4.29216259765625,0.13751326501369476,0.3239295184612274,-0.08067858964204788
1726407027479158500,4.302158447265625,0.13775309920310974,0.29848843812942505,-0.05936053395271301
1726407027489155300,4.3121552734375,0.13761062920093536,0.24468939006328583,-0.02584119141101837
1726407027499152400,4.32215234375,0.15703485906124115,0.20781375467777252,0.007227086927741766
1726407027509148400,4.3321484375,0.16808564960956573,0.2083738148212433,0.037093907594680786
1726407027519145500,4.3421455078125,0.17971791326999664,0.25442883372306824,0.060408566147089005
1726407027529141500,4.3521416015625,0.19857630133628845,0.30835971236228943,0.0776786357164383
1726407027539138300,4.36213818359375,0.204545795917511,0.33976176381111145,0.09433107823133469
1726407027549135400,4.37213525390625,0.18687333166599274,0.3418363630771637,0.10914331674575806
1726407027559131400,4.38213134765625,0.157744362950325,0.30449366569519043,0.11634767800569534
1726407027569128400,4.39212841796875,0.13361798226833344,0.27198097109794617,0.11592104285955429
1726407027579124500,4.40212451171875,0.11545597016811371,0.23730404675006866,0.10841446369886398
1726407027589121300,4.412121337890625,0.09118684381246567,0.22592408955097198,0.09309303015470505
1726407027599118600,4.42211865234375,0.07364258170127869,0.24530760943889618,0.07814889401197433
1726407027609114400,4.4321142578125,0.07129553705453873,0.27639040350914,0.0650314912199974
1726407027619111400,4.442111328125,0.06411051750183105,0.3020358383655548,0.055748019367456436
1726407027629108500,4.4521083984375,0.04981493577361107,0.29551056027412415,0.05232399329543114
1726407027639104300,4.462104248046875,0.04175126925110817,0.299694299697876,0.061807259917259216
1726407027649101600,4.4721015625,0.0676819384098053,0.3091091215610504,0.08810677379369736
1726407027659097300,4.482097412109375,0.08642326295375824,0.32876279950141907,0.1437206268310547
1726407027669094400,4.492094482421875,0.10689231753349304,0.35985255241394043,0.2178984433412552
1726407027679091500,4.502091552734375,0.13445352017879486,0.366543173789978,0.3060609996318817
1726407027689087500,4.51208740234375,0.17166534066200256,0.3721051812171936,0.38763999938964844
1726407027699084500,4.52208447265625,0.2335517406463623,0.37499821186065674,0.4675195813179016
1726407027709080600,4.53208056640625,0.28552013635635376,0.371174693107605,0.5527951121330261
1726407027719077400,4.542077392578125,0.31340351700782776,0.3888911306858063,0.6276471614837646
1726407027729074400,4.552074462890625,0.2900390625,0.41888898611068726,0.6932522654533386
1726407027739070500,4.562070556640625,0.291085809469223,0.47005796432495117,0.7396120429039001
1726407027749067300,4.5720673828125,0.30001378059387207,0.5392828583717346,0.7377065420150757
1726407027759064300,4.582064208984375,0.30597516894340515,0.5766947269439697,0.6896923780441284
1726407027769060400,4.592060302734375,0.3283316195011139,0.5796396732330322,0.6256750822067261
1726407027779057400,4.602057373046875,0.32476237416267395,0.5231229066848755,0.5690593719482422
1726407027789053400,4.612053466796875,0.3073980212211609,0.5228738784790039,0.5365464091300964
1726407027799050200,4.62205029296875,0.3233775496482849,0.5288563966751099,0.5208694338798523
1726407027809047600,4.632047607421875,0.3415443003177643,0.5477949380874634,0.5002080798149109
1726407027819043300,4.642043212890625,0.33907586336135864,0.5690221786499023,0.4735294282436371
1726407027829040600,4.65204052734375,0.30882981419563293,0.547446608543396,0.4223778247833252
1726407027839037400,4.662037353515625,0.27915796637535095,0.5396221280097961,0.3717479109764099
1726407027849033500,4.672033447265625,0.2587091624736786,0.5128245949745178,0.32052573561668396
1726407027859030500,4.682030517578125,0.2272084355354309,0.5350818037986755,0.2764604389667511
1726407027869026300,4.6920263671875,0.19229412078857422,0.6168650388717651,0.23705020546913147
1726407027879023400,4.7020234375,0.18470819294452667,0.722351610660553,0.22017709910869598
1726407027889020400,4.7120205078125,0.17806680500507355,0.7904661893844604,0.2172798365354538
1726407027899016400,4.722016357421875,0.1699388027191162,0.7683551907539368,0.21353216469287872
1726407027909013500,4.732013427734375,0.14086534082889557,0.7061189413070679,0.1844981163740158
1726407027919009500,4.742009521484375,0.09420118480920792,0.6111835837364197,0.1286212056875229
1726407027929006300,4.75200634765625,0.06605502963066101,0.48852553963661194,0.06637807190418243
1726407027939003000,4.7620029296875,0.06597889959812164,0.3509649932384491,0.02066594548523426
1726407027948999000,4.7719990234375,0.07166847586631775,0.25796419382095337,0.0017023745458573103
1726407027958996000,4.781995849609375,0.06590668112039566,0.16172172129154205,0.012654731050133705
1726407027968992000,4.791991943359375,0.06313193589448929,0.05916552618145943,0.03221671283245087
1726407027978989000,4.801989013671875,0.06385299563407898,-0.05178186669945717,0.07210754603147507
1726407027988986000,4.811986083984375,0.05498546361923218,-0.09967482835054398,0.13717523217201233
1726407027998982000,4.82198193359375,0.009843924082815647,-0.08532676100730896,0.218749538064003
1726407028008979200,4.831979248046875,-0.032149069011211395,-0.05513663589954376,0.3249273896217346
1726407028018976000,4.84197607421875,-0.056619759649038315,0.006566103082150221,0.45940473675727844
1726407028028972000,4.851971923828125,-0.06632191687822342,0.04840782657265663,0.5780608057975769
1726407028038969000,4.861968994140625,-0.06456127017736435,0.06820891797542572,0.6747785210609436
1726407028048964900,4.87196484375,-0.0840553417801857,0.055366892367601395,0.7440202236175537
1726407028058962200,4.881962158203125,-0.12276976555585861,0.03437207639217377,0.7831758260726929
1726407028068959000,4.891958984375,-0.13889601826667786,0.003541729412972927,0.803115725517273
1726407028078955000,4.901955078125,-0.12646779417991638,-0.016818227246403694,0.8199182152748108
1726407028088952000,4.9119521484375,-0.10481443256139755,0.007525728549808264,0.8332177400588989
1726407028098948000,4.921947998046875,-0.08905313909053802,0.04332752153277397,0.8455488085746765
1726407028108945200,4.931945068359375,-0.06591080129146576,0.06427568197250366,0.8536075353622437
1726407028118942000,4.94194189453125,-0.04932757467031479,0.06501191109418869,0.8516315817832947
1726407028128938000,4.95193798828125,-0.050341442227363586,0.0838276743888855,0.8405413627624512
1726407028138935000,4.96193505859375,-0.05751575529575348,0.07543817162513733,0.8187438249588013
1726407028148932000,4.97193212890625,-0.046831149607896805,0.11990923434495926,0.7821639776229858
1726407028158928000,4.981927978515625,-0.038715656846761703,0.16548506915569305,0.7059250473976135
1726407028168925000,4.991925048828125,-0.03681362792849541,0.23307263851165771,0.6020753383636475
1726407028178921000,5.0019208984375,-0.020799249410629272,0.30444058775901794,0.4696095585823059
1726407028188918000,5.01191796875,0.00003599049523472786,0.37946397066116333,0.32276204228401184
1726407028198915000,5.0219150390625,0.01113149430602789,0.4533720314502716,0.1704741269350052
1726407028208910800,5.031910888671875,0.01146598719060421,0.5380885004997253,0.0315636545419693
1726407028218908200,5.041908203125,0.02360289730131626,0.608443021774292,-0.08830490708351135
1726407028228904000,5.051904052734375,0.04927683621644974,0.6385758519172668,-0.18691164255142212
1726407028238901200,5.0619013671875,0.083137646317482,0.6343223452568054,-0.26891499757766724
1726407028248898000,5.07189794921875,0.13292783498764038,0.6129632592201233,-0.33186814188957214
1726407028258894000,5.08189404296875,0.17141322791576385,0.5672116875648499,-0.36755961179733276
1726407028268891100,5.09189111328125,0.180536150932312,0.4898405075073242,-0.3789598047733307
1726407028278888000,5.101887939453125,0.1606990098953247,0.3942061960697174,-0.3707883656024933
1726407028288884000,5.111884033203125,0.12067436426877975,0.28247779607772827,-0.36448466777801514
1726407028298881000,5.121881103515625,0.08892247080802917,0.1559164822101593,-0.3614457845687866
1726407028308877000,5.131876953125,0.07196958363056183,0.024448728188872337,-0.3620340824127197
1726407028318874000,5.1418740234375,0.05962614715099335,-0.1378604620695114,-0.3736223876476288
1726407028328871000,5.151870849609375,0.04082289710640907,-0.2855311334133148,-0.38819706439971924
1726407028338867000,5.161866943359375,0.021814478561282158,-0.41189414262771606,-0.3936145603656769
1726407028348864000,5.171864013671875,0.010548243299126625,-0.5032395124435425,-0.39566919207572937
1726407028358860000,5.181860107421875,0.004891900345683098,-0.5631526112556458,-0.38962575793266296
1726407028368857000,5.191857177734375,0.0014556233072653413,-0.6208257675170898,-0.37225449085235596
1726407028378854100,5.201854248046875,-0.008511449210345745,-0.6871945858001709,-0.325287401676178
1726407028388850000,5.211849853515625,-0.02276069112122059,-0.7684585452079773,-0.2612626254558563
1726407028398847000,5.221846923828125,-0.04756710305809975,-0.8028101325035095,-0.18339867889881134
1726407028408844000,5.231843994140625,-0.08074689656496048,-0.7359320521354675,-0.09166102111339569
1726407028418839800,5.24183984375,-0.12302527576684952,-0.5987771153450012,0.013401995413005352
1726407028428837000,5.251837158203125,-0.14941294491291046,-0.44464826583862305,0.12159397453069687
1726407028438833000,5.2618330078125,-0.15264742076396942,-0.2935866117477417,0.21035568416118622
1726407028448830200,5.271830322265625,-0.13542209565639496,-0.12551024556159973,0.26609164476394653
1726407028458827000,5.281826904296875,-0.11334237456321716,0.010975813493132591,0.2680097222328186
1726407028468823000,5.291822998046875,-0.09524593502283096,0.10648369044065475,0.22464866936206818
1726407028478820000,5.301820068359375,-0.08516013622283936,0.14950308203697205,0.14488135278224945
1726407028488816000,5.311816162109375,-0.08795672655105591,0.14394161105155945,0.037730928510427475
1726407028498813200,5.321813232421875,-0.09629455208778381,0.11795155704021454,-0.08529485762119293
1726407028508810000,5.33181005859375,-0.11149400472640991,0.05109449476003647,-0.19619421660900116
1726407028518806000,5.341805908203125,-0.11607696861028671,-0.04485994204878807,-0.2781350314617157
1726407028528803000,5.351802978515625,-0.11462953686714172,-0.14989101886749268,-0.3365200459957123
1726407028538799000,5.361799072265625,-0.10238981992006302,-0.2375556081533432,-0.3731956481933594
1726407028548796000,5.3717958984375,-0.1049637645483017,-0.29059991240501404,-0.407927542924881
1726407028558793000,5.38179296875,-0.11301545798778534,-0.3340213894844055,-0.436670184135437
1726407028568789000,5.3917890625,-0.132054403424263,-0.34942564368247986,-0.4385831356048584
1726407028578786000,5.4017861328125,-0.15002015233039856,-0.3702590763568878,-0.4178183078765869
1726407028588783000,5.411783203125,-0.1600533425807953,-0.3994388282299042,-0.3863453269004822
1726407028598779000,5.42177880859375,-0.1618437021970749,-0.3946583867073059,-0.36407947540283203
1726407028608776200,5.431776123046875,-0.16251401603221893,-0.3924868404865265,-0.35710516571998596
1726407028618772000,5.44177197265625,-0.17208172380924225,-0.3995840549468994,-0.34820306301116943
1726407028628769000,5.45176904296875,-0.1992209255695343,-0.3970489799976349,-0.343638151884079
1726407028638766000,5.46176611328125,-0.22528809309005737,-0.3978249430656433,-0.3335886001586914
1726407028648762000,5.47176220703125,-0.23468291759490967,-0.41027334332466125,-0.30806007981300354
1726407028658759200,5.48175927734375,-0.225805401802063,-0.41315507888793945,-0.2606063187122345
1726407028668755000,5.4917548828125,-0.21445341408252716,-0.38357535004615784,-0.20145562291145325
1726407028678752000,5.501751953125,-0.2094474732875824,-0.3099161684513092,-0.14507350325584412
1726407028688749000,5.5117490234375,-0.21238015592098236,-0.21227481961250305,-0.10957223922014236
1726407028698745000,5.5217451171875,-0.2164413034915924,-0.11198876053094864,-0.08587301522493362
1726407028708742100,5.5317421875,-0.219090074300766,-0.0203094445168972,-0.07013240456581116
1726407028718738200,5.54173828125,-0.21019700169563293,0.03265856206417084,-0.05858033895492554
1726407028728735000,5.55173486328125,-0.1980457901954651,0.05681050568819046,-0.05297677963972092
1726407028738732000,5.56173193359375,-0.19554978609085083,0.060666948556900024,-0.055796749889850616
1726407028748728000,5.57172802734375,-0.20242607593536377,0.03172212094068527,-0.054826024919748306
1726407028758724900,5.581724853515625,-0.20781703293323517,-0.03410010784864426,-0.04369102790951729
1726407028768722200,5.59172216796875,-0.19439682364463806,-0.10920684039592743,-0.030690543353557587
1726407028778718000,5.601718017578125,-0.17768624424934387,-0.18436329066753387,-0.023530207574367523
1726407028788715000,5.611715087890625,-0.16241221129894257,-0.2533612549304962,-0.028761453926563263
1726407028798711000,5.6217109375,-0.15937666594982147,-0.30032017827033997,-0.046760573983192444
1726407028808707800,5.631707763671875,-0.15517020225524902,-0.32567161321640015,-0.07235008478164673
1726407028818705200,5.641705078125,-0.14701996743679047,-0.34424278140068054,-0.09515116363763809
1726407028828701000,5.651700927734375,-0.14732569456100464,-0.38376012444496155,-0.1258411705493927
1726407028838698200,5.6616982421875,-0.14547042548656464,-0.421813040971756,-0.16058555245399475
1726407028848694000,5.671694091796875,-0.14218807220458984,-0.42219042778015137,-0.2030576467514038
1726407028858691000,5.681691162109375,-0.1398535668849945,-0.40475472807884216,-0.2526080012321472
1726407028868688100,5.691688232421875,-0.13480634987354279,-0.38081422448158264,-0.2906067669391632
1726407028878684200,5.70168408203125,-0.12636907398700714,-0.3541065752506256,-0.3068411350250244
1726407028888681000,5.711680908203125,-0.12697254121303558,-0.3270539343357086,-0.3235527575016022
1726407028898677000,5.721677001953125,-0.12355203181505203,-0.3141340911388397,-0.33538445830345154
1726407028908674000,5.731674072265625,-0.1267065405845642,-0.2777204215526581,-0.3496137261390686
1726407028918671000,5.741671142578125,-0.14044569432735443,-0.2642761170864105,-0.3590187728404999
1726407028928667100,5.751667236328125,-0.14875821769237518,-0.27173349261283875,-0.36348915100097656
1726407028938664700,5.761664794921875,-0.16413207352161407,-0.2618110775947571,-0.3681470453739166
1726407028948660700,5.77166064453125,-0.1865881085395813,-0.2360106259584427,-0.3763386607170105
1726407028958657500,5.781657470703125,-0.203511044383049,-0.22499674558639526,-0.3838489055633545
1726407028968654600,5.791654541015625,-0.2133687436580658,-0.23127861320972443,-0.3859911561012268
1726407028978650600,5.801650634765625,-0.22195498645305634,-0.22288702428340912,-0.39601922035217285
1726407028988647400,5.8116474609375,-0.2339482605457306,-0.2245730757713318,-0.3968445360660553
1726407028998644500,5.82164453125,-0.24802809953689575,-0.2721094787120819,-0.3763850927352905
1726407029008640500,5.831640625,-0.26749128103256226,-0.3292662501335144,-0.3285054564476013
1726407029018637600,5.841637451171875,-0.2962464988231659,-0.3323083817958832,-0.269726425409317
1726407029028633600,5.851633544921875,-0.3194812536239624,-0.2723241448402405,-0.21282772719860077
1726407029038630400,5.86163037109375,-0.3179512619972229,-0.21107248961925507,-0.1661779284477234
1726407029048627700,5.871627685546875,-0.30331000685691833,-0.15174685418605804,-0.11711450666189194
1726407029058623500,5.88162353515625,-0.29628634452819824,-0.09936641156673431,-0.0936930850148201
1726407029068620800,5.891620849609375,-0.30093568563461304,-0.0346880778670311,-0.08345615863800049
1726407029078616600,5.901616455078125,-0.29957643151283264,0.031226087361574173,-0.08249229192733765
1726407029088613600,5.911613525390625,-0.29437583684921265,0.08918312937021255,-0.07402823120355606
1726407029098610700,5.921610595703125,-0.28823110461235046,0.1277819126844406,-0.05771717056632042
1726407029108606500,5.9316064453125,-0.2793095111846924,0.18512749671936035,-0.046790752559900284
1726407029118603500,5.941603515625,-0.26352062821388245,0.2555750906467438,-0.04398658871650696
1726407029128599600,5.951599609375,-0.24760344624519348,0.3154591917991638,-0.04003765434026718
1726407029138596600,5.9615966796875,-0.23203444480895996,0.3154344856739044,-0.02704773098230362
1726407029148593700,5.97159375,-0.2167724072933197,0.2568231225013733,-0.005182113032788038
1726407029158589700,5.981589599609375,-0.21916894614696503,0.14379283785820007,0.011453908868134022
1726407029168586500,5.99158642578125,-0.24339918792247772,0.04228406399488449,0.01249627023935318
1726407029178583600,6.00158349609375,-0.2622828781604767,-0.019688226282596588,-0.01421337015926838
1726407029188579600,6.01157958984375,-0.2506975829601288,-0.059693433344364166,-0.07502026110887527
1726407029198576600,6.02157666015625,-0.23294410109519958,-0.08177560567855835,-0.16870538890361786
1726407029208572700,6.03157275390625,-0.21540692448616028,-0.12363995611667633,-0.2726022005081177
1726407029218569500,6.041569580078125,-0.1946592479944229,-0.17391639947891235,-0.33657535910606384
1726407029228565800,6.051565673828125,-0.18443962931632996,-0.1992417275905609,-0.3525228798389435
1726407029238562600,6.0615625,-0.1733003556728363,-0.18121680617332458,-0.3379697799682617
1726407029248559400,6.071559326171875,-0.15125951170921326,-0.15294043719768524,-0.2941799461841583
1726407029258555600,6.0815556640625,-0.12282967567443848,-0.0959702581167221,-0.22457273304462433
1726407029268552400,6.091552490234375,-0.09017585963010788,0.013315746560692787,-0.13972894847393036
1726407029278549800,6.1015498046875,-0.04220058023929596,0.1308460235595703,-0.03174222633242607
1726407029288545500,6.111545654296875,-0.005564803257584572,0.21761101484298706,0.06550496071577072
1726407029298542600,6.12154248046875,0.018183786422014236,0.26341646909713745,0.1254066675901413
1726407029308538600,6.13153857421875,0.03024897165596485,0.27275219559669495,0.1540936976671219
1726407029318535700,6.14153564453125,0.03476545214653015,0.2624260485172272,0.16091790795326233
1726407029328532500,6.151532470703125,0.04103107005357742,0.2499062418937683,0.134120911359787
1726407029338528500,6.161528564453125,0.04532618075609207,0.2540814280509949,0.07824348658323288
1726407029348525600,6.171525634765625,0.05349089950323105,0.2715432345867157,0.0017266061622649431
1726407029358521300,6.181521240234375,0.08157981187105179,0.25979575514793396,-0.07502210885286331
1726407029368518700,6.1915185546875,0.11407198011875153,0.18030840158462524,-0.12601764500141144
1726407029378515500,6.201515380859375,0.1373511552810669,0.04820011556148529,-0.153231680393219
1726407029388511700,6.21151171875,0.14762242138385773,-0.07755967974662781,-0.1754416525363922
1726407029398508500,6.221508544921875,0.16296979784965515,-0.13780301809310913,-0.19923798739910126
1726407029408504600,6.231504638671875,0.17827178537845612,-0.15502594411373138,-0.19847312569618225
1726407029418501600,6.241501708984375,0.18372118473052979,-0.1604311466217041,-0.18863330781459808
1726407029428498400,6.25149853515625,0.18736305832862854,-0.17270272970199585,-0.17640885710716248
1726407029438494700,6.26149462890625,0.1858132928609848,-0.18325182795524597,-0.17278629541397095
1726407029448491500,6.271491455078125,0.19223177433013916,-0.2184862494468689,-0.175583153963089
1726407029458487600,6.281487548828125,0.1883848011493683,-0.247109517455101,-0.18355883657932281
1726407029468484600,6.291484619140625,0.18779224157333374,-0.25586384534835815,-0.2070407271385193
1726407029478481400,6.3014814453125,0.16872595250606537,-0.25691983103752136,-0.22818148136138916
1726407029488477400,6.3114775390625,0.1611657738685608,-0.3035110533237457,-0.23936623334884644
1726407029498474500,6.321474609375,0.17998068034648895,-0.3460227847099304,-0.2291909009218216
1726407029508471600,6.331471435546875,0.18554402887821198,-0.347247838973999,-0.21257942914962769
1726407029518467600,6.341467529296875,0.17989873886108398,-0.359972208738327,-0.1908130943775177
1726407029528464600,6.351464599609375,0.16270990669727325,-0.3929871618747711,-0.16340437531471252
1726407029538460400,6.36146044921875,0.1284072995185852,-0.45247235894203186,-0.12966012954711914
1726407029548457700,6.371457763671875,0.09071052819490433,-0.5046892166137695,-0.08878859132528305
1726407029558454500,6.38145458984375,0.06879434734582901,-0.49971505999565125,-0.03310636430978775
1726407029568450800,6.391450927734375,0.04969708248972893,-0.4632819592952728,0.022174466401338577
1726407029578447600,6.401447509765625,0.03818130865693092,-0.4239547848701477,0.06824582070112228
1726407029588443400,6.411443359375,0.02884026989340782,-0.3875850439071655,0.08866454660892487
1726407029598440700,6.421440673828125,0.024451591074466705,-0.3656536340713501,0.09966490417718887
1726407029608437500,6.4314375,0.006038496270775795,-0.3811739981174469,0.09327545017004013
1726407029618433500,6.44143359375,-0.025488195940852165,-0.4154973030090332,0.07456686347723007
1726407029628430600,6.4514306640625,-0.04194466769695282,-0.4508470296859741,0.06923548132181168
1726407029638426600,6.461426513671875,-0.04157896712422371,-0.44057250022888184,0.08583337068557739
1726407029648423700,6.471423583984375,-0.04107802361249924,-0.4210411608219147,0.11033844202756882
1726407029658420500,6.48142041015625,-0.03595440089702606,-0.4014684855937958,0.1347210556268692
1726407029668416500,6.49141650390625,-0.034765832126140594,-0.3956662714481354,0.14034858345985413
1726407029678413600,6.50141357421875,-0.033441707491874695,-0.3876757025718689,0.13422411680221558
1726407029688409600,6.51140966796875,-0.03688837215304375,-0.34942924976348877,0.11793248355388641
1726407029698406400,6.521406494140625,-0.0517742745578289,-0.32327747344970703,0.0903804749250412
1726407029708403700,6.53140380859375,-0.05910516157746315,-0.33919864892959595,0.0709891989827156
1726407029718399500,6.5413994140625,-0.0539814718067646,-0.36252400279045105,0.056551363319158554
1726407029728396500,6.551396484375,-0.038538601249456406,-0.3970524072647095,0.04160570353269577
1726407029738392600,6.561392578125,-0.03157753869891167,-0.4407598078250885,0.010146208107471466
1726407029748389400,6.571389404296875,-0.049131497740745544,-0.4562559425830841,-0.0256301648914814
1726407029758386700,6.58138671875,-0.06261806190013885,-0.4685709476470947,-0.04909980297088623
1726407029768382500,6.591382568359375,-0.06180073693394661,-0.4577060639858246,-0.06694857776165009
1726407029778379800,6.6013798828125,-0.034267544746398926,-0.40847140550613403,-0.08262811601161957
1726407029788376600,6.61137646484375,0.001415087841451168,-0.35932037234306335,-0.09540702402591705
1726407029798372600,6.62137255859375,0.028044022619724274,-0.3209986984729767,-0.10513308644294739
1726407029808369700,6.63136962890625,0.04366452619433403,-0.2883989214897156,-0.12081058323383331
1726407029818365700,6.64136572265625,0.05765387788414955,-0.2231089025735855,-0.15271848440170288
1726407029828362500,6.651362548828125,0.06297247856855392,-0.14836116135120392,-0.18458959460258484
1726407029838359600,6.661359619140625,0.07323478162288666,-0.10750562697649002,-0.20972803235054016
1726407029848355600,6.67135546875,0.08849336206912994,-0.052063681185245514,-0.24321621656417847
1726407029858352600,6.6813525390625,0.10539733618497849,0.07335164397954941,-0.2793807089328766
1726407029868348700,6.6913486328125,0.12364025413990021,0.20355224609375,-0.316817045211792
1726407029878345500,6.701345458984375,0.15339124202728271,0.3063187301158905,-0.33818870782852173
1726407029888342500,6.711342529296875,0.17892350256443024,0.37417447566986084,-0.3310743272304535
1726407029898338600,6.721338623046875,0.1984800398349762,0.37602201104164124,-0.28969496488571167
1726407029908335600,6.731335693359375,0.17939183115959167,0.3515545129776001,-0.23078078031539917
1726407029918331600,6.74133154296875,0.14774474501609802,0.31143710017204285,-0.17130208015441895
1726407029928328400,6.751328369140625,0.13027147948741913,0.2841748297214508,-0.12541447579860687
1726407029938325000,6.761324951171875,0.11623816937208176,0.2688019573688507,-0.08928017318248749
1726407029948320800,6.77132080078125,0.11176592856645584,0.2627512514591217,-0.0627276599407196
1726407029958318000,6.781318115234375,0.1080314889550209,0.29313361644744873,-0.03910442814230919
1726407029968313900,6.79131396484375,0.09954692423343658,0.3429677486419678,-0.03604179248213768
1726407029978311000,6.801310791015625,0.0804818794131279,0.36834782361984253,-0.042099881917238235
1726407029988308000,6.811307861328125,0.06738631427288055,0.3332555890083313,-0.050043560564517975
1726407029998304000,6.821303955078125,0.05411066487431526,0.30736836791038513,-0.06297996640205383
1726407030008301000,6.831301025390625,0.03934663161635399,0.32390525937080383,-0.07052310556173325
1726407030018297900,6.8412978515625,0.02967938408255577,0.3605482578277588,-0.0598604679107666
1726407030028294000,6.8512939453125,0.019546588882803917,0.3868198096752167,-0.04841606691479683
1726407030038291000,6.861291015625,0.017610277980566025,0.37504151463508606,-0.024975862354040146
1726407030048287000,6.871286865234375,0.012412054464221,0.37768790125846863,-0.010728216730058193
1726407030058283800,6.88128369140625,0.00962541438639164,0.3766286075115204,-0.0014671955723315477
1726407030068280800,6.89128076171875,0.01095672883093357,0.3750631809234619,0.008184099569916725
1726407030078276900,6.90127685546875,0.013855276629328728,0.38529863953590393,0.025968899950385094
1726407030088274000,6.91127392578125,0.02938789688050747,0.38248980045318604,0.04898899793624878
1726407030098270000,6.92127001953125,0.051431041210889816,0.362289696931839,0.07269050925970078
1726407030108266800,6.931266845703125,0.06205518916249275,0.35453537106513977,0.08482733368873596
1726407030118264000,6.94126416015625,0.06940573453903198,0.34512051939964294,0.09456731379032135
1726407030128259800,6.951259765625,0.05947347357869148,0.3494788110256195,0.09534628689289093
1726407030138257200,6.961257080078125,0.05805647373199463,0.3774365186691284,0.09378944337368011
1726407030148253000,6.9712529296875,0.05156208947300911,0.38035455346107483,0.09738977253437042
1726407030158249700,6.981249755859375,0.04061691835522652,0.3795412480831146,0.10483763366937637
1726407030168247000,6.9912470703125,0.047892406582832336,0.32401514053344727,0.12458417564630508
1726407030178242800,7.001242919921875,0.05167750269174576,0.25962552428245544,0.14665183424949646
1726407030188240000,7.011239990234375,0.05180719867348671,0.25652506947517395,0.15366314351558685
1726407030198236000,7.02123583984375,0.0511038713157177,0.25838038325309753,0.14251987636089325
1726407030208233000,7.03123291015625,0.05654390901327133,0.27689307928085327,0.10943249613046646
1726407030218230000,7.04122998046875,0.050370439887046814,0.276782751083374,0.055849798023700714
1726407030228226000,7.05122607421875,0.03703812509775162,0.2854361832141876,-0.008733456023037434
1726407030238222800,7.061222900390625,0.02278423123061657,0.2612471282482147,-0.0734044536948204
1726407030248219100,7.07121923828125,0.013975558802485466,0.2233567237854004,-0.12218450754880905
1726407030258216000,7.0812158203125,0.020055381581187248,0.2052186131477356,-0.14152182638645172
1726407030268212700,7.091212646484375,0.03789350017905235,0.21619775891304016,-0.1246696189045906
1726407030278209000,7.101208984375,0.050770193338394165,0.21721944212913513,-0.07699567079544067
1726407030288205800,7.111205810546875,0.037174224853515625,0.20543362200260162,-0.01945594511926174
1726407030298201900,7.121201904296875,0.016960641369223595,0.20217265188694,0.0330880805850029
1726407030308199000,7.131198974609375,-0.0026868307031691074,0.23207968473434448,0.04818474128842354
1726407030318195700,7.14119580078125,-0.012003620155155659,0.2816263437271118,0.02907169796526432
1726407030328192000,7.15119189453125,-0.016833264380693436,0.3280460238456726,0.0024078618735074997
1726407030338188800,7.161188720703125,-0.016239093616604805,0.3788354992866516,-0.03540126606822014
1726407030348184800,7.171184814453125,-0.021059948951005936,0.38378605246543884,-0.06138892471790314
1726407030358182000,7.181181884765625,-0.026178395375609398,0.3722198009490967,-0.09028664231300354
1726407030368179000,7.191178955078125,-0.02938058041036129,0.3485240638256073,-0.13041222095489502
1726407030378175000,7.201175048828125,-0.03528614342212677,0.3168516755104065,-0.1635580211877823
1726407030388172000,7.211172119140625,-0.03867768123745918,0.3019012212753296,-0.17736412584781647
1726407030398167800,7.221167724609375,-0.04358125478029251,0.3027542531490326,-0.1715325117111206
1726407030408164900,7.231164794921875,-0.03624184802174568,0.31333181262016296,-0.1407945603132248
1726407030418162000,7.241161865234375,-0.025134125724434853,0.3428652286529541,-0.1007407158613205
1726407030428157700,7.25115771484375,-0.017686063423752785,0.4041741192340851,-0.05155985802412033
1726407030438155000,7.261155029296875,-0.006711665540933609,0.4710429906845093,0.00693264277651906
1726407030448150800,7.27115087890625,-0.008874951861798763,0.5358185172080994,0.061390556395053864
1726407030458148000,7.281148193359375,-0.019264327362179756,0.5519195795059204,0.11215198785066605
1726407030468145000,7.291144775390625,-0.023488633334636688,0.5654984712600708,0.16470947861671448
1726407030478141000,7.301140869140625,-0.01958790235221386,0.5880253911018372,0.20819836854934692
1726407030488138000,7.311137939453125,-0.01910879835486412,0.6311174631118774,0.2600860595703125
1726407030498134800,7.321134765625,-0.017028721049427986,0.6647958755493164,0.2982187867164612
1726407030508131000,7.331131103515625,-0.0177773367613554,0.6331838965415955,0.31589096784591675
1726407030518127900,7.3411279296875,0.006529100239276886,0.5698493719100952,0.32150542736053467
1726407030528124000,7.3511240234375,0.02762639708817005,0.5158830881118774,0.3196319043636322
1726407030538121000,7.361120849609375,0.0423419289290905,0.40943869948387146,0.31244057416915894
1726407030548117800,7.37111767578125,0.031302325427532196,0.32439810037612915,0.2953396439552307
1726407030558113800,7.38111376953125,-0.004697096534073353,0.2632230222225189,0.24676184356212616
1726407030568110800,7.39111083984375,-0.04628155753016472,0.1788623332977295,0.15130563080310822
1726407030578107000,7.40110693359375,-0.07433967292308807,0.09442639350891113,0.01190190576016903
1726407030588104000,7.41110400390625,-0.09412828832864761,0.050448544323444366,-0.14577588438987732
1726407030598101000,7.42110107421875,-0.09417446702718735,-0.01280935388058424,-0.2800745666027069
1726407030608096800,7.4310966796875,-0.08988065272569656,-0.08523401618003845,-0.3502163589000702
1726407030618094000,7.441093994140625,-0.07942315936088562,-0.10567008703947067,-0.37166908383369446
1726407030628089900,7.45108984375,-0.04970281571149826,-0.1132635548710823,-0.3632497787475586
1726407030638087000,7.4610869140625,-0.0262040663510561,-0.10056213289499283,-0.33004260063171387
1726407030648084000,7.471083984375,-0.028213154524564743,-0.06153057888150215,-0.29718104004859924
1726407030658079700,7.481079833984375,-0.035705599933862686,0.0033172741532325745,-0.27344465255737305
1726407030668077000,7.4910771484375,-0.058143530040979385,0.05695439875125885,-0.2768162190914154
1726407030678072800,7.50107275390625,-0.08677786588668823,0.042544879019260406,-0.2991667687892914
1726407030688070000,7.51106982421875,-0.11483986675739288,-0.026016872376203537,-0.3140344023704529
1726407030698067000,7.52106689453125,-0.12843388319015503,-0.09409213811159134,-0.3135201036930084
1726407030708063000,7.53106298828125,-0.12742267549037933,-0.17085935175418854,-0.28688928484916687
1726407030718060000,7.54106005859375,-0.11096032708883286,-0.2437191754579544,-0.22431233525276184
1726407030728056000,7.55105615234375,-0.09891565144062042,-0.3283834457397461,-0.126943439245224
1726407030738052900,7.561052978515625,-0.12096714973449707,-0.42840278148651123,-0.029864715412259102
1726407030748050000,7.5710498046875,-0.16504113376140594,-0.4889974296092987,0.042445167899131775
1726407030758046000,7.5810458984375,-0.20352645218372345,-0.5022522211074829,0.09684115648269653
1726407030768042800,7.591042724609375,-0.2052372694015503,-0.4799783229827881,0.15528130531311035
1726407030778039000,7.6010390625,-0.17396187782287598,-0.4523553252220154,0.21252135932445526
1726407030788035800,7.611035888671875,-0.1457590013742447,-0.4003848135471344,0.26895853877067566
1726407030798033000,7.621032958984375,-0.13820461928844452,-0.31197142601013184,0.31256213784217834
1726407030808029000,7.63102880859375,-0.1346900463104248,-0.21090874075889587,0.3263179063796997
1726407030818025700,7.641025634765625,-0.13272911310195923,-0.19490203261375427,0.30210307240486145
1726407030828022000,7.65102197265625,-0.13286679983139038,-0.25889697670936584,0.26879945397377014
1726407030838018800,7.661018798828125,-0.14451918005943298,-0.35876166820526123,0.25202733278274536
1726407030848016100,7.67101611328125,-0.15511749684810638,-0.44085413217544556,0.24634921550750732
1726407030858012000,7.681011962890625,-0.15750262141227722,-0.486952006816864,0.24453072249889374
1726407030868009000,7.691009033203125,-0.15534332394599915,-0.5179554224014282,0.24052852392196655
1726407030878005000,7.7010048828125,-0.15985701978206635,-0.5716949701309204,0.23463697731494904
1726407030888001800,7.711001708984375,-0.16153641045093536,-0.6294296383857727,0.21478471159934998
1726407030897998800,7.720998779296875,-0.17329198122024536,-0.6426749229431152,0.18791893124580383
1726407030907995000,7.730994873046875,-0.18354754149913788,-0.6548857688903809,0.16459868848323822
1726407030917992000,7.740991943359375,-0.1852719485759735,-0.6616234183311462,0.14272540807724
1726407030927987700,7.75098779296875,-0.18089531362056732,-0.6022253036499023,0.12274664640426636
1726407030937985000,7.760985107421875,-0.15841901302337646,-0.4476577639579773,0.1200835257768631
1726407030947981800,7.77098193359375,-0.13036766648292542,-0.20119205117225647,0.13809926807880402
1726407030957978000,7.78097802734375,-0.10990499705076218,0.03759349137544632,0.1963910013437271
1726407030967975000,7.790974853515625,-0.09371989965438843,0.19115294516086578,0.2781279385089874
1726407030977971000,7.800970947265625,-0.07992216944694519,0.29556509852409363,0.35681629180908203
1726407030987968000,7.810968017578125,-0.0726940855383873,0.412396103143692,0.4256768226623535
1726407030997964800,7.82096484375,-0.07829371094703674,0.5443861484527588,0.4844403564929962
1726407031007961000,7.830961181640625,-0.0743383839726448,0.6479527354240417,0.5233312845230103
1726407031017958000,7.8409580078125,-0.06154390424489975,0.6461116671562195,0.5041126012802124
1726407031027954000,7.850953857421875,-0.028009911999106407,0.5759701132774353,0.42769718170166016
1726407031037951000,7.860950927734375,0.005353475920855999,0.44521263241767883,0.28033578395843506
1726407031047947800,7.87094775390625,0.03244607895612717,0.2913631498813629,0.08887821435928345
1726407031057944000,7.880944091796875,0.04247868433594704,0.14765819907188416,-0.12650929391384125
1726407031067940900,7.89094091796875,0.033265214413404465,0.04648684710264206,-0.31122347712516785
1726407031077937000,7.90093701171875,0.027801934629678726,0.007328424137085676,-0.4398120939731598
1726407031087934000,7.910933837890625,0.04484350234270096,-0.007909118197858334,-0.527694821357727
1726407031097931000,7.920930908203125,0.05994517728686333,0.029966041445732117,-0.5645425319671631
1726407031107926800,7.9309267578125,0.07069529592990875,0.05068756639957428,-0.5898156762123108
1726407031117924000,7.940924072265625,0.07508724927902222,0.014548096805810928,-0.5977904200553894
1726407031127919900,7.950919921875,0.058709342032670975,0.003633132204413414,-0.6010144352912903
1726407031137917000,7.9609169921875,0.028702720999717712,0.004045792855322361,-0.6101003885269165
1726407031147914000,7.9709140625,0.0008700252510607243,-0.03262673318386078,-0.6399703621864319
1726407031157909800,7.98090966796875,-0.029430806636810303,-0.14099447429180145,-0.6749963760375977
1726407031167907000,7.990906982421875,-0.057366833090782166,-0.2790639400482178,-0.725706934928894
1726407031177902800,8.00090283203125,-0.1079554557800293,-0.3921176493167877,-0.8012825846672058
1726407031187900200,8.010900146484374,-0.16692236065864563,-0.480449378490448,-0.8384658694267273
1726407031197897000,8.02089697265625,-0.1990746110677719,-0.558620274066925,-0.8055582642555237
1726407031207893000,8.03089306640625,-0.18657372891902924,-0.5075680017471313,-0.7401918172836304
1726407031217890000,8.04089013671875,-0.1681443154811859,-0.4554717540740967,-0.6534317135810852
1726407031227886000,8.050885986328124,-0.14452847838401794,-0.41229525208473206,-0.5263624787330627
1726407031237883000,8.0608828125,-0.11247763782739639,-0.3911738097667694,-0.3888958692550659
1726407031247880000,8.0708798828125,-0.08732887357473373,-0.3165038228034973,-0.250703901052475
1726407031257876000,8.0808759765625,-0.0889207050204277,-0.21439500153064728,-0.1437501162290573
1726407031267873000,8.090873046875,-0.11459756642580032,-0.10950987040996552,-0.07017442584037781
1726407031277869000,8.100869140625,-0.15729327499866486,-0.038381703197956085,-0.015048538334667683
1726407031287865900,8.110865966796876,-0.18465033173561096,0.010798625648021698,0.029791636392474174
1726407031297863000,8.12086279296875,-0.18126043677330017,0.09129723906517029,0.05115874484181404
1726407031307859000,8.13085888671875,-0.1523669958114624,0.21710070967674255,0.055881328880786896
1726407031317855700,8.140855712890625,-0.11346306651830673,0.288898229598999,0.07444453984498978
1726407031327852000,8.15085205078125,-0.09797278791666031,0.3304573893547058,0.08630865812301636
1726407031337848800,8.160848876953125,-0.10123688727617264,0.3283587396144867,0.08313271403312683
1726407031347846100,8.17084619140625,-0.1365722417831421,0.293220192193985,0.06940784305334091
1726407031357842000,8.180842041015625,-0.18237559497356415,0.2851664125919342,0.053024664521217346
1726407031367839000,8.1908388671875,-0.1995180994272232,0.2896557152271271,0.04887652397155762
1726407031377835000,8.2008349609375,-0.17456179857254028,0.28267771005630493,0.05265657976269722
1726407031387831800,8.210831787109376,-0.13809086382389069,0.28371739387512207,0.06367354094982147
1726407031397829000,8.2208291015625,-0.10692361742258072,0.28045037388801575,0.08255448192358017
1726407031407825000,8.230824951171876,-0.0887312963604927,0.254129558801651,0.11555691063404083
1726407031417822000,8.240822021484375,-0.08767010271549225,0.23246975243091583,0.14060620963573456
1726407031427818000,8.25081787109375,-0.09313357621431351,0.1317327469587326,0.1574147641658783
1726407031437815000,8.26081494140625,-0.10649875551462173,0.009967153891921043,0.16915787756443024
1726407031447811800,8.270811767578126,-0.1291063278913498,-0.04052318260073662,0.14335450530052185
1726407031457808100,8.28080810546875,-0.15533193945884705,-0.06087135896086693,0.09395851194858551
1726407031467805000,8.290804931640626,-0.1550760120153427,-0.10623856633901596,0.05912516638636589
1726407031477801000,8.300801025390625,-0.1324629783630371,-0.13151460886001587,0.04362737759947777
1726407031487798000,8.310798095703126,-0.09690392017364502,-0.0867316946387291,0.07621994614601135
1726407031497794800,8.320794921875,-0.07117195427417755,-0.055041100829839706,0.11966226249933243
1726407031507791000,8.330791015625,-0.059704918414354324,-0.10260835289955139,0.16545718908309937
1726407031517788000,8.340787841796875,-0.06408599764108658,-0.2394828349351883,0.16814933717250824
1726407031527784000,8.350783935546875,-0.08447063714265823,-0.4053077697753906,0.10793153196573257
1726407031537781000,8.360781005859375,-0.11936241388320923,-0.5883564352989197,-0.00018037715926766396
1726407031547777800,8.37077783203125,-0.15700513124465942,-0.7705118060112,-0.11810088902711868
1726407031557774000,8.380774169921875,-0.16494235396385193,-0.8803590536117554,-0.23359490931034088
1726407031567771000,8.39077099609375,-0.14096805453300476,-0.9251757860183716,-0.29852065443992615
1726407031577767000,8.400766845703124,-0.11936008930206299,-0.9366849064826965,-0.32562142610549927
1726407031587764000,8.410763916015625,-0.08134559541940689,-0.8998328447341919,-0.3261101245880127
1726407031597761000,8.420760986328125,-0.06457647681236267,-0.8635584115982056,-0.31079795956611633
1726407031607756800,8.4307568359375,-0.07182879745960236,-0.8575567007064819,-0.29548370838165283
1726407031617753900,8.44075390625,-0.08651495724916458,-0.8615591526031494,-0.26926496624946594
1726407031627750000,8.45075,-0.0855809897184372,-0.8862813115119934,-0.21837009489536285
1726407031637747000,8.460746826171874,-0.06913114339113235,-0.8956013917922974,-0.14747653901576996
1726407031647744000,8.470743896484375,-0.05871712043881416,-0.858346164226532,-0.07473228871822357
1726407031657739800,8.48073974609375,-0.05551169067621231,-0.7826616764068604,-0.0006535319844260812
1726407031667737000,8.490737060546875,-0.051377665251493454,-0.72262042760849,0.0443594828248024
1726407031677732900,8.50073291015625,-0.03385328873991966,-0.6574817299842834,0.05531905218958855
1726407031687730000,8.51072998046875,-0.022062411531805992,-0.6140831112861633,0.032669130712747574
1726407031697727000,8.52072705078125,-0.0036086495965719223,-0.5765343904495239,0.0019722559954971075
1726407031707723000,8.530722900390625,0.02858976647257805,-0.5387696623802185,-0.03828328847885132
1726407031717720000,8.540719970703124,0.06630080938339233,-0.485519140958786,-0.08108110725879669
1726407031727716000,8.550716064453125,0.09128206223249435,-0.4609874486923218,-0.08760078996419907
1726407031737713000,8.560712890625,0.09374197572469711,-0.46201470494270325,-0.05917889252305031
1726407031747710000,8.5707099609375,0.08907745033502579,-0.4787044823169708,0.007361517287790775
1726407031757706000,8.5807060546875,0.059319868683815,-0.4990629553794861,0.08051269501447678
1726407031767703000,8.590703125,0.013412298634648323,-0.4799518287181854,0.14082050323486328
1726407031777699000,8.600698974609376,-0.02336796745657921,-0.47716283798217773,0.16080090403556824
1726407031787695900,8.61069580078125,-0.017893042415380478,-0.5003603100776672,0.1338670253753662
1726407031797693000,8.62069287109375,0.0021030008792877197,-0.5359624028205872,0.09497014433145523
1726407031807689000,8.63068896484375,0.018978653475642204,-0.526037871837616,0.04856269434094429
1726407031817685800,8.640685791015626,0.02478545345366001,-0.406170517206192,0.008280681446194649
1726407031827682000,8.65068212890625,0.026123424991965294,-0.23357155919075012,-0.020255621522665024
1726407031837678800,8.660678955078126,0.05748209357261658,-0.10414163768291473,-0.009460587985813618
1726407031847676200,8.67067626953125,0.092791348695755,-0.022246506065130234,0.033066101372241974
1726407031857672000,8.680671875,0.11124514788389206,0.0431973859667778,0.08745194971561432
1726407031867669000,8.6906689453125,0.11403587460517883,0.10622908174991608,0.153062641620636
1726407031877665000,8.7006650390625,0.10580120980739594,0.22172512114048004,0.2029031664133072
1726407031887661800,8.710661865234375,0.10382700711488724,0.3560813069343567,0.21770741045475006
1726407031897659100,8.7206591796875,0.10428869724273682,0.4581717252731323,0.22484351694583893
1726407031907655000,8.730655029296875,0.10862059146165848,0.5416836142539978,0.23192113637924194
1726407031917652000,8.74065185546875,0.12185755372047424,0.6359309554100037,0.22598077356815338
1726407031927648000,8.75064794921875,0.12544509768486023,0.7183623909950256,0.2067628651857376
1726407031937645000,8.76064501953125,0.13057702779769897,0.7626553773880005,0.17902792990207672
1726407031947642000,8.77064208984375,0.12765048444271088,0.7639065384864807,0.1457490772008896
1726407031957638100,8.78063818359375,0.12564286589622498,0.7186974883079529,0.09970467537641525
1726407031967635200,8.79063525390625,0.13055320084095,0.5923502445220947,0.07549254596233368
1726407031977631000,8.800630859375,0.15096352994441986,0.47999629378318787,0.03810863569378853
1726407031987628000,8.8106279296875,0.13479574024677277,0.4510951340198517,-0.0004747097846120596
1726407031997625000,8.820625,0.12961193919181824,0.48612552881240845,-0.049379173666238785
1726407032007621000,8.83062109375,0.13140450417995453,0.49821731448173523,-0.07713356614112854
1726407032017618200,8.8406181640625,0.15287765860557556,0.4926995635032654,-0.0828336775302887
1726407032027614200,8.8506142578125,0.17660588026046753,0.492690771818161,-0.08675011992454529
1726407032037611000,8.860611083984375,0.1969461888074875,0.5070741176605225,-0.08463665097951889
1726407032047608000,8.870608154296875,0.2034594863653183,0.5138441324234009,-0.08662363886833191
1726407032057604000,8.88060400390625,0.1951771229505539,0.4933980703353882,-0.08567287027835846
1726407032067601000,8.890600830078125,0.17744553089141846,0.48440805077552795,-0.09168948978185654
1726407032077597200,8.90059716796875,0.1608516126871109,0.447491854429245,-0.08564715832471848
1726407032087594000,8.910593994140624,0.16179703176021576,0.4008052945137024,-0.0656348392367363
1726407032097591000,8.920591064453125,0.17112873494625092,0.3533492684364319,-0.04523453116416931
1726407032107587000,8.930587158203124,0.16899873316287994,0.3243754208087921,-0.026970036327838898
1726407032117584000,8.940583984375,0.14415481686592102,0.31651967763900757,-0.025716541334986687
1726407032127580200,8.950580078125,0.1292096972465515,0.32925331592559814,-0.029299024492502213
1726407032137577000,8.960576904296875,0.1364353448152542,0.3317749798297882,-0.02799317054450512
1726407032147574300,8.97057421875,0.1270088106393814,0.29895898699760437,-0.0005759276682510972
1726407032157570000,8.980570068359375,0.11438816785812378,0.2374754101037979,0.008493858389556408
1726407032167567000,8.990567138671874,0.0985623300075531,0.1830550581216812,0.02050391584634781
1726407032177563100,9.000563232421875,0.07617171108722687,0.1652391105890274,0.021540630608797073
1726407032187560200,9.010560302734374,0.06247374787926674,0.19455012679100037,0.035935815423727036
1726407032197556000,9.020555908203125,0.0890769511461258,0.2487933188676834,0.05891016125679016
1726407032207553000,9.030552978515624,0.1214950755238533,0.3062680661678314,0.09395816177129745
1726407032217550000,9.040550048828125,0.13005772233009338,0.3538036048412323,0.1316787302494049
1726407032227545900,9.0505458984375,0.13519923388957977,0.3541029393672943,0.13114182651042938
1726407032237543200,9.060543212890625,0.12949331104755402,0.3556079566478729,0.0920572280883789
1726407032247539000,9.0705390625,0.114529550075531,0.30816346406936646,0.04669987037777901
1726407032257536300,9.080536376953125,0.0895024761557579,0.21163760125637054,-0.002095030155032873
1726407032267533000,9.090532958984374,0.030896954238414764,0.1034538745880127,-0.021571259945631027
1726407032277529000,9.100529052734375,-0.022676803171634674,-0.04176683723926544,-0.019340258091688156
1726407032287526100,9.110526123046874,-0.03052567131817341,-0.1467110961675644,-0.006149888038635254
1726407032297522200,9.120522216796875,-0.010145831853151321,-0.19817642867565155,0.010328155010938644
1726407032307519000,9.13051904296875,0.003243476850911975,-0.18071860074996948,0.014385215006768703
1726407032317516000,9.14051611328125,0.01463340874761343,-0.13369429111480713,-0.00931734498590231
1726407032327512000,9.150511962890626,0.012453344650566578,-0.06085577234625816,-0.02210770919919014
1726407032337509000,9.160509033203125,-0.011883514001965523,-0.0017659307923167944,0.004615372978150845
1726407032347505200,9.170505126953126,-0.027596697211265564,0.003503665793687105,0.06548964232206345
1726407032357502000,9.180501953125,-0.019984614104032516,0.009831376373767853,0.12694504857063293
1726407032367499000,9.1904990234375,0.003166245063766837,0.08432478457689285,0.1539902538061142
1726407032377495000,9.2004951171875,-0.0007347025093622506,0.17748190462589264,0.18303225934505463
1726407032387492000,9.2104921875,0.01439072098582983,0.24354587495326996,0.22866979241371155
1726407032397488000,9.220488037109375,0.04952433705329895,0.2669053077697754,0.2519039809703827
1726407032407485000,9.23048486328125,0.060563672333955765,0.26674365997314453,0.2667337954044342
1726407032417482200,9.240482177734375,0.06489227712154388,0.3159097135066986,0.2596815824508667
1726407032427478000,9.25047802734375,0.06085972115397453,0.35210713744163513,0.25587379932403564
1726407032437475000,9.26047509765625,0.06424318253993988,0.3014445900917053,0.23803775012493134
1726407032447471000,9.27047119140625,0.08259928226470947,0.22095133364200592,0.2049596905708313
1726407032457468200,9.28046826171875,0.10004599392414093,0.15845903754234314,0.15521346032619476
1726407032467465200,9.29046533203125,0.1036420539021492,0.14594058692455292,0.1059819906949997
1726407032477461000,9.3004609375,0.10877584666013718,0.20385222136974335,0.02936118096113205
1726407032487458000,9.3104580078125,0.11172263324260712,0.33100083470344543,-0.05408923700451851
1726407032497454000,9.3204541015625,0.11979788541793823,0.45380568504333496,-0.11318022012710571
1726407032507451100,9.330451171875,0.12706245481967926,0.5101927518844604,-0.16756783425807953
1726407032517448200,9.3404482421875,0.13551631569862366,0.506753146648407,-0.2175985425710678
1726407032527444200,9.3504443359375,0.13505825400352478,0.47497496008872986,-0.26220089197158813
1726407032537441000,9.36044091796875,0.12156189978122711,0.4101365804672241,-0.3139188587665558
1726407032547437300,9.370437255859375,0.0861479863524437,0.2998228669166565,-0.341732919216156
1726407032557434000,9.38043408203125,0.04591715335845947,0.17574062943458557,-0.33378079533576965
1726407032567431000,9.390430908203125,0.025484848767518997,0.09413817524909973,-0.3041187822818756
1726407032577427200,9.40042724609375,0.01982812024652958,0.06907584518194199,-0.23620639741420746
1726407032587424000,9.410424072265625,0.028111616149544716,0.11717546731233597,-0.17077679932117462
1726407032597420000,9.420419921875,0.031146449968218803,0.17481184005737305,-0.09301631152629852
1726407032607417000,9.4304169921875,0.0055305687710642815,0.18709540367126465,-0.04103939235210419
1726407032617413000,9.4404130859375,-0.03841378912329674,0.1450231820344925,-0.0323743000626564
1726407032627410200,9.45041015625,-0.0770498663187027,0.03730577975511551,-0.056579239666461945
1726407032637407000,9.460406982421874,-0.07744720578193665,-0.08309410512447357,-0.06735676527023315
1726407032647403000,9.470403076171875,-0.056939803063869476,-0.15704581141471863,-0.05363323166966438
1726407032657400000,9.480400146484374,-0.01930762454867363,-0.15735746920108795,0.0013993035536259413
1726407032667396000,9.49039599609375,0.02323956787586212,-0.07700831443071365,0.08018652349710464
1726407032677393000,9.500392822265624,0.0619736909866333,0.04468332976102829,0.17061777412891388
1726407032687390200,9.51039013671875,0.09337742626667023,0.1464991718530655,0.2554972469806671
1726407032697386000,9.520385986328124,0.08937892317771912,0.17599345743656158,0.32196420431137085
1726407032707383000,9.530383056640625,0.07609773427248001,0.09989868849515915,0.36223307251930237
1726407032717379000,9.540379150390624,0.05859711766242981,-0.013163937255740166,0.3625049293041229
1726407032727376000,9.5503759765625,0.03737678378820419,-0.06491421908140182,0.3561580777168274
1726407032737373200,9.560373291015624,0.029486767947673798,-0.06074261665344238,0.3767637014389038
1726407032747369000,9.570368896484375,0.03149639070034027,-0.007182721048593521,0.39812037348747253
1726407032757366300,9.5803662109375,0.04288095608353615,0.055184174329042435,0.420402854681015
1726407032767362000,9.590362060546875,0.06420089304447174,0.0328487753868103,0.4195285141468048
1726407032777359000,9.600359130859376,0.060439519584178925,-0.02876020222902298,0.40613293647766113
1726407032787356200,9.610356201171875,0.03961200267076492,-0.05483068525791168,0.3482893407344818
1726407032797352200,9.620352294921876,0.020849833264946938,-0.07507459819316864,0.2650672197341919
1726407032807349000,9.630348876953125,0.012753025628626347,-0.12051531672477722,0.20445525646209717
1726407032817345000,9.640344970703126,0.011835349723696709,-0.14729121327400208,0.15175102651119232
1726407032827342000,9.650342041015625,0.008297073654830456,-0.1859869658946991,0.1061614379286766
1726407032837339100,9.660339111328126,0.00882528256624937,-0.1938355267047882,0.08002739399671555
1726407032847335200,9.670335205078125,-0.001384211122058332,-0.212375670671463,0.08555877953767776
1726407032857332000,9.68033203125,-0.00677925581112504,-0.2913014888763428,0.08469598740339279
1726407032867328300,9.690328369140625,-0.009787829592823982,-0.31437912583351135,0.08789870887994766
1726407032877325000,9.700324951171876,-0.010633321478962898,-0.2822391092777252,0.12157537043094635
1726407032887321000,9.710321044921875,-0.01695486716926098,-0.31969648599624634,0.1488456130027771
1726407032897318100,9.720318115234376,-0.020065339282155037,-0.320412278175354,0.16783259809017181
1726407032907315000,9.73031494140625,-0.02917548082768917,-0.27704057097435,0.17485669255256653
1726407032917311200,9.740311279296876,-0.05207971855998039,-0.21376106142997742,0.18750475347042084
1726407032927308000,9.75030810546875,-0.07159562408924103,-0.12020181119441986,0.21289347112178802
1726407032937304000,9.760303955078125,-0.05578635632991791,-0.034584660083055496,0.2349548637866974
1726407032947301400,9.77030126953125,-0.02842796966433525,0.001407429575920105,0.24573053419589996
1726407032957298400,9.78029833984375,0.0028954322915524244,-0.030625808984041214,0.21755507588386536
1726407032967294500,9.79029443359375,0.019274936988949776,-0.05870804190635681,0.16304735839366913
1726407032977291300,9.800291259765626,0.0199580080807209,-0.11686371266841888,0.09865695238113403
1726407032987287600,9.81028759765625,0.012834585271775723,-0.19896578788757324,0.017733072862029076
1726407032997284400,9.820284423828125,-0.0000427768100053072,-0.26363539695739746,-0.060601625591516495
1726407033007281400,9.830281494140625,-0.01817038096487522,-0.2755807340145111,-0.11067384481430054
1726407033017277400,9.84027734375,-0.028315935283899307,-0.26332512497901917,-0.1399272233247757
1726407033027274500,9.8502744140625,-0.03535333648324013,-0.2340034693479538,-0.16174623370170593
1726407033037270300,9.860270263671875,-0.04133880138397217,-0.18559031188488007,-0.18820880353450775
1726407033047267300,9.870267333984375,-0.051061201840639114,-0.19281385838985443,-0.2155698537826538
1726407033057264400,9.880264404296875,-0.06726567447185516,-0.18762795627117157,-0.20287305116653442
1726407033067260400,9.890260498046874,-0.07363995164632797,-0.22590796649456024,-0.20002613961696625
1726407033077257500,9.900257568359375,-0.08539507538080215,-0.22300902009010315,-0.1922677904367447
1726407033087253200,9.910253173828124,-0.09935696423053741,-0.21229618787765503,-0.18312035501003265
1726407033097250600,9.92025048828125,-0.1199050098657608,-0.2023324966430664,-0.18586121499538422
1726407033107247400,9.930247314453124,-0.15110793709754944,-0.21135155856609344,-0.19306771457195282
1726407033117243600,9.94024365234375,-0.14984335005283356,-0.2217736393213272,-0.18330812454223633
1726407033127240400,9.950240478515624,-0.13105635344982147,-0.11550578474998474,-0.15613669157028198
1726407033137236500,9.960236572265625,-0.12865757942199707,0.004339002538472414,-0.1380511224269867
1726407033147233500,9.970233642578124,-0.1431310623884201,0.08482132852077484,-0.12984699010849
1726407033157229300,9.980229248046875,-0.14685273170471191,0.08219058066606522,-0.13604465126991272
1726407033167226400,9.990226318359374,-0.15189969539642334,0.07143540680408478,-0.13191542029380798
1726407033177223400,10.000223388671875,-0.13734827935695648,0.1083928719162941,-0.14938609302043915
1726407033187219500,10.010219482421874,-0.08685661852359772,0.19076897203922272,-0.12749092280864716
1726407033197216500,10.020216552734375,-0.015054810792207718,0.34278032183647156,-0.09257546812295914
1726407033207212500,10.030212646484374,0.03710692748427391,0.5253381729125977,-0.06130595877766609
1726407033217209300,10.040209228515625,0.050767380744218826,0.6611091494560242,-0.03915078565478325
1726407033227206400,10.050206298828124,0.016299685463309288,0.6995857357978821,0.009297973476350307
1726407033237202400,10.060202392578125,-0.02411680668592453,0.6185557246208191,0.05382267013192177
1726407033247199200,10.07019921875,-0.07291710376739502,0.48003435134887695,0.0767144039273262
1726407033257195500,10.080195556640625,-0.09318169206380844,0.37824076414108276,0.08180741965770721
1726407033267192300,10.0901923828125,-0.07168439030647278,0.3388877511024475,0.05362904444336891
1726407033277189400,10.100189453125,-0.06654626876115799,0.2991410791873932,0.003755278652533889
1726407033287185400,10.110185302734376,-0.05064533278346062,0.1998717486858368,-0.09476783126592636
1726407033297182200,10.12018212890625,-0.02121514268219471,0.06919098645448685,-0.16946636140346527
1726407033307178500,10.130178466796876,-0.01761108823120594,-0.023902997374534607,-0.19590595364570618
1726407033317175300,10.14017529296875,-0.016423137858510017,-0.10703163594007492,-0.19993990659713745
1726407033327172600,10.150172607421876,-0.023984385654330254,-0.14067880809307098,-0.18865075707435608
1726407033337168400,10.16016845703125,-0.03542519360780716,-0.1362888365983963,-0.16272014379501343
1726407033347165400,10.17016552734375,-0.011336902156472206,-0.09266918152570724,-0.15332823991775513
1726407033357161500,10.180161376953125,-0.008972442708909512,-0.01094021461904049,-0.13704851269721985
1726407033367158500,10.190158447265626,-0.018002156168222427,0.04856252670288086,-0.11042515933513641
1726407033377154300,10.200154296875,-0.03984547406435013,0.005347842816263437,-0.07492683827877045
1726407033387151400,10.2101513671875,-0.040062256157398224,-0.09444213658571243,-0.07244237512350082
1726407033397148400,10.2201484375,-0.045903682708740234,-0.25645267963409424,-0.07613298296928406
1726407033407144200,10.230144287109376,-0.06642493605613708,-0.3522356450557709,-0.11811239272356033
1726407033417141500,10.2401416015625,-0.07250271737575531,-0.3417774736881256,-0.21311287581920624
1726407033427137300,10.25013720703125,-0.07871107757091522,-0.31585612893104553,-0.2829470932483673
1726407033437134600,10.260134521484375,-0.07928245514631271,-0.3304673433303833,-0.3301723301410675
1726407033447131400,10.27013134765625,-0.07469489425420761,-0.36339011788368225,-0.31222209334373474
1726407033457127400,10.28012744140625,-0.06303752958774567,-0.37618517875671387,-0.256980836391449
1726407033467124500,10.29012451171875,-0.07008984684944153,-0.34800973534584045,-0.1621885597705841
1726407033477120500,10.30012060546875,-0.0780162364244461,-0.26795509457588196,-0.06565707921981812
1726407033487117300,10.310117431640625,-0.07708998769521713,-0.16478636860847473,0.024210220202803612
1726407033497114400,10.3201142578125,-0.07986372709274292,-0.02717476524412632,0.0906590148806572
1726407033507110400,10.3301103515625,-0.05091542750597,0.08512594550848007,0.14788128435611725
1726407033517107500,10.340107421875,-0.010686737485229969,0.20963895320892334,0.22120706737041473
1726407033527103500,10.350103515625,0.019613375887274742,0.3165438175201416,0.305858314037323
1726407033537100300,10.360100341796874,0.02884121611714363,0.3584325313568115,0.33905041217803955
1726407033547097300,10.370097412109375,0.0411415621638298,0.3142980933189392,0.3258994519710541
1726407033557093400,10.38009326171875,0.027565848082304,0.20472829043865204,0.2891390919685364
1726407033567090400,10.39009033203125,-0.0037774278316646814,0.06403721868991852,0.23828282952308655
1726407033577086500,10.40008642578125,-0.020729226991534233,-0.04698006063699722,0.14459602534770966
1726407033587083300,10.410083251953125,-0.02799299918115139,-0.08618152141571045,0.07561057806015015
1726407033597080600,10.42008056640625,-0.015150457620620728,-0.10729857534170151,0.03419946879148483
1726407033607076400,10.430076416015625,0.00025592948077246547,-0.13627935945987701,0.04629208520054817
1726407033617073400,10.440073486328124,0.01226579025387764,-0.15970709919929504,0.07868146896362305
1726407033627069400,10.4500693359375,0.006883807945996523,-0.1553855836391449,0.09482927620410919
1726407033637066200,10.460066162109374,-0.007427870761603117,-0.13822618126869202,0.09418317675590515
1726407033647062300,10.470062255859375,-0.002231244696304202,-0.13091793656349182,0.07690911740064621
1726407033657059300,10.480059326171874,0.015786122530698776,-0.09372813999652863,0.053136181086301804
1726407033667056400,10.490056396484375,0.04126618057489395,-0.07101136445999146,0.0428617037832737
1726407033677052400,10.500052490234374,0.07921702414751053,-0.07920591533184052,0.011905917897820473
1726407033687049500,10.510049560546875,0.12392670661211014,-0.06643712520599365,-0.02757357992231846
1726407033697045200,10.520045166015626,0.15597745776176453,-0.018435755744576454,-0.04016905650496483
1726407033707042600,10.53004248046875,0.20192258059978485,0.013162117451429367,-0.04281064495444298
1726407033717039400,10.540039306640624,0.24307331442832947,0.017097579315304756,-0.07338467240333557
1726407033727035600,10.55003564453125,0.26626521348953247,-0.0028545574750751257,-0.11357097327709198
1726407033737032400,10.560032470703124,0.25025880336761475,-0.020126618444919586,-0.11508159339427948
1726407033747028200,10.5700283203125,0.19700013101100922,-0.12891355156898499,-0.10372453927993774
1726407033757025500,10.580025634765626,0.1575627475976944,-0.29307761788368225,-0.10032884776592255
1726407033767022300,10.590022216796875,0.15551558136940002,-0.4119661748409271,-0.14101023972034454
1726407033777018400,10.600018310546876,0.17220963537693024,-0.3970043361186981,-0.20318016409873962
1726407033787015400,10.610015380859375,0.1770709604024887,-0.3429775834083557,-0.28659942746162415
1726407033797011500,10.620011474609376,0.19060222804546356,-0.3501991331577301,-0.37871798872947693
1726407033807008500,10.630008544921875,0.17768137156963348,-0.4328157305717468,-0.44789305329322815
1726407033817004500,10.640004638671876,0.13266047835350037,-0.5714033246040344,-0.48428449034690857
1726407033827001300,10.65000146484375,0.06721650063991547,-0.6905784606933594,-0.47414982318878174
1726407033836998400,10.659998291015626,0.01189503539353609,-0.7726584672927856,-0.43735912442207336
1726407033846994400,10.669994384765625,-0.017714789137244225,-0.7950636744499207,-0.3873993158340454
1726407033856991200,10.6799912109375,-0.002599586034193635,-0.7093945741653442,-0.3345153033733368
1726407033866987500,10.689987548828125,0.02635003998875618,-0.5229493379592896,-0.27841901779174805
1726407033876984300,10.699984375,0.022953666746616364,-0.3548715114593506,-0.2209436297416687
1726407033886981400,10.7099814453125,0.01823694258928299,-0.2065531462430954,-0.15150782465934753
1726407033896977400,10.719977294921875,0.026876913383603096,0.014272866770625114,-0.09152530878782272
1726407033906974200,10.72997412109375,0.033969178795814514,0.28699812293052673,0.003139146603643894
1726407033916970500,10.739970458984375,0.04726020246744156,0.5484580993652344,0.12777355313301086
1726407033926967300,10.74996728515625,0.05526646226644516,0.7491675019264221,0.2355831116437912
1726407033936964600,10.759964599609376,0.04640306904911995,0.877852737903595,0.29491254687309265
1726407033946959600,10.769959716796874,0.015189221128821373,0.9334473013877869,0.33865630626678467
1726407033956956700,10.779956787109375,-0.017302755266427994,0.9167606830596924,0.3530144691467285
1726407033966952400,10.789952392578124,0.003987620584666729,0.9127891063690186,0.3035412132740021
1726407033976949800,10.79994970703125,0.020145228132605553,0.9329783320426941,0.2289704829454422
1726407033986945500,10.809945556640624,0.02411040849983692,0.9405473470687866,0.16027690470218658
1726407033996942800,10.81994287109375,0.036950331181287766,0.9965456128120422,0.12942802906036377
1726407034006939600,10.829939697265624,0.06338700652122498,1.0174484252929688,0.15000735223293304
1726407034016935700,10.839935791015625,0.0919782742857933,1.04428231716156,0.17483209073543549
1726407034026932700,10.8499326171875,0.1173720434308052,1.087185025215149,0.18495289981365204
1726407034036928800,10.8599287109375,0.13559535145759583,1.0556706190109253,0.1832132190465927
1726407034046925600,10.869925537109374,0.12427371740341187,1.003702163696289,0.1600852608680725
1726407034056922600,10.879922607421875,0.1216789111495018,0.9225552082061768,0.11253873258829117
1726407034066918700,10.889918701171876,0.11558347195386887,0.8486093282699585,0.034718502312898636
1726407034076915700,10.899915771484375,0.09785851836204529,0.7801953554153442,-0.07739715278148651
1726407034086911700,10.909911865234376,0.08165131509304047,0.6986525654792786,-0.1817011833190918
1726407034096908500,10.919908447265625,0.08459199965000153,0.647201657295227,-0.22859568893909454
1726407034106905600,10.929905517578124,0.08201512694358826,0.6605875492095947,-0.21391688287258148
1726407034116901600,10.939901611328125,0.08065067231655121,0.6420014500617981,-0.20798176527023315
1726407034126898700,10.949898681640626,0.09724109619855881,0.5347639322280884,-0.22353409230709076
1726407034136894700,10.959894775390625,0.08270574361085892,0.4223939776420593,-0.27494344115257263
1726407034146891500,10.9698916015625,0.05829308554530144,0.29050466418266296,-0.32947325706481934
1726407034156887800,10.9798876953125,0.022152261808514595,0.168382465839386,-0.37645620107650757
1726407034166884600,10.989884521484376,0.020809495821595192,0.056132882833480835,-0.41810962557792664
1726407034176881700,10.999881591796875,0.029173286631703377,0.020638784393668175,-0.43593889474868774
1726407034186877700,11.009877685546876,0.025835813954472542,0.08927297592163086,-0.39127394556999207
1726407034196874500,11.01987451171875,0.03690444678068161,0.18408896028995514,-0.32650667428970337
1726407034206870500,11.02987060546875,0.0438382513821125,0.3345016539096832,-0.2628464698791504
1726407034216867600,11.03986767578125,0.061035726219415665,0.4937695264816284,-0.20904512703418732
1726407034226864600,11.04986474609375,0.12394066154956818,0.5808327794075012,-0.1678641438484192
1726407034236860700,11.059860595703125,0.19810046255588531,0.6777478456497192,-0.13473676145076752
1726407034246857700,11.069857666015626,0.2344808429479599,0.7350715398788452,-0.08359234035015106
1726407034256853500,11.079853515625,0.2194901555776596,0.6850394010543823,-0.04244110360741615
1726407034266850800,11.089850830078126,0.16926373541355133,0.6321556568145752,-0.04459134116768837
1726407034276847600,11.09984765625,0.11743053048849106,0.5035750269889832,-0.06659702211618423
1726407034286844000,11.109843994140626,0.08824308961629868,0.3673335313796997,-0.05331903323531151
1726407034296840700,11.1198408203125,0.052087120711803436,0.21899160742759705,-0.03202429041266441
1726407034306836500,11.12983642578125,0.021512167528271675,0.07188950479030609,-0.0028019575402140617
1726407034316833800,11.139833740234375,-0.020697275176644325,0.015601913444697857,-0.0026206667535007
1726407034326829600,11.14982958984375,-0.05589521303772926,-0.07427018135786057,0.023978719487786293
1726407034336826600,11.15982666015625,-0.044028203934431076,-0.017587605863809586,0.02677605301141739
1726407034346823700,11.16982373046875,-0.0043212720192968845,0.09768278896808624,0.033308256417512894
1726407034356819700,11.17981982421875,0.032306261360645294,0.1795702874660492,0.059032563120126724
1726407034366816800,11.189816650390625,0.05142269656062126,0.23128089308738708,0.09406112134456635
1726407034376812800,11.199812744140624,0.05401401221752167,0.28964054584503174,0.12548863887786865
1726407034386809600,11.2098095703125,0.05330188199877739,0.33899372816085815,0.18154418468475342
1726407034396806700,11.219806640625,0.06561359018087387,0.36235377192497253,0.19123633205890656
1726407034406802700,11.229802734375,0.06731641292572021,0.32866665720939636,0.18238317966461182
1726407034416799500,11.239799560546874,0.03227955475449562,0.2307748794555664,0.16325326263904572
1726407034426795800,11.249795654296875,0.0019488133257254958,0.15004515647888184,0.153984934091568
1726407034436792600,11.25979248046875,-0.027390524744987488,0.032056309282779694,0.12751881778240204
1726407034446789600,11.26978955078125,-0.07833732664585114,-0.15449093282222748,0.09125269204378128
1726407034456785700,11.27978564453125,-0.11046367883682251,-0.2792597711086273,0.042669352144002914
1726407034466782500,11.289782470703125,-0.12025292962789536,-0.2676750421524048,0.02044101059436798
1726407034476778800,11.29977880859375,-0.11527969688177109,-0.2595176696777344,0.03335990011692047
1726407034486775600,11.309775634765625,-0.09255174547433853,-0.3012848198413849,0.04446607828140259
1726407034496771600,11.319771484375,-0.07704585790634155,-0.3570605218410492,0.011072455905377865
1726407034506768600,11.3297685546875,-0.06120910122990608,-0.3811136782169342,-0.0623740628361702
1726407034516765700,11.339765625,-0.049433860927820206,-0.34332069754600525,-0.09425383806228638
1726407034526761700,11.34976171875,-0.07748094201087952,-0.32984697818756104,-0.07434431463479996
1726407034536758800,11.3597587890625,-0.07556141167879105,-0.32807525992393494,-0.016605403274297714
1726407034546754600,11.369754638671875,-0.04682297259569168,-0.3306542932987213,0.04999333247542381
1726407034556751600,11.379751708984376,-0.03745542839169502,-0.41103383898735046,0.09348731487989426
1726407034566748700,11.389748779296875,-0.03159993514418602,-0.5184791088104248,0.08573378622531891
1726407034576744400,11.399744384765626,-0.020345961675047874,-0.5374936461448669,0.07139912992715836
1726407034586741800,11.40974169921875,-0.040329523384571075,-0.5292596817016602,0.0801667869091034
1726407034596737500,11.419737548828126,-0.056485362350940704,-0.5713369846343994,0.10291225463151932
1726407034606734800,11.42973486328125,-0.039233673363924026,-0.5912678241729736,0.12128620594739914
1726407034616731600,11.439731689453126,-0.005238822195678949,-0.5177621841430664,0.1129392683506012
1726407034626727700,11.449727783203125,-0.00400977348908782,-0.4798153042793274,0.1562577188014984
1726407034636724700,11.459724853515626,-0.015153033658862114,-0.463354229927063,0.2587183713912964
1726407034646720800,11.469720703125,-0.0024577444419264793,-0.35792312026023865,0.314860999584198
1726407034656717800,11.4797177734375,0.023790327832102776,-0.19307783246040344,0.3211560547351837
1726407034666713600,11.489713623046875,0.04366176947951317,-0.057829465717077255,0.2781081795692444
1726407034676710700,11.499710693359376,0.057629045099020004,0.00768288504332304,0.23464398086071014
1726407034686707700,11.509707763671875,0.06122510880231857,0.03435284644365311,0.1863800436258316
1726407034696703700,11.519703857421876,0.0607009083032608,0.03856874629855156,0.1637914776802063
1726407034706700500,11.529700439453125,0.05260410159826279,0.06828350573778152,0.12040139734745026
1726407034716696800,11.53969677734375,0.03635573014616966,0.09909358620643616,0.05931080877780914
1726407034726693600,11.549693603515625,0.04879216104745865,0.15251126885414124,0.007603938691318035
1726407034736690700,11.559690673828126,0.06778710335493088,0.2402886003255844,-0.02332274802029133
1726407034746686700,11.569686767578125,0.06694953888654709,0.28395912051200867,0.004105414263904095
1726407034756683500,11.57968359375,0.0788104385137558,0.2969323396682739,0.045141760259866714
1726407034766679800,11.5896796875,0.08387336879968643,0.2851443886756897,0.07390310615301132
1726407034776676600,11.599676513671875,0.07014279812574387,0.17051167786121368,0.08189576119184494
1726407034786672600,11.609672607421874,0.039438944309949875,0.038430340588092804,0.03190476447343826
1726407034796669700,11.619669677734375,-0.011234279721975327,0.021667659282684326,-0.04838702082633972
1726407034806666500,11.62966650390625,-0.06809436529874802,0.04502145200967789,-0.10820507258176804
1726407034816662500,11.63966259765625,-0.09723229706287384,-0.027665359899401665,-0.1459873765707016
1726407034826659600,11.64965966796875,-0.06677985191345215,-0.15693919360637665,-0.19270135462284088
1726407034836655600,11.659655517578125,-0.033988092094659805,-0.1901334971189499,-0.23218770325183868
1726407034846652700,11.669652587890624,-0.037839554250240326,-0.17393748462200165,-0.2397335022687912
1726407034856649700,11.679649658203125,-0.07011973112821579,-0.2496282458305359,-0.22018297016620636
1726407034866645500,11.6896455078125,-0.11576338112354279,-0.3753901720046997,-0.16508084535598755
1726407034876642800,11.699642822265625,-0.15126672387123108,-0.4196448028087616,-0.0908367782831192
1726407034886638600,11.709638671875,-0.18102648854255676,-0.36645135283470154,-0.035502415150403976
1726407034896635600,11.7196357421875,-0.18480132520198822,-0.31095725297927856,-0.0016204715939238667
1726407034906631700,11.729631591796876,-0.17908112704753876,-0.2738809883594513,-0.02150416374206543
1726407034916628500,11.73962841796875,-0.19266359508037567,-0.18224234879016876,-0.02578924223780632
1726407034926625800,11.749625732421874,-0.2111150324344635,-0.2129744291305542,-0.01940963976085186
1726407034936621600,11.75962158203125,-0.21968843042850494,-0.23620395362377167,-0.013757330365478992
1726407034946619400,11.769619384765624,-0.20294220745563507,-0.1791883409023285,-0.057314660400152206
1726407034956615200,11.779615234375,-0.18286772072315216,-0.05783060938119888,-0.07010074704885483
1726407034966612200,11.7896123046875,-0.12489522248506546,0.12089332938194275,-0.1017146036028862
1726407034976609300,11.799609375,-0.07556480169296265,0.3165339231491089,-0.13962772488594055
1726407034986605000,11.80960498046875,-0.05313032865524292,0.4020299017429352,-0.13666309416294098
1726407034996602400,11.819602294921875,-0.03834926709532738,0.42214301228523254,-0.1091751903295517
1726407035006598100,11.82959814453125,-0.045551788061857224,0.5343561172485352,-0.055690400302410126
1726407035016595500,11.839595458984375,-0.07533778250217438,0.5954461693763733,-0.02569420635700226
1726407035026591200,11.84959130859375,-0.12933123111724854,0.5517159700393677,-0.009930955246090889
1726407035036588300,11.85958837890625,-0.16070546209812164,0.494821697473526,0.008529119193553925
1726407035046585300,11.86958544921875,-0.1758846789598465,0.4650062620639801,0.01548449695110321
1726407035056581400,11.879581298828125,-0.15651358664035797,0.4853954613208771,-0.048500075936317444
1726407035066578400,11.889578369140626,-0.11848844587802887,0.42059728503227234,-0.1352192610502243
1726407035076574200,11.89957421875,-0.0978158637881279,0.2592912018299103,-0.23362085223197937
1726407035086571300,11.9095712890625,-0.11413305252790451,0.011420687660574913,-0.3125081956386566
1726407035096568300,11.919568359375,-0.12371696531772614,-0.10343585908412933,-0.3369922339916229
1726407035106564400,11.929564453125,-0.12125061452388763,-0.14257793128490448,-0.32225164771080017
1726407035116561200,11.93956103515625,-0.11667639762163162,-0.21027784049510956,-0.3334565758705139
1726407035126557400,11.949557373046876,-0.15020108222961426,-0.22656360268592834,-0.3163740038871765
1726407035136554200,11.95955419921875,-0.19964687526226044,-0.2839597463607788,-0.2618279457092285
1726407035146551300,11.96955126953125,-0.20914077758789062,-0.2806430459022522,-0.188118577003479
1726407035156547300,11.97954736328125,-0.1822601854801178,-0.2315051406621933,-0.12719987332820892
1726407035166544100,11.989544189453126,-0.15745416283607483,-0.30625447630882263,-0.08072476834058762
1726407035176540400,11.99954052734375,-0.15513728559017181,-0.2186005860567093,-0.06658963859081268
1726407035186537200,12.009537109375,-0.13950666785240173,-0.005350092425942421,-0.06342820078134537
1726407035196533200,12.019533203125,-0.1271255612373352,0.12186450511217117,-0.02702152356505394
1726407035206530300,12.0295302734375,-0.10907119512557983,0.1971813589334488,0.05842093750834465
1726407035216527000,12.039527099609375,-0.06509263068437576,0.2796424329280853,0.11252016574144363
1726407035226523400,12.0495234375,-0.039707910269498825,0.3213914632797241,0.13957761228084564
1726407035236520200,12.059520263671875,-0.06122558191418648,0.2863205373287201,0.17659853398799896
1726407035246516200,12.06951611328125,-0.08648300170898438,0.2801752984523773,0.16845591366291046
1726407035256513300,12.07951318359375,-0.11271695792675018,0.1844877302646637,0.12433762103319168
1726407035266510300,12.08951025390625,-0.11637188494205475,0.017257463186979294,0.0770244374871254
1726407035276506000,12.099506103515624,-0.092466801404953,-0.1254093199968338,0.014754969626665115
1726407035286503400,12.10950341796875,-0.04360045865178108,-0.1649671047925949,-0.07448489964008331
1726407035296499200,12.119499267578124,0.013236665166914463,-0.126426562666893,-0.1628333330154419
1726407035306496300,12.129496337890625,0.03810792788863182,-0.09371229261159897,-0.23695789277553558
1726407035316492300,12.1394921875,0.020692288875579834,-0.11876995861530304,-0.23586484789848328
1726407035326489000,12.149489013671875,-0.0012987630907446146,-0.1444484293460846,-0.18176725506782532
1726407035336486400,12.159486328125,-0.028540771454572678,-0.17563164234161377,-0.14694827795028687
1726407035346482200,12.169482177734375,-0.032312605530023575,-0.2365003228187561,-0.13739712536334991
1726407035356479200,12.179479248046874,-0.020849546417593956,-0.2991577088832855,-0.1444244682788849
1726407035366475300,12.189475341796875,-0.029938915744423866,-0.31541043519973755,-0.15229330956935883
1726407035376472300,12.199472412109374,-0.054176609963178635,-0.2695849537849426,-0.151506245136261
1726407035386469400,12.209469482421875,-0.07570294290781021,-0.3065914213657379,-0.11819756031036377
1726407035396465400,12.21946533203125,-0.09490520507097244,-0.36579298973083496,-0.09375183284282684
1726407035406462200,12.229462158203125,-0.10072314739227295,-0.3385767936706543,-0.08059129118919373
1726407035416458500,12.23945849609375,-0.09748321771621704,-0.33288487792015076,-0.06499301642179489
1726407035426455300,12.249455322265625,-0.10908661037683487,-0.39307844638824463,-0.05320453271269798
1726407035436451000,12.259451171875,-0.09282764047384262,-0.37394285202026367,-0.0860951766371727
1726407035446448400,12.269448486328125,-0.07404090464115143,-0.3137330412864685,-0.12358689308166504
1726407035456445200,12.279445068359376,-0.06371092796325684,-0.22689877450466156,-0.1746210753917694
1726407035466441500,12.28944140625,-0.03269442915916443,-0.1255260705947876,-0.21595652401447296
1726407035476438300,12.299438232421876,0.01548317726701498,0.0038696350529789925,-0.20757251977920532
1726407035486434300,12.309434326171875,0.06742706149816513,0.1310478299856186,-0.16411557793617249
1726407035496431400,12.319431396484376,0.10882103443145752,0.27029892802238464,-0.10309959948062897
