time,seconds_elapsed,z,y,x
1726407023193106000,0.01610595703125,-0.25340405106544495,-0.20502585172653198,0.4105371832847595
1726407023203102000,0.02610205078125,-0.34438666701316833,0.002514556748792529,0.43470779061317444
1726407023213098800,0.0360986328125,-0.4161687195301056,0.3863375782966614,0.4572077691555023
1726407023223095800,0.046095703125,-0.41740068793296814,0.910281777381897,0.528624951839447
1726407023233091800,0.056091796875,-0.34768927097320557,1.452942132949829,0.6711528301239014
1726407023243088600,0.066088623046875,-0.00008708536915946752,1.8680884838104248,0.9134368300437927
1726407023253085000,0.0760849609375,0.3377532660961151,2.365187168121338,1.1741362810134888
1726407023263081700,0.086081787109375,0.4039165675640106,2.5834124088287354,1.4345918893814087
1726407023273079000,0.0960791015625,0.2476034015417099,2.355512857437134,1.600378155708313
1726407023283074800,0.10607470703125,-0.08316625654697418,1.5108184814453125,1.5452128648757935
1726407023293072000,0.11607177734375,-0.4793122708797455,0.46199265122413635,1.4408290386199951
1726407023303068000,0.12606787109375,-0.7742810845375061,-0.0006032059900462627,1.5041035413742065
1726407023313064700,0.136064697265625,-0.883234977722168,0.04511341452598572,1.5805552005767822
1726407023323062000,0.14606201171875,-0.9274492859840393,0.19698897004127502,1.4935768842697144
1726407023333057800,0.156057861328125,-0.9485436677932739,0.38417401909828186,1.3278419971466064
1726407023343054800,0.166054931640625,-0.944193959236145,0.40117910504341125,1.1958855390548706
1726407023353050600,0.176050537109375,-0.8328607678413391,-0.11419741064310074,1.127945899963379
1726407023363048000,0.1860478515625,-0.7878863215446472,-0.7812193632125854,1.0674761533737183
1726407023373044700,0.196044677734375,-0.7477346658706665,-1.4067522287368774,0.9960731267929077
1726407023383041000,0.206041015625,-0.7060737609863281,-1.8408304452896118,0.9673245549201965
1726407023393037800,0.216037841796875,-0.6960738897323608,-2.049788475036621,0.9481324553489685
1726407023403035000,0.226034912109375,-0.7232080101966858,-1.9828280210494995,0.9216532111167908
1726407023413031000,0.236031005859375,-0.7671824097633362,-1.6550499200820923,0.9583696722984314
1726407023423027700,0.24602783203125,-0.7932193279266357,-1.2999600172042847,1.0116297006607056
1726407023433024000,0.25602392578125,-0.6995365023612976,-1.0550895929336548,1.0435711145401
1726407023443020800,0.266020751953125,-0.503677248954773,-0.775264322757721,0.964758038520813
1726407023453017600,0.276017578125,-0.31358933448791504,-0.6702867746353149,0.6482203006744385
1726407023463014000,0.286013916015625,-0.05492876097559929,-0.7358567118644714,0.3751741349697113
1726407023473010700,0.2960107421875,0.29479649662971497,-0.7156733870506287,0.29841917753219604
1726407023483006700,0.3060068359375,0.6024057269096375,-0.8984464406967163,0.26486656069755554
1726407023493003800,0.316003662109375,0.8514365553855896,-0.9772770404815674,0.1286301463842392
1726407023503000800,0.326000732421875,0.9249461889266968,-0.6693834066390991,-0.2213587462902069
1726407023512996900,0.335996826171875,0.9911960363388062,-0.16506965458393097,-0.611632764339447
1726407023522994000,0.345993896484375,1.1252143383026123,-0.09355365484952927,-0.8518013954162598
1726407023532989700,0.35598974609375,1.228660225868225,-0.6177034378051758,-0.9256628751754761
1726407023542986800,0.36598681640625,1.476881504058838,-2.585836172103882,-0.6875722408294678
1726407023552983800,0.37598388671875,1.455949068069458,-3.8112497329711914,-0.33975037932395935
1726407023562979800,0.385979736328125,1.4547842741012573,-4.506383895874023,-0.12498880922794342
1726407023572977000,0.395976806640625,1.5270041227340698,-4.753036022186279,-0.014478009194135666
1726407023582973700,0.4059736328125,1.683448314666748,-4.678454875946045,0.08407812565565109
1726407023592970000,0.415969970703125,2.1253480911254883,-4.780482769012451,0.38088956475257874
1726407023602966800,0.425966796875,2.466865062713623,-4.876846790313721,0.9231496453285217
1726407023612962800,0.435962890625,2.435231924057007,-5.068647384643555,1.558899164199829
1726407023622959900,0.4459599609375,1.9730297327041626,-5.2395405769348145,2.0626823902130127
1726407023632956700,0.455956787109375,1.119804859161377,-5.255429744720459,2.002012252807617
1726407023642953000,0.465952880859375,0.9697256684303284,-5.75891637802124,2.2367026805877686
1726407023652949800,0.47594970703125,1.4561922550201416,-6.919827938079834,2.908609628677368
1726407023662945800,0.48594580078125,1.8130954504013062,-7.879115581512451,3.6131670475006104
1726407023672942800,0.49594287109375,2.128262519836426,-8.050981521606445,4.262607097625732
1726407023682939600,0.505939697265625,2.854865789413452,-7.142566680908203,4.723051071166992
1726407023692936000,0.51593603515625,3.859118700027466,-6.266498565673828,5.282036781311035
1726407023702932700,0.5259326171875,4.795462608337402,-6.016987323760986,5.940035343170166
1726407023712929800,0.5359296875,5.66339111328125,-6.185359477996826,6.390556335449219
1726407023722925800,0.54592578125,6.692373752593994,-6.257242202758789,6.733692646026611
1726407023732923000,0.5559228515625,7.879042148590088,-5.453418731689453,6.831849575042725
1726407023742918700,0.565918701171875,8.848039627075195,-4.293633460998535,6.4101457595825195
1726407023752916000,0.575916015625,9.366266250610352,-3.5567567348480225,5.523797512054443
1726407023762912800,0.585912841796875,9.617149353027344,-3.3051812648773193,4.6442389488220215
1726407023772908800,0.59590869140625,9.887188911437988,-3.324056625366211,4.172783374786377
1726407023782905900,0.60590576171875,10.39659595489502,-3.3451735973358154,4.1374335289001465
1726407023792902700,0.615902587890625,10.972185134887695,-3.199915885925293,4.299088478088379
1726407023802899000,0.62589892578125,11.235450744628906,-2.633552312850952,4.428318023681641
1726407023812895700,0.635895751953125,11.110971450805664,-1.8835387229919434,4.435154438018799
1726407023822891800,0.645891845703125,10.858155250549316,-0.9798595309257507,4.661751747131348
1726407023832888800,0.655888916015625,10.686001777648926,-0.0642935037612915,4.946423053741455
1726407023842885600,0.6658857421875,10.407564163208008,0.7503384351730347,5.021196365356445
1726407023852882000,0.6758818359375,9.810505867004395,1.3562859296798706,4.941213130950928
1726407023862878700,0.685878662109375,9.04067611694336,1.6672264337539673,4.790227890014648
1726407023872876000,0.6958759765625,8.146626472473145,1.7573888301849365,4.586120128631592
1726407023882871800,0.705871826171875,7.03873348236084,1.7490371465682983,4.4101715087890625
1726407023892868900,0.715868896484375,5.836225986480713,1.7915284633636475,4.233534336090088
1726407023902865000,0.725864990234375,4.690045356750488,1.6956828832626343,4.064872741699219
1726407023912862000,0.735862060546875,3.5502500534057617,1.5708823204040527,3.991399049758911
1726407023922858800,0.745858642578125,2.491931915283203,1.5156968832015991,3.9150476455688477
1726407023932854500,0.7558544921875,1.6307477951049805,1.677253246307373,3.653883457183838
1726407023942851600,0.7658515625,0.8303272724151611,1.852766990661621,3.314351797103882
1726407023952848400,0.775848388671875,0.021935392171144485,1.7355024814605713,2.750887393951416
1726407023962844700,0.7858447265625,-0.6929371953010559,1.6001837253570557,2.084451675415039
1726407023972841500,0.795841552734375,-1.2454440593719482,1.5548075437545776,1.0841635465621948
1726407023982837500,0.80583740234375,-1.6762886047363281,1.7089203596115112,0.33483150601387024
1726407023992834600,0.81583447265625,-2.0488409996032715,1.8338737487792969,0.054612644016742706
1726407024002831400,0.825831298828125,-2.376251459121704,1.6683833599090576,0.11912026256322861
1726407024012827600,0.83582763671875,-2.699770927429199,1.298956036567688,0.25825685262680054
1726407024022824400,0.845824462890625,-3.0664334297180176,0.9884519577026367,0.3901435136795044
1726407024032821500,0.855821533203125,-3.384397268295288,0.8171313405036926,0.403023898601532
1726407024042817500,0.865817626953125,-3.710007429122925,0.6309715509414673,0.15772917866706848
1726407024052814600,0.875814697265625,-4.052292823791504,0.516666054725647,-0.24946682155132294
1726407024062811600,0.885811767578125,-4.362253665924072,0.6041274070739746,-0.6836004257202148
1726407024072807400,0.895807373046875,-4.590039253234863,0.7291482090950012,-1.0658119916915894
1726407024082804500,0.905804443359375,-4.652425289154053,0.8061396479606628,-1.3088680505752563
1726407024092800500,0.915800537109375,-4.752283096313477,0.7886746525764465,-1.5404770374298096
1726407024102797600,0.925797607421875,-4.570185661315918,0.42123323678970337,-1.8208413124084473
1726407024112794600,0.935794677734375,-4.132646560668945,0.43165019154548645,-2.0011229515075684
1726407024122790700,0.945790771484375,-3.805222749710083,0.4309135675430298,-2.1964879035949707
1726407024132787500,0.955787353515625,-3.494900941848755,0.15223348140716553,-2.3729302883148193
1726407024142784500,0.965784423828125,-3.0470709800720215,-0.6177271604537964,-2.2234160900115967
1726407024152780500,0.975780517578125,-2.7822866439819336,-1.3128830194473267,-2.093768358230591
1726407024162777300,0.98577734375,-2.6729159355163574,-1.572029948234558,-2.9672586917877197
1726407024172773600,0.995773681640625,-1.959671139717102,-2.154970169067383,-3.2141196727752686
1726407024182770400,1.0057705078125,-1.470804214477539,-2.2587995529174805,-3.3663196563720703
1726407024192767700,1.015767822265625,-1.0141501426696777,-1.5056679248809814,-3.2934041023254395
1726407024202763500,1.025763427734375,-0.5133224129676819,-0.8794791102409363,-3.250654697418213
1726407024212760600,1.035760498046875,-0.13435354828834534,-0.8229076862335205,-3.6300032138824463
1726407024222757600,1.045757568359375,-0.009966347366571426,-0.9317742586135864,-3.995537281036377
1726407024232753400,1.05575341796875,-0.13007357716560364,-1.0498831272125244,-4.532404899597168
1726407024242750700,1.065750732421875,-0.3233511745929718,-1.2548819780349731,-5.490726470947266
1726407024252747500,1.07574755859375,-0.5089194178581238,-1.298129677772522,-6.361659049987793
1726407024262743600,1.08574365234375,-0.5418630242347717,-1.4834587574005127,-6.506276607513428
1726407024272740600,1.09574072265625,-0.09665064513683319,-1.0968002080917358,-6.679854393005371
1726407024282736600,1.105736572265625,0.6276109218597412,-0.1623454988002777,-7.211597442626953
1726407024292733400,1.1157333984375,1.2454164028167725,0.5753823518753052,-7.587334156036377
1726407024302730500,1.12573046875,1.6313347816467285,0.9242170453071594,-7.750371932983398
1726407024312726500,1.1357265625,1.8788763284683228,1.0992332696914673,-7.640646457672119
1726407024322723600,1.1457236328125,1.9003750085830688,1.5898547172546387,-7.184859275817871
1726407024332720600,1.155720703125,1.6702696084976196,2.4147653579711914,-6.710392475128174
1726407024342716400,1.16571630859375,1.2470057010650635,3.2770767211914062,-6.343756198883057
1726407024352713500,1.17571337890625,0.7644923329353333,3.6890106201171875,-5.813424110412598
1726407024362709500,1.18570947265625,0.46155858039855957,3.9606924057006836,-4.665698528289795
1726407024372706600,1.19570654296875,0.08460330218076706,4.017220973968506,-3.3841450214385986
1726407024382703600,1.20570361328125,-0.177469864487648,4.113933563232422,-2.302913188934326
1726407024392699400,1.215699462890625,-0.6347593665122986,3.7274529933929443,-1.5186532735824585
1726407024402696700,1.22569677734375,-0.30660280585289,2.5054678916931152,-1.1382437944412231
1726407024412693500,1.235693603515625,0.6222843527793884,0.5201888680458069,-0.9866865277290344
1726407024422689500,1.245689453125,1.3253860473632812,-1.4400577545166016,-0.8770828247070312
1726407024432686600,1.2556865234375,2.1948702335357666,-3.279146432876587,-0.7272695899009705
1726407024442682600,1.2656826171875,3.4849748611450195,-4.888105392456055,-0.5482345819473267
1726407024452679700,1.2756796875,4.774294853210449,-5.872670650482178,-0.33414414525032043
1726407024462676500,1.285676513671875,5.95156192779541,-6.710386753082275,0.0007725830073468387
1726407024472672500,1.295672607421875,6.920408248901367,-7.739771366119385,0.5265370607376099
1726407024482669600,1.305669677734375,7.5038957595825195,-8.663390159606934,1.1280807256698608
1726407024492666400,1.315666259765625,7.373300075531006,-9.999613761901855,1.7048447132110596
1726407024502662400,1.325662353515625,6.583946704864502,-11.388575553894043,2.1637561321258545
1726407024512659500,1.335659423828125,6.045164108276367,-12.377779960632324,2.376145362854004
1726407024522656500,1.345656494140625,5.700891017913818,-12.109014511108398,3.0407519340515137
1726407024532652500,1.355652587890625,4.589667320251465,-10.23009204864502,3.839785575866699
1726407024542649600,1.365649658203125,3.3351991176605225,-7.976332664489746,4.253077983856201
1726407024552645400,1.375645263671875,3.5517578125,-5.620573043823242,4.453174114227295
1726407024562642700,1.385642578125,4.119653224945068,-3.739137887954712,4.358675003051758
1726407024572639500,1.395639404296875,4.786779403686523,-2.1941723823547363,4.043861389160156
1726407024582635500,1.405635498046875,5.293451309204102,-1.1978996992111206,3.366971492767334
1726407024592632600,1.415632568359375,5.530269145965576,-0.5026362538337708,2.247405767440796
1726407024602629400,1.42562939453125,5.167596817016602,-1.0429399013519287,0.4962475895881653
1726407024612625700,1.435625732421875,4.330522060394287,-2.486973762512207,-1.3475384712219238
1726407024622622500,1.44562255859375,3.7651100158691406,-3.3280913829803467,-2.6347060203552246
1726407024632618500,1.455618408203125,2.929077625274658,-2.97148060798645,-3.4630300998687744
1726407024642615600,1.465615478515625,1.5731828212738037,-1.5510841608047485,-3.8378071784973145
1726407024652612400,1.4756123046875,-0.12245400995016098,0.505691647529602,-3.9429845809936523
1726407024662608600,1.485608642578125,-0.8619001507759094,4.440042972564697,-3.711883783340454
1726407024672605400,1.49560546875,-0.9169204831123352,8.405721664428711,-2.8878133296966553
1726407024682602800,1.505602783203125,-0.510697066783905,9.669116973876953,-1.6768841743469238
1726407024692598500,1.5155986328125,-0.04879097640514374,8.285895347595215,-0.5799027681350708
1726407024702595600,1.525595703125,0.37424391508102417,5.284758567810059,0.4905944764614105
1726407024712591600,1.535591552734375,0.7780662178993225,1.71034836769104,1.3787204027175903
1726407024722588400,1.54558837890625,0.8590399026870728,-0.7782965898513794,1.8826380968093872
1726407024732585500,1.55558544921875,0.6996736526489258,-1.7084420919418335,1.9504249095916748
1726407024742581500,1.56558154296875,0.5505222678184509,-1.6286425590515137,1.6576297283172607
1726407024752578600,1.57557861328125,0.4924600124359131,-1.0868014097213745,1.0988191366195679
1726407024762575600,1.58557568359375,0.6052078604698181,-0.658780038356781,0.5224701166152954
1726407024772571600,1.595571533203125,0.780422031879425,-0.5767251253128052,0.1200140193104744
1726407024782568400,1.605568359375,0.9786352515220642,-0.8775104880332947,-0.12619948387145996
1726407024792564700,1.615564697265625,1.1047428846359253,-1.1776537895202637,-0.21963275969028473
1726407024802561500,1.6255615234375,1.1094316244125366,-1.2146477699279785,-0.15043318271636963
1726407024812558600,1.63555859375,0.9542252421379089,-0.8902055025100708,0.05915466696023941
1726407024822554600,1.6455546875,0.7385225296020508,-0.34650442004203796,0.3328927457332611
1726407024832551400,1.655551513671875,0.6293001770973206,0.14910666644573212,0.609406590461731
1726407024842548700,1.665548828125,0.6883496642112732,0.5337557792663574,0.8514597415924072
1726407024852544500,1.67554443359375,0.770033061504364,1.025557279586792,1.1378755569458008
1726407024862541300,1.685541259765625,0.763538122177124,1.4493093490600586,1.444070816040039
1726407024872537600,1.69553759765625,0.7360702753067017,1.5754722356796265,1.7074098587036133
1726407024882534400,1.705534423828125,0.7473916411399841,1.4747350215911865,1.933372139930725
1726407024892531700,1.71553173828125,0.7887707948684692,1.24024498462677,2.098972797393799
1726407024902527500,1.725527587890625,0.8523684144020081,0.9519572854042053,2.182074785232544
1726407024912524500,1.735524658203125,0.848039448261261,0.728566586971283,2.1689717769622803
1726407024922521600,1.745521484375,0.8058432340621948,0.6250207424163818,2.0556788444519043
1726407024932518000,1.755517822265625,0.7155882120132446,0.6261879801750183,1.8914982080459595
1726407024942514700,1.7655146484375,0.6634581089019775,0.5115293264389038,1.6640599966049194
1726407024952511700,1.77551171875,0.5981467962265015,0.3641880750656128,1.4094932079315186
1726407024962507800,1.7855078125,0.5439231991767883,0.12358532100915909,1.1537607908248901
1726407024972504600,1.795504638671875,0.5138105750083923,-0.13227255642414093,0.8920636177062988
1726407024982500900,1.8055009765625,0.5217715501785278,-0.29174768924713135,0.6660826802253723
1726407024992497700,1.81549755859375,0.49381983280181885,-0.42839235067367554,0.5023571252822876
1726407025002494700,1.82549462890625,0.46560338139533997,-0.4970278739929199,0.3914857506752014
1726407025012490800,1.83549072265625,0.4134528338909149,-0.4843650758266449,0.33789920806884766
1726407025022487600,1.845487548828125,0.354311466217041,-0.4273553192615509,0.3360903859138489
1726407025032484900,1.85548486328125,0.28958600759506226,-0.298307865858078,0.37381699681282043
1726407025042480600,1.865480712890625,0.19321739673614502,-0.0868358314037323,0.4579177498817444
1726407025052477700,1.875477783203125,0.07246328145265579,0.12419598549604416,0.590491533279419
1726407025062473700,1.8854736328125,-0.04246623441576958,0.2975368797779083,0.7636057734489441
1726407025072470800,1.895470703125,-0.12235493957996368,0.3970797061920166,0.9445939660072327
1726407025082467800,1.9054677734375,-0.15687216818332672,0.38805267214775085,1.0809664726257324
1726407025092463600,1.915463623046875,-0.16934508085250854,0.327634334564209,1.1534345149993896
1726407025102460700,1.925460693359375,-0.18968790769577026,0.23254935443401337,1.1538491249084473
1726407025112457700,1.935457763671875,-0.2094315141439438,0.16040511429309845,1.113515019416809
1726407025122453800,1.945453857421875,-0.21061262488365173,0.12118101865053177,1.0583548545837402
1726407025132450800,1.955450927734375,-0.21060436964035034,0.07285156846046448,0.9923399090766907
1726407025142446800,1.96544677734375,-0.200710728764534,0.04294853284955025,0.9047634601593018
1726407025152443600,1.975443603515625,-0.21713577210903168,0.024948759004473686,0.773325502872467
1726407025162440700,1.985440673828125,-0.275413453578949,-0.01906503736972809,0.5925893187522888
1726407025172436700,1.995436767578125,-0.3482341468334198,-0.08960472047328949,0.3698749840259552
1726407025182433500,2.00543359375,-0.39317259192466736,-0.21387048065662384,0.1488770991563797
1726407025192430800,2.015430908203125,-0.3783656656742096,-0.40913158655166626,-0.05765211209654808
1726407025202426600,2.025426513671875,-0.32199668884277344,-0.6384747624397278,-0.2343352735042572
1726407025212423700,2.035423583984375,-0.2611818015575409,-0.8224483132362366,-0.3644144535064697
1726407025222419700,2.045419677734375,-0.283699095249176,-0.9093994498252869,-0.428954541683197
1726407025232416500,2.05541650390625,-0.3770921528339386,-0.888693630695343,-0.45635077357292175
1726407025242413800,2.065413818359375,-0.4599931538105011,-0.7777194380760193,-0.44847631454467773
1726407025252409600,2.07540966796875,-0.4924727976322174,-0.6611944437026978,-0.4247414469718933
1726407025262406700,2.08540673828125,-0.48144519329071045,-0.534838080406189,-0.41159874200820923
1726407025272403700,2.09540380859375,-0.5174753665924072,-0.4023013710975647,-0.41137024760246277
1726407025282399700,2.105399658203125,-0.5955315232276917,-0.24190743267536163,-0.4079669713973999
1726407025292396800,2.115396728515625,-0.6353713870048523,-0.21228376030921936,-0.3820456266403198
1726407025302392800,2.125392822265625,-0.6622474789619446,-0.32446035742759705,-0.33821186423301697
1726407025312389600,2.1353896484375,-0.6963609457015991,-0.4433862268924713,-0.2544400095939636
1726407025322386700,2.14538671875,-0.7251886129379272,-0.5866200923919678,-0.14500752091407776
1726407025332382700,2.1553828125,-0.7280073165893555,-0.6915931105613708,-0.005970274563878775
1726407025342379800,2.1653798828125,-0.7017501592636108,-0.7100868821144104,0.12708577513694763
1726407025352376600,2.17537646484375,-0.6887230277061462,-0.6428346037864685,0.2363041490316391
1726407025362372600,2.18537255859375,-0.6978246569633484,-0.6019457578659058,0.2961229979991913
1726407025372369700,2.19536962890625,-0.6933587789535522,-0.6172682642936707,0.31038662791252136
1726407025382365700,2.20536572265625,-0.6825703382492065,-0.6726071834564209,0.27487149834632874
1726407025392362500,2.215362548828125,-0.6522132158279419,-0.736259400844574,0.1886463463306427
1726407025402359800,2.22535986328125,-0.606022298336029,-0.7852469086647034,0.056891512125730515
1726407025412355600,2.23535546875,-0.5525206923484802,-0.7986146211624146,-0.09388148784637451
1726407025422353000,2.245352783203125,-0.49698126316070557,-0.8098286390304565,-0.24089783430099487
1726407025432349700,2.255349609375,-0.43196311593055725,-0.8368679881095886,-0.3657345771789551
1726407025442345700,2.265345703125,-0.3702736496925354,-0.8648828864097595,-0.46730247139930725
1726407025452342800,2.2753427734375,-0.3097139000892639,-0.92478346824646,-0.558426022529602
1726407025462338600,2.285338623046875,-0.2822284996509552,-1.011817216873169,-0.6304416060447693
1726407025472336000,2.2953359375,-0.2824556529521942,-1.1228177547454834,-0.6631276607513428
1726407025482332700,2.305332763671875,-0.28319841623306274,-1.2343677282333374,-0.6603742241859436
1726407025492328700,2.31532861328125,-0.27414393424987793,-1.3327691555023193,-0.6339985132217407
1726407025502325800,2.32532568359375,-0.27106425166130066,-1.3804223537445068,-0.5868235230445862
1726407025512322600,2.335322509765625,-0.2604459524154663,-1.3879485130310059,-0.5229406952857971
1726407025522318600,2.345318603515625,-0.25148284435272217,-1.3630143404006958,-0.44853517413139343
1726407025532315600,2.355315673828125,-0.24971981346607208,-1.3062901496887207,-0.3875237703323364
1726407025542311700,2.365311767578125,-0.2530548870563507,-1.221091866493225,-0.34418347477912903
1726407025552308700,2.375308837890625,-0.24755093455314636,-1.0945632457733154,-0.3105325698852539
1726407025562305800,2.385305908203125,-0.23907782137393951,-0.9329532384872437,-0.28694629669189453
1726407025572301600,2.395301513671875,-0.22619585692882538,-0.775346577167511,-0.2761343717575073
1726407025582299000,2.405298828125,-0.20373235642910004,-0.6278950572013855,-0.2673768401145935
1726407025592294700,2.415294677734375,-0.18568970263004303,-0.4937141239643097,-0.25312280654907227
1726407025602291700,2.425291748046875,-0.16781802475452423,-0.36982572078704834,-0.23866450786590576
1726407025612288800,2.435288818359375,-0.1516912579536438,-0.2664167881011963,-0.23146651685237885
1726407025622284500,2.445284423828125,-0.14975354075431824,-0.1957354098558426,-0.2236325591802597
1726407025632281900,2.45528173828125,-0.1559736132621765,-0.15180523693561554,-0.22033236920833588
1726407025642278700,2.465278564453125,-0.16251647472381592,-0.12876437604427338,-0.2172955721616745
1726407025652274700,2.475274658203125,-0.17762991786003113,-0.12283723801374435,-0.2096823900938034
1726407025662271700,2.485271728515625,-0.18867696821689606,-0.1341964155435562,-0.20691029727458954
1726407025672267800,2.495267822265625,-0.19926276803016663,-0.15674540400505066,-0.20967333018779755
1726407025682264800,2.505264892578125,-0.2155008614063263,-0.16952085494995117,-0.20491427183151245
1726407025692261600,2.51526171875,-0.24018676578998566,-0.18705324828624725,-0.20017783343791962
1726407025702257700,2.525257568359375,-0.27584969997406006,-0.20968718826770782,-0.1894940286874771
1726407025712254700,2.535254638671875,-0.2725636065006256,-0.24804656207561493,-0.21770383417606354
1726407025722251800,2.545251708984375,-0.23825837671756744,-0.28896284103393555,-0.26330459117889404
1726407025732247600,2.55524755859375,-0.2199198454618454,-0.3289070427417755,-0.3060251772403717
1726407025742244600,2.56524462890625,-0.23181858658790588,-0.36014458537101746,-0.33868858218193054
1726407025752240600,2.57524072265625,-0.25556066632270813,-0.38391730189323425,-0.3490312397480011
1726407025762237700,2.58523779296875,-0.269544392824173,-0.40935343503952026,-0.3463342487812042
1726407025772234800,2.59523486328125,-0.27419665455818176,-0.4191320240497589,-0.3312053680419922
1726407025782230500,2.60523046875,-0.28163647651672363,-0.4046875536441803,-0.31331396102905273
1726407025792227800,2.615227783203125,-0.29237887263298035,-0.38453835248947144,-0.29307821393013
1726407025802224600,2.625224609375,-0.3217040002346039,-0.3319348096847534,-0.2750749886035919
1726407025812221000,2.635220947265625,-0.3589981198310852,-0.2624598443508148,-0.26157593727111816
1726407025822217700,2.6452177734375,-0.39137202501296997,-0.19375482201576233,-0.2618936598300934
1726407025832213800,2.6552138671875,-0.4164539575576782,-0.12275122106075287,-0.2745162546634674
1726407025842210800,2.6652109375,-0.43280866742134094,-0.04771505668759346,-0.2888965308666229
1726407025852207600,2.67520751953125,-0.42876094579696655,0.008591890335083008,-0.3026706576347351
1726407025862203600,2.68520361328125,-0.4186854064464569,0.05121258646249771,-0.3129536509513855
1726407025872200700,2.69520068359375,-0.41086822748184204,0.08363071084022522,-0.33209511637687683
1726407025882197500,2.705197509765625,-0.40334826707839966,0.10758105665445328,-0.3587368428707123
1726407025892193800,2.71519384765625,-0.4063704013824463,0.1053173691034317,-0.3873775601387024
1726407025902190600,2.725190673828125,-0.4024888575077057,0.08049164712429047,-0.4148637652397156
1726407025912186600,2.7351865234375,-0.3880026042461395,0.03573242947459221,-0.4378764033317566
1726407025922183700,2.74518359375,-0.37458133697509766,-0.010423879139125347,-0.4518188536167145
1726407025932181000,2.755180908203125,-0.35069623589515686,-0.057133860886096954,-0.4620171785354614
1726407025942176800,2.7651767578125,-0.3079274594783783,-0.10029277950525284,-0.46757546067237854
1726407025952173800,2.775173828125,-0.25806164741516113,-0.13225656747817993,-0.4730788767337799
1726407025962169900,2.785169921875,-0.22007989883422852,-0.1557549685239792,-0.4746892750263214
1726407025972166700,2.795166748046875,-0.19118086993694305,-0.1749260127544403,-0.48148807883262634
1726407025982163700,2.805163818359375,-0.17733004689216614,-0.18893876671791077,-0.4935215711593628
1726407025992159700,2.81515966796875,-0.17550604045391083,-0.21228057146072388,-0.4906967580318451
1726407026002156800,2.82515673828125,-0.16198676824569702,-0.26000601053237915,-0.4699682891368866
1726407026012153900,2.83515380859375,-0.14334437251091003,-0.33157554268836975,-0.4342358708381653
1726407026022150000,2.84514990234375,-0.13421453535556793,-0.4127731919288635,-0.41448134183883667
1726407026032146700,2.855146728515625,-0.13409362733364105,-0.4930099844932556,-0.4232010543346405
1726407026042143000,2.86514306640625,-0.1320270150899887,-0.5633286237716675,-0.4584410786628723
1726407026052139800,2.875139892578125,-0.10939093679189682,-0.6181391477584839,-0.4901276230812073
1726407026062136800,2.88513671875,-0.06459736824035645,-0.6640757322311401,-0.49755945801734924
1726407026072132900,2.8951328125,-0.022244052961468697,-0.7034550905227661,-0.46891289949417114
1726407026082129700,2.905129638671875,-0.0012650014832615852,-0.7261444330215454,-0.40595123171806335
1726407026092126700,2.915126708984375,0.0009717874927446246,-0.7459521889686584,-0.32434213161468506
1726407026102122800,2.925122802734375,-0.016227172687649727,-0.7810987234115601,-0.2559944987297058
1726407026112119600,2.93511962890625,-0.03516517952084541,-0.8241943120956421,-0.20568817853927612
1726407026122115800,2.94511572265625,-0.049241580069065094,-0.8798208236694336,-0.18114528059959412
1726407026132112600,2.955112548828125,-0.0673566684126854,-0.9513967037200928,-0.1776759922504425
1726407026142110000,2.96510986328125,-0.081450916826725,-1.0249907970428467,-0.18255409598350525
1726407026152105700,2.975105712890625,-0.09958837926387787,-1.0873905420303345,-0.1950560361146927
1726407026162102800,2.985102783203125,-0.10289762169122696,-1.12330961227417,-0.20548711717128754
1726407026172099800,2.995099853515625,-0.08929712325334549,-1.125160574913025,-0.21522308886051178
1726407026182096000,3.005095947265625,-0.07487663626670837,-1.0962988138198853,-0.22085195779800415
1726407026192093000,3.015093017578125,-0.06552734225988388,-1.0473445653915405,-0.2164502739906311
1726407026202089000,3.0250888671875,-0.0582561157643795,-0.9683868885040283,-0.2080029994249344
1726407026212085800,3.035085693359375,-0.05667313188314438,-0.8720387816429138,-0.18999870121479034
1726407026222082800,3.045082763671875,-0.05667073652148247,-0.7855702042579651,-0.17840968072414398
1726407026232078800,3.055078857421875,-0.05359851196408272,-0.7038263082504272,-0.16734665632247925
1726407026242075600,3.06507568359375,-0.04370007663965225,-0.6346579194068909,-0.1509077548980713
1726407026252072700,3.07507275390625,-0.04808736965060234,-0.5889359712600708,-0.1398063749074936
1726407026262068700,3.08506884765625,-0.05717700347304344,-0.5671984553337097,-0.13343821465969086
1726407026272065800,3.095065673828125,-0.06835109740495682,-0.5427378416061401,-0.1230793222784996
1726407026282061800,3.105061767578125,-0.05456257611513138,-0.5327893495559692,-0.12361834198236465
1726407026292058600,3.11505859375,-0.03569860756397247,-0.5463027358055115,-0.12935079634189606
1726407026302056000,3.125055908203125,-0.027704598382115364,-0.5769823789596558,-0.12233869731426239
1726407026312051700,3.1350517578125,-0.03749411180615425,-0.6133872270584106,-0.08899112790822983
1726407026322049000,3.145049072265625,-0.04945223778486252,-0.6811196804046631,-0.03214675188064575
1726407026332045800,3.1550458984375,-0.06720566749572754,-0.7748339176177979,0.030891869217157364
1726407026342041900,3.165041748046875,-0.10167070478200912,-0.863283634185791,0.0769704133272171
1726407026352039000,3.175038818359375,-0.14686614274978638,-0.9155026078224182,0.08870483189821243
1726407026362034700,3.18503466796875,-0.1745331883430481,-0.9359264373779297,0.06610392034053802
1726407026372031700,3.19503173828125,-0.17737612128257751,-0.9432958960533142,0.03051609732210636
1726407026382028800,3.20502880859375,-0.165237158536911,-0.9138535857200623,0.004954544827342033
1726407026392024800,3.21502490234375,-0.14894340932369232,-0.8324125409126282,0.0007547398563474417
1726407026402022000,3.22502197265625,-0.14212597906589508,-0.7014260292053223,0.0028929917607456446
1726407026412018000,3.235017822265625,-0.14055044949054718,-0.5426044464111328,-0.008672317489981651
1726407026422014700,3.2450146484375,-0.14479820430278778,-0.4013937711715698,-0.03544853627681732
1726407026432011800,3.25501171875,-0.13551229238510132,-0.28677690029144287,-0.061520617455244064
1726407026442007800,3.2650078125,-0.10372506082057953,-0.18676163256168365,-0.08209593594074249
1726407026452004600,3.275004638671875,-0.06479843705892563,-0.10033193230628967,-0.08559159934520721
1726407026462002000,3.285001953125,-0.02087252400815487,-0.04805674031376839,-0.07337088882923126
1726407026471997700,3.294997802734375,0.01341860368847847,-0.022395586594939232,-0.061356835067272186
1726407026481994800,3.304994873046875,0.02557859756052494,-0.015924904495477676,-0.03942756727337837
1726407026491990800,3.31499072265625,0.01641758903861046,-0.019766779616475105,-0.012504606507718563
1726407026501987600,3.324987548828125,0.004977181553840637,-0.015276158228516579,0.017106281593441963
1726407026511985000,3.33498486328125,-0.01040576957166195,-0.01005050353705883,0.04856647178530693
1726407026521980700,3.344980712890625,-0.033355291932821274,0.009308014065027237,0.07093808799982071
1726407026531978000,3.35497802734375,-0.057734403759241104,0.058096859604120255,0.08961483836174011
1726407026541974800,3.364974853515625,-0.061523016542196274,0.10965805500745773,0.10236898064613342
1726407026551970800,3.374970703125,-0.051359593868255615,0.15472300350666046,0.11233692616224289
1726407026561967900,3.3849677734375,-0.0545940026640892,0.21266353130340576,0.12148115783929825
1726407026571964000,3.3949638671875,-0.051174238324165344,0.2869928777217865,0.12652571499347687
1726407026581960700,3.404960693359375,-0.045638859272003174,0.36635535955429077,0.132361501455307
1726407026591957800,3.414957763671875,-0.07489608228206635,0.4553701877593994,0.13848544657230377
1726407026601953800,3.424953857421875,-0.10462813824415207,0.5336633920669556,0.14722007513046265
1726407026611950800,3.434950927734375,-0.12210273742675781,0.603495180606842,0.1582767218351364
1726407026621947000,3.44494677734375,-0.12914760410785675,0.6693391799926758,0.17164099216461182
1726407026631943700,3.454943603515625,-0.1298309713602066,0.7311429381370544,0.2030567079782486
1726407026641940700,3.464940673828125,-0.12583889067173004,0.785578191280365,0.24880023300647736
1726407026651936800,3.474936767578125,-0.10530059039592743,0.8356829285621643,0.3029002249240875
1726407026661933800,3.484933837890625,-0.09097890555858612,0.8726488947868347,0.35524889826774597
1726407026671931000,3.494930908203125,-0.06620778143405914,0.8938002586364746,0.39435744285583496
1726407026681926700,3.5049267578125,-0.0507715679705143,0.9082055687904358,0.4166105389595032
1726407026691924000,3.514924072265625,-0.04005953669548035,0.9183673858642578,0.4279111325740814
1726407026701919700,3.524919677734375,-0.03265594691038132,0.9060723781585693,0.4288560152053833
1726407026711916800,3.534916748046875,-0.014271347783505917,0.8781408667564392,0.42919957637786865
1726407026721913900,3.544913818359375,0.013189039193093777,0.836536705493927,0.42307108640670776
1726407026731909600,3.55490966796875,0.047875646501779556,0.7918366193771362,0.4074583053588867
1726407026741907000,3.564906982421875,0.08845263719558716,0.762871265411377,0.3867378532886505
1726407026751903700,3.57490380859375,0.11678680032491684,0.7359419465065002,0.35942742228507996
1726407026761899800,3.584899658203125,0.1490350216627121,0.6859631538391113,0.32723164558410645
1726407026771896800,3.594896728515625,0.1911395937204361,0.6269938945770264,0.29299432039260864
1726407026781892900,3.604892822265625,0.2280408889055252,0.5726200938224792,0.25025564432144165
1726407026791889700,3.6148896484375,0.24496954679489136,0.5399681329727173,0.21364463865756989
1726407026801886700,3.62488671875,0.24493011832237244,0.5036730170249939,0.18376557528972626
1726407026811882800,3.6348828125,0.236458882689476,0.47270044684410095,0.16144242882728577
1726407026821879800,3.6448798828125,0.22485467791557312,0.4611756205558777,0.13704147934913635
1726407026831875800,3.654875732421875,0.2148723602294922,0.47749680280685425,0.1137971356511116
1726407026841872600,3.66487255859375,0.20325511693954468,0.5085282325744629,0.09548550844192505
1726407026851869700,3.67486962890625,0.2065236121416092,0.523539125919342,0.08164665848016739
1726407026861865700,3.68486572265625,0.24736638367176056,0.5344684720039368,0.07467211037874222
1726407026871862800,3.69486279296875,0.289937287569046,0.566352367401123,0.08490051329135895
1726407026881859800,3.70485986328125,0.3058938682079315,0.6411762833595276,0.10432986915111542
1726407026891855600,3.714855712890625,0.28526610136032104,0.7381401062011719,0.1414569914340973
1726407026901853000,3.72485302734375,0.2536866068840027,0.7841070294380188,0.1712452471256256
1726407026911848700,3.7348486328125,0.23735582828521729,0.8160356879234314,0.181806281208992
1726407026921845800,3.744845703125,0.24726279079914093,0.8450438976287842,0.174841046333313
1726407026931842800,3.7548427734375,0.2701324224472046,0.8768450021743774,0.14479313790798187
1726407026941839400,3.76483935546875,0.2910107970237732,0.9224106073379517,0.11980709433555603
1726407026951836400,3.77483642578125,0.3065519332885742,0.9176134467124939,0.09472224861383438
1726407026961832400,3.78483251953125,0.317842960357666,0.8321589827537537,0.07036444544792175
1726407026971829500,3.79482958984375,0.32949480414390564,0.710419774055481,0.04742557182908058
1726407026981826300,3.804826416015625,0.34393712878227234,0.5780343413352966,0.035687156021595
1726407026991822600,3.814822509765625,0.3498046100139618,0.46194660663604736,0.020416857674717903
1726407027001819400,3.8248193359375,0.3522307574748993,0.37407851219177246,-0.016355270519852638
1726407027011816400,3.83481640625,0.3462953567504883,0.3451478183269501,-0.09435845911502838
1726407027021812500,3.8448125,0.34038153290748596,0.4044950306415558,-0.20929037034511566
1726407027031809300,3.854809326171875,0.33924171328544617,0.5089290142059326,-0.355320006608963
1726407027041805600,3.8648056640625,0.333356648683548,0.6531708836555481,-0.49127599596977234
1726407027051802400,3.87480224609375,0.28212544322013855,0.7912864089012146,-0.6093307137489319
1726407027061799400,3.88479931640625,0.2596571445465088,0.7756725549697876,-0.689111590385437
1726407027071795500,3.89479541015625,0.25974634289741516,0.6233008503913879,-0.7127324938774109
1726407027081792300,3.904792236328125,0.2715766429901123,0.4337080419063568,-0.6912413239479065
1726407027091789600,3.91478955078125,0.27651122212409973,0.2981691062450409,-0.630684494972229
1726407027101785300,3.924785400390625,0.2638755738735199,0.23160046339035034,-0.5497973561286926
1726407027111782400,3.934782470703125,0.24417059123516083,0.2217470407485962,-0.4731968641281128
1726407027121778400,3.9447783203125,0.23905278742313385,0.26884186267852783,-0.4051932990550995
1726407027131775500,3.954775390625,0.24269039928913116,0.32298046350479126,-0.339029997587204
1726407027141772500,3.9647724609375,0.2303312122821808,0.36940306425094604,-0.28031954169273376
1726407027151768300,3.974768310546875,0.22892558574676514,0.38191354274749756,-0.23698937892913818
1726407027161765400,3.984765380859375,0.22042158246040344,0.3778519630432129,-0.19780229032039642
1726407027171761400,3.994761474609375,0.1934533566236496,0.36826831102371216,-0.16431890428066254
1726407027181758500,4.004758544921875,0.1654326319694519,0.343889981508255,-0.1489761620759964
1726407027191755300,4.01475537109375,0.13798317313194275,0.3294263780117035,-0.13813576102256775
1726407027201751600,4.02475146484375,0.12018126994371414,0.31305086612701416,-0.12912975251674652
1726407027211748400,4.034748291015625,0.11693354696035385,0.29880160093307495,-0.10681220144033432
1726407027221745400,4.044745361328125,0.11462724953889847,0.2972063720226288,-0.06574039906263351
1726407027231741400,4.054741455078125,0.10876403003931046,0.30591678619384766,-0.00947925541549921
1726407027241738200,4.06473828125,0.10456688702106476,0.31361836194992065,0.04138925299048424
1726407027251734500,4.074734619140625,0.09914016723632812,0.3462351858615875,0.07798215001821518
1726407027261731300,4.0847314453125,0.08883292973041534,0.3584047555923462,0.10120651125907898
1726407027271728600,4.094728759765625,0.07840079814195633,0.3671676218509674,0.1084471121430397
1726407027281724400,4.104724365234375,0.05794718861579895,0.37533819675445557,0.09902165830135345
1726407027291721200,4.11472119140625,0.03882702440023422,0.3680339455604553,0.08757512271404266
1726407027301717500,4.124717529296875,0.034506842494010925,0.3589741289615631,0.07205954939126968
1726407027311714300,4.13471435546875,0.030541930347681046,0.34404659271240234,0.05222911760210991
1726407027321711400,4.14471142578125,0.03514733538031578,0.31721124053001404,0.033311616629362106
1726407027331707400,4.154707275390625,0.05204455927014351,0.29959017038345337,0.01423193234950304
1726407027341704400,4.164704345703125,0.07515893131494522,0.29797255992889404,-0.006511695217341185
1726407027351701500,4.174701416015625,0.0991675928235054,0.3065420985221863,-0.02304619736969471
1726407027361697500,4.184697509765625,0.11201655119657516,0.3103983402252197,-0.03027481585741043
1726407027371694300,4.1946943359375,0.11805792897939682,0.33587121963500977,-0.035763856023550034
1726407027381690600,4.204690673828125,0.11806458979845047,0.34385377168655396,-0.03135792165994644
1726407027391687400,4.2146875,0.11749360710382462,0.3348586857318878,-0.030961111187934875
1726407027401684500,4.2246845703125,0.11104263365268707,0.315117746591568,-0.03268018364906311
1726407027411680500,4.234680419921875,0.11713194847106934,0.2835230529308319,-0.04698321968317032
1726407027421677300,4.24467724609375,0.11811625212430954,0.2660769522190094,-0.061710234731435776
1726407027431674400,4.25467431640625,0.12543036043643951,0.2641142010688782,-0.06840675324201584
1726407027441670400,4.26467041015625,0.13073457777500153,0.27507150173187256,-0.07283372431993484
1726407027451667200,4.274667236328125,0.1329878717660904,0.2989933490753174,-0.07720397412776947
1726407027461663500,4.28466357421875,0.13465768098831177,0.32426008582115173,-0.08479557931423187
1726407027471660300,4.294660400390625,0.1399560421705246,0.326702743768692,-0.08125890046358109
1726407027481657600,4.30465771484375,0.139926478266716,0.2940017879009247,-0.05348319932818413
1726407027491653400,4.3146533203125,0.14129561185836792,0.23840084671974182,-0.017068998888134956
1726407027501650400,4.324650390625,0.15766578912734985,0.20703068375587463,0.013232448138296604
1726407027511646500,4.334646484375,0.17201170325279236,0.22166341543197632,0.03881264477968216
1726407027521643500,4.3446435546875,0.18649104237556458,0.27357083559036255,0.0637717917561531
1726407027531640300,4.354640380859375,0.20457418262958527,0.32738664746284485,0.0804104208946228
1726407027541636400,4.36463623046875,0.20257094502449036,0.35156869888305664,0.09517897665500641
1726407027551633400,4.37463330078125,0.17802459001541138,0.3401746153831482,0.11055394262075424
1726407027561630500,4.38463037109375,0.14885951578617096,0.29952624440193176,0.11686110496520996
1726407027571626500,4.39462646484375,0.12912416458129883,0.26956650614738464,0.11313294619321823
1726407027581623300,4.404623291015625,0.10895418375730515,0.23581093549728394,0.1028699204325676
1726407027591619600,4.41461962890625,0.08449863642454147,0.23637765645980835,0.08928327262401581
1726407027601616400,4.424616455078125,0.07123343646526337,0.25666189193725586,0.07455732673406601
1726407027611613400,4.434613525390625,0.07091731578111649,0.2939317524433136,0.06180717423558235
1726407027621609500,4.444609375,0.06298482418060303,0.3052254319190979,0.054609447717666626
1726407027631606300,4.454606201171875,0.044926729053258896,0.30516576766967773,0.05217718333005905
1726407027641602600,4.4646025390625,0.046488936990499496,0.3027540147304535,0.06610844284296036
1726407027651599400,4.474599365234375,0.0755472183227539,0.31858357787132263,0.09994097799062729
1726407027661596400,4.484596435546875,0.09181433916091919,0.34328439831733704,0.1576213240623474
1726407027671592400,4.494592529296875,0.11377769708633423,0.3699737787246704,0.23886530101299286
1726407027681589200,4.50458935546875,0.14532124996185303,0.37405455112457275,0.3281640410423279
1726407027691586600,4.514586669921875,0.182234525680542,0.37949034571647644,0.4040260314941406
1726407027701582300,4.524582275390625,0.2487030178308487,0.37937769293785095,0.4868634045124054
1726407027711579400,4.534579345703125,0.29627320170402527,0.37797045707702637,0.5686197876930237
1726407027721575400,4.544575439453125,0.3131139576435089,0.40436211228370667,0.6457177400588989
1726407027731572500,4.554572509765625,0.28898999094963074,0.4310901463031769,0.7070306539535522
1726407027741569500,4.564569580078125,0.2934262752532959,0.4944683313369751,0.7432078123092651
1726407027751565600,4.574565673828125,0.30015236139297485,0.5571689605712891,0.7282230257987976
1726407027761562400,4.584562255859375,0.31227853894233704,0.5902107954025269,0.6713520288467407
1726407027771558400,4.594558349609375,0.3327457308769226,0.5724459290504456,0.6078050136566162
1726407027781555500,4.604555419921875,0.31634625792503357,0.5230041146278381,0.5579213500022888
1726407027791552300,4.61455224609375,0.309481680393219,0.5308513641357422,0.5304441452026367
1726407027801548500,4.624548583984375,0.33060240745544434,0.5384557247161865,0.5180676579475403
1726407027811545300,4.63454541015625,0.34102684259414673,0.56352299451828,0.49225497245788574
1726407027821542400,4.64454248046875,0.3385136127471924,0.5699217915534973,0.4619860053062439
1726407027831538400,4.654538330078125,0.2982966899871826,0.5489387512207031,0.40741729736328125
1726407027841535200,4.66453515625,0.274551659822464,0.5390650629997253,0.3570236265659332
1726407027851531500,4.674531494140625,0.2508695125579834,0.5199071168899536,0.3087882101535797
1726407027861528300,4.6845283203125,0.2183014452457428,0.5555694699287415,0.2641355097293854
1726407027871525600,4.694525634765625,0.19063732028007507,0.6462551951408386,0.23051443696022034
1726407027881521400,4.704521484375,0.18381084501743317,0.7544213533401489,0.21668517589569092
1726407027891518500,4.7145185546875,0.17533214390277863,0.7955945730209351,0.21650594472885132
1726407027901515500,4.724515625,0.16548456251621246,0.7642356157302856,0.20738807320594788
1726407027911511300,4.73451123046875,0.13197508454322815,0.6910215616226196,0.1708226054906845
1726407027921508400,4.74450830078125,0.08464831113815308,0.5888906717300415,0.10976005345582962
1726407027931504400,4.75450439453125,0.06340587139129639,0.4589396119117737,0.049743589013814926
1726407027941501200,4.764501220703125,0.06900569796562195,0.33011719584465027,0.012570120394229889
1726407027951498000,4.774498046875,0.07398394495248795,0.24186216294765472,0.00270683690905571
1726407027961494000,4.784493896484375,0.06362798064947128,0.14252838492393494,0.013895575888454914
1726407027971491000,4.794490966796875,0.06619793176651001,0.03789864480495453,0.035534292459487915
1726407027981487000,4.804487060546875,0.06713669002056122,-0.06869890540838242,0.08801454305648804
1726407027991484000,4.81448388671875,0.04731744900345802,-0.09536699950695038,0.154759481549263
1726407028001481000,4.82448095703125,-0.001748897833749652,-0.07495280355215073,0.24035294353961945
1726407028011477000,4.83447705078125,-0.039750874042510986,-0.03525865450501442,0.35492053627967834
1726407028021474000,4.84447412109375,-0.059969861060380936,0.022714100778102875,0.48962029814720154
1726407028031471000,4.85447119140625,-0.06367325037717819,0.059667326509952545,0.6027990579605103
1726407028041467000,4.864466796875,-0.06899957358837128,0.0707215741276741,0.6937236189842224
1726407028051464200,4.874464111328125,-0.09361304342746735,0.05620255321264267,0.7552586197853088
1726407028061460000,4.8844599609375,-0.12764477729797363,0.03311720862984657,0.7873877882957458
1726407028071457000,4.89445703125,-0.13798344135284424,0.00008708536915946752,0.807920515537262
1726407028081454000,4.9044541015625,-0.1192915067076683,-0.008696552366018295,0.8239684700965881
1726407028091449900,4.914449951171875,-0.1001039668917656,0.022913571447134018,0.8364424109458923
1726407028101447200,4.924447265625,-0.08413245528936386,0.05560627207159996,0.8446037173271179
1726407028111443000,4.93444287109375,-0.06054190546274185,0.07177378982305527,0.8537929058074951
1726407028121440000,4.94443994140625,-0.04922240599989891,0.07482098042964935,0.8490676879882812
1726407028131437000,4.95443701171875,-0.05109753832221031,0.09301196783781052,0.8364467024803162
1726407028141433000,4.96443310546875,-0.05453488230705261,0.08306878805160522,0.8072182536125183
1726407028151430100,4.97443017578125,-0.04333442449569702,0.13960424065589905,0.764438807964325
1726407028161426200,4.98442626953125,-0.038109034299850464,0.18753740191459656,0.6809812188148499
1726407028171423000,4.994423095703125,-0.03581046313047409,0.25692978501319885,0.5698461532592773
1726407028181420000,5.004419921875,-0.015586149878799915,0.32728785276412964,0.43330588936805725
1726407028191416000,5.014416015625,0.006656571291387081,0.403064101934433,0.2826268970966339
1726407028201412900,5.024412841796875,0.011207646690309048,0.48101428151130676,0.13239319622516632
1726407028211410000,5.034409912109375,0.016140354797244072,0.5630737543106079,-0.0024027039762586355
1726407028221406000,5.044406005859375,0.028246285393834114,0.6251009106636047,-0.11529676616191864
1726407028231403000,5.054403076171875,0.05843960866332054,0.645702064037323,-0.21095910668373108
1726407028241399000,5.06439892578125,0.09486685693264008,0.6352936029434204,-0.28867894411087036
1726407028251395800,5.074395751953125,0.14465385675430298,0.6082319021224976,-0.3455882966518402
1726407028261393200,5.08439306640625,0.17509564757347107,0.5574001669883728,-0.37325319647789
1726407028271389000,5.094388916015625,0.17882168292999268,0.4709653854370117,-0.3791494369506836
1726407028281386200,5.10438623046875,0.1510947048664093,0.37463778257369995,-0.3692089319229126
1726407028291382000,5.114382080078125,0.111758753657341,0.25365278124809265,-0.3652392327785492
1726407028301379000,5.124379150390625,0.087073914706707,0.1327950656414032,-0.36314839124679565
1726407028311376100,5.134376220703125,0.07008294761180878,-0.009898170828819275,-0.3663116693496704
1726407028321372200,5.1443720703125,0.05658205226063728,-0.17098985612392426,-0.37956303358078003
1726407028331369000,5.154368896484375,0.035965193063020706,-0.31278905272483826,-0.3908308744430542
1726407028341366000,5.164365966796875,0.020013388246297836,-0.43550512194633484,-0.3952948749065399
1726407028351362000,5.174362060546875,0.008448345586657524,-0.5159802436828613,-0.3974118232727051
1726407028361359000,5.184359130859375,0.003716174978762865,-0.5724270343780518,-0.389088898897171
1726407028371355100,5.194355224609375,-0.00021385183208622038,-0.6311004757881165,-0.3636013865470886
1726407028381352000,5.20435205078125,-0.010143714025616646,-0.7010244131088257,-0.3129139542579651
1726407028391349000,5.214348876953125,-0.028309935703873634,-0.7793192267417908,-0.2445562183856964
1726407028401345000,5.224344970703125,-0.05591519549489021,-0.7902368307113647,-0.1648017317056656
1726407028411342000,5.234342041015625,-0.08965931087732315,-0.7006422281265259,-0.0697692260146141
1726407028421338000,5.244338134765625,-0.1318054348230362,-0.5542448163032532,0.0374794639647007
1726407028431335000,5.2543349609375,-0.15210963785648346,-0.4007332921028137,0.14450684189796448
1726407028441332200,5.264332275390625,-0.15145264565944672,-0.2468654364347458,0.2273322194814682
1726407028451328000,5.274327880859375,-0.1309814453125,-0.08300114423036575,0.2678394317626953
1726407028461325000,5.284324951171875,-0.10569340735673904,0.047033023089170456,0.25965845584869385
1726407028471321000,5.294321044921875,-0.09094348549842834,0.12815797328948975,0.20588631927967072
1726407028481318000,5.30431787109375,-0.08254121243953705,0.15671691298484802,0.11668134480714798
1726407028491315200,5.314315185546875,-0.08889178931713104,0.14605814218521118,0.006432066671550274
1726407028501311000,5.32431103515625,-0.09929250180721283,0.1129627674818039,-0.11796791851520538
1726407028511308000,5.33430810546875,-0.11416199058294296,0.03500192612409592,-0.22125275433063507
1726407028521305000,5.34430517578125,-0.11467918008565903,-0.06517288088798523,-0.2975597679615021
1726407028531301000,5.354301025390625,-0.1123446524143219,-0.16716980934143066,-0.3480261564254761
1726407028541298200,5.364298095703125,-0.1032337099313736,-0.24593999981880188,-0.3828730881214142
1726407028551294200,5.374294189453125,-0.10430297255516052,-0.29834914207458496,-0.41796210408210754
1726407028561291000,5.384291015625,-0.11815353482961655,-0.33396145701408386,-0.4420386552810669
1726407028571288000,5.3942880859375,-0.13630270957946777,-0.3466607332229614,-0.4365496337413788
1726407028581284000,5.4042841796875,-0.15452486276626587,-0.3729919493198395,-0.41304323077201843
1726407028591281000,5.414281005859375,-0.159298837184906,-0.3942226767539978,-0.37833744287490845
1726407028601277200,5.424277099609375,-0.16205894947052002,-0.38732054829597473,-0.36390045285224915
1726407028611274000,5.43427392578125,-0.16257798671722412,-0.38964390754699707,-0.3561288118362427
1726407028621271000,5.44427099609375,-0.1787436455488205,-0.39330682158470154,-0.3473361134529114
1726407028631267000,5.45426708984375,-0.2060474455356598,-0.39251238107681274,-0.34314724802970886
1726407028641263900,5.464263916015625,-0.22871705889701843,-0.3937411606311798,-0.32890066504478455
1726407028651260200,5.47426025390625,-0.2335624247789383,-0.40722501277923584,-0.29966846108436584
1726407028661257000,5.484257080078125,-0.22221921384334564,-0.405117928981781,-0.24914537370204926
1726407028671254000,5.49425390625,-0.21193382143974304,-0.3615661859512329,-0.18833927810192108
1726407028681250000,5.50425,-0.21016335487365723,-0.28416702151298523,-0.13652215898036957
1726407028691247000,5.5142470703125,-0.212515190243721,-0.17962302267551422,-0.1056838184595108
1726407028701244200,5.524244140625,-0.21777494251728058,-0.08225332945585251,-0.08442167192697525
1726407028711240000,5.534239990234375,-0.21770383417606354,0.002348109148442745,-0.06757717579603195
1726407028721237000,5.544237060546875,-0.2065771371126175,0.044450823217630386,-0.05691734328866005
1726407028731233000,5.55423291015625,-0.19565925002098083,0.0626620501279831,-0.05517829954624176
1726407028741230000,5.56422998046875,-0.197495236992836,0.06252649426460266,-0.057187389582395554
1726407028751227100,5.57422705078125,-0.20601388812065125,0.025951173156499863,-0.05495113134384155
1726407028761223200,5.58422314453125,-0.20408043265342712,-0.0482998862862587,-0.0396568663418293
1726407028771220000,5.594219970703125,-0.1909630298614502,-0.12261512875556946,-0.02887772023677826
1726407028781216300,5.60421630859375,-0.1737627387046814,-0.1965751051902771,-0.026072613894939423
1726407028791213000,5.614213134765625,-0.15808790922164917,-0.26310965418815613,-0.03125139698386192
1726407028801209900,5.6242099609375,-0.16006822884082794,-0.30262696743011475,-0.05646087974309921
1726407028811206100,5.6342060546875,-0.15392298996448517,-0.32478606700897217,-0.07814832776784897
1726407028821203000,5.644202880859375,-0.14745816588401794,-0.3447698950767517,-0.1030036136507988
1726407028831199000,5.654198974609375,-0.14725948870182037,-0.39082714915275574,-0.13522998988628387
1726407028841196000,5.664196044921875,-0.14456596970558167,-0.4197671711444855,-0.1706811934709549
1726407028851192800,5.67419287109375,-0.1405019909143448,-0.41265520453453064,-0.21756881475448608
1726407028861189000,5.684189208984375,-0.1394316554069519,-0.39529353380203247,-0.26580291986465454
1726407028871186000,5.69418603515625,-0.1329042613506317,-0.3693665862083435,-0.2970713675022125
1726407028881183200,5.704183349609375,-0.12456962466239929,-0.3395327925682068,-0.3105189800262451
1726407028891179000,5.714178955078125,-0.12736700475215912,-0.31942620873451233,-0.3265434801578522
1726407028901176000,5.724176025390625,-0.12407081574201584,-0.3007321357727051,-0.3383396863937378
1726407028911172000,5.734172119140625,-0.12895984947681427,-0.26508307456970215,-0.3517409861087799
1726407028921169200,5.744169189453125,-0.14291347563266754,-0.26009601354599,-0.3617504835128784
1726407028931166000,5.754166015625,-0.15195490419864655,-0.2667113244533539,-0.3660981059074402
1726407028941162500,5.76416259765625,-0.16975867748260498,-0.25268712639808655,-0.37117886543273926
1726407028951159600,5.77415966796875,-0.19103413820266724,-0.22381392121315002,-0.38000378012657166
1726407028961155600,5.784155517578125,-0.20600323379039764,-0.22104983031749725,-0.3856760561466217
1726407028971152600,5.794152587890625,-0.21559540927410126,-0.22471673786640167,-0.39068493247032166
1726407028981149700,5.804149658203125,-0.22371165454387665,-0.21596558392047882,-0.3978666663169861
1726407028991145700,5.814145751953125,-0.23713824152946472,-0.22856739163398743,-0.3959183096885681
1726407029001142500,5.824142578125,-0.25146234035491943,-0.2808383107185364,-0.36664190888404846
1726407029011138600,5.834138671875,-0.27197933197021484,-0.3320184350013733,-0.3165507912635803
1726407029021135600,5.844135498046875,-0.30419638752937317,-0.31697556376457214,-0.25556546449661255
1726407029031132400,5.85413232421875,-0.3205375373363495,-0.25013020634651184,-0.20219917595386505
1726407029041128700,5.864128662109375,-0.3134532570838928,-0.1886703073978424,-0.15417811274528503
1726407029051125500,5.87412548828125,-0.2975113093852997,-0.13407763838768005,-0.11196168512105942
1726407029061122600,5.88412255859375,-0.29637840390205383,-0.07706176489591599,-0.0931275486946106
1726407029071118600,5.89411865234375,-0.3014650344848633,-0.011306450702250004,-0.08501102775335312
1726407029081115400,5.904115478515625,-0.2984359562397003,0.05276627466082573,-0.0808839276432991
1726407029091111700,5.914111572265625,-0.2954351007938385,0.1059727743268013,-0.07096978276968002
1726407029101108500,5.9241083984375,-0.28623947501182556,0.14604482054710388,-0.055817194283008575
1726407029111105800,5.934105712890625,-0.27699777483940125,0.2083369642496109,-0.046961117535829544
1726407029121101600,5.9441015625,-0.25832876563072205,0.2788209915161133,-0.0453573614358902
1726407029131098600,5.9540986328125,-0.2417239397764206,0.32909348607063293,-0.03747067600488663
1726407029141094700,5.9640947265625,-0.22919350862503052,0.310865193605423,-0.022698387503623962
1726407029151091500,5.974091552734375,-0.21369950473308563,0.2350013256072998,-0.0021204089280217886
1726407029161088500,5.984088623046875,-0.2236032634973526,0.12104200571775436,0.011916580609977245
1726407029171084500,5.99408447265625,-0.2500694990158081,0.028904885053634644,0.00703873485326767
1726407029181081600,6.00408154296875,-0.26466602087020874,-0.025419872254133224,-0.027830032631754875
1726407029191077400,6.014077392578125,-0.24583666026592255,-0.05915839597582817,-0.09894069284200668
1726407029201074700,6.02407470703125,-0.2298651486635208,-0.08593035489320755,-0.19649042189121246
1726407029211071500,6.034071533203125,-0.20677874982357025,-0.13150343298912048,-0.2937413454055786
1726407029221067800,6.04406787109375,-0.19220006465911865,-0.1768948882818222,-0.34319835901260376
1726407029231064600,6.054064697265625,-0.18110880255699158,-0.19179020822048187,-0.35310107469558716
1726407029241060600,6.064060546875,-0.16828301548957825,-0.16938583552837372,-0.33107513189315796
1726407029251057700,6.0740576171875,-0.14290495216846466,-0.13792377710342407,-0.280933141708374
1726407029261054500,6.084054443359375,-0.11665204912424088,-0.06423837691545486,-0.20527273416519165
1726407029271050800,6.09405078125,-0.07854833453893661,0.04910389706492424,-0.11682754755020142
1726407029281047600,6.104047607421875,-0.02888730727136135,0.16101738810539246,-0.006450974848121405
1726407029291043600,6.114043701171875,0.0011760519118979573,0.24096840620040894,0.08474817872047424
1726407029301040600,6.12404052734375,0.02514609880745411,0.2741934657096863,0.1317974478006363
1726407029311037400,6.134037353515625,0.03442561626434326,0.2770073711872101,0.15781332552433014
1726407029321033500,6.144033447265625,0.03483521193265915,0.2649749517440796,0.15805888175964355
1726407029331030500,6.154030517578125,0.04608387127518654,0.2542695701122284,0.12301327288150787
1726407029341027600,6.164027587890625,0.045950181782245636,0.2638992965221405,0.05878448858857155
1726407029351023600,6.174023681640625,0.05700469762086868,0.2773008346557617,-0.019766779616475105
1726407029361020700,6.184020751953125,0.08957302570343018,0.25407037138938904,-0.09133683890104294
1726407029371016400,6.194016357421875,0.12118714302778244,0.15429583191871643,-0.13737383484840393
1726407029381013500,6.204013427734375,0.14207564294338226,0.018666895106434822,-0.16063041985034943
1726407029391010600,6.214010498046875,0.15106754004955292,-0.09342049807310104,-0.1834411919116974
1726407029401006300,6.22400634765625,0.1672273427248001,-0.13668328523635864,-0.20396378636360168
1726407029411003600,6.234003662109375,0.18296343088150024,-0.15103718638420105,-0.19680680334568024
1726407029420999400,6.24399951171875,0.18571287393569946,-0.15972654521465302,-0.1875659078359604
1726407029430996700,6.253996826171875,0.1863696128129959,-0.16808247566223145,-0.17583520710468292
1726407029440993500,6.26399365234375,0.1883976012468338,-0.1857387125492096,-0.1739712655544281
1726407029450989600,6.273989501953125,0.1931540071964264,-0.22308102250099182,-0.17606717348098755
1726407029460986600,6.283986572265625,0.1888279765844345,-0.24362491071224213,-0.19145731627941132
1726407029470982700,6.293982666015625,0.1874641627073288,-0.24924445152282715,-0.21374158561229706
1726407029480979700,6.303979736328125,0.1643545925617218,-0.25714418292045593,-0.23342660069465637
1726407029490976500,6.3139765625,0.16433940827846527,-0.3124378025531769,-0.23936066031455994
1726407029500972500,6.32397265625,0.18120494484901428,-0.34288331866264343,-0.22653327882289886
1726407029510969600,6.333969482421875,0.18471339344978333,-0.34384578466415405,-0.2090381681919098
1726407029520965600,6.343965576171875,0.17591138184070587,-0.3599717617034912,-0.18611794710159302
1726407029530962400,6.35396240234375,0.15832573175430298,-0.4007788300514221,-0.15561462938785553
1726407029540959500,6.36395947265625,0.11826352775096893,-0.4626893401145935,-0.12205559760332108
1726407029550955500,6.37395556640625,0.0858246237039566,-0.5040684938430786,-0.07733766734600067
1726407029560952600,6.38395263671875,0.06384635716676712,-0.4838401675224304,-0.02110901288688183
1726407029570948600,6.393948486328125,0.04667828977108002,-0.44829681515693665,0.03316754102706909
1726407029580945400,6.4039453125,0.03371348977088928,-0.40703514218330383,0.07317780703306198
1726407029590942700,6.413942626953125,0.030174413695931435,-0.3729570508003235,0.09190675616264343
1726407029600938500,6.4239384765625,0.022274412214756012,-0.3591267466545105,0.09719206392765045
1726407029610935800,6.433935791015625,0.0005699164466932416,-0.3823676109313965,0.0866779014468193
1726407029620932600,6.4439326171875,-0.032767534255981445,-0.4195248484611511,0.06958334147930145
1726407029630928600,6.4539287109375,-0.042146120220422745,-0.447965532541275,0.07092557102441788
1726407029640925700,6.46392578125,-0.04177780821919441,-0.42819634079933167,0.08926703035831451
1726407029650921500,6.47392138671875,-0.040096819400787354,-0.4091123938560486,0.11517345905303955
1726407029660918500,6.48391845703125,-0.03362533822655678,-0.39008891582489014,0.13694161176681519
1726407029670915600,6.49391552734375,-0.03241439908742905,-0.39350786805152893,0.1397632211446762
1726407029680911600,6.50391162109375,-0.03337846323847771,-0.3713381290435791,0.1296541392803192
1726407029690908700,6.51390869140625,-0.03776788339018822,-0.3349188566207886,0.1094236969947815
1726407029700904700,6.52390478515625,-0.054546065628528595,-0.31888797879219055,0.08481422066688538
1726407029710901500,6.533901611328125,-0.056778326630592346,-0.33852559328079224,0.0670836940407753
1726407029720898600,6.543898681640625,-0.04904850199818611,-0.3652069866657257,0.05235881358385086
1726407029730894600,6.55389453125,-0.03591645509004593,-0.40197938680648804,0.03361921384930611
1726407029740891600,6.5638916015625,-0.03357420489192009,-0.4391571283340454,-0.0013888385146856308
1726407029750887700,6.5738876953125,-0.05462223291397095,-0.4543174207210541,-0.032054074108600616
1726407029760884500,6.583884521484375,-0.0644540935754776,-0.46534132957458496,-0.05704331398010254
1726407029770881500,6.593881591796875,-0.058758389204740524,-0.44321632385253906,-0.07337488234043121
1726407029780877600,6.603877685546875,-0.023874705657362938,-0.3890979588031769,-0.08905290812253952
1726407029790874400,6.613874267578125,0.01014185044914484,-0.3427498936653137,-0.09877531230449677
1726407029800870700,6.62387060546875,0.03148708492517471,-0.30974718928337097,-0.11044421792030334
1726407029810867500,6.633867431640625,0.04860828071832657,-0.26925384998321533,-0.12907010316848755
1726407029820864800,6.64386474609375,0.05884307622909546,-0.19833679497241974,-0.16423554718494415
1726407029830860500,6.653860595703125,0.06385088711977005,-0.12687459588050842,-0.1928594708442688
1726407029840857600,6.663857666015625,0.07566013932228088,-0.09289105981588364,-0.21962717175483704
1726407029850854700,6.673854736328125,0.09206068515777588,-0.019763052463531494,-0.2530447840690613
1726407029860850700,6.6838505859375,0.1103115901350975,0.11204291135072708,-0.290690153837204
1726407029870847500,6.693847412109375,0.13079848885536194,0.236293226480484,-0.32723137736320496
1726407029880843500,6.703843505859375,0.16334711015224457,0.3339068591594696,-0.34228330850601196
1726407029890840600,6.713840576171875,0.18533949553966522,0.38515380024909973,-0.32498180866241455
1726407029900836400,6.72383642578125,0.19891229271888733,0.3764742910861969,-0.2768062949180603
1726407029910833700,6.733833740234375,0.169908344745636,0.3490333557128906,-0.2184969186782837
1726407029920830500,6.74383056640625,0.14288312196731567,0.3055979907512665,-0.1593766063451767
1726407029930826800,6.75382666015625,0.1275438368320465,0.2837046980857849,-0.11705045402050018
1726407029940822800,6.76382275390625,0.11255237460136414,0.2736685574054718,-0.0831952840089798
1726407029950820000,6.773820068359375,0.11198805272579193,0.2708203196525574,-0.058931492269039154
1726407029960815900,6.78381591796875,0.1043061688542366,0.3101610541343689,-0.03652418777346611
1726407029970812700,6.793812744140625,0.09622613340616226,0.35995951294898987,-0.0375998392701149
1726407029980809000,6.80380908203125,0.07627293467521667,0.3689761757850647,-0.04447106271982193
1726407029990805800,6.8138056640625,0.0651979148387909,0.3303438127040863,-0.055099472403526306
1726407030000803000,6.823802978515625,0.05212179198861122,0.31246230006217957,-0.06772898137569427
1726407030010798800,6.833798828125,0.03645281493663788,0.3392302691936493,-0.07022036612033844
1726407030020796000,6.8437958984375,0.02761990949511528,0.37526735663414,-0.058887019753456116
1726407030030792000,6.8537919921875,0.020869063213467598,0.3893677294254303,-0.0442899651825428
1726407030040789000,6.8637890625,0.015059643425047398,0.3796623647212982,-0.021324995905160904
1726407030050786000,6.8737861328125,0.012240421026945114,0.38545554876327515,-0.00875114742666483
1726407030060782000,6.883781982421875,0.01190859079360962,0.38132739067077637,-0.0014343785587698221
1726407030070779000,6.89377880859375,0.01389957033097744,0.3814876973628998,0.009798568673431873
1726407030080775000,6.90377490234375,0.016887903213500977,0.39476996660232544,0.0300764087587595
1726407030090772000,6.91377197265625,0.03411616012454033,0.38260409235954285,0.052628058940172195
1726407030100768800,6.923768798828125,0.05651893466711044,0.3632815480232239,0.07381696254014969
1726407030110765000,6.93376513671875,0.06716971844434738,0.35849902033805847,0.08756526559591293
1726407030120761900,6.943761962890625,0.06701205670833588,0.34734010696411133,0.09629032015800476
1726407030130758000,6.9537578125,0.059291817247867584,0.36010971665382385,0.09280849993228912
1726407030140755000,6.9637548828125,0.05500679463148117,0.3852156102657318,0.09360851347446442
1726407030150751700,6.973751708984375,0.04584631696343422,0.3864864706993103,0.0958104133605957
1726407030160748000,6.983748046875,0.037029389292001724,0.3743637502193451,0.10696426779031754
1726407030170744800,6.993744873046875,0.04879070818424225,0.31155574321746826,0.12917876243591309
1726407030180740900,7.003740966796875,0.04824449494481087,0.25859534740448,0.1476709544658661
1726407030190738000,7.013738037109375,0.05072496086359024,0.26144784688949585,0.150498166680336
1726407030200735000,7.02373486328125,0.05199022963643074,0.2693648934364319,0.13536421954631805
1726407030210730800,7.033730712890625,0.05598284304141998,0.2812995910644531,0.09607886523008347
1726407030220727800,7.043727783203125,0.044733915477991104,0.28895696997642517,0.04134504124522209
1726407030230723800,7.053723876953125,0.0320223830640316,0.28382211923599243,-0.028494225814938545
1726407030240721000,7.063720947265625,0.02171408385038376,0.25778520107269287,-0.08863905817270279
1726407030250718000,7.073718017578125,0.014729411341249943,0.21955792605876923,-0.12992124259471893
1726407030260713700,7.083713623046875,0.025885924696922302,0.21447767317295074,-0.14052994549274445
1726407030270711000,7.0937109375,0.04303694888949394,0.22436918318271637,-0.11782623827457428
1726407030280707800,7.103707763671875,0.051186755299568176,0.221669003367424,-0.06670259684324265
1726407030290704100,7.1137041015625,0.03332067281007767,0.2062264084815979,-0.005456284619867802
1726407030300701000,7.123700927734375,0.012012987397611141,0.213039830327034,0.03876710310578346
1726407030310697000,7.133697021484375,-0.007092796731740236,0.24612481892108917,0.04393922910094261
1726407030320694000,7.143694091796875,-0.015596802346408367,0.2995358407497406,0.02280118688941002
1726407030330690800,7.15369091796875,-0.017194699496030807,0.3433877229690552,-0.0065532405860722065
1726407030340686800,7.163686767578125,-0.016396816819906235,0.39289188385009766,-0.04386385902762413
1726407030350684000,7.173683837890625,-0.023443274199962616,0.3845365047454834,-0.06833724677562714
1726407030360680000,7.183679931640625,-0.02833763137459755,0.37450650334358215,-0.10122435539960861
1726407030370677000,7.193677001953125,-0.028812473639845848,0.3459928333759308,-0.14054672420024872
1726407030380673800,7.203673828125,-0.03341814503073692,0.3162767291069031,-0.16977038979530334
1726407030390669800,7.213669921875,-0.04113731533288956,0.3049689531326294,-0.1808193176984787
1726407030400667000,7.2236669921875,-0.04211496189236641,0.30983561277389526,-0.1668989658355713
1726407030410663000,7.233662841796875,-0.031988825649023056,0.32246139645576477,-0.13308748602867126
1726407030420660000,7.243659912109375,-0.02305498532950878,0.3615528643131256,-0.08963241428136826
1726407030430657000,7.253656982421875,-0.014053501188755035,0.4242916405200958,-0.040109600871801376
1726407030440652800,7.26365283203125,-0.006932208314538002,0.49486300349235535,0.02009461633861065
1726407030450649900,7.27364990234375,-0.008362325839698315,0.5486729741096497,0.07249124348163605
1726407030460646000,7.28364599609375,-0.02474050037562847,0.5615839958190918,0.12502741813659668
1726407030470642700,7.293642578125,-0.02099742740392685,0.572272539138794,0.17244447767734528
1726407030480640000,7.303639892578125,-0.02280251681804657,0.6104870438575745,0.2202327698469162
1726407030490635800,7.3136357421875,-0.015335813164710999,0.6442397236824036,0.26912999153137207
1726407030500633000,7.323633056640625,-0.0172618106007576,0.6658344864845276,0.30031242966651917
1726407030510628900,7.33362890625,-0.013761884532868862,0.6291712522506714,0.3160615563392639
1726407030520626000,7.3436259765625,0.011289405636489391,0.561135470867157,0.3201673626899719
1726407030530623000,7.353623046875,0.03183143213391304,0.49584782123565674,0.3155435621738434
1726407030540619000,7.363618896484375,0.04136155545711517,0.39215153455734253,0.30898740887641907
1726407030550616000,7.373615966796875,0.024577515199780464,0.3105866312980652,0.28317657113075256
1726407030560611800,7.38361181640625,-0.016173643991351128,0.2517816424369812,0.22508397698402405
1726407030570609000,7.39360888671875,-0.053216349333524704,0.16080886125564575,0.1172371432185173
1726407030580606000,7.40360595703125,-0.08054943382740021,0.08599214255809784,-0.029925940558314323
1726407030590602000,7.41360205078125,-0.09574863314628601,0.04464283585548401,-0.18468542397022247
1726407030600598800,7.423598876953125,-0.09210222959518433,-0.027043335139751434,-0.3054496645927429
1726407030610595000,7.433594970703125,-0.08843505382537842,-0.08960817754268646,-0.3598785400390625
1726407030620591900,7.443591796875,-0.07259457558393478,-0.10186617821455002,-0.3743911683559418
1726407030630589000,7.4535888671875,-0.04211469739675522,-0.1085967868566513,-0.3563101887702942
1726407030640585000,7.4635849609375,-0.024525050073862076,-0.08844517916440964,-0.3234725892543793
1726407030650581800,7.473581787109375,-0.02983779087662697,-0.04072026535868645,-0.29121214151382446
1726407030660578000,7.483578125,-0.040816403925418854,0.026816166937351227,-0.27302300930023193
1726407030670574800,7.493574951171875,-0.06139518320560455,0.06859530508518219,-0.28305888175964355
1726407030680572000,7.503572021484375,-0.09420453011989594,0.03602218255400658,-0.30578842759132385
1726407030690568000,7.51356787109375,-0.1197839230298996,-0.03761395439505577,-0.3174391984939575
1726407030700564700,7.523564697265625,-0.128421351313591,-0.10763804614543915,-0.3094547986984253
1726407030710560800,7.533560791015625,-0.12468840181827545,-0.18585428595542908,-0.2774795591831207
1726407030720557800,7.543557861328125,-0.10474691540002823,-0.25555506348609924,-0.20365191996097565
1726407030730555000,7.553554931640625,-0.10236339271068573,-0.34897610545158386,-0.10283982753753662
1726407030740551000,7.563551025390625,-0.13019289076328278,-0.4427625238895416,-0.011151720769703388
1726407030750548000,7.5735478515625,-0.17592468857765198,-0.49068450927734375,0.05559428781270981
1726407030760545000,7.583544921875,-0.20608365535736084,-0.4931953251361847,0.10864711552858353
1726407030770541000,7.593541015625,-0.19781480729579926,-0.4673016667366028,0.16795891523361206
1726407030780537900,7.603537841796875,-0.16469228267669678,-0.44006818532943726,0.22542060911655426
1726407030790534100,7.6135341796875,-0.14221306145191193,-0.37341541051864624,0.27955442667007446
1726407030800531000,7.623531005859375,-0.13680338859558105,-0.28037920594215393,0.3180525302886963
1726407030810527700,7.63352783203125,-0.13312876224517822,-0.1914203017950058,0.3215295672416687
1726407030820524000,7.64352392578125,-0.1311497688293457,-0.20187319815158844,0.29277515411376953
1726407030830520800,7.653520751953125,-0.13623906672000885,-0.2779402732849121,0.2632225751876831
1726407030840516900,7.663516845703125,-0.14640940725803375,-0.37766900658607483,0.24645504355430603
1726407030850514000,7.673513916015625,-0.15472859144210815,-0.45164069533348083,0.24561722576618195
1726407030860510700,7.6835107421875,-0.15771053731441498,-0.4895513355731964,0.24329441785812378
1726407030870507000,7.693507080078125,-0.1545802503824234,-0.5238986611366272,0.23954707384109497
1726407030880503800,7.70350390625,-0.16065838932991028,-0.5825931429862976,0.22937193512916565
1726407030890499800,7.713499755859375,-0.1655879020690918,-0.6314562559127808,0.20730018615722656
1726407030900497000,7.723496826171875,-0.1769990175962448,-0.642198383808136,0.181022509932518
1726407030910494000,7.733493896484375,-0.18411816656589508,-0.653412401676178,0.15751506388187408
1726407030920490000,7.743489990234375,-0.1829327940940857,-0.6440833806991577,0.138225257396698
1726407030930487000,7.753487060546875,-0.17856362462043762,-0.5702040791511536,0.11997620761394501
1726407030940482800,7.76348291015625,-0.15119484066963196,-0.38217586278915405,0.11870002001523972
1726407030950480000,7.77347998046875,-0.12476377189159393,-0.129464253783226,0.14763472974300385
1726407030960477000,7.783476806640625,-0.10694961994886398,0.08656445145606995,0.21559619903564453
1726407030970473000,7.793472900390625,-0.08819004893302917,0.2294859141111374,0.29523909091949463
1726407030980470000,7.803469970703125,-0.07478049397468567,0.32866042852401733,0.37269872426986694
1726407030990465800,7.8134658203125,-0.07161133736371994,0.44915837049484253,0.43818399310112
1726407031000463000,7.823463134765625,-0.07677680253982544,0.5819653868675232,0.4961642324924469
1726407031010460000,7.8334599609375,-0.07272133976221085,0.6626551747322083,0.5201385021209717
1726407031020456000,7.8434560546875,-0.054247260093688965,0.6400148868560791,0.49043309688568115
1726407031030453000,7.853452880859375,-0.0207500196993351,0.5539180636405945,0.3968679904937744
1726407031040449000,7.863448974609375,0.013218333944678307,0.41004478931427,0.23623010516166687
1726407031050446000,7.873446044921875,0.03520139679312706,0.26325374841690063,0.033120933920145035
1726407031060443000,7.88344287109375,0.04051253944635391,0.11772876232862473,-0.17976737022399902
1726407031070439000,7.89343896484375,0.03220267593860626,0.042814843356609344,-0.3492104709148407
1726407031080436000,7.90343603515625,0.030588535591959953,0.004347078036516905,-0.46685001254081726
1726407031090432000,7.913431884765625,0.05024958774447441,0.0044051348231732845,-0.5410496592521667
1726407031100429000,7.923428955078125,0.06416434049606323,0.04446174204349518,-0.5724411606788635
1726407031110425900,7.93342578125,0.07224942743778229,0.04881361126899719,-0.5961243510246277
1726407031120422000,7.943421875,0.07411151379346848,0.016578176990151405,-0.5995275974273682
1726407031130419000,7.9534189453125,0.05166718736290932,0.009647301398217678,-0.6050142645835876
1726407031140415000,7.9634150390625,0.020485034212470055,0.00427171029150486,-0.6187929511070251
1726407031150411800,7.973411865234375,-0.007530088070780039,-0.04531794786453247,-0.6499875783920288
1726407031160409000,7.9834091796875,-0.03508448228240013,-0.1732540726661682,-0.686205267906189
1726407031170404900,7.99340478515625,-0.06687436997890472,-0.30122774839401245,-0.7437772154808044
1726407031180402000,8.00340185546875,-0.12478001415729523,-0.41380035877227783,-0.82099848985672
1726407031190398000,8.01339794921875,-0.17819850146770477,-0.49897944927215576,-0.8344959020614624
1726407031200394800,8.023394775390624,-0.20173418521881104,-0.5517441034317017,-0.7919031977653503
1726407031210392000,8.03339208984375,-0.18164196610450745,-0.4868026673793793,-0.722745954990387
1726407031220387800,8.043387939453124,-0.16219156980514526,-0.4379770755767822,-0.6258170008659363
1726407031230385200,8.05338525390625,-0.1344424933195114,-0.39930158853530884,-0.49315589666366577
1726407031240381000,8.063380859375,-0.1060904860496521,-0.37339088320732117,-0.35467979311943054
1726407031250378000,8.0733779296875,-0.08466402441263199,-0.2840498387813568,-0.2204761803150177
1726407031260375000,8.083375,-0.09384793043136597,-0.18494455516338348,-0.12498481571674347
1726407031270371000,8.09337109375,-0.12572090327739716,-0.08327491581439972,-0.05661134794354439
1726407031280367900,8.103367919921874,-0.16695863008499146,-0.01866023615002632,-0.0037609159480780363
1726407031290364000,8.113364013671875,-0.1849362999200821,0.03104899637401104,0.036490898579359055
1726407031300361000,8.12336083984375,-0.17778384685516357,0.1266048103570938,0.05089060962200165
1726407031310358000,8.13335791015625,-0.14308178424835205,0.24772857129573822,0.05835172161459923
1726407031320354000,8.14335400390625,-0.10633602738380432,0.3044009208679199,0.07786870002746582
1726407031330350800,8.153350830078125,-0.09649032354354858,0.34168994426727295,0.0869189202785492
1726407031340347100,8.16334716796875,-0.1038462370634079,0.3241410553455353,0.07871957868337631
1726407031350344000,8.173343994140625,-0.15059936046600342,0.29393282532691956,0.06408364325761795
1726407031360340700,8.1833408203125,-0.19055423140525818,0.2930012345314026,0.05047276243567467
1726407031370337000,8.1933369140625,-0.1944909244775772,0.29605188965797424,0.04861387610435486
1726407031380333800,8.203333740234376,-0.16751310229301453,0.286094605922699,0.052141230553388596
1726407031390329900,8.213329833984375,-0.12707912921905518,0.2903657853603363,0.06599526107311249
1726407031400327000,8.223326904296876,-0.10017640143632889,0.2793954312801361,0.08955171704292297
1726407031410324000,8.233323974609375,-0.08589253574609756,0.2581183612346649,0.1216055303812027
1726407031420320000,8.243320068359376,-0.08840389549732208,0.22007830440998077,0.14534041285514832
1726407031430316800,8.25331689453125,-0.09718913584947586,0.10298950225114822,0.1584538221359253
1726407031440312800,8.263312744140626,-0.1125454530119896,-0.003934820648282766,0.16412316262722015
1726407031450310000,8.273309814453125,-0.1356542408466339,-0.040816403925418854,0.1298924833536148
1726407031460307000,8.283306884765626,-0.1601310819387436,-0.05843960866332054,0.08145357668399811
1726407031470303000,8.293302978515625,-0.15326784551143646,-0.1132487952709198,0.049861565232276917
1726407031480300000,8.303300048828126,-0.12465324997901917,-0.11897006630897522,0.047639958560466766
1726407031490295800,8.3132958984375,-0.0881037563085556,-0.06800594925880432,0.08354416489601135
1726407031500293000,8.323293212890626,-0.06744188815355301,-0.05197744816541672,0.12862294912338257
1726407031510290000,8.3332900390625,-0.0578441247344017,-0.12448599934577942,0.16870273649692535
1726407031520286000,8.343285888671875,-0.07045605778694153,-0.2748933434486389,0.1572577953338623
1726407031530283000,8.353282958984375,-0.09407536685466766,-0.44415855407714844,0.08159472793340683
1726407031540278800,8.36327880859375,-0.1283065676689148,-0.6324357986450195,-0.029271336272358894
1726407031550276000,8.373276123046875,-0.1612192541360855,-0.8034562468528748,-0.14904087781906128
1726407031560273000,8.38327294921875,-0.1607998013496399,-0.8891322612762451,-0.25668665766716003
1726407031570269000,8.39326904296875,-0.13773256540298462,-0.9266162514686584,-0.3092241585254669
1726407031580266000,8.403265869140625,-0.11148791015148163,-0.9253904223442078,-0.3285653591156006
1726407031590262000,8.413261962890624,-0.073503777384758,-0.8825691938400269,-0.3249378800392151
1726407031600259000,8.423259033203125,-0.06393930315971375,-0.8529868125915527,-0.3073234558105469
1726407031610256000,8.433255859375,-0.07389845699071884,-0.8516498804092407,-0.291324257850647
1726407031620252000,8.443251953125,-0.0871354341506958,-0.8615802526473999,-0.26120975613594055
1726407031630249000,8.4532490234375,-0.08287037909030914,-0.8851841688156128,-0.20145881175994873
1726407031640245000,8.463244873046875,-0.06450948119163513,-0.8871311545372009,-0.12980380654335022
1726407031650241800,8.47324169921875,-0.05927930399775505,-0.8372523188591003,-0.05618524178862572
1726407031660239000,8.483239013671875,-0.05444832891225815,-0.7572389841079712,0.012349876575171947
1726407031670235000,8.49323486328125,-0.0458468496799469,-0.7010252475738525,0.04927300661802292
1726407031680232000,8.50323193359375,-0.0308106429874897,-0.6400452256202698,0.05089886859059334
1726407031690228000,8.51322802734375,-0.01661333069205284,-0.5982335805892944,0.024450214579701424
1726407031700224800,8.523224853515625,0.0036906085442751646,-0.5632806420326233,-0.0111032510176301
1726407031710222000,8.53322216796875,0.03869253396987915,-0.5205925703048706,-0.051970258355140686
1726407031720217900,8.5432177734375,0.0776846781373024,-0.46783724427223206,-0.09044521301984787
1726407031730215000,8.55321484375,0.0920199379324913,-0.4532119631767273,-0.0838264599442482
1726407031740211000,8.5632109375,0.09434541314840317,-0.45770177245140076,-0.04785221070051193
1726407031750208000,8.5732080078125,0.08481262624263763,-0.4769391119480133,0.024442758411169052
1726407031760205000,8.583205078125,0.04874410480260849,-0.49206453561782837,0.09543970227241516
1726407031770201000,8.593201171875,0.0011052117915824056,-0.4695371389389038,0.1512443721294403
1726407031780198000,8.603197998046875,-0.024766333401203156,-0.4726802110671997,0.1560567170381546
1726407031790194000,8.61319384765625,-0.0120689133182168,-0.5062370896339417,0.12345162779092789
1726407031800191000,8.62319091796875,0.00872025452554226,-0.5352676510810852,0.08242243528366089
1726407031810188000,8.63318798828125,0.0206296443939209,-0.5027773976325989,0.03473587706685066
1726407031820184000,8.64318408203125,0.02557247132062912,-0.3564470708370209,-0.001600293442606926
1726407031830180900,8.653180908203124,0.032946765422821045,-0.1911419928073883,-0.021869612857699394
1726407031840177200,8.66317724609375,0.0670514702796936,-0.07448834925889969,-0.0017840516520664096
1726407031850174000,8.673174072265626,0.09993032366037369,0.0019017633749172091,0.04454056918621063
1726407031860170800,8.683170654296875,0.11289752274751663,0.06125590205192566,0.10143394768238068
1726407031870167000,8.6931669921875,0.11327489465475082,0.13685345649719238,0.16660016775131226
1726407031880163800,8.703163818359375,0.10482761263847351,0.26140496134757996,0.20964297652244568
1726407031890159900,8.713159912109376,0.10511603206396103,0.3911701440811157,0.2185986489057541
1726407031900157000,8.723156982421875,0.10432214289903641,0.48401859402656555,0.2237502783536911
1726407031910154000,8.733154052734376,0.11427890509366989,0.5696975588798523,0.2304728925228119
1726407031920150000,8.74314990234375,0.12172377109527588,0.6651841402053833,0.2223081737756729
1726407031930146800,8.753146728515626,0.129411518573761,0.7399539947509766,0.19815969467163086
1726407031940143000,8.76314306640625,0.13076573610305786,0.7710740566253662,0.1698622703552246
1726407031950140000,8.773139892578126,0.12651292979717255,0.762485146522522,0.1310030221939087
1726407031960136200,8.78313623046875,0.12608470022678375,0.700634241104126,0.09193018823862076
1726407031970133000,8.793133056640626,0.13735812902450562,0.5624985098838806,0.06838997453451157
1726407031980130000,8.803130126953125,0.15066194534301758,0.4698295593261719,0.025830531492829323
1726407031990126000,8.8131259765625,0.12931351363658905,0.462833434343338,-0.014326740987598896
1726407032000123100,8.823123046875,0.1268644779920578,0.5006963610649109,-0.06216909736394882
1726407032010119000,8.833118896484375,0.1378750503063202,0.5014615058898926,-0.08184213191270828
1726407032020116000,8.843115966796875,0.15877579152584076,0.49721217155456543,-0.08400648832321167
1726407032030113000,8.853113037109376,0.1819724589586258,0.5013954639434814,-0.0870632603764534
1726407032040109000,8.863109130859375,0.2032705694437027,0.5179318189620972,-0.08569493144750595
1726407032050106000,8.873106201171876,0.20275364816188812,0.5133530497550964,-0.08668935298919678
1726407032060102000,8.883101806640624,0.1916527897119522,0.4968084394931793,-0.08973041921854019
1726407032070099200,8.89309912109375,0.17375315725803375,0.48217329382896423,-0.09241621941328049
1726407032080096000,8.903095947265625,0.16124534606933594,0.44449517130851746,-0.08225652575492859
1726407032090092300,8.91309228515625,0.1634935885667801,0.39211025834083557,-0.061166685074567795
1726407032100089000,8.923089111328125,0.17074723541736603,0.3480610251426697,-0.04026992619037628
1726407032110085000,8.933085205078125,0.16503901779651642,0.32980719208717346,-0.02641509659588337
1726407032120082200,8.943082275390625,0.1381850391626358,0.32001474499702454,-0.02906227856874466
1726407032130079000,8.953078857421875,0.1301223188638687,0.343400776386261,-0.030376015231013298
1726407032140075000,8.963074951171874,0.13523133099079132,0.32928895950317383,-0.025165008381009102
1726407032150072000,8.973072021484375,0.12145159393548965,0.2880096733570099,0.002731071785092354
1726407032160068000,8.983068115234374,0.11027031391859055,0.22908884286880493,0.007439007982611656
1726407032170065200,8.993065185546875,0.09514062851667404,0.178425133228302,0.021387580782175064
1726407032180062000,9.00306201171875,0.06835509091615677,0.17181970179080963,0.021258417516946793
1726407032190058000,9.01305810546875,0.06654493510723114,0.21317778527736664,0.03724350780248642
1726407032200055000,9.023054931640624,0.0999138131737709,0.26827406883239746,0.06500642746686935
1726407032210051000,9.033051025390625,0.12705834209918976,0.3288439214229584,0.10047760605812073
1726407032220048100,9.043048095703124,0.132923424243927,0.3583051562309265,0.13459323346614838
1726407032230045200,9.053045166015625,0.13375939428806305,0.36003169417381287,0.12338478863239288
1726407032240041000,9.063041015625,0.1262463480234146,0.3559248149394989,0.07740690559148788
1726407032250038300,9.073038330078125,0.11180748790502548,0.2924893796443939,0.03009824827313423
1726407032260034000,9.083033935546876,0.08185545355081558,0.1969069391489029,-0.011956261470913887
1726407032270030800,9.09303076171875,0.01629774644970894,0.07206593453884125,-0.024809742346405983
1726407032280028200,9.103028076171874,-0.03093048557639122,-0.06494224816560745,-0.01824052259325981
1726407032290024000,9.11302392578125,-0.024158598855137825,-0.1615111380815506,-0.0060118199326097965
1726407032300021200,9.123021240234374,-0.004731105640530586,-0.19337771832942963,0.013225523754954338
1726407032310017000,9.13301708984375,0.007994276471436024,-0.16808514297008514,0.006249906495213509
1726407032320014000,9.14301416015625,0.014795191586017609,-0.1063016727566719,-0.0160045325756073
1726407032330011100,9.15301123046875,0.010450243949890137,-0.04150057211518288,-0.020194483920931816
1726407032340007200,9.163007080078126,-0.01920405402779579,0.012587963603436947,0.019090071320533752
1726407032350004000,9.17300390625,-0.025721341371536255,0.0070464578457176685,0.08173774182796478
1726407032360000300,9.183000244140626,-0.015262309461832047,0.032833315432071686,0.13560789823532104
1726407032369997000,9.1929970703125,0.004972920753061771,0.11330551654100418,0.1580468863248825
1726407032379994000,9.202994140625,0.0001448759576305747,0.20449374616146088,0.1935947686433792
1726407032389990100,9.212990234375,0.022722888737916946,0.260574609041214,0.23391927778720856
1726407032399987000,9.222987060546876,0.05705289915204048,0.27171701192855835,0.2566818594932556
1726407032409983200,9.232983154296875,0.06184925138950348,0.28205591440200806,0.26489904522895813
1726407032419980000,9.24297998046875,0.0650051012635231,0.33473724126815796,0.2583966553211212
1726407032429976000,9.25297607421875,0.061044979840517044,0.35130077600479126,0.25184929370880127
1726407032439973000,9.26297314453125,0.06885682791471481,0.28953754901885986,0.22966808080673218
1726407032449970000,9.272969970703125,0.0899280235171318,0.20570096373558044,0.19056329131126404
1726407032459966200,9.28296630859375,0.10391787439584732,0.15510515868663788,0.14476996660232544
1726407032469963000,9.292962890625,0.10384277254343033,0.15993453562259674,0.08909658342599869
1726407032479959000,9.302958984375,0.10966338217258453,0.23775477707386017,0.008262990042567253
1726407032489956000,9.3129560546875,0.11613565683364868,0.37008804082870483,-0.07427476346492767
1726407032499953200,9.322953125,0.12213629484176636,0.4801631569862366,-0.12815849483013153
1726407032509949000,9.332948974609375,0.12978702783584595,0.5158098340034485,-0.18282946944236755
1726407032519946000,9.342946044921876,0.13615889847278595,0.5038362741470337,-0.23121272027492523
1726407032529942000,9.35294189453125,0.13465288281440735,0.4696851968765259,-0.27658525109291077
1726407032539939000,9.36293896484375,0.1131979301571846,0.386769562959671,-0.3247903287410736
1726407032549936000,9.37293603515625,0.07649770379066467,0.2734462022781372,-0.343101441860199
1726407032559932000,9.382931884765625,0.038533810526132584,0.15477094054222107,-0.3291528522968292
1726407032569929200,9.39292919921875,0.024988707154989243,0.08712851256132126,-0.2923208177089691
1726407032579925000,9.402925048828125,0.019027486443519592,0.07991214096546173,-0.22237181663513184
1726407032589922300,9.41292236328125,0.03123648278415203,0.1386132687330246,-0.151955708861351
1726407032599919000,9.422919189453125,0.02858743630349636,0.18830253183841705,-0.07774725556373596
1726407032609915100,9.4329150390625,-0.0013470269041135907,0.1874503195285797,-0.0348953977227211
1726407032619912200,9.442912109375,-0.04747723788022995,0.13043390214443207,-0.039015840739011765
1726407032629908000,9.452907958984374,-0.07882130891084671,0.010733071714639664,-0.0621536523103714
1726407032639905000,9.462905029296875,-0.07464946806430817,-0.09900780767202377,-0.07030186057090759
1726407032649902000,9.472902099609374,-0.04698615148663521,-0.16109327971935272,-0.0449586845934391
1726407032659898000,9.482898193359375,-0.009036371484398842,-0.1350931078195572,0.017655692994594574
1726407032669895200,9.492895263671874,0.03446556627750397,-0.04626629874110222,0.10084059089422226
1726407032679891200,9.50289111328125,0.07153330743312836,0.08043758571147919,0.19020988047122955
1726407032689888000,9.512887939453124,0.09692308306694031,0.16705316305160522,0.2750273048877716
1726407032699885000,9.522885009765625,0.08660866320133209,0.17262503504753113,0.33209431171417236
1726407032709881000,9.532881103515624,0.0725594237446785,0.07457836717367172,0.3655439019203186
1726407032719878000,9.5428779296875,0.053702909499406815,-0.028233235701918602,0.3552507758140564
1726407032729874200,9.552874267578124,0.035467181354761124,-0.06446367502212524,0.35921168327331543
1726407032739871000,9.56287109375,0.027145866304636,-0.04507240280508995,0.38021498918533325
1726407032749867000,9.572866943359376,0.03387035056948662,0.015216769650578499,0.40460607409477234
1726407032759864000,9.582864013671875,0.04628600552678108,0.06427858769893646,0.42039620876312256
1726407032769860900,9.59286083984375,0.07055166363716125,0.020207533612847328,0.4184342622756958
1726407032779857200,9.602857177734375,0.055460330098867416,-0.03413320332765579,0.39431801438331604
1726407032789854000,9.61285400390625,0.033247433602809906,-0.05149967595934868,0.3255453407764435
1726407032799850000,9.62285009765625,0.016322247684001923,-0.07932012528181076,0.2468412071466446
1726407032809847000,9.632846923828126,0.010714962147176266,-0.12446070462465286,0.18975847959518433
1726407032819844000,9.642843994140625,0.012455870397388935,-0.14810824394226074,0.14019225537776947
1726407032829840100,9.652840087890626,0.007608118467032909,-0.1860622763633728,0.09429587423801422
1726407032839837200,9.662837158203125,0.006441654171794653,-0.18973371386528015,0.0771094337105751
1726407032849833000,9.6728330078125,-0.0003581951605156064,-0.22181521356105804,0.08560971170663834
1726407032859830000,9.682830078125,-0.008625978603959084,-0.3003062903881073,0.0813225507736206
1726407032869827000,9.6928271484375,-0.008011055178940296,-0.3014594614505768,0.0933440625667572
1726407032879822800,9.70282275390625,-0.014939001761376858,-0.2800835967063904,0.12883122265338898
1726407032889820200,9.712820068359376,-0.016080699861049652,-0.32091277837753296,0.15268461406230927
1726407032899816000,9.72281591796875,-0.020614730194211006,-0.30312952399253845,0.16841644048690796
1726407032909813200,9.732813232421876,-0.03302852436900139,-0.2563779950141907,0.17202208936214447
1726407032919810000,9.74281005859375,-0.05782042443752289,-0.18651874363422394,0.19185492396354675
1726407032929806000,9.75280615234375,-0.07045019418001175,-0.09113603830337524,0.2147407978773117
1726407032939803400,9.762803466796875,-0.04819948598742485,-0.013582121580839157,0.2408781200647354
1726407032949799400,9.77279931640625,-0.021149760112166405,0.00558065390214324,0.24142301082611084
1726407032959796500,9.78279638671875,0.007797735743224621,-0.03392680734395981,0.2037440687417984
1726407032969793300,9.792793212890626,0.018679412081837654,-0.05758287012577057,0.14620061218738556
1726407032979789600,9.80278955078125,0.01846635900437832,-0.13508698344230652,0.07577678561210632
1726407032989786400,9.812786376953126,0.009898170828819275,-0.21216684579849243,-0.0023430490400642157
1726407032999782400,9.822782470703125,-0.0021521004382520914,-0.2644124925136566,-0.0799558162689209
1726407033009779500,9.832779541015626,-0.02484995685517788,-0.26864662766456604,-0.12118661403656006
1726407033019776300,9.8427763671875,-0.030217556282877922,-0.2541095018386841,-0.1452578604221344
1726407033029772500,9.8527724609375,-0.034860510379076004,-0.21391494572162628,-0.1686292290687561
1726407033039769300,9.862769287109375,-0.0423157662153244,-0.17810475826263428,-0.1990196257829666
1726407033049765400,9.872765380859375,-0.0549231693148613,-0.18585242331027985,-0.21586677432060242
1726407033059762400,9.882762451171875,-0.06797079741954803,-0.18954063951969147,-0.20212434232234955
1726407033069758500,9.892758544921875,-0.07364226132631302,-0.22374200820922852,-0.20184098184108734
1726407033079755300,9.90275537109375,-0.08843958377838135,-0.2146792709827423,-0.19046182930469513
1726407033089752300,9.91275244140625,-0.10382147133350372,-0.20539602637290955,-0.18524229526519775
1726407033099748400,9.922748291015624,-0.1281539797782898,-0.19584541022777557,-0.18849773705005646
1726407033109745400,9.932745361328125,-0.1553214192390442,-0.21615946292877197,-0.1954137086868286
1726407033119741400,9.942741455078124,-0.14496757090091705,-0.1975008249282837,-0.17973726987838745
1726407033129738200,9.95273828125,-0.1264389008283615,-0.07867137342691422,-0.15327610075473785
1726407033139735600,9.962735595703125,-0.1327764242887497,0.03958336263895035,-0.13330478966236115
1726407033149731300,9.9727314453125,-0.14433826506137848,0.09030859172344208,-0.13261450827121735
1726407033159728600,9.982728759765624,-0.1483447253704071,0.08537162095308304,-0.13423795998096466
1726407033169724400,9.992724365234375,-0.15167847275733948,0.0743863508105278,-0.13840821385383606
1726407033179721500,10.002721435546874,-0.12913241982460022,0.13665638864040375,-0.14761768281459808
1726407033189718500,10.012718505859375,-0.06533053517341614,0.22560863196849823,-0.12091443687677383
1726407033199714300,10.02271435546875,0.0015219965716823936,0.3934658169746399,-0.08709042519330978
1726407033209711400,10.03271142578125,0.04375014454126358,0.5687220692634583,-0.05500253289937973
1726407033219707400,10.042707275390624,0.04601569473743439,0.6913179755210876,-0.03213396668434143
1726407033229704400,10.052704345703125,0.007188138086348772,0.6936749219894409,0.022221948951482773
1726407033239701500,10.062701416015624,-0.03472255915403366,0.5923874378204346,0.06096881255507469
1726407033249697500,10.072697509765625,-0.08123812824487686,0.45310065150260925,0.08141735941171646
1726407033259694300,10.0826943359375,-0.09091286361217499,0.36790743470191956,0.0749509409070015
1726407033269690600,10.092690673828125,-0.06777558475732803,0.34329718351364136,0.043829239904880524
1726407033279687400,10.1026875,-0.06465648859739304,0.2807384431362152,-0.020140422508120537
1726407033289683500,10.112683349609375,-0.0404246561229229,0.17553453147411346,-0.11896127462387085
1726407033299680500,10.122680419921876,-0.018496718257665634,0.04549797624349594,-0.17940092086791992
1726407033309677300,10.13267724609375,-0.01395602896809578,-0.03732473403215408,-0.20035387575626373
1726407033319673300,10.14267333984375,-0.018371017649769783,-0.11744140833616257,-0.1992470622062683
1726407033329670400,10.15267041015625,-0.0275631844997406,-0.13491041958332062,-0.186420738697052
1726407033339666400,10.16266650390625,-0.03236273303627968,-0.12728124856948853,-0.15747298300266266
1726407033349663500,10.17266357421875,-0.004560929723083973,-0.06752870976924896,-0.15285666286945343
1726407033359660300,10.182660400390626,-0.007438475266098976,0.015510249882936478,-0.13286377489566803
1726407033369656300,10.19265625,-0.02454955130815506,0.0501910001039505,-0.1021716445684433
1726407033379653400,10.2026533203125,-0.03996099904179573,-0.01028459519147873,-0.07318925857543945
1726407033389649400,10.2126494140625,-0.04091281071305275,-0.12783679366111755,-0.07305716723203659
1726407033399646500,10.222646484375,-0.05227838456630707,-0.2846847176551819,-0.08362991362810135
1726407033409643500,10.2326435546875,-0.06794815510511398,-0.3525300920009613,-0.1419249176979065
1726407033419639300,10.242639404296876,-0.07523323595523834,-0.327487051486969,-0.23544368147850037
1726407033429636400,10.25263623046875,-0.07914089411497116,-0.31068864464759827,-0.29868921637535095
1726407033439632400,10.26263232421875,-0.07667373865842819,-0.3331611752510071,-0.3351103365421295
1726407033449629200,10.272629150390625,-0.0724550262093544,-0.36627545952796936,-0.30217716097831726
1726407033459625500,10.28262548828125,-0.06427618861198425,-0.36512044072151184,-0.23800909519195557
1726407033469622300,10.292622314453125,-0.07270482927560806,-0.32839491963386536,-0.13880927860736847
1726407033479619600,10.30261962890625,-0.07717867195606232,-0.23896171152591705,-0.04307157173752785
1726407033489615400,10.312615478515625,-0.07857603579759598,-0.12763333320617676,0.04177168011665344
1726407033499612400,10.3226123046875,-0.0748172476887703,0.009616408497095108,0.10384224355220795
1726407033509608400,10.3326083984375,-0.040347423404455185,0.1223946213722229,0.1595047116279602
1726407033519605500,10.34260546875,0.00010759170982055366,0.2448427677154541,0.24277269840240479
1726407033529602600,10.3526025390625,0.021922076120972633,0.34163588285446167,0.3172410726547241
1726407033539598600,10.3625986328125,0.03193502873182297,0.3608039915561676,0.3378251791000366
1726407033549595400,10.372595458984375,0.0398922897875309,0.2982839047908783,0.31766077876091003
1726407033559591200,10.382591064453125,0.01871110312640667,0.1764701008796692,0.27790138125419617
1726407033569588500,10.39258837890625,-0.008971123956143856,0.035602468997240067,0.21658183634281158
1726407033579585300,10.402585205078125,-0.02389175072312355,-0.05744651332497597,0.1222366988658905
1726407033589581600,10.41258154296875,-0.027520308271050453,-0.08812639862298965,0.05944574996829033
1726407033599578400,10.422578369140625,-0.008420648984611034,-0.10689901560544968,0.027604196220636368
1726407033609574400,10.432574462890624,0.002086320426315069,-0.13792990148067474,0.05263551324605942
1726407033619571500,10.442571533203125,0.013755492866039276,-0.15588946640491486,0.08257876336574554
1726407033629568300,10.452568359375,0.002382996492087841,-0.14236460626125336,0.09288519620895386
1726407033639564500,10.462564453125,-0.008041414432227612,-0.13352051377296448,0.08880230784416199
1726407033649561300,10.472561279296874,0.0018034926615655422,-0.11599664390087128,0.06890556216239929
1726407033659557400,10.482557373046875,0.02104882523417473,-0.0828472152352333,0.04651397094130516
1726407033669554400,10.492554443359374,0.04932493716478348,-0.06473612040281296,0.037032052874565125
1726407033679550500,10.502550537109375,0.09055626392364502,-0.07473016530275345,-0.0008327704854309559
1726407033689547300,10.51254736328125,0.13150502741336823,-0.05043600872159004,-0.033237047493457794
1726407033699544300,10.52254443359375,0.16710563004016876,-0.005316202063113451,-0.03892156481742859
1726407033709540400,10.532540283203126,0.21364010870456696,0.02616928517818451,-0.05059872940182686
1726407033719537400,10.542537353515625,0.25114327669143677,0.01661013625562191,-0.0854744240641594
1726407033729533400,10.552533447265626,0.2676844298839569,0.0018924422329291701,-0.12125558406114578
1726407033739530200,10.5625302734375,0.23944801092147827,-0.03406795486807823,-0.11229325085878372
1726407033749527600,10.572527587890624,0.18316422402858734,-0.15943865478038788,-0.10126403719186783
1726407033759523300,10.5825234375,0.15337544679641724,-0.33252307772636414,-0.10626065731048584
1726407033769520600,10.592520751953124,0.15972761809825897,-0.4131374955177307,-0.15886448323726654
1726407033779516400,10.602516357421875,0.17682111263275146,-0.37497439980506897,-0.2229345440864563
1726407033789513500,10.612513427734376,0.17986750602722168,-0.3317393362522125,-0.31077730655670166
1726407033799510500,10.622510498046875,0.1910591721534729,-0.35816746950149536,-0.40094369649887085
1726407033809506300,10.63250634765625,0.17101915180683136,-0.4580288231372833,-0.46072205901145935
1726407033819503400,10.64250341796875,0.11915968358516693,-0.6008163094520569,-0.4875808358192444
1726407033829499400,10.65249951171875,0.053038716316223145,-0.7059957385063171,-0.4693792164325714
1726407033839496400,10.662496337890625,0.0037374801468104124,-0.7816875576972961,-0.4262421131134033
1726407033849493500,10.672493408203126,-0.018218152225017548,-0.7800337672233582,-0.3761824071407318
1726407033859489500,10.682489501953125,0.005577458068728447,-0.6601843237876892,-0.32228216528892517
1726407033869486300,10.692486328125,0.0286412313580513,-0.4694913327693939,-0.2656833529472351
1726407033879482600,10.702482666015625,0.021646972745656967,-0.3147326409816742,-0.21039851009845734
1726407033889479400,10.7124794921875,0.020171580836176872,-0.15464043617248535,-0.1379280388355255
1726407033899475500,10.722475341796875,0.026329608634114265,0.08351486921310425,-0.07414586842060089
1726407033909472500,10.732472412109376,0.03882649168372154,0.3616679310798645,0.031199730932712555
1726407033919469300,10.74246923828125,0.04922640323638916,0.6069384217262268,0.15944239497184753
1726407033929465300,10.75246533203125,0.05486324802041054,0.79902184009552,0.2523326575756073
1726407033939462400,10.76246240234375,0.040708281099796295,0.9061634540557861,0.30639347434043884
1726407033949457700,10.772457763671875,0.007476824801415205,0.940909206867218,0.3454625904560089
1726407033959454700,10.782454833984374,-0.01200126949697733,0.9135726094245911,0.342210590839386
1726407033969451800,10.79245166015625,0.007996407337486744,0.9262101650238037,0.28438353538513184
1726407033979447600,10.802447509765624,0.022662701085209846,0.9375836849212646,0.21095991134643555
1726407033989444600,10.812444580078125,0.024330640211701393,0.9605798125267029,0.14790503680706024
1726407033999440600,10.822440673828124,0.04385347291827202,1.0108659267425537,0.12965600192546844
1726407034009437400,10.8324375,0.07139988243579865,1.0282493829727173,0.15641064941883087
1726407034019434800,10.842434814453124,0.10026295483112335,1.0609806776046753,0.1768227070569992
1726407034029430500,10.852430419921875,0.12324949353933334,1.0926440954208374,0.1868833303451538
1726407034039427800,10.862427734375,0.13468004763126373,1.051803708076477,0.17822806537151337
1726407034049423600,10.872423583984375,0.12300901114940643,0.9862111806869507,0.14711567759513855
1726407034059420700,10.882420654296874,0.11727416515350342,0.9071698784828186,0.09469002485275269
1726407034069416700,10.892416748046875,0.11485973745584488,0.834595799446106,0.006611563730984926
1726407034079413800,10.902413818359374,0.09003455191850662,0.7672052979469299,-0.10344303399324417
1726407034089410600,10.91241064453125,0.08485017716884613,0.6856086850166321,-0.20313714444637299
1726407034099406600,10.922406494140626,0.08323603123426437,0.6539384126663208,-0.23028886318206787
1726407034109403600,10.932403564453125,0.08070283383131027,0.669236958026886,-0.21371760964393616
1726407034119399400,10.9423994140625,0.08627816289663315,0.6277323365211487,-0.2093644142150879
1726407034129396700,10.952396728515625,0.09604370594024658,0.5132811665534973,-0.23773452639579773
1726407034139393500,10.9623935546875,0.07670649886131287,0.392377644777298,-0.2908310294151306
1726407034149389800,10.972389892578125,0.050581153482198715,0.26836514472961426,-0.3438471257686615
1726407034159386600,10.98238671875,0.02147253416478634,0.14208976924419403,-0.38915708661079407
1726407034169382700,10.992382568359375,0.025420937687158585,0.044680118560791016,-0.428096204996109
1726407034179379700,11.002379638671876,0.029040705412626266,0.03723418712615967,-0.43279722332954407
1726407034189376500,11.01237646484375,0.026729082688689232,0.11610530316829681,-0.3762660324573517
1726407034199372800,11.022372802734376,0.04277942329645157,0.22445574402809143,-0.31419575214385986
1726407034209369600,11.03236962890625,0.04291444271802902,0.38633278012275696,-0.2494574934244156
1726407034219365600,11.04236572265625,0.07095114141702652,0.5255820155143738,-0.19817620515823364
1726407034229362700,11.05236279296875,0.1478176862001419,0.6088931560516357,-0.1609838306903839
1726407034239358700,11.062358642578126,0.21333731710910797,0.7092426419258118,-0.12365137040615082
1726407034249355500,11.07235546875,0.23547403514385223,0.7333219051361084,-0.07398074865341187
1726407034259352600,11.0823525390625,0.21332426369190216,0.6760543584823608,-0.04079962894320488
1726407034269348600,11.0923486328125,0.15543432533740997,0.6151769161224365,-0.05314311385154724
1726407034279345700,11.102345703125,0.1086452528834343,0.4692780077457428,-0.06688742339611053
1726407034289341700,11.112341796875,0.08314575254917145,0.3423789143562317,-0.05356815457344055
1726407034299338500,11.12233837890625,0.04398583248257637,0.1775715947151184,-0.02172207273542881
1726407034309335800,11.132335693359375,0.015408516861498356,0.06468791514635086,-0.006766825914382935
1726407034319331600,11.14233154296875,-0.03129933401942253,-0.0014642059104517102,0.0010964233661070466
1726407034329329000,11.152328857421875,-0.06000448018312454,-0.07222972065210342,0.026885943487286568
1726407034339324700,11.16232470703125,-0.0326644703745842,0.018252506852149963,0.026280339807271957
1726407034349321700,11.17232177734375,0.005898901727050543,0.12566737830638885,0.03490978106856346
1726407034359318800,11.18231884765625,0.04115249589085579,0.19639959931373596,0.06729967892169952
1726407034369314600,11.192314453125,0.051964130252599716,0.25447702407836914,0.1003471091389656
1726407034379311600,11.2023115234375,0.05612904950976372,0.3074222505092621,0.1362909972667694
1726407034389307600,11.2123076171875,0.05742920562624931,0.3569842278957367,0.18793953955173492
1726407034399304700,11.2223046875,0.06568872928619385,0.3646828830242157,0.186720609664917
1726407034409300500,11.232300537109374,0.06075336039066315,0.31576356291770935,0.17920704185962677
1726407034419297800,11.2422978515625,0.0287054143846035,0.2137298583984375,0.1577392965555191
1726407034429294600,11.252294677734374,-0.005477855913341045,0.13247895240783691,0.14788293838500977
1726407034439291000,11.262290771484375,-0.037693049758672714,-0.004950284026563168,0.11704912781715393
1726407034449287700,11.27228759765625,-0.08881509304046631,-0.19568215310573578,0.08145225048065186
1726407034459283700,11.28228369140625,-0.11169883608818054,-0.27337774634361267,0.03098800964653492
1726407034469280800,11.29228076171875,-0.12209634482860565,-0.2618712782859802,0.018340392038226128
1726407034479277600,11.302277587890625,-0.1109590083360672,-0.2571606934070587,0.035885296761989594
1726407034489273600,11.312273681640624,-0.08616630733013153,-0.3096396028995514,0.04098178818821907
1726407034499270700,11.322270751953125,-0.07299911230802536,-0.3654016852378845,-0.0068091703578829765
1726407034509266700,11.3322666015625,-0.05637672170996666,-0.3698374330997467,-0.08001600950956345
1726407034519263700,11.342263671875,-0.05218677222728729,-0.33100640773773193,-0.09491132944822311
1726407034529260500,11.352260498046874,-0.08381793648004532,-0.3262084722518921,-0.0648391842842102
1726407034539256600,11.362256591796875,-0.06903020292520523,-0.3161236047744751,-0.002201635157689452
1726407034549253600,11.372253662109374,-0.04140762612223625,-0.33910322189331055,0.06390601396560669
1726407034559249700,11.382249755859375,-0.03917483240365982,-0.4325346350669861,0.0924881249666214
1726407034569246700,11.392246826171874,-0.02839568816125393,-0.5299323201179504,0.0778692290186882
1726407034579242800,11.40224267578125,-0.021413413807749748,-0.5234397649765015,0.0712432861328125
1726407034589239600,11.412239501953126,-0.04673554748296738,-0.5283322930335999,0.08309754729270935
1726407034599236600,11.422236572265625,-0.057985272258520126,-0.5818775296211243,0.1080407127737999
1726407034609232600,11.432232666015626,-0.028968269005417824,-0.5730445981025696,0.1185641959309578
1726407034619229400,11.4422294921875,-0.0037499971222132444,-0.4990319013595581,0.11438516527414322
1726407034629225700,11.452225830078126,-0.008815063163638115,-0.47092971205711365,0.17812606692314148
1726407034639222500,11.462222412109375,-0.012973056174814701,-0.44222936034202576,0.28014668822288513
1726407034649219800,11.4722197265625,0.005597698036581278,-0.31200289726257324,0.3196203410625458
1726407034659215600,11.482215576171875,0.030314229428768158,-0.14919587969779968,0.3117283284664154
1726407034669212700,11.492212646484376,0.04908285662531853,-0.029109949246048927,0.2670857608318329
1726407034679208700,11.502208740234375,0.06010568141937256,0.023369237780570984,0.21995685994625092
1726407034689205800,11.512205810546876,0.06300985813140869,0.04175570234656334,0.17802219092845917
1726407034699201500,11.522201416015625,0.060507286339998245,0.049008287489414215,0.15393364429473877
1726407034709198600,11.532198486328125,0.045401837676763535,0.08083439618349075,0.10502521693706512
1726407034719195600,11.542195556640625,0.03615507483482361,0.11372309923171997,0.04472459480166435
1726407034729191400,11.55219140625,0.05507523566484451,0.1789601594209671,-0.004303135443478823
1726407034739188700,11.562188720703125,0.06612415611743927,0.26404762268066406,-0.024144217371940613
1726407034749184500,11.5721845703125,0.07154315710067749,0.29307475686073303,0.013367736712098122
1726407034759181800,11.582181884765625,0.07776670157909393,0.30040135979652405,0.048898834735155106
1726407034769178600,11.5921787109375,0.08244746923446655,0.2758270502090454,0.08125783503055573
1726407034779174700,11.602174560546874,0.06304661184549332,0.13477033376693726,0.07291468977928162
1726407034789171700,11.612171630859375,0.031185083091259003,0.031196268275380135,0.014230335131287575
1726407034799167700,11.622167724609374,-0.026394056156277657,0.03266633301973343,-0.07060439139604568
1726407034809164800,11.632164794921875,-0.08122614771127701,0.04835927486419678,-0.11798442900180817
1726407034819161600,11.64216162109375,-0.09451664984226227,-0.05439506471157074,-0.1577097326517105
1726407034829157600,11.65215771484375,-0.05583982914686203,-0.17479844391345978,-0.20711669325828552
1726407034839154700,11.66215478515625,-0.033061813563108444,-0.17635107040405273,-0.2385963350534439
1726407034849150700,11.672150634765625,-0.0417780727148056,-0.1751534342765808,-0.23874147236347198
1726407034859147500,11.6821474609375,-0.08002186566591263,-0.27624011039733887,-0.21348564326763153
1726407034869143800,11.692143798828125,-0.1273992359638214,-0.39562004804611206,-0.149323970079422
1726407034879140600,11.702140625,-0.15874651074409485,-0.40849295258522034,-0.07552111893892288
1726407034889137700,11.7121376953125,-0.18434400856494904,-0.3419208526611328,-0.028056135401129723
1726407034899133700,11.7221337890625,-0.1825503706932068,-0.30000215768814087,-0.002487925114110112
1726407034909130500,11.732130615234375,-0.18144889175891876,-0.24524624645709991,-0.024692296981811523
1726407034919126800,11.742126708984374,-0.1972837746143341,-0.17150650918483734,-0.028269721195101738
1726407034929123600,11.75212353515625,-0.2146017849445343,-0.22370046377182007,-0.012478773482143879
1726407034939121000,11.762120849609374,-0.21937602758407593,-0.2205374389886856,-0.026519492268562317
1726407034949117200,11.7721171875,-0.1959841549396515,-0.14785151183605194,-0.06543520092964172
1726407034959114200,11.7821142578125,-0.16972379386425018,-0.013470268808305264,-0.07377595454454422
1726407034969110300,11.7921103515625,-0.10857627540826797,0.176836296916008,-0.11482751369476318
1726407034979107300,11.802107421875,-0.06956522911787033,0.3552164137363434,-0.1439361274242401
1726407034989103400,11.812103271484375,-0.051725778728723526,0.4115944802761078,-0.13310319185256958
1726407034999100200,11.82210009765625,-0.03705229237675667,0.44931283593177795,-0.09449880570173264
1726407035009097200,11.83209716796875,-0.05042828619480133,0.5671920776367188,-0.04555922746658325
1726407035019093200,11.84209326171875,-0.08900550752878189,0.6005414724349976,-0.025081651285290718
1726407035029090000,11.852090087890625,-0.13816453516483307,0.5349933505058289,-0.007868842221796513
1726407035039086300,11.86208642578125,-0.1717834770679474,0.4889957904815674,0.013530722819268703
1726407035049083100,11.872083251953125,-0.17436355352401733,0.47468501329421997,0.0020663465838879347
1726407035059080400,11.88208056640625,-0.14567171037197113,0.48593953251838684,-0.0703926756978035
1726407035069076200,11.892076171875,-0.10891663283109665,0.40254825353622437,-0.15972308814525604
1726407035079073300,11.9020732421875,-0.09431158751249313,0.19947555661201477,-0.2579828202724457
1726407035089069300,11.9120693359375,-0.12085824459791183,-0.025853168219327927,-0.32350587844848633
1726407035099066400,11.92206640625,-0.12322712689638138,-0.11179523915052414,-0.3343263268470764
1726407035109062100,11.932062255859375,-0.1212388128042221,-0.14897136390209198,-0.3245655596256256
1726407035119059200,11.94205908203125,-0.11901560425758362,-0.21373732388019562,-0.33388370275497437
1726407035129056300,11.95205615234375,-0.16069912910461426,-0.22770772874355316,-0.3061668574810028
1726407035139052300,11.96205224609375,-0.20447644591331482,-0.2907055914402008,-0.24518153071403503
1726407035149049300,11.97204931640625,-0.20295098423957825,-0.2523547410964966,-0.16998131573200226
1726407035159045000,11.982045166015626,-0.175025075674057,-0.23950766026973724,-0.11387623101472855
1726407035169042400,11.99204248046875,-0.153748020529747,-0.298307865858078,-0.07479594647884369
1726407035179039200,12.002039306640626,-0.1502603441476822,-0.15743915736675262,-0.06813617795705795
1726407035189035300,12.01203515625,-0.13441745936870575,0.04235171899199486,-0.06234513223171234
1726407035199032300,12.0220322265625,-0.12489239871501923,0.14681261777877808,-0.007739412598311901
1726407035209028400,12.0320283203125,-0.10303130745887756,0.221800297498703,0.07728733122348785
1726407035219025400,12.042025390625,-0.05500492826104164,0.30392712354660034,0.11885980516672134
1726407035229021200,12.052021240234374,-0.042445726692676544,0.31908851861953735,0.15026859939098358
1726407035239018200,12.062018310546875,-0.06689168512821198,0.28667038679122925,0.1789545714855194
1726407035249015300,12.072015380859375,-0.09345165640115738,0.276530385017395,0.15566974878311157
1726407035259011300,12.08201123046875,-0.11875621229410172,0.14647333323955536,0.1128181591629982
1726407035269008400,12.09200830078125,-0.11155475676059723,-0.01588149555027485,0.061215419322252274
1726407035279004400,12.10200439453125,-0.08126582950353622,-0.14594069123268127,-0.007839547470211983
1726407035289001200,12.112001220703124,-0.029017802327871323,-0.15128912031650543,-0.09902618080377579
1726407035298998300,12.121998291015625,0.025202292948961258,-0.1096511259675026,-0.18780718743801117
1726407035308994300,12.131994384765624,0.037883199751377106,-0.08692531287670135,-0.24394048750400543
1726407035318991000,12.1419912109375,0.017604559659957886,-0.12061669677495956,-0.2252885103225708
1726407035328987400,12.1519873046875,-0.009265403263270855,-0.14457422494888306,-0.17020449042320251
1726407035338984200,12.161984130859375,-0.03374198451638222,-0.18280896544456482,-0.14340882003307343
1726407035348980200,12.171980224609374,-0.027056651189923286,-0.248622328042984,-0.1423635333776474
1726407035358977300,12.181977294921875,-0.02057824470102787,-0.3083384037017822,-0.14687946438789368
1726407035368974300,12.191974365234374,-0.03533721715211868,-0.2954005002975464,-0.1580175906419754
1726407035378970400,12.201970458984375,-0.060570403933525085,-0.2622654438018799,-0.14599847793579102
1726407035388967200,12.21196728515625,-0.08107780665159225,-0.3205162286758423,-0.1124996468424797
1726407035398963200,12.221963134765625,-0.1009276807308197,-0.35928040742874146,-0.09168784320354462
1726407035408960300,12.231960205078124,-0.09719739109277725,-0.32460951805114746,-0.07945194840431213
1726407035418957300,12.241957275390625,-0.09996281564235687,-0.3396148085594177,-0.061831142753362656
1726407035428953000,12.251953125,-0.10613042861223221,-0.3937201201915741,-0.05771069973707199
1726407035438950400,12.261950439453125,-0.08852826803922653,-0.3512323200702667,-0.09786930680274963
1726407035448946200,12.2719462890625,-0.07074607163667679,-0.2882840037345886,-0.1382225900888443
1726407035458943500,12.281943603515625,-0.05626034364104271,-0.19883106648921967,-0.18979017436504364
1726407035468939300,12.291939208984376,-0.022235797718167305,-0.08762013167142868,-0.22255024313926697
1726407035478936300,12.301936279296875,0.02810380607843399,0.045164283365011215,-0.1986212134361267
