time,seconds_elapsed,z,y,x
1726225464252564500,0.021564453125,0.38166064526140686,0.13193360476493834,-0.31668051582872864
1726225464262602200,0.031602294921875,1.428514215248823,0.2594067229896784,0.3109622843123972
1726225464272639500,0.041639404296875,1.2959428971022366,0.9298913243830204,0.10703545648232102
1726225464282676500,0.051676513671875,1.55476217559278,1.0070558126062155,-0.14842618214339018
1726225464292713500,0.06171337890625,1.4378309096485375,-0.3126788789719343,0.687513039214164
1726225464302750500,0.07175048828125,0.9264087429642677,-0.3676455639123916,0.5321650949835777
1726225464312788500,0.08178857421875,-1.3729916499912738,0.42777533070445056,0.39307869585454464
1726225464322825500,0.091825439453125,-1.8632950408011675,0.7381698981314897,0.029555618699640032
1726225464332862500,0.101862548828125,-0.26287819849252697,-0.7608259665757418,-0.37891616885885593
1726225464342899200,0.111899169921875,-0.6411006859987973,-1.1834136655092238,-0.38953422818072136
1726225464352937500,0.1219375,-0.808207895475626,0.6245318285137414,-0.470763481624797
1726225464362974500,0.131974365234375,-0.3459235614478588,0.5008610251814126,-0.786367673458904
1726225464373011500,0.142011474609375,0.6830518220216035,-0.2738490898400545,-0.49285892051160335
1726225464383048400,0.15204833984375,0.9945207406818866,0.16871464467346667,-0.09656228552386165
1726225464393086500,0.16208642578125,-0.34265257695317264,0.436679937171936,-0.11868022850342094
1726225464403123500,0.17212353515625,-0.6448527320086955,0.9520487956553697,-0.3106117173090577
1726225464413160400,0.182160400390625,0.12859247764348983,-0.9468114795237779,-0.19922624892368912
1726225464423197400,0.192197509765625,0.7577262469947338,-2.0152683940321205,-0.176461313277483
1726225464433235500,0.2022353515625,-0.647241088449955,0.23223171581625937,-0.057619099145382636
1726225464443272400,0.2122724609375,-0.0320721315652132,0.8478688747346401,0.15046674806028604
1726225464453309400,0.222309326171875,1.63076112716794,-0.5823936454862356,-0.025582550350204108
1726225464463346400,0.232346435546875,0.8436234922498465,-0.8486644090265035,0.1524357831109315
1726225464473383400,0.242383544921875,0.5552846892863512,0.008762567648291588,0.04325440064109862
1726225464483421400,0.25242138671875,0.5075561389058828,-0.10426935276985168,-0.16294460990466175
1726225464493458400,0.26245849609375,0.7871744597971438,0.06985621103644371,0.30959662198238075
1726225464503495400,0.272495361328125,0.46241000623404976,-0.025945173117518424,0.4359966310828924
1726225464513532400,0.282532470703125,-0.6119125854372978,0.7828390609413385,0.6853834798395634
1726225464523570400,0.2925703125,0.236574128934741,0.9857043970197439,-0.12860190305896102
1726225464533607400,0.302607421875,1.8426812918394804,-2.1466391042172908,-0.8021968915577977
1726225464543644400,0.31264453125,2.371107200294733,-1.5328414356857538,-0.49817690066397186
1726225464553681400,0.322681396484375,0.09132043934762478,3.585276069551706,-0.335163974763453
1726225464563719400,0.332719482421875,-1.1775959191411733,2.2347698076128957,-0.009373027696833014
1726225464573756400,0.34275634765625,0.7764595890372991,-2.5695494592338797,0.6020574002467095
1726225464583793400,0.35279345703125,-1.2479670939624308,-3.077537559816241,0.6130100983504205
1726225464593830400,0.362830322265625,-3.525273728531599,1.8710399558395145,0.7757965950839221
1726225464603868400,0.372868408203125,-3.6203707638084888,1.3835644819319248,0.7780103256106377
1726225464613905400,0.382905517578125,-1.1738409505218266,-0.5252484474629163,0.3319370851388201
1726225464623942400,0.3929423828125,1.2635463558882474,-1.4429501523584127,0.4088425570996478
1726225464633979400,0.4029794921875,0.5150795201480388,1.6728274140030144,0.9313844855502247
1726225464644016400,0.413016357421875,1.1403209582358598,3.2410815238535404,0.1265899056494236
1726225464654054400,0.423054443359375,2.925643701562285,-2.292989356869459,0.5525956693980842
1726225464664091400,0.43309130859375,3.4297856481105087,-1.3006208257853984,0.5759803443778306
1726225464674128600,0.443128662109375,-1.0650158341437577,3.1340818693369625,0.6625830344885587
1726225464684165400,0.453165283203125,-1.9872715490818023,2.201467841991782,0.8156225556463003
1726225464694203400,0.463203369140625,-1.15788876363039,-2.52954419658184,-0.11396500001717358
1726225464704240400,0.473240478515625,-3.06172448913455,-1.3059692010760307,-0.008423179626092315
1726225464714277600,0.483277587890625,-2.9666812298715115,2.55216753180027,0.7887398094177246
1726225464724314400,0.493314453125,-1.0900199270188808,1.235059097072482,0.5539431750169024
1726225464734352400,0.503352294921875,1.5042331808388232,-2.308878999918699,-0.14147928561493753
1726225464744389600,0.5133896484375,1.3134031504690646,-1.6010446188181637,-1.271478902453184
1726225464754426400,0.52342626953125,-0.683004475748539,3.5233775395214555,-0.9507811868723481
1726225464764463400,0.53346337890625,-0.14529928229451178,1.8303151467412708,0.2016576773216948
1726225464774500400,0.543500244140625,1.9015502449154853,-2.8146237054884433,-0.391493618620187
1726225464784538600,0.55353857421875,3.3706361245274543,-0.6906459304124116,-0.37358233355022963
1726225464794575400,0.563575439453125,2.832501892006397,3.4487218192487954,0.09328435983173548
1726225464804612400,0.5736123046875,-2.279807219213247,2.1828116568386555,-0.24537900135479865
1726225464814649300,0.5836494140625,-3.4864930392384528,-1.1199030241072176,-0.49230910460911687
1726225464824687400,0.593687255859375,-4.68211619797945,-2.2305074739933013,0.0292313551813364
1726225464834724400,0.603724365234375,-4.1395822691947215,0.5033522574752569,0.6436325425639748
1726225464844761300,0.61376123046875,-2.3284756807923315,-0.9076865068376063,0.6763873226311058
1726225464854798300,0.62379833984375,0.1112006133377552,-2.1672569448322054,0.8787824108492582
1726225464864836400,0.63383642578125,1.1033242297500372,0.12545476413965226,-0.27623861532509325
1726225464874873300,0.643873291015625,0.35720366487503047,1.8565385522782802,-0.1749682251755148
1726225464884910300,0.653910400390625,0.5665741450637579,0.700505645647645,-0.03794577283896505
1726225464894947600,0.663947509765625,2.248811192446947,-1.4415367784291504,-0.5630507201779633
1726225464904984600,0.673984619140625,1.0719038400918244,0.43305648597776886,-1.1862075340114533
1726225464915022300,0.684022216796875,-1.0502642552137373,1.948787796908617,-0.6794245714351534
1726225464925059300,0.694059326171875,-0.6085317108273506,-1.694027438420057,0.16580109531432388
1726225464935096600,0.7040966796875,-1.917112555706501,-2.1640531803548333,-0.05465732673034072
1726225464945133600,0.714133544921875,-2.5662170999407765,1.3691601090043783,-0.5598031165588647
1726225464955171300,0.72417138671875,-1.8182038531869649,0.19552900184094904,0.2911258763987571
1726225464965208600,0.73420849609375,0.2271983978241682,-2.2215829937815665,1.2061607732377946
1726225464975245600,0.74424560546875,2.4289590852826834,-1.103048335418105,0.5891006323115899
1726225464985282300,0.7542822265625,1.413075823098421,0.3636287294864654,0.4537482686117291
1726225464995320300,0.7643203125,0.8301426639080047,1.7003513807445763,1.3113076394945382
1726225465005357600,0.774357666015625,1.8609253890603779,0.009558686462044715,1.2867547975182532
1726225465015394600,0.78439453125,5.556278620877862,-1.4936340454131365,0.9414487834468483
1726225465025431300,0.794431396484375,4.235081455531716,-0.7765975362032651,0.6958912837199867
1726225465035469600,0.804469482421875,-0.5112684374272823,1.3088719367802142,0.39500666824243963
1726225465045506600,0.814506591796875,-1.785469458320737,0.2621013689011335,1.08153076948449
1726225465055543300,0.824543212890625,-3.6143203777283426,-2.8482904127687214,0.5541215637911111
1726225465065580300,0.834580322265625,-3.7950013545274732,-2.3941110592633486,0.287621667670086
1726225465075617300,0.8446171875,-2.911362662753463,-1.7944898001223801,0.5162331471625715
1726225465085655600,0.854655517578125,-0.8817144457131624,-0.9553443300694227,0.23478074271194635
1726225465095692300,0.8646923828125,1.4162228889524935,0.4740250407040119,-0.10887697442946954
1726225465105729300,0.874729248046875,2.3937732056111094,1.2073399000197649,-0.4779069967038929
1726225465115766300,0.884766357421875,2.733199221733212,0.9027303457349538,0.04372139709834009
1726225465125804500,0.894804443359375,0.25116028816998004,-0.6248141525864601,0.4537012876648456
1726225465135841300,0.90484130859375,-0.13807692982554434,-1.0605921724826097,-0.13469967194478957
1726225465145878300,0.914878173828125,-1.3484195187926291,-1.6418962691664696,0.24221929521486163
1726225465155915500,0.92491552734375,-2.2005980734199286,-1.4452268651187419,0.04200186156304553
1726225465165953300,0.934953369140625,0.9041057257413864,-2.189227953621745,-0.6351470382913946
1726225465175990300,0.944990234375,2.7367747421324253,-1.507239961439371,-1.264360302619636
1726225465186027300,0.95502734375,3.6090251939296722,0.39434535478949545,-0.9269760945234448
1726225465196064500,0.965064453125,3.313912366786599,1.0240852733403443,-0.3654951809454709
1726225465206101500,0.9751015625,1.355264270120859,0.5233610262811184,0.006412954048532992
1726225465216139300,0.98513916015625,-1.2349018606841564,2.188523020222783,0.3355562620166689
1726225465226176500,0.995176513671875,0.23888182135522365,2.2370704857707024,0.7440542799949645
1726225465236213500,1.005213623046875,4.392766172146797,-2.609067230629921,-0.23016214300058782
1726225465246250500,1.01525048828125,2.909597991168499,-3.459077209046483,-0.05935920254467055
1726225465256288300,1.025288330078125,1.5294494551599025,0.6941285118311643,-0.3978256711859256
1726225465266325500,1.035325439453125,0.06540098519325256,1.2156973939985036,-0.6561349543277174
1726225465276362500,1.045362548828125,-0.6248948166072368,-1.3910159669816493,-0.12647102851010858
1726225465286399500,1.0553994140625,-1.3277753746926784,-2.139419089835882,0.1701383025347255
1726225465296436200,1.065436279296875,-2.4335920057803393,-0.48537996293306346,-0.615375585372746
1726225465306474500,1.075474609375,-2.530003630787134,1.34709382314682,-0.9661419106766581
1726225465316511500,1.085511474609375,-0.7519932563006877,0.040538931137323375,-0.40169590021539475
1726225465326548200,1.09554833984375,2.0957582272857427,-2.154480465367436,-0.9528520748622715
1726225465336585200,1.105585205078125,2.9994430972665547,-0.08753624463379382,-1.0074882857393472
1726225465346623500,1.11562353515625,-0.46462885132730003,2.3049656258672475,-0.7033513904675841
1726225465356660500,1.125660400390625,-0.06496843899488448,0.5403121610820293,-0.18634700320418923
1726225465366697200,1.135697265625,-0.3494400451362133,-2.424617841207981,-0.8640217718299478
1726225465376734500,1.145734375,-2.2716847030341625,-0.001464227333664894,-1.2589430998764932
1726225465386772500,1.1557724609375,-2.5189672729879615,1.3557254578918219,-1.7332007802926004
1726225465396809200,1.165809326171875,-1.908800069913268,-1.4552514155268668,0.213737845085375
1726225465406846200,1.17584619140625,-0.09310264658927916,-1.2217343360751867,-0.5167614453529938
1726225465416883500,1.185883544921875,-0.8770476229459047,1.532175080731511,-0.4837423883264884
1726225465426920400,1.19592041015625,0.24204759190976619,2.7617577922195196,0.6770936442695558
1726225465436958200,1.205958251953125,4.289183048075437,-1.4477993459552525,1.1487108931794763
1726225465446995500,1.215995361328125,5.263111082583666,-2.2680518994897603,0.39795583690423514
1726225465457032400,1.226032470703125,-0.24643910486698148,2.065958132305741,0.4227522418454289
1726225465467069400,1.2360693359375,-1.3906506408005952,2.1123066265046595,1.5516061957798897
1726225465477107200,1.246107177734375,-4.395863553640246,-1.8311726403534412,0.797197695031017
1726225465487144400,1.25614453125,-5.22149546212554,-2.495379476651549,-0.18872491131667046
1726225465497181400,1.266181396484375,-4.411359813457727,-0.6972837609916925,0.6846490280851721
1726225465507218400,1.276218505859375,-2.899118682730198,-0.3192506585776806,0.6426216119557618
1726225465517256400,1.28625634765625,1.3572522290676832,-0.19531857396066188,-0.6474465478941798
1726225465527293400,1.29629345703125,4.387527102449536,-1.6458236717432737,0.2602308257889002
1726225465537330400,1.306330322265625,3.0731705967783927,-0.15814882699549196,-0.4800942045498639
1726225465547367400,1.316367431640625,0.8311129702448844,3.316478417882323,-0.10588614031672478
1726225465557404200,1.326404052734375,-4.695022441303729,2.642055307996273,1.170611028689891
1726225465567442400,1.3364423828125,-2.630800339010358,-1.6174585780024529,-0.38005847076177596
1726225465577479400,1.3464794921875,-2.819469391953945,-3.1787972093760963,0.14072309695277363
1726225465587516400,1.356516357421875,-1.8100602942198514,2.4844150150448083,0.3351647784810513
1726225465597553400,1.366553466796875,0.5075403568148613,2.6825615059077736,-0.21188772370666265
1726225465607591400,1.37659130859375,1.8715555041462182,-1.013216673323512,0.46912952374741435
1726225465617628400,1.38662841796875,1.1237602840572596,-0.8597223941355944,-0.1312865025004372
1726225465627665400,1.39666552734375,-0.6968132208704948,2.549081256222725,0.18550649725943802
1726225465637702400,1.406702392578125,-0.03685702775418758,2.4611311700910328,0.4641755546018481
1726225465647740400,1.416740478515625,3.4147055678784843,-1.7211802337616682,-0.8093102306943386
1726225465657777400,1.42677734375,4.6434255250573155,-0.8795470385462045,-0.733282637546584
1726225465667814400,1.436814453125,0.28390286634266376,2.969242604792118,0.49585192831512537
1726225465677851400,1.446851318359375,-0.021409867775440215,2.1214888808697463,0.23983559668241067
1726225465687888400,1.456888427734375,-2.0746797834217547,-2.2773072190910577,1.085936749358475
1726225465697926400,1.466926513671875,-2.128300314450264,-1.339921155038476,0.741052760091424
1726225465707963400,1.47696337890625,-2.106160378834605,0.10651450134813785,0.933271322210133
1726225465718000400,1.48700048828125,-0.6640911009639501,-0.5921446396499872,0.438897284427844
1726225465728037400,1.497037353515625,0.10127776973843573,-0.4801964228153228,0.16879220342170445
1726225465738075400,1.507075439453125,1.5654069037258624,0.8391109832614659,0.3620414602950215
1726225465748112400,1.5171123046875,2.633959095302224,-0.16878069564700127,0.35863647415712474
1726225465758149400,1.5271494140625,4.130829053896665,-0.5235094948410988,-0.44239604979641733
1726225465768186400,1.537186279296875,2.2096838816732167,0.35180794331133364,1.2067807317670434
1726225465778223400,1.547223388671875,0.9199316559046506,0.5201952557265758,0.8130561392243951
1726225465788261400,1.557261474609375,-0.25599545324146744,-1.1270984885692596,0.06504154076371342
1726225465798298400,1.56729833984375,-2.9394951167821883,-0.07891980745792389,0.41717959281224753
1726225465808335400,1.57733544921875,-2.324576919788122,-0.5389315203785896,0.43888720142524684
1726225465818372600,1.58737255859375,-1.403036659643054,-2.104675693234801,0.23940255729369816
1726225465828410400,1.597410400390625,-0.9960229619383811,-0.7571750428527593,0.6148739194609224
1726225465838447400,1.607447265625,0.42717911837697026,1.2029407882779837,0.3175186836859211
1726225465848484400,1.617484375,2.488213822805881,-0.4790606967836618,0.5149199456721544
1726225465858521300,1.627521240234375,5.304210570213199,-0.78982994274199,0.1680113187097013
1726225465868559400,1.637559326171875,3.529152615791559,-0.8988508739531039,0.7714566661834716
1726225465878596400,1.647596435546875,1.3521557827115058,0.6606394992053508,0.9564308101318776
1726225465888633600,1.657633544921875,-0.4192348813742399,-0.6909440365761518,0.7842000470962375
1726225465898670300,1.66767041015625,-2.707039529082179,-2.3506425044149157,0.7362322080671787
1726225465908707300,1.677707275390625,-2.9320868863523004,-1.6798644730329513,0.5325107666160911
1726225465918745300,1.687745361328125,-2.1025468645125627,-1.8056424777776001,0.3715041390366852
1726225465928782300,1.6977822265625,-0.7861492084026336,-0.12088672557175159,0.7388049811646342
1726225465938819300,1.7078193359375,1.0946119309842586,0.7799369097590446,1.0491636004954576
1726225465948856300,1.717856201171875,2.5950071410953996,-1.5320038158178328,1.4858971675507724
1726225465958894600,1.72789453125,4.522750396409631,-0.02255728424489498,1.0940487441435456
1726225465968931300,1.737931396484375,2.9874796877503393,1.9837883831411598,1.4557728090524673
1726225465978968300,1.74796826171875,0.060819502621889114,1.2420651764422654,2.118772753778845
1726225465989005300,1.75800537109375,-0.4555804524749517,-1.8896435340225695,0.8155494173448532
1726225465999043600,1.768043701171875,-4.448122148665785,-1.3577917427718638,0.48585101451091467
1726225466009080300,1.778080322265625,-5.157489730682969,1.4549176535278558,1.3244120357394218
1726225466019117300,1.788117431640625,-2.949199349194765,-1.2861550780594349,0.8229189231995493
1726225466029154300,1.798154296875,-0.926603973275423,-1.5143582690119743,0.2897027482604608
1726225466039191600,1.808191650390625,0.021473580661416053,1.8858032252073287,0.10778544373256153
1726225466049229300,1.818229248046875,1.7798644779205322,3.5350112786918877,2.0042878580734134
1726225466059266300,1.828266357421875,4.614618532767891,0.02021452051103115,1.763720129457861
1726225466069303300,1.83830322265625,2.5741841332972046,-0.5944622689425945,1.07851631703414
1726225466079340500,1.848340576171875,0.2955295912504196,1.2747469643384217,2.14402073841244
1726225466089378300,1.85837841796875,-2.959322099280357,0.9024252253085374,2.5703499619618055
1726225466099415300,1.868415283203125,-3.641357437735796,-0.686861151176691,2.351107637708634
1726225466109452500,1.87845263671875,-2.5375539000362157,-1.2523749735325573,2.188550785012543
1726225466119489500,1.888489501953125,-1.3077192596137523,-0.10231529609262943,0.9384390802368521
1726225466129527300,1.89852734375,-0.5065688814342022,1.0185136106878518,0.41710192446615546
1726225466139564300,1.908564208984375,-0.7776666267395019,1.0307815561085938,0.08330947551792486
1726225466149601500,1.9186015625,0.7651829927414655,2.396452069431543,-0.6215306008711456
1726225466159638500,1.928638427734375,5.148640653795003,1.1778232981562613,-0.7542695306695997
1726225466169675300,1.93867529296875,2.9737755720466374,-0.3399357192099094,0.03147064940757118
1726225466179713500,1.948713623046875,-0.9459522323459386,2.3138030123174187,0.9403715096041559
1726225466189750500,1.95875048828125,-3.062940294665098,1.0812865854650735,0.060939895864855494
1726225466199787300,1.968787353515625,-5.7296776239752765,-1.9764824440419673,-0.07603031482780352
1726225466209824300,1.97882421875,-4.776043020433187,-2.585544900745153,-0.16907301139077172
1726225466219862500,1.988862548828125,-3.249960995879769,-1.666895685866475,-1.3408455764070153
1726225466229899500,1.9988994140625,-1.2804904764264822,0.8564613465130329,-1.161442145263031
1726225466239936300,2.008936279296875,0.9653770637840032,1.7980472003430128,-0.4544547363806516
1726225466249973200,2.01897314453125,4.110832560050487,-0.8373749532490968,-1.3826729399196802
1726225466260010500,2.029010498046875,3.2644495399594304,-0.4905553197443485,-1.215498948816955
1726225466270048300,2.03904833984375,-0.14527064072191714,2.0721996570438144,0.1300000611527823
1726225466280085200,2.049085205078125,-1.6262170539975165,1.5357716439187525,0.14959088767436332
1726225466290122200,2.059122314453125,-1.9524714538574217,-2.3852426931530237,-0.7058057978823781
1726225466300159500,2.069159423828125,-2.816483069619536,-1.7865590071231126,0.019788349254522473
1726225466310197200,2.079197265625,-2.594462366694212,0.6140969437390565,0.0922645791967865
1726225466320234200,2.089234130859375,-1.0936363639503717,-0.7295534609556198,-0.41968204061985015
1726225466330271500,2.099271484375,0.10200023879408836,-0.9345669149786233,0.09745342567730694
1726225466340308500,2.10930859375,-0.3479857546746731,2.0964929713010787,0.37649014728832986
1726225466350346200,2.11934619140625,2.651337515604496,2.175495780867338,-0.04281385379936546
1726225466360383200,2.12938330078125,5.9563628115803,-1.9535908132761717,-0.1395343803585507
1726225466370420500,2.13942041015625,2.2098913869440553,-0.7187269465148448,0.4986617615714669
1726225466380457500,2.14945751953125,0.24989596732258795,2.026095492994785,-0.24890074574016033
1726225466390494500,2.159494384765625,-1.5502017358094453,-0.1329687930315733,-0.5067426670985296
1726225466400532500,2.169532470703125,-1.4707950216174124,-2.6552842074036596,-0.5347887214854359
1726225466410569500,2.179569580078125,-1.4555091896802186,-1.0532207669317721,-0.6570208703167736
1726225466420606500,2.1896064453125,-0.4268506170749664,0.758300247490406,-0.9732853526905179
1726225466430643200,2.199643310546875,0.45220191595256326,0.088783614346385,-0.49095465779285874
1726225466440681500,2.209681396484375,0.9810369897305965,0.872545050829649,-0.1537542452983558
1726225466450718500,2.219718505859375,2.8870617497116324,0.2289367659240961,0.8198525213662534
1726225466460755500,2.22975537109375,2.8981127205580473,-1.336343881073594,0.9559048134963959
1726225466470792200,2.239792236328125,-0.20541911221444606,0.39091187320947646,0.863116931944713
1726225466480830500,2.24983056640625,0.1863297963410616,0.6960013199657201,0.0403836903432617
1726225466490867500,2.259867431640625,-1.1276537843644618,-1.7269500493347645,-0.46637258972208945
1726225466500904400,2.269904541015625,-0.4083177660405636,-0.20211364092826842,-0.48238169443253426
1726225466510941400,2.27994140625,-0.25973347072601316,0.10567103626132011,-0.22013934615813194
1726225466520978400,2.289978515625,0.2302525246977806,-0.6431494352221488,-0.6444423976421356
1726225466531016400,2.300016357421875,-0.3958750485748052,0.6362871482372283,-0.23905736058522015
1726225466541053200,2.31005322265625,-1.375283560320735,2.656880536684394,-0.1206695665565785
1726225466551090400,2.32009033203125,1.863237757655978,1.3832868340343236,-0.3350945262564346
1726225466561127400,2.33012744140625,7.8361746874183416,-2.408843348971009,-0.16869082540646194
1726225466571165400,2.34016552734375,6.872685044816136,0.05841185695827007,1.1354902501437811
1726225466581202200,2.3502021484375,2.0503455526322125,3.0857115139216185,0.3745527860175818
1726225466591239400,2.360239501953125,-1.3404495628267525,-0.3401063996016979,-0.4357262166436761
1726225466601276400,2.3702763671875,-7.393934193509817,-2.4590461805105206,0.4480221095172688
1726225466611313400,2.3803134765625,-10.488211875724792,-1.6023773287266492,0.15119659670479596
1726225466621351400,2.390351318359375,-7.594964715376496,-1.4984107582956552,-0.9001668519224971
1726225466631388400,2.400388427734375,-2.5987784763276576,-1.8095768946170805,-0.8034200766772032
1726225466641425400,2.41042529296875,3.288764481526613,-0.9090893593728542,-2.263686397756636
1726225466651462400,2.42046240234375,5.807240756127238,1.795717296090722,-1.8643971568241715
1726225466661500400,2.43050048828125,6.073329733359813,3.292395531505346,-0.08646934605464339
1726225466671537400,2.440537353515625,3.3012013537734743,1.6859978612214326,0.24260690629296003
1726225466681574400,2.450574462890625,-0.5721908159017562,0.042836686685681344,1.1807518258888274
1726225466691611400,2.460611328125,-6.0998354629695415,0.2886410007804632,0.6949697849608958
1726225466701648400,2.4706484375,-6.377558179372548,-0.05288929414451122,0.2045679752778262
1726225466711686400,2.480686279296875,-4.400005475750565,-2.2021680992156267,0.6675495708547532
1726225466721723400,2.490723388671875,-1.23840139323771,-1.476064486452937,-0.07440795605666935
1726225466731760400,2.500760498046875,1.0191653525948523,1.9049346266567706,-0.5794188674591482
1726225466741797400,2.51079736328125,3.3733787012338636,2.1587445525527,-0.8919300617139786
1726225466751835400,2.52083544921875,4.766980593055487,-0.2274386363208294,-0.6342069809623062
1726225466761872400,2.530872314453125,6.116662094607949,1.99266551707983,-0.0828408898917958
1726225466771909400,2.540909423828125,6.249286604246497,2.9435008452922102,0.4970849772414192
1726225466781946400,2.5509462890625,-2.260603921571374,0.5718459479868412,1.9782401013642548
1726225466791984400,2.560984375,-7.630664389789104,-1.2583891192555428,2.4430802573546764
1726225466802021400,2.571021484375,-10.594538745546341,-1.8379080860882997,1.3945974787302315
1726225466812058400,2.581058349609375,-7.369846046435833,-1.4159224447011947,0.8699588337287306
1726225466822095400,2.591095458984375,-2.486711601549387,-2.2077298249959942,0.49456766065824775
1726225466832132400,2.60113232421875,2.281063941276073,-0.6768892077386379,-0.06280041077341884
1726225466842170400,2.61117041015625,3.460691658505797,1.0683002626419067,-0.3784405872363597
1726225466852207400,2.621207275390625,3.460191892290115,2.5712100859224796,-0.7622467931590974
1726225466862244400,2.631244384765625,0.7337257782042026,2.8989982712209224,-0.3178701640047133
1726225466872281300,2.64128125,0.365434902125597,0.6933329775393009,1.000469712214172
1726225466882319400,2.6513193359375,-2.2534370986819265,-2.18476045281887,1.3945026400536298
1726225466892356400,2.6613564453125,-4.291456253704428,-0.5816688383430242,0.060826078493148084
1726225466902393300,2.671393310546875,-3.0538246757954357,-0.9020768502622842,0.4599407300436869
1726225466912430300,2.681430419921875,-0.5115384865403175,-1.6472732860296964,-0.8401477789632975
1726225466922468400,2.69146826171875,1.175446047630906,0.6592594430238008,-0.8333074846144766
1726225466932505300,2.70150537109375,0.6952215677648782,1.4825345592498778,0.07294354605991393
1726225466942542300,2.711542236328125,1.3747159895658492,2.404516133421659,1.1685850758202374
1726225466952579600,2.72157958984375,4.59820924975872,0.433285618558526,1.2914406172469257
1726225466962616300,2.7316162109375,7.427850491636991,-2.648659236305952,0.9407599243998527
1726225466972654300,2.741654296875,2.4728069948375224,-0.5428185909450054,1.0592157695628701
1726225466982691300,2.75169140625,-0.1885901424884796,1.4455711485117673,-0.44878662761636073
1726225466992728600,2.761728515625,-2.823416083753109,-1.9910107356101274,-0.7390092715650797
1726225467002765300,2.771765380859375,-4.403981393644213,-3.0493712035179135,-1.1795918421987444
1726225467012803300,2.78180322265625,-4.266438132303953,-1.937804630601406,-1.5483739358603954
1726225467022840600,2.791840576171875,-2.9354572395682332,-0.6437707819908857,-0.8518531951304524
1726225467032877600,2.801877685546875,-1.749724191200733,0.45381052019298074,-0.44863874357827005
1726225467042914300,2.811914306640625,1.777074554941058,0.5679466024607419,0.31228706664275374
1726225467052951300,2.821951416015625,7.361475108453631,-1.0075666847378015,0.4254997139226645
1726225467062989600,2.831989501953125,5.649426860174536,1.1830828261196613,0.5699747107548638
1726225467073026300,2.8420263671875,5.089513926565647,3.484200544387102,1.1520699943490327
1726225467083063300,2.852063232421875,3.4017940638571975,-0.6415665499448776,1.190402647613734
1726225467093100300,2.862100341796875,-0.587931990391016,-2.159072469332814,0.9416406527571379
1726225467103138600,2.872138671875,-4.414809661650658,0.038058220237493515,0.7277410047061741
1726225467113175600,2.882175537109375,-4.75626922942698,-0.2752536959409714,0.12964892789386212
1726225467123212500,2.892212646484375,-4.047456358683109,-1.2465373534202575,0.04543170814756304
1726225467133249500,2.90224951171875,-1.706210043644905,0.2527577864944935,-0.05400671733450144
1726225467143286800,2.912286865234375,2.8806343470126388,1.2589561054885388,0.23366682665329425
1726225467153324500,2.922324462890625,5.1388464050114155,-1.901893943786621,0.5981478621201589
1726225467163361500,2.932361572265625,3.624260756984353,-0.8957616757661103,-0.1306073976624757
1726225467173398800,2.942398681640625,2.1348341001331805,1.5380612161606548,0.8343700723446905
1726225467183435800,2.952435791015625,0.41530864784121513,-1.0385562817633152,0.1056770641433075
1726225467193473500,2.9624736328125,-1.1564888337045907,-2.007518218296766,0.25720570581406355
1726225467203510500,2.972510498046875,-2.2040818238824604,-0.1644873823672533,0.9488112019736319
1726225467213547800,2.9825478515625,-3.3846406844824553,0.8482330318719148,0.37427966816462577
1726225467223584800,2.992584716796875,-1.5381272671341895,1.4825842436105012,0.5299652468517423
1726225467233621500,3.00262158203125,2.080212283107638,-1.8065496557503937,0.6717503835454582
1726225467243659800,3.01265966796875,3.6900627241939303,-2.866466120928526,0.7064040560364723
1726225467253696800,3.02269677734375,0.17018354818224907,2.355604510736465,0.4671985556848347
1726225467263733500,3.0327333984375,0.585166032809019,1.276482994350791,1.1151996687218546
1726225467273770500,3.0427705078125,-0.5859282493531703,-3.3350118534386155,1.5892922217041252
1726225467283808800,3.052808837890625,-2.4995804354727267,-1.2606471273154018,0.9862694835565984
1726225467293845800,3.062845703125,-2.9789509288579223,2.084364726611972,0.525601133358106
1726225467303882500,3.072882568359375,-1.3793886575520038,0.08361585631966591,0.776302206518501
1726225467313919500,3.08291943359375,-0.38558044905364514,-0.7618278370946645,0.44506464795116335
1726225467323957800,3.092957763671875,0.19937690944075584,2.0624293736577033,0.16796510494779796
1726225467333994800,3.102994873046875,2.4078227737516165,1.9489707522600888,0.9694856681466102
1726225467344031500,3.113031494140625,6.617833500912785,0.6579337473779916,0.0220396170463413
1726225467354068700,3.12306884765625,3.2044448608517646,1.8151900583237408,-0.377009348856844
1726225467364105700,3.133105712890625,0.46065468699932094,2.2186773354679343,-0.4177231981696561
1726225467374143500,3.1431435546875,-5.43505579521954,-0.610166618552804,0.32556908447686583
1726225467384180500,3.153180419921875,-8.53559253782928,-0.8189847255557775,0.38190621752031145
1726225467394217700,3.1632177734375,-7.54682173897624,-0.9734650931715965,0.7336414609216153
1726225467404254700,3.173254638671875,-5.007790752124786,-0.6253279473274946,0.2907081989759579
1726225467414292500,3.18329248046875,-1.862885290956497,1.2076426823586224,0.3286466287586838
1726225467424329500,3.19332958984375,2.87294905320704,2.3072914384663106,-0.08390585224218666
1726225467434366700,3.20336669921875,7.312115742000937,0.3332575566202402,-0.15203783330190926
1726225467444403700,3.21340380859375,4.523440716761351,0.8761673329800367,0.6504793397188187
1726225467454440700,3.223440673828125,1.2268132467746733,3.3567911390483376,0.4898282841114327
1726225467464478700,3.233478759765625,-2.9489731392234564,0.5172516034901142,1.0770584463760255
1726225467474515700,3.243515625,-3.9967198586583135,-1.9912065504431724,0.528598305880092
1726225467484552700,3.253552734375,-4.564553063872456,-2.069218595406413,0.20848474686276167
1726225467494589400,3.26358935546875,-3.399488125002384,-0.48812896938025946,0.37270474699810147
1726225467504627700,3.273627685546875,-1.551739028379321,-0.283988206538558,-0.4065208726864308
1726225467514664700,3.283664794921875,0.9005044863790274,-0.1647182685136795,-0.6955418857604265
1726225467524701700,3.29370166015625,2.7276637994378805,0.15159224495887755,-0.3093884591244161
1726225467534738400,3.303738525390625,1.1791583461523056,1.553469797694683,-0.9509417111963033
1726225467544775700,3.313775634765625,0.4088642940074205,1.984903650906682,-0.7179346270933746
1726225467554813700,3.323813720703125,-1.8092986621975897,-1.1589286280721425,0.2647392431240529
1726225467564850700,3.3338505859375,-2.5018816981524226,-0.5171808763414621,-0.6228607534963637
1726225467574887700,3.3438876953125,-2.8464456616848706,-0.3680652506291866,0.22329823031416163
1726225467584924700,3.353924560546875,-1.91316001868844,-1.4857225416362285,0.5129710035614669
1726225467594962700,3.363962646484375,0.32077626070976256,-0.2729746450930834,0.09218065463984385
1726225467604999400,3.37399951171875,0.974704279577732,0.6127414374768734,-0.2746240562679246
1726225467615036700,3.38403662109375,2.92680982273221,0.6834270850747823,-0.22810937518924473
1726225467625073700,3.39407373046875,3.670491762283444,-0.6404483595699072,-0.6324949163474142
1726225467635110700,3.404110595703125,2.024900730252266,-0.11242986287176608,-0.6140528854016214
1726225467645148700,3.414148681640625,1.206917875215411,0.926074396443367,-0.49972193814888594
1726225467655185700,3.424185546875,-0.5337865587055682,-0.6997323231875896,-0.7828450522907078
1726225467665222700,3.43422265625,-0.6038567047536373,-1.3344330790162087,-1.3098172548063098
1726225467675259600,3.444259765625,-0.8335030802518129,-1.0366437261402606,-0.45204066097624596
1726225467685297700,3.454297607421875,-0.7460235342413186,0.09547229833006858,-0.3620513971671462
1726225467695334700,3.464334716796875,-0.6358323902070522,0.8463380119055509,-1.0710096677310763
1726225467705371600,3.47437158203125,-0.6216290928095579,0.7638204722166061,-0.2127927827876061
1726225467715408600,3.48440869140625,2.9048937590003012,1.406427471125126,-0.08429408437479287
1726225467725445600,3.494445556640625,3.5007553733468053,-1.433905845159292,-0.10956808023247867
1726225467735483600,3.504483642578125,3.4863726277291773,-1.482429929831624,-0.1411193297287449
1726225467745520600,3.514520751953125,1.6533961528241634,-0.20031798968315123,-0.2973035421203822
1726225467755557600,3.5245576171875,0.060135612010955804,-0.8701993644863366,-0.8155890187028795
1726225467765594600,3.5345947265625,-1.235907822856307,-1.841146921879053,-0.834667593986541
1726225467775632600,3.544632568359375,-2.551270290699601,-1.2175830616146326,-0.20334647065885364
1726225467785669600,3.554669677734375,-2.5758055970191953,0.9668272625923157,-1.020742831044644
1726225467795706600,3.56470654296875,-0.9607190088450908,1.4637316591024399,-0.8251039390884339
1726225467805743600,3.57474365234375,3.419441948750615,-0.7764519902527331,-0.21812815246619283
1726225467815780600,3.584780517578125,4.331916858908534,-1.2107552614212036,-0.6242122411705553
1726225467825818600,3.594818603515625,2.167574924740195,1.8459370787650347,-0.3584930105658248
1726225467835855600,3.604855712890625,0.6708008277356624,0.5761509517043829,-0.16692345040775836
1726225467845892600,3.614892578125,-2.7022920422941445,-2.211090241339803,-0.26486199272088706
1726225467855929600,3.6249296875,-4.043587408295274,-1.0554746833384037,-0.40950993496719745
1726225467865967900,3.6349677734375,-4.78771124639511,-0.7815466830432415,-0.2595317376088351
1726225467876004600,3.645004638671875,-2.8893226803809404,-0.10278116003870963,-0.7016005282122642
1726225467886041600,3.65504150390625,1.0741787992864846,-1.032148168286681,-0.3937549146156758
1726225467896078600,3.66507861328125,5.594142195326089,-1.0973784730881453,-0.6990317737028002
1726225467906115600,3.675115478515625,5.274078466799855,1.4065665873348712,-0.6149026340987533
1726225467916153600,3.685153564453125,3.108506698575616,2.2783839084118602,-0.15680676473677158
1726225467926190600,3.695190673828125,-0.07685761423110961,-0.7870803517729044,-0.469793102222681
1726225467936227600,3.7052275390625,-5.3357180536329745,-0.011544307321310043,-0.6782843884240836
1726225467946264800,3.715264892578125,-6.893514482355117,0.8593436239510774,-0.03757394385188818
1726225467956301600,3.725301513671875,-4.895974637237191,-0.8526105163037776,-0.24593305504098534
1726225467966339600,3.735339599609375,-2.1725451143682,-1.6885305945694447,0.0039904578756541015
1726225467976376600,3.74537646484375,1.5096213036179542,0.9651514383345842,-0.21279789735414087
1726225467986413800,3.755413818359375,4.674933592998981,1.4520494046151637,0.011322481264173984
1726225467996450600,3.765450439453125,5.532637633049488,1.067661964738369,0.4921463883280754
1726225468006488600,3.775488525390625,2.4649656336873766,2.1969535794377326,0.5962293516803533
1726225468016525800,3.78552587890625,-0.5374076718121766,1.9037492162644862,1.0934319274194537
1726225468026562800,3.795562744140625,-4.3559588287532325,0.634155981427431,0.7498568287938833
1726225468036599600,3.805599609375,-4.830065702521801,-0.4454658856958151,1.122968549157679
1726225468046636500,3.815636474609375,-3.8084248997241255,-1.3541875808000563,0.4128038254134357
1726225468056674800,3.8256748046875,-2.0947101795375347,-1.1249147147893905,-0.2082967134773731
1726225468066711600,3.835711669921875,-0.17591829244196414,0.36706513367593285,-0.3390477573942393
1726225468076748500,3.84574853515625,2.357006194227934,0.7410574362665414,-0.3103860187944025
1726225468086785500,3.85578564453125,4.087669126605987,0.14307342293858527,-0.5720050840713083
1726225468096823800,3.86582373046875,1.7703525532096622,1.7209931867569683,-0.3303499255452305
1726225468106860500,3.875860595703125,0.5841051255792379,2.620394680330157,-0.37519597929194565
1726225468116897500,3.8858974609375,-1.94163909419775,-0.48823885949552054,0.010445844560116529
1726225468126934500,3.8959345703125,-3.157949651658535,0.03847966051995754,0.5225571260197088
1726225468136971800,3.9059716796875,-2.9003514393955467,-0.02056874077618122,0.2344611188361421
1726225468147009500,3.916009521484375,-2.40085936447978,-1.9184744917094707,0.41830366493873294
1726225468157046500,3.926046630859375,-1.6816373279243706,0.5667927562505006,-0.37761739775259046
1726225468167083800,3.936083740234375,0.6690425858914851,1.1452373718500137,0.4255153133505955
1726225468177120800,3.946120849609375,3.9487107377707957,-1.5346119524896145,0.5410994390022009
1726225468187158500,3.956158447265625,3.6399803041636942,-0.1025257239729166,0.2901261613043025
1726225468197195500,3.966195556640625,3.1521833432167767,1.416473648843169,1.3115402792066335
1726225468207232800,3.976232666015625,1.7804396474599837,-0.14695581732988355,0.6791765880234539
1726225468217269800,3.986269775390625,0.5580933169662952,-0.6785141785919666,0.31480555226970464
1726225468227306500,3.996306396484375,-1.484173558628559,-0.5465285513788462,0.828358995361626
1726225468237344800,4.0063447265625,-2.4974422544002532,-0.6535527558147907,0.05205189347229898
1726225468247381800,4.0163818359375,-2.8053169479608533,0.3163327253043651,-0.6168354287922382
1726225468257418800,4.026418701171875,0.6507482197880744,1.813367519071698,-0.4110973502891138
1726225468267455500,4.03645556640625,5.566168731251358,-0.7788584668725729,-0.2957462296757847
1726225468277493800,4.04649365234375,3.1819302467048165,-0.3528396244466305,-0.32837161120958624
1726225468287530800,4.05653076171875,1.9213328037500381,1.1433984659850596,0.7196290829863399
1726225468297567500,4.0665673828125,-2.451740825933218,-0.8052572289764881,1.3257936993561685
1726225468307604500,4.0766044921875,-2.8580741401582954,-2.4349241311669347,0.9277803235784172
1726225468317641700,4.086641845703125,-1.8743208772063253,-1.8494214137494562,1.1931686051957309
1726225468327679700,4.0966796875,-0.7925508921384811,0.09439794709682464,0.5245607574597001
1726225468337716500,4.106716552734375,0.1581213544666767,1.7248884406298397,0.12155921800583601
1726225468347753500,4.11675341796875,1.1680594445109367,1.7118220383077858,-0.08548333069197833
1726225468357790700,4.126790771484375,4.949226334953308,0.024734628283977506,-0.10648761334121226
1726225468367827700,4.13682763671875,6.90837302879095,-0.18064181383252143,-0.5175644688315689
1726225468377865500,4.146865478515625,-0.10355623606443405,1.9873381845772264,0.22257256465442476
1726225468387902700,4.15690283203125,3.8333179334402083,-0.01089957967698574,0.8133220236189663
1726225468397939700,4.166939697265625,-3.2617414500445125,-2.5428859087139366,0.5218176692966372
1726225468407976700,4.176976806640625,-10.890054308271408,-1.0775468144148588,1.7530568427547812
1726225468418014500,4.187014404296875,-11.109863764888047,-3.720923726403713,0.9342669821839779
1726225468428051700,4.1970517578125,-10.454148278081416,-2.5509078871279955,0.270628228097409
1726225468438088700,4.207088623046875,-0.1365712014377117,-1.58512458063066,0.024611842154525217
1726225468448125700,4.217125732421875,5.146914560654759,-2.2948931446641683,0.5947663664557039
1726225468458162400,4.227162353515625,6.544060408693552,1.1191419766068458,-0.3490555027980357
1726225468468200700,4.23720068359375,11.151939988595247,2.7341315341472625,-0.25085681171137836
1726225468478237700,4.24723779296875,10.42219480445981,1.8717185857534409,-0.0008112798502668738
1726225468488274700,4.257274658203125,0.38818800120353697,1.6188064854800701,0.6384286903105676
1726225468498311400,4.2673115234375,-3.032272184678912,1.0777736089080572,-0.03505830776914954
1726225468508348700,4.2773486328125,-8.708470731922983,-2.468208561131358,0.914887451192364
1726225468518386700,4.28738671875,-9.039117229261993,-0.6100561439156532,0.20348094722609966
1726225468528423400,4.29742333984375,-3.7093373335063453,-2.082397225931287,-0.2844539243541658
1726225468538460700,4.307460693359375,0.7406886029541492,-1.5582769057154655,0.4894216760719195
1726225468548497700,4.31749755859375,6.42593496452868,1.5630992113053799,-0.3564475127454847
1726225468558535700,4.32753564453125,3.608818273180723,3.353172948551178,0.1357340564938262
1726225468568572400,4.337572509765625,2.199741164329648,2.2137574147224424,0.5963991552893072
1726225468578609700,4.347609619140625,-4.561180372568964,-0.3622486733049154,0.582843288949877
1726225468588646700,4.357646728515625,-9.05788739618361,0.7650526443600654,0.7067565227359532
1726225468598683600,4.36768359375,-6.684884006878733,-0.2913186955571174,0.5366093610413373
1726225468608721700,4.3777216796875,-1.0168401245176792,-0.5491998164147138,0.941105888293311
1726225468618758700,4.387758544921875,3.7024686167806387,0.4264811992406845,0.8879853426761924
1726225468628795600,4.397795654296875,8.030495482513308,0.1965162593126297,-0.9428690985735505
1726225468638832600,4.40783251953125,6.570708177122473,1.817498919788003,-0.6030935748940334
1726225468648869600,4.41786962890625,3.0566490855664012,0.17220833200812338,0.7875166973635553
1726225468658907600,4.42790771484375,-5.949102465188503,0.4165069177150726,0.15158088331464678
1726225468668944600,4.437944580078125,-13.499610199201106,1.7576333568900822,0.9896212782025336
1726225468678981600,4.447981689453125,-8.315752686074376,-1.7295909192323684,0.7380005329139531
1726225468689018600,4.4580185546875,-1.7169383584082125,-3.4957723242372274,-0.5405544088726862
1726225468699055600,4.4680556640625,0.4969599260896444,0.27642273972034453,-0.23645021029412744
1726225468709093600,4.47809375,6.474978104639053,2.684211611202359,-0.6935865869741886
1726225468719131000,4.488130859375,5.123929990908503,-0.028432898280024526,-0.03747110453192144
1726225468729167600,4.498167724609375,1.0931202311217785,2.6094004081070423,0.029406236824207007
1726225468739204600,4.50820458984375,5.4094747792392965,-0.08902969806194305,-0.7106704813092947
1726225468749242600,4.51824267578125,3.7444858037769793,-6.83136753052175,0.6018901173884049
1726225468759279600,4.528279541015625,0.2188929262936115,-2.4095360074102876,0.5592115438738837
1726225468769316600,4.538316650390625,-6.864342163884639,2.6645979791939256,-1.3557111371055244
1726225468779353600,4.548353515625,1.5775941851258277,0.6979471933364868,-2.024154295799136
1726225468789390600,4.558390625,1.180875086942315,-2.5230384679496285,-0.3954457172468304
1726225468799428600,4.5684287109375,-2.0353695172965525,-1.203497837638855,-0.5747781655138358
1726225468809465600,4.578465576171875,-6.980414767172932,4.57097929752767,1.5313891910508275
1726225468819502600,4.588502685546875,-1.5393512559711933,5.178068992853165,1.4147569080531597
1726225468829539600,4.59853955078125,1.7655518749296664,-4.6943625160902736,0.23386337213870137
1726225468839576800,4.608576904296875,4.729921320727467,-5.251494294548034,-0.7955112032487988
1726225468849614600,4.618614501953125,1.2039046648740768,0.3466951303422451,-0.6710935270719229
1726225468859651600,4.628651611328125,-6.446356405788659,6.0186418653607365,-1.1218746895063667
1726225468869688800,4.638688720703125,5.322003416535258,-1.584800170981884,-1.5792670867741108
1726225468879725600,4.6487255859375,3.618397417908907,-5.049129309207201,-0.8463581779107451
1726225468889762600,4.658762451171875,-1.4071914412349462,2.649901345321536,0.5535102269597352
1726225468899800600,4.668800537109375,-0.9347545465052127,4.041165734106302,1.3307650580279529
1726225468909837800,4.678837890625,4.086614649116993,-2.5009014549434183,0.1981588754205033
1726225468919874600,4.68887451171875,9.011451223701238,-5.648482857322692,-0.1625519938578829
1726225468929911600,4.69891162109375,-2.848067709928751,1.876188424643874,-0.08984174509719013
1726225468939948500,4.708948486328125,-5.729245662298799,5.302426024883985,-0.5889469030546024
1726225468949986800,4.71898681640625,0.9625123220026492,-0.8871241958022117,-0.17893343901205808
1726225468960023600,4.7290234375,2.784460037893057,-3.029710225236416,-0.4395989664237946
1726225468970060500,4.739060546875,-6.814231102281808,5.1338598487704985,0.1137086506359279
1726225468980097500,4.74909765625,-1.9236369890391825,4.96432804249525,0.29484409320428967
1726225468990135600,4.759135498046875,3.330911432382464,-5.04400071414709,-2.363825811114907
1726225469000172500,4.769172607421875,4.477696618196368,-9.271196384865044,-1.289326986093819
1726225469010209500,4.77920947265625,-2.985292406839132,0.8313292433440684,0.13163772709090263
1726225469020246800,4.789246826171875,-2.934249032822251,6.366686656746268,-0.21487302312776446
1726225469030283800,4.79928369140625,3.202733380758762,-1.516550226098299,0.09536083731222897
1726225469040321500,4.809321533203125,3.221586549788713,-3.6570518504738807,0.8516445208158343
1726225469050358500,4.819358642578125,-1.4814718984544277,3.1338287713587283,-0.3561807150354609
1726225469060395800,4.829395751953125,-7.485121946388483,5.84408960057497,-1.1805156059801578
1726225469070432800,4.839432861328125,-1.5020733724564312,-1.0415379279226065,0.6729128514535725
1726225469080469500,4.849469482421875,-8.891891947340964,-5.118852833774685,0.5958781270898879
1726225469090507800,4.8595078125,-8.902513879120349,-2.170479414010048,-0.3409694461718201
1726225469100544800,4.869544677734375,-2.8245582395255564,1.803753887552023,0.01866162851322442
1726225469110581500,4.87958154296875,6.437829400461911,-0.7208008301794528,0.26731727691851553
1726225469120618500,4.889618408203125,9.55989116165936,1.4043208542346954,1.2293135391578078
1726225469130655500,4.899655517578125,7.277235567277669,4.284618516638875,-0.049654513474367556
1726225469140693500,4.909693603515625,7.092064877843856,3.38103126181364,-0.9078898473899811
1726225469150730500,4.91973046875,0.3522808215200901,1.8645728056520223,-1.1317210338033734
1726225469160767500,4.929767578125,-0.6163736564993858,2.6756799297004936,0.11381707944646477
1726225469170804500,4.939804443359375,-6.8786980214953415,2.110409268450737,-0.47020113503430033
1726225469180841500,4.949841552734375,-7.303241530671715,-0.012428688940405845,0.11236600385531782
1726225469190879500,4.95987939453125,-3.969954601329565,-4.611323582875729,-0.05836125928219407
1726225469200916500,4.96991650390625,-0.5013140296459198,-4.364419783106446,-0.7332622523456811
1726225469210953500,4.979953369140625,-1.6410557266891002,1.1312526856392622,1.4873160944379866
1726225469220990500,4.989990478515625,0.6425982310801744,5.488583971789479,0.038013833106495434
1726225469231028500,5.000028564453125,5.4499914985448115,-0.7755857288122177,-0.973941478511691
1726225469241065500,5.0100654296875,6.685567312967777,-1.9143238017708062,-0.25880711312871424
1726225469251102500,5.0201025390625,-2.1697435009509323,4.590744905227423,-1.4602783037781715
1726225469261139700,5.0301396484375,-6.879603445902466,8.533151574417948,0.34630554650276896
1726225469271176700,5.0401767578125,-1.1241314554572104,-1.3207611120164393,1.615041726119071
1726225469281214500,5.05021435546875,-0.07384966458678245,-9.542834228396416,-0.5002485558388754
1726225469291251500,5.06025146484375,-5.531605951914191,0.16220190177857874,-0.6122618737990037
1726225469301288700,5.070288818359375,-3.7695132775276896,6.257101661911606,0.32494079651068897
1726225469311325400,5.080325439453125,2.254337262392044,-2.7749674024045468,-0.32231267649680373
1726225469321362400,5.090362548828125,8.648436826720832,-9.923573082637786,-0.3214677501052618
1726225469331400400,5.100400390625,0.8089841405451297,0.6284954714477062,0.07170140051171184
1726225469341437700,5.110437744140625,-0.47116497509777544,7.646925204238295,-0.6076899993062019
1726225469351474400,5.120474365234375,3.0365736812651156,-1.5430863508462904,2.1249539266318083
1726225469361511400,5.130511474609375,4.475962926271557,-4.6855771520882845,2.281466969119012
1726225469371548400,5.14054833984375,-1.5325550199598073,2.6777766097187996,-0.7687685961432754
1726225469381586400,5.15058642578125,-6.457206301105022,6.566527676567435,0.5303098225057125
1726225469391623400,5.16062353515625,-0.030192893689870832,-2.815381245857477,0.058730859779566526
1726225469401660400,5.170660400390625,1.0625357077658175,-5.999398820230365,-1.4124699661597608
1726225469411697700,5.18069775390625,1.1353443388670683,-2.714614932772517,-2.293148346823454
1726225469421734700,5.190734619140625,0.41976913438141344,-0.32484161045253274,-1.570525269652903
1726225469431772400,5.2007724609375,1.0130442393660544,-2.093819952699542,1.731345069423318
1726225469441809400,5.210809326171875,1.4141595266819,-4.727535886895656,2.026352974887192
1726225469451846700,5.2208466796875,-9.093921417117118,4.5363954754024745,1.705613246795535
1726225469461883600,5.230883544921875,-6.943949369084835,7.116016831317544,-0.17330365296415984
1726225469471920400,5.24092041015625,1.253860243654251,-3.124293465772271,0.870070550474897
1726225469481958700,5.250958740234375,2.3813006775289773,-4.136400132027268,1.716047108656913
1726225469491995600,5.26099560546875,4.836915130025148,3.875983939734101,0.05977963818013668
1726225469502032600,5.27103271484375,6.794775291183591,-0.2551993344277143,1.014536742946133
1726225469512069400,5.2810693359375,6.214083773440122,-0.9985796606838703,1.688220944098383
1726225469522106400,5.2911064453125,1.5100713854730128,-1.7524802119106053,-0.09024426148347556
1726225469532144600,5.30114453125,-0.0447077412545681,4.112853252223133,1.0658175789806992
1726225469542181400,5.311181396484375,-3.7166233988612887,1.2312760714024304,0.43998212052248414
1726225469552218400,5.32121826171875,-0.7163309912890196,-3.272113790977001,0.36218167248331007
1726225469562255600,5.331255615234375,-5.419568887752294,-4.001553854686022,1.975205555973947
1726225469572292600,5.341292724609375,-2.0650550459861754,5.750001450079679,1.69821846036911
1726225469582330400,5.351330322265625,5.439213499420881,0.9360480934470892,0.8218482252281158
1726225469592367400,5.361367431640625,6.974772961893677,-4.4689217755883925,-1.2212934604398906
1726225469602404600,5.371404541015625,0.5131739787876606,-0.034164719930291174,-2.361295708115399
1726225469612441600,5.381441650390625,-3.7709371728509664,6.6200932625383135,-0.9492658869385718
1726225469622478600,5.391478515625,-2.075582285219431,-0.9457377128124237,-0.6823212427247315
1726225469632516600,5.4015166015625,-2.642136556538939,-3.3557156187713146,-0.988938629700616
1726225469642553600,5.4115537109375,-1.929371148777008,-3.116868868729472,-0.028857845693826673
1726225469652590600,5.421590576171875,-2.8743022213816642,1.7376345249563454,0.3739418875776231
1726225469662627600,5.431627685546875,-4.014718456685543,1.0913666654527188,1.9070158168449998
1726225469672664300,5.441664306640625,1.4924305148422716,-2.4513906973212958,0.7458467894349247
1726225469682702600,5.45170263671875,4.4540608910650015,-2.838835771203041,-2.054928788769245
1726225469692739600,5.461739501953125,0.22637013030648231,3.96822909271121,-0.08970672054067254
1726225469702776300,5.4717763671875,2.073840409988165,6.3372834521293635,0.008799611723050474
1726225469712813600,5.4818134765625,11.163058763980866,-1.0415846896737813,-2.8337223737120625
1726225469722850600,5.4918505859375,3.4465485668629405,-2.072344618472457,-2.4017741412371394
1726225469732888600,5.501888671875,-7.53065152541995,4.7234144230514765,-0.8489801239121705
1726225469742925300,5.51192529296875,-6.2107853164166205,3.2451258308082815,0.2548111388277262
1726225469752962600,5.521962646484375,-4.451977070528269,-2.8499878643363714,-0.9706503280118107
1726225469762999600,5.53199951171875,-3.7896483030617234,-5.606613554364443,-0.14414002925679087
1726225469773036500,5.54203662109375,-1.5873744053840637,0.650491614678502,0.45219037164524195
1726225469783074600,5.552074462890625,1.8132208040773867,2.134129751256108,-0.026142376190051435
1726225469793111600,5.562111572265625,6.131396722403168,-0.40569034014642236,-1.6915750768318771
1726225469803148500,5.5721484375,4.651866021144389,-2.08181328856349,-1.4806345708474515
1726225469813185500,5.582185546875,-1.8853741861402988,3.8927228930890556,-0.8484640641488135
1726225469823222300,5.59222216796875,-5.7587079036265605,6.509695782276988,-0.8860276327371597
1726225469833260500,5.602260498046875,-4.025296549323201,-0.34691081891953945,1.366358349456638
1726225469843297500,5.612297607421875,1.0287345604509115,-7.111816457018255,0.3794883427236229
1726225469853334500,5.62233447265625,-3.6178807005584237,-1.5884341435700655,0.1509154416758567
1726225469863371500,5.63237158203125,-4.443568138623237,6.6118555955469605,0.38911929070428014
1726225469873408500,5.642408447265625,4.935945997619629,1.5528537116229533,-1.6995523393213747
1726225469883446500,5.652446533203125,8.551185828280449,-7.954242848438024,0.4963670016977936
1726225469893483500,5.6624833984375,0.0973755016028881,-0.4083668658792972,-0.02068688726313412
1726225469903520500,5.6725205078125,-6.968914298993349,8.015431768894196,-1.474830999135226
1726225469913557500,5.6825576171875,0.553930936589837,0.8521820617586374,1.124226586394757
1726225469923594500,5.692594482421875,3.4019776037305594,-6.6095163389444345,0.617036723517999
1726225469933632500,5.702632568359375,-0.9600351182341575,-2.411752514415979,0.1911095779635012
1726225469943669500,5.71266943359375,-4.402762665504217,4.800458499765396,-0.2825955831363797
1726225469953706500,5.72270654296875,-0.14891630374789236,1.1555430772870778,-0.7922464292991906
1726225469963743500,5.732743408203125,1.948940941643715,-7.395091546851396,0.021323723861947655
1726225469973780500,5.742780517578125,0.19992402192950248,-2.944430235096812,-0.12574468699693678
1726225469983818500,5.752818603515625,-3.560616844591498,4.1137393874078985,-1.199038520142436
1726225469993855500,5.76285546875,1.7943027531176805,1.9608248561829327,-0.6904537688411772
1726225470003892500,5.772892578125,5.947651681858301,-6.668243837723136,1.6345149267435073
1726225470013929700,5.7829296875,2.408955577173829,0.9296002324819564,0.5395587123662233
1726225470023966500,5.792966552734375,-3.8015491687357423,7.348726686039567,-0.43453992946855724
1726225470034003500,5.80300341796875,-3.261054636824131,0.927698782774806,1.124853559186682
1726225470044041500,5.81304150390625,-1.696978104919195,-5.005103704997897,0.22435849822312592
1726225470054078500,5.823078369140625,-4.312177554693818,-0.9856383460462093,-1.8109144268311559
1726225470064115500,5.833115478515625,-5.71443446213603,2.152297276109457,-0.7649019107777625
1726225470074152400,5.84315234375,0.5250549707174301,-1.8268389950633048,-1.5863042919345198
1726225470084189400,5.853189453125,1.8394547310084104,-8.852720212903618,-0.6785114021129905
1726225470094227500,5.8632275390625,3.192411308708787,-1.5615613342136143,0.44469738554134963
1726225470104264400,5.873264404296875,-2.5227783557087182,4.372250038340687,-0.5655718361534178
1726225470114301000,5.883301025390625,1.4610148013591766,2.578040224203467,-1.470481571754068
1726225470124338000,5.893337890625,3.5042654272943734,-5.034403449240327,-0.7997725139550864
1726225470134375000,5.903375,5.124897959157824,0.032220600125193594,-0.9581560264892875
1726225470144413000,5.913412841796875,-0.3784989663600921,4.051748502919078,0.10618315050192177
1726225470154450000,5.923449951171875,0.7664116577535868,2.803842783755064,1.2599749271422624
1726225470164487000,5.93348681640625,4.987048408347368,-3.7253666772872207,1.2352655794300138
1726225470174524000,5.94352392578125,-0.676816142502427,0.7186755085885524,-0.903727832339704
1726225470184561000,5.953560791015625,-3.795936589550972,3.524064937263727,-0.7905014853280037
1726225470194599000,5.963598876953125,-2.5260861650824546,0.6560580166339874,-0.7978958333630114
1726225470204636000,5.973635986328125,2.441593525928259,-2.6049147871255873,-1.8520003243267535
1726225470214673200,5.983673095703125,2.4549469284981487,-1.6058330221384762,-0.8493735071439296
1726225470224710000,5.9937099609375,-1.7566577898561953,3.482594862756133,-1.3722691809356211
1726225470234747000,6.003746826171875,-1.669353600412607,1.422251647722721,-0.9021735155697912
1726225470244785000,6.013784912109375,1.5480875201344488,-1.2691869921237229,0.18806977187618612
1726225470254822000,6.02382177734375,-2.9868916587293146,-0.4119944087266922,-0.5006272894907743
1726225470264859000,6.03385888671875,-4.413967365607619,1.0610761566072702,0.6059885291505605
1726225470274896000,6.043895751953125,-7.194136428308487,0.7357903095185756,0.648522725758329
1726225470284932900,6.053932861328125,0.6779571292310953,-2.0992367170512676,1.9951551419384776
1726225470294971000,6.063970947265625,0.3600707447439432,-3.931244054663181,0.4912695324283093
1726225470305007900,6.0740078125,0.5439993251621723,1.0951514446884394,-0.8249243447378277
1726225470315044900,6.084044921875,3.0568180123925206,2.2177479456633327,-2.821774454025924
1726225470325081900,6.094081787109375,4.871456866574287,0.06867080064415931,-1.9088706509314477
1726225470335119000,6.104119140625,4.021673098129034,2.02672093141675,-0.28604082821942867
1726225470345155800,6.11415576171875,2.662086873155832,2.3802485381275416,0.5351542668621987
1726225470355193900,6.12419384765625,-0.635640667027235,1.075937041130662,0.8128796136137098
1726225470365231000,6.134231201171875,0.3497971880108118,0.36311844187676906,0.5216768725864589
1726225470375268000,6.14426806640625,-2.9695114848613735,-3.1890368638396263,1.7957818857595322
1726225470385304800,6.154304931640625,-1.9380407774448394,-2.421939561909437,0.7343173143565654
1726225470395341800,6.164341796875,-1.7902999472171066,-0.04403086490631103,-2.1892419821470974
1726225470405380000,6.174380126953125,-4.0613340773880475,-0.9456324988722801,0.5405269728764891
1726225470415416800,6.184416748046875,-4.146761367043853,-2.0631670402824875,-0.8420463060609996
1726225470425453800,6.194453857421875,-5.300157495430112,-1.5246727422773838,-0.39839558002837
1726225470435490800,6.20449072265625,-0.8968898030132054,3.2370413085520267,1.3063188912965356
1726225470445528000,6.214528076171875,3.338413186314702,-0.8212135075211524,-0.3414450277943164
1726225470455565800,6.22456591796875,-0.39495442659854885,-2.374109304720163,2.102684811678529
1726225470465602800,6.234602783203125,2.041110691297054,2.0903759497255088,1.1110631534390152
1726225470475639800,6.244639892578125,-0.08147416811585426,2.473738138207793,0.6839643337566406
1726225470485677000,6.254677001953125,1.8319518080323933,1.3878373369455337,2.0261839019306005
1726225470495714000,6.264714111328125,7.209868250447511,-2.6200696861594914,0.34943102157954126
1726225470505751800,6.274751708984375,2.0847253766179086,0.6889923179864883,0.6613619682610035
1726225470515789000,6.2847890625,-3.2928421062290667,5.393968582549691,2.6481007256403566
1726225470525826000,6.294825927734375,-1.6425222921103237,1.2375433151036501,-0.9042560939975083
1726225470535863000,6.304863037109375,2.8887428346663713,-2.733682621335983,0.9183055160075425
1726225470545899800,6.314899658203125,2.4506255581676957,-1.7034236277967691,-0.02727441242728382
1726225470555936800,6.324936767578125,-0.16077800645530224,2.924659366700053,-0.5259170674394816
1726225470565975000,6.33497509765625,-4.560037632274628,2.057846137520671,1.2607194618992508
1726225470576011800,6.34501171875,-3.206461461371183,-3.38481779461503,0.699684976914525
1726225470586048800,6.355048828125,1.4049638283133505,-4.547933352982998,-0.5692333908682689
1726225470596086000,6.3650859375,-4.506015534707903,0.6304109496802092,0.6443148257397114
1726225470606123000,6.375123046875,1.5745628546059132,2.023982446363568,-0.0603981719372794
1726225470616160800,6.385160888671875,1.9302526077866553,-1.6254150899648665,1.5498729422464965
1726225470626197800,6.39519775390625,3.547453996157646,-1.2313432914197444,1.2660421182267367
1726225470636235000,6.405235107421875,-0.6255681858241557,1.4943670358628034,0.40141273589245974
1726225470646272000,6.41527197265625,-2.24171860383749,4.866410104578733,1.7709291840538381
1726225470656309000,6.42530908203125,0.2777700626760721,1.4783692562639712,-0.9234731279037892
1726225470666347000,6.435346923828125,3.7064614858090876,-2.3392782298356294,-1.6373562876492738
1726225470676384000,6.445384033203125,0.38232407760620113,-2.362137711897492,0.0892096212061122
1726225470686421000,6.4554208984375,-5.0705298246324055,0.24971651910245418,0.7284009299196302
1726225470696458000,6.4654580078125,-5.9148997513353825,2.193174060899019,-0.6272292509041726
1726225470706495000,6.475494873046875,-1.129784951174259,-5.001546889299154,2.502058516024053
1726225470716532000,6.485531982421875,4.4525557471990584,-5.7725780235469335,1.0273922059312461
1726225470726570000,6.495570068359375,1.519800752326846,2.183404946556687,1.4799480498880146
1726225470736606700,6.505606689453125,2.3461142133355137,4.896545130601525,0.7885790658980607
1726225470746644000,6.51564404296875,3.2234640340983867,-0.6051297934293747,-1.549780880048871
1726225470756681000,6.525680908203125,-1.4385282442629337,-2.4171324538886547,-0.795333508594334
1726225470766718000,6.535718017578125,-3.9749171921730038,0.8602204067856073,-0.10869191845245658
1726225470776755700,6.545755615234375,-5.122810631489753,-0.5417810645908117,0.3477916203420609
1726225470786793000,6.55579296875,-3.3236481633812187,-2.351352698510885,1.1534070881716907
1726225470796830000,6.565829833984375,-5.236901121050119,-1.719668075633049,1.7630808086410164
1726225470806867000,6.575866943359375,-1.930469465407729,4.730663663527369,-1.5065497872181235
1726225470816904000,6.585904052734375,2.2230267628490923,2.9392648151576517,0.9502281560994684
1726225470826941000,6.59594091796875,9.544347555568814,-1.5470686984807251,1.6709151506409048
1726225470836979000,6.60597900390625,3.047259910452366,-0.5436936202138662,1.4989048254229127
1726225470847016000,6.616015869140625,-2.6749118679374453,7.106518350610137,1.2974582701012491
1726225470857053000,6.626052978515625,-2.746938993272185,3.170157391324639,1.26457657571882
1726225470867090000,6.63608984375,0.40637890693247314,-4.991746210774779,1.6645048452071844
1726225470877127000,6.646126953125,-1.5940350323170422,-4.942445296511054,1.2111871500324458
1726225470887165000,6.6561650390625,-0.07304185533523559,3.7467905735880134,-1.888722473654896
1726225470897202000,6.666201904296875,-2.4748808785021303,2.8745938978046177,0.33514899639002976
1726225470907239000,6.676239013671875,3.9745781694769855,-2.239030972188711,0.38332455988563596
1726225470917276000,6.68627587890625,5.586482035961747,-3.2782243828117847,-1.4368515432223676
1726225470927313000,6.69631298828125,-1.748456363222003,4.597916988813877,-0.19403925647353754
1726225470937350100,6.70635009765625,-5.014204126298427,5.445604661762714,0.4223706221166998
1726225470947388000,6.716387939453125,-1.3759744651943444,-3.1791870854765176,0.874316371351108
1726225470957425000,6.7264248046875,-1.9154992752909659,-3.168676797378063,0.3169643012061715
1726225470967462000,6.7364619140625,-0.8445224869161844,2.0192706154108047,-1.164549828954786
1726225470977499100,6.7464990234375,-4.662932189559936,3.0089515148460864,0.048829524759156626
1726225470987536000,6.756535888671875,0.8939081568539142,-0.29094752415716646,0.8645024680189788
1726225470997574000,6.766573974609375,6.5284373076260085,-4.345788147872686,-2.177773662671447
1726225471007611100,6.776611083984375,4.214033406805992,-1.9921336021602152,-0.3495366008458659
1726225471017647900,6.78664794921875,4.945115977025032,1.2323252881944178,0.6540809444073588
1726225471027684900,6.796684814453125,1.597701738131046,0.3491553829759359,-0.14370705380016005
1726225471037721900,6.806721923828125,-2.1696879713714123,-0.4577887761741876,-1.695577590471506
1726225471047760100,6.816760009765625,-8.594613466596602,0.37499300406575203,0.08204006750346161
1726225471057796900,6.826796875,-10.404169318425655,-1.70088563375175,2.1426948966361583
1726225471067833900,6.836833740234375,-8.674013751047848,-2.3807874673098324,1.429807616060227
1726225471077870800,6.846870849609375,4.795273790603876,-3.5946225745677944,-0.5679621288234368
1726225471087908000,6.856908203125,6.621149493592977,-3.472888876777887,-0.5244071378005668
1726225471097945000,6.866945068359375,6.184093124324083,2.2690829961031675,-1.98577429626137
1726225471107983600,6.876983642578125,7.051534130012989,3.967339450395107,-2.2647207092404362
1726225471118020600,6.8870205078125,4.915515788531303,-1.1210142002195118,-0.14727731350236573
1726225471128057600,6.8970576171875,-1.6107213787019252,1.7198124525398015,0.12886028000051156
1726225471138094300,6.90709423828125,-4.570374901893735,1.7655027750909327,0.7958389008332043
1726225471148131600,6.917131591796875,-5.003410929605365,-1.0495119755417108,1.2458534628093243
1726225471158168600,6.92716845703125,-5.906925119194388,-3.474575222429633,0.43193314450364556
1726225471168206300,6.937206298828125,-4.6352246829450126,-2.452853755611181,0.8879068706125021
1726225471178243300,6.947243408203125,-4.249814329761266,-0.4900970545828342,0.36299039505030956
1726225471188280600,6.957280517578125,1.1961655950546264,1.3348913441777228,-0.9730540281526744
1726225471198317600,6.967317626953125,4.034761127761006,-1.3376298292309046,-0.5906968519944698
1726225471208354600,6.9773544921875,4.068303916400671,1.1280050820201635,-0.6197564308054745
1726225471218392600,6.987392578125,3.3820623584270475,2.1361229708999394,-0.3382076533082872
1726225471228429600,6.9974296875,4.51038600487709,3.372076970985532,-0.21111129597406833
1726225471238466600,7.007466552734375,0.23567630331218242,2.2410370513141156,0.4711736698608845
1726225471248503600,7.017503662109375,-1.8995704692751167,2.4067507606059313,0.2353330245661549
1726225471258540500,7.02754052734375,-1.4881822097480297,0.246042799025774,-0.6156342363089322
1726225471268577500,7.03757763671875,-1.589033278506994,-2.093017988666892,0.8616362649329006
1726225471278615600,7.047615478515625,-2.2960955061912536,-0.647134705466032,0.9825575503613799
1726225471288652500,7.057652587890625,2.0076982510387897,-1.492635097503662,-0.5661002439416944
1726225471298689500,7.067689453125,0.4960451493322849,-1.2134060681909322,-0.4357261435784399
1726225471308726500,7.0777265625,-4.925995096969604,1.8822937557816504,1.0983610543847084
1726225471318763500,7.087763427734375,-1.1777835506677627,0.19569851318895815,0.03422063310230151
1726225471328801300,7.09780126953125,-5.215437477260828,0.8312398114949464,-0.17089719461062922
1726225471338838500,7.107838623046875,-0.08884148201346397,2.3904279868364333,0.33135409761909396
1726225471348875500,7.11787548828125,2.36120949113667,0.1745335600852966,0.6665737115599215
1726225471358912500,7.12791259765625,6.75014646038413,1.2849953866302966,-0.2556761581592262
1726225471368949500,7.137949462890625,5.009956990247964,-2.549998371067643,0.5325824436128139
1726225471378986500,7.147986572265625,-1.1491180126756428,-0.5802244847536087,-0.06104841600693762
1726225471389024500,7.1580244140625,-7.245620531830191,1.9922148507028816,0.9502301288608461
1726225471399061500,7.1680615234375,-5.255483071923256,0.02381342178583145,0.5248604710586369
1726225471409098800,7.1780986328125,-1.377595928916335,-3.6524756285995243,1.6755774433635173
1726225471419135500,7.188135498046875,2.216996250513196,0.3179261319756508,1.1927215190153568
1726225471429172500,7.19817236328125,3.1843624422878025,2.8590917927682398,0.2684115932275541
1726225471439209500,7.20820947265625,1.7529717948198318,2.7478783199489114,-1.206487082582712
1726225471449247500,7.21824755859375,-4.319125766396522,0.08795943848192692,-0.8646599966682493
1726225471459284500,7.228284423828125,-2.8126760785520073,-0.7480056479692458,0.08612698062406852
1726225471469321500,7.238321533203125,3.40928704996109,-4.324796213248372,-1.152231614651531
1726225471479358500,7.2483583984375,6.020789398783445,0.04020400009453296,-1.7167621250584721
1726225471489395700,7.258395751953125,4.1402047850072385,4.755026535889506,0.1581115089260973
1726225471499433500,7.26843359375,-0.01455167244374752,-0.589440641388297,1.4008257055953144
1726225471509470500,7.278470458984375,-2.674672213962674,-0.6904109526127576,0.7532705096948892
1726225471519507500,7.288507568359375,-3.70613941424787,1.6800561962127685,1.7636505713529884
1726225471529544700,7.298544677734375,-5.3132051930516955,3.0393729565948244,1.6710297169312833
1726225471539581400,7.30858154296875,0.17373159605264663,-0.8028834855824708,-0.3057133142756298
1726225471549618400,7.318618408203125,3.4761516779661177,-3.320128172561526,0.954330038460344
1726225471559656700,7.32865673828125,2.0585165841281414,0.6493862837851048,2.129578225431591
1726225471569693400,7.338693359375,-4.226937312042713,3.268601983463764,2.4444139901764688
1726225471579730400,7.34873046875,-0.7117243742763996,-2.27683609444797,1.0156646509975193
1726225471589767400,7.358767333984375,-0.36800796748399733,-4.827839843165874,-0.031014366140589115
1726225471599804400,7.368804443359375,-1.1248714601695537,0.1786947714179754,1.2115496997345239
1726225471609841700,7.378841552734375,1.711187832057476,3.50339507420063,1.3206307636350392
1726225471619879400,7.38887939453125,3.4856501586735247,-0.6080062256485224,1.7577246884353457
1726225471629916400,7.39891650390625,3.189568778759241,-1.4935878681838513,0.8421000090096146
1726225471639953700,7.40895361328125,-5.216853189277648,-0.7849795801013708,0.4154929183669388
1726225471649990700,7.41899072265625,-4.919824299380183,-1.0374299080818892,0.40198067197352644
1726225471660027400,7.42902734375,0.2438333062827587,-1.193197392898798,-1.3848685502678155
1726225471670065400,7.4390654296875,0.11674655702710152,-1.0824895315140486,1.07099359337911
1726225471680102700,7.4491025390625,3.664481123691797,1.5149720169961451,0.8168966672353446
1726225471690139600,7.4591396484375,2.491449735987186,-0.0906219356894493,0.5830315049983561
1726225471700176400,7.46917626953125,4.57420702740252,2.50636264295876,1.1809129347346723
1726225471710213400,7.47921337890625,9.187909029847383,-1.0021090038537979,1.2496568006150424
1726225471720250600,7.489250732421875,6.003083061701059,-0.5681511851221323,-0.4237574733652174
1726225471730288400,7.499288330078125,-0.7256903557866812,5.469618574556708,0.8491286655373871
1726225471740325400,7.509325439453125,-6.729494132977724,4.414624952733517,3.402574400579929
1726225471750362400,7.5193623046875,-5.237344773164391,-4.92102256925404,2.734187940509617
1726225471760399600,7.529399658203125,-8.526239018550514,-9.699981769394874,0.6132985599029809
1726225471770436600,7.5394365234375,-7.574668946322798,-0.8257914829611778,0.07740225163497962
1726225471780473300,7.549473388671875,-5.7167994377017015,2.4430671056121587,0.669933908708021
1726225471790511600,7.55951171875,3.03486804639101,1.198538753926754,1.7555010210365056
1726225471800548600,7.569548583984375,6.068928283530473,-2.1294892319738863,0.2630640399208292
1726225471810585600,7.579585693359375,3.292242386770248,4.028209221899509,0.2775326737236231
1726225471820622300,7.589622314453125,-0.2787298476189375,4.09217754394114,-0.15217999998526646
1726225471830659600,7.59965966796875,0.11152853011786937,1.8595821577578782,-1.1842439788535237
1726225471840696600,7.609696533203125,0.44036417864263055,-3.086885233876109,-0.3623360227948054
1726225471850734600,7.619734619140625,-5.522490917566419,-0.17782208023667334,-0.5748424629217014
1726225471860771300,7.629771240234375,-4.3203690444558855,0.4480032952189445,0.2559036833047867
1726225471870808600,7.63980859375,-1.6232506054073572,-1.6699696864843367,1.3890830992229282
1726225471880845600,7.649845458984375,2.2162223435312507,-2.641279062926769,0.9489907232590019
1726225471890882600,7.659882568359375,3.914607977160811,-2.457382046690583,0.2638754659015685
1726225471900920600,7.669920654296875,-2.0297253739297387,3.111027741485834,-0.509290817211382
1726225471910957600,7.67995751953125,-5.025895733135938,4.297752723500133,0.8627243524305522
1726225471920994600,7.68999462890625,2.0826532465189693,-0.8880249440342187,1.3704185846328734
1726225471931031600,7.700031494140625,3.067850278538465,-1.183687806275487,0.5071363060586154
1726225471941068300,7.710068359375,0.8670791866391897,1.2651251495122908,0.25828151835203167
1726225471951105500,7.72010546875,-1.6829630235701798,2.4750930599480867,-1.0507855026088655
1726225471961143600,7.7301435546875,-3.4126264235168695,0.6399971086710691,-0.4851990899408236
1726225471971180500,7.7401806640625,4.115944203975796,-4.641852576652169,-0.5564980836641044
1726225471981217500,7.750217529296875,1.3504250133961437,-2.245494615244865,0.5635398554017766
1726225471991254500,7.760254638671875,0.021978023052215575,4.781057049202919,0.919516937623918
1726225472001291500,7.77029150390625,-2.290726672634482,2.535244454050064,-0.8761670407190918
1726225472011328500,7.78032861328125,-4.672425994092226,1.3456646671265362,-0.6035609001448378
1726225472021366500,7.790366455078125,-3.246407102790475,-3.5769255898356436,0.17147983507048337
1726225472031403500,7.800403564453125,-1.2923434113055468,-1.2017974634617565,0.21495401594210414
1726225472041440500,7.8104404296875,1.6176847879737615,5.135483066058159,0.762612996122986
1726225472051477500,7.8204775390625,2.495890933305025,1.3348393217295407,0.7627601495087146
1726225472061514500,7.830514404296875,8.219350997939705,-5.572364078760147,-2.408964198871702
1726225472071551500,7.840551513671875,-0.28493571652173993,-1.148073472058773,-1.7558280610337853
1726225472081589500,7.850589599609375,-2.267782434898615,3.9101054050445554,-2.23056110387668
1726225472091626500,7.86062646484375,-3.547748595190048,-2.9073733008563516,0.12877234598873183
1726225472101663500,7.87066357421875,-1.8584791649520396,-5.149657721883059,1.718068969873339
1726225472111701200,7.880701171875,-4.594443759745359,-2.1458283723562954,0.5763763214254751
1726225472121738200,7.89073828125,-4.640887531012297,0.6825076321423054,0.9163952984720468
1726225472131775500,7.900775390625,-4.0209091280192135,0.8101765652000904,-0.470921887056902
1726225472141813200,7.910813232421875,5.146805255061388,0.19509236398935317,-0.6019621962439269
1726225472151850200,7.920850341796875,10.682483570981026,0.962553823056817,-0.9013907676942646
1726225472161887500,7.930887451171875,7.667509142583608,4.693244325715304,-1.1552538120169191
1726225472171924500,7.940924560546875,6.415370315894484,2.691733238878846,-0.8598196439649909
1726225472181961200,7.950961181640625,-0.09893149887323378,-0.6888157923758029,-1.2332203373380004
1726225472191998200,7.960998291015625,-8.069208367267251,-0.7461661575824022,-0.3789309280365705
1726225472202036500,7.971036376953125,-8.721225584077835,-3.640103638282418,1.125963639320433
1726225472212073200,7.9810732421875,-3.6484020955502983,-1.8371961384266613,-1.005512382556498
1726225472222110200,7.991110107421875,2.109282310247421,-2.9689041666179894,-1.6354130446270108
1726225472232147200,8.001147216796875,6.186942084014415,0.910492211908102,-1.0602322531290351
1726225472242184400,8.011184326171875,4.239064387688041,3.6531425680756566,-0.23210933154560623
1726225472252221400,8.021221435546876,5.977285188099741,3.9988101089358326,0.0353861149514094
1726225472262259200,8.03125927734375,0.6096954939097166,-1.2330676309943198,0.3991312373591587
1726225472272296200,8.041296142578124,-4.964211138117313,1.119783197119832,-1.2069000472977758
1726225472282333400,8.05133349609375,-4.334038673368096,2.8081553862571713,-0.05843447064887732
1726225472292370400,8.061370361328125,-4.352570355358719,-1.6697627657353877,1.046854154509306
1726225472302407200,8.0714072265625,-5.134728448298573,-3.188198074927926,0.7788874007061123
1726225472312444200,8.081444091796875,1.7660528101891277,0.9190209708005189,-0.17004300720039753
1726225472322482400,8.091482421875,0.46652036416232584,1.2897662542939186,-1.6747386544518172
1726225472332519200,8.101519287109374,1.6939631410121916,0.6886345905900001,-0.9865295957975089
1726225472342556200,8.11155615234375,-2.45175543898046,-2.135504546740651,0.1283533351253718
1726225472352593400,8.121593505859375,-1.4798907667428254,0.0007172083586454391,-0.1154483339101076
1726225472362630400,8.13163037109375,-1.3195166649132966,0.885889101049304,-0.21078926094546913
1726225472372667400,8.14166748046875,2.8803415015459057,-0.28288346016705035,1.2137719058286398
1726225472382705200,8.151705078125,2.3506407508492466,0.43940030204653735,0.18930077497586606
1726225472392742400,8.161742431640626,5.787127942425013,2.603372818380594,-0.7617378207236528
1726225472402779400,8.171779296875,-2.512204354724288,-0.4896066407173872,0.0736238199416548
1726225472412816400,8.18181640625,-5.718026349148154,-0.15518763910233974,1.8979615727737544
1726225472422853000,8.19185302734375,-5.868582236796617,-1.9849697018802164,1.1782936190817503
1726225472432890400,8.201890380859375,-7.327252520856261,-2.8405414060771466,1.4300260811164975
1726225472442928400,8.211928466796875,-0.6422977868288755,-0.43548283634185786,-0.35643574924245475
1726225472452965400,8.22196533203125,-1.184526595187187,-0.7609732660919427,-0.03644764323569834
1726225472463002000,8.232002197265626,1.897663758870959,4.2009447926521295,-1.111741710287705
1726225472473039400,8.242039306640624,2.612604757106304,2.4308476755082604,-1.5052341745749116
1726225472483076400,8.252076416015624,5.087230784064531,1.0601561191529034,-0.002280950544029474
1726225472493113300,8.26211328125,4.294942926776409,1.7312240733921527,0.40493966790959235
1726225472503151400,8.2721513671875,2.1963474302381276,1.7898358368366956,-0.9893262407787143
1726225472513188400,8.282188232421875,-4.289781598490476,-1.6881722826510668,0.8128943727914243
1726225472523225300,8.292225341796875,-6.025547991487383,-2.4619898327469825,1.0681379116870462
1726225472533262300,8.302262451171876,-6.602329642310738,-0.8987158493965863,0.08130100350603461
1726225472543299000,8.312299072265626,-4.54908603014946,1.667548596817255,1.120972333839163
1726225472553336300,8.32233642578125,1.064823526442051,1.0219102673888205,-0.28308205147907134
1726225472563374300,8.332374267578125,3.094216891938448,-1.9313544315487146,-0.6223958393983543
1726225472573411300,8.342411376953125,3.224833568885922,1.4570353763341903,-0.5479710052721202
1726225472583448300,8.3524482421875,0.27433424300849435,2.4254712431669234,0.4311214993271976
1726225472593485300,8.3624853515625,2.431622167012095,-1.3869552934139966,1.2356621775321661
1726225472603522300,8.372522216796876,-0.0980681600421667,-3.244711404788494,1.2643158789560198
1726225472613559300,8.382559326171876,-1.2993699489414692,1.8164947111815213,-0.2146958399299532
1726225472623597300,8.392597412109374,-4.988077166873216,1.8615993427991866,-0.0041677141387015575
1726225472633634300,8.40263427734375,-1.0612065049886703,-1.191233399349451,0.2144661958925426
1726225472643671300,8.41267138671875,2.4044167647004127,-4.4121156002610915,-3.022068770572543
1726225472653708300,8.422708251953125,2.910458991912007,-0.7797171295285225,-1.4807410999618469
1726225472663745300,8.432745361328125,2.6649568756341933,3.425395304197073,0.21808942789100108
1726225472673782300,8.4427822265625,5.973093581628799,-2.0660113237977025,2.0796444200918076
1726225472683819300,8.4528193359375,-2.0334300736665725,1.7218728922009467,2.5358815829098225
1726225472693857300,8.462857177734374,-3.903339564171433,4.063917664140463,1.9015572591781615
1726225472703894300,8.472894287109375,-7.955894707298278,0.9123492379516362,1.7378487522289157
1726225472713931300,8.48293115234375,-1.56255794403553,-5.162592606779933,0.364160571340844
1726225472723968300,8.49296826171875,3.3358816220104694,-6.292313260546326,-2.342553890505433
1726225472734005200,8.503005126953125,7.757237928825616,0.538602434554696,-1.0184909604646264
1726225472744042500,8.51304248046875,7.6848244345217935,4.31437477247715,-0.18182539759390054
1726225472754080300,8.523080322265624,5.845153430414199,0.46725277009010313,0.23090507032237945
1726225472764117200,8.5331171875,2.7857307884812355,-1.3291478320896626,0.21989413922540843
1726225472774154200,8.543154296875,-6.825807558307051,3.5410558195531365,0.5997811989430338
1726225472784191500,8.55319140625,-7.570098569667339,-0.13588497273921965,2.4512621025055648
1726225472794228200,8.563228271484375,-4.27489207239449,-0.24860651203393935,0.5672352393209934
1726225472804265200,8.57326513671875,2.794958051031828,-3.9584553021937605,0.03593056055903435
1726225472814303500,8.583303466796876,4.036144106552005,-0.013667290824651717,1.1550460144851356
1726225472824340200,8.59334033203125,3.0524761837959287,2.0143676458001134,0.19048625843338668
1726225472834377200,8.603377197265624,6.894447963812947,3.303714797899127,-0.19873883073292672
1726225472844414200,8.613414306640625,0.5409148031502962,-2.032972393026948,1.1188868328019976
1726225472854451500,8.623451416015625,-9.1803248583287,0.5428343730360269,0.9229953543242067
1726225472864488400,8.633488525390625,-6.41718817897141,0.005350713378190994,0.31974414118304845
1726225472874526200,8.643526123046875,-6.923271322715282,-1.2623749740213155,-0.2569071612589061
1726225472884563200,8.653563232421876,-3.4612317567318676,-2.085130450287461,0.24965097958557306
1726225472894600400,8.663600341796876,0.061519175323843954,-1.7712246598690746,-0.9504499821566045
1726225472904637400,8.673637451171874,3.4355618934243917,2.9161902290403843,-2.7307220179647205
1726225472914674200,8.683674072265624,9.84713983129859,-0.42476796558201313,0.19849596188776195
1726225472924711200,8.693711181640625,0.7025269223421812,-0.23545301595032214,1.75407537214756
1726225472934748400,8.70374853515625,-4.112616520857811,1.823000439813733,-0.7625880808774381
1726225472944786400,8.713786376953125,-7.290684831437468,2.483988314065337,0.641261356453225
1726225472954823200,8.7238232421875,-5.688823051017523,-2.6591975814551114,-0.7133323209296911
1726225472964860200,8.733860107421876,-6.407560518926382,-4.648348952934145,-0.6818314133811741
1726225472974897400,8.7438974609375,-6.445373239970206,3.038212096121907,0.5629466752815991
1726225472984934400,8.753934326171875,-2.424304537475109,5.563064920017123,-0.4717773348424583
1726225472994971400,8.763971435546875,10.568864206063747,-4.767243043383956,0.37250425598993897
1726225473005009400,8.774009521484375,9.456697913688421,-5.570491270625591,0.521751764453575
1726225473015046400,8.78404638671875,3.0582980218172073,4.909017074161768,-0.6364361282538622
1726225473025083400,8.79408349609375,-6.6672063113689415,7.926043758913874,0.0971492916315794
1726225473035120000,8.8041201171875,-1.3156056289494036,-3.5500504423916337,-1.546856517034769
1726225473045157000,8.8141572265625,-3.572338846567273,-2.726851314011216,-1.3251666534990072
1726225473055194400,8.8241943359375,-4.1316169894039625,7.2984087036877865,0.06694748398289084
1726225473065232400,8.834232421875,-0.030125089150667188,6.196052442187071,0.4343600428570062
1726225473075269000,8.84426904296875,8.501934013855458,-4.456504192563891,2.180786142360419
1726225473085306400,8.854306396484375,14.226387181180714,-4.307879565238952,1.2284352950185538
1726225473095343400,8.86434326171875,8.807371251136065,6.039180210998654,-1.8293553617984055
1726225473105380400,8.87438037109375,-8.724614641994238,10.237256754738091,-0.5549957162771374
1726225473115416600,8.88441650390625,-5.741711760640144,-0.7518646614849567,-0.37756066259667276
1726225473125453800,8.894453857421874,-10.732526828044652,-4.046308357691765,-1.5907371598154305
1726225473135491600,8.90449169921875,-9.435695457670093,-1.807905162012577,0.3316567703600973
1726225473145528600,8.914528564453125,-1.1672691709160805,0.030437223839759824,-0.6220403770241886
1726225473155565800,8.92456591796875,9.168954154008626,-2.932059413823485,-2.6595216988429424
1726225473165602600,8.9346025390625,17.022561037743092,-2.5151000761657953,0.8346761426191777
1726225473175639600,8.9446396484375,7.883188367527723,3.3740801275014873,-0.08525485569834709
1726225473185676500,8.954676513671876,-6.882012260609865,7.690124879017472,-0.9745860600255429
1726225473195714800,8.96471484375,-5.605708714479207,0.9716285253942012,-1.106159818502143
1726225473205751600,8.97475146484375,-9.057444913113116,-8.044239930227398,-0.5852878325577825
1726225473215788500,8.98478857421875,-9.118370798718928,-4.887349432232976,1.5284595673397183
1726225473225825500,8.994825439453125,-4.141420006015896,0.4505366130888462,-0.30359044037014243
1726225473235862800,9.00486279296875,4.962801271319389,0.5311018496662377,0.3805577985860407
1726225473245899800,9.014899658203126,11.35645016927123,-5.687490341109037,1.0518757820636033
1726225473255937500,9.0249375,3.4244431180387735,2.8392653947919606,0.3375942706502974
1726225473265974500,9.034974609375,0.402518724372983,3.544746490764618,-2.245099478447437
1726225473276011800,9.04501171875,0.4340957658976316,-1.4647101487457752,-2.4991090185686944
1726225473286048800,9.055048828125,-1.610686307388544,-9.185576202985644,-0.7494919410042464
1726225473296085500,9.06508544921875,-8.267751748493314,-0.9054296678215265,-0.3368739935517311
1726225473306122500,9.07512255859375,-5.936529983863235,5.745834393528104,-0.3147825732529163
1726225473316159700,9.08515966796875,2.339036822295189,-0.5328279428064823,-1.3055265718750655
1726225473326197500,9.095197509765624,8.339168048453331,-9.309390798702836,1.0446119285404682
1726225473336234500,9.105234375,-0.9034691814035176,-0.35595454159677026,1.7314526214510202
1726225473346271700,9.115271728515625,-10.465867941969632,8.272686866807938,-2.0432205230578777
1726225473356308700,9.125308837890625,-3.8300276597231626,2.9669249754995106,-1.6103491843886673
1726225473366345700,9.135345703125,0.08561842831373215,-6.774925512331723,0.2692186535604298
1726225473376382500,9.145382568359375,-0.8943734362781047,-3.194908386221528,0.28234080465771255
1726225473386420700,9.155420654296876,-1.097020745691657,6.56069999332726,0.5449624711059033
1726225473396457700,9.165457763671874,-5.410879969862103,7.783755348873138,-0.3675114892039448
1726225473406494700,9.17549462890625,8.14000565854609,3.0140409469395872,-1.770743013831973
1726225473416531500,9.185531494140625,15.07575710812807,-1.2360387557595967,0.2824045906089246
1726225473426568700,9.195568603515625,3.73340677587986,2.915506338429451,1.1094587139170615
1726225473436605700,9.205605712890625,-5.3591147113114594,3.0608319242089985,-1.0574377270396798
1726225473446642700,9.215642578125,-0.5345850156068802,-4.7371840052068235,0.07131890400014818
1726225473456680400,9.225680419921876,-4.155782293367386,-3.5535815391272303,1.7002520120233295
1726225473466717700,9.2357177734375,-7.957671653842926,3.337058849096298,0.39500345337204634
1726225473476754700,9.245754638671874,-7.706787844526767,6.107589730358123,0.1815779256388545
1726225473486791700,9.255791748046875,3.931013168516755,0.11159341204762459,-0.29157457001432774
1726225473496828700,9.26582861328125,0.7084983979672194,-4.253156041404605,0.30937267703339455
1726225473506865700,9.27586572265625,0.3730173200786113,-1.0776496902674435,-1.1242044476281852
1726225473516903700,9.285903564453125,-1.0884060620814562,-1.4517419461011887,-0.4561223773319274
1726225473526940700,9.295940673828126,4.833446577131748,-4.050925496098399,0.8128997796189039
1726225473536977400,9.305977294921876,3.7745647156983613,-0.33794074600040913,-1.2590873306527732
1726225473547014700,9.3160146484375,2.3016174844831228,6.127041449803113,1.0095379848107695
1726225473557051600,9.3260517578125,-0.3708370534300804,7.486936886855959,0.20595994109287857
1726225473567088600,9.336088623046875,3.2488398828953504,-0.43527474654912945,-0.7405301975220442
1726225473577125600,9.346125732421875,0.17517536512017248,-4.637987133395671,0.8623392986357211
1726225473587163600,9.35616357421875,-7.132966212552786,1.7459651309281587,1.7375673049390314
1726225473597200600,9.36620068359375,-8.83309664402306,2.601410578396916,0.4676132374329492
1726225473607237600,9.376237548828126,-7.787544804283976,-6.758825441402196,-0.5338227259974926
1726225473617274600,9.386274658203124,-1.4144775065898894,-8.701590909281373,-0.8515076696284115
1726225473627311600,9.3963115234375,-0.6458382359147071,0.8530746266841888,-1.842491322225332
1726225473637348600,9.4063486328125,6.09812164478898,4.514509222286939,-1.858917702499777
1726225473647386600,9.41638671875,16.322371618437767,-1.7158669297844171,0.5350152237176895
1726225473657423600,9.426423583984375,7.843272536724806,-1.8024673548728227,2.085760711015016
1726225473667460600,9.436460693359376,-7.2439493837475775,6.87004651300609,2.727363939708471
1726225473677497600,9.44649755859375,-5.062243057802319,4.960758367314934,1.4850038719728589
1726225473687534600,9.45653466796875,-3.891647957333922,-7.082044419088959,-0.5861223106205463
1726225473697571800,9.46657177734375,-3.5985488081008192,-9.840103356790541,-0.7430752058297395
1726225473707608600,9.476608642578125,-7.192559388250112,3.4990649360418318,0.04187796118874103
1726225473717646600,9.486646484375,-7.171107434898614,7.601773226347565,0.5437508302938193
1726225473727683600,9.49668359375,3.7357472015261646,2.0266005199074746,1.4714517319604754
1726225473737720800,9.506720947265626,11.531907273942231,-4.845269701394439,0.9093398270025849
1726225473747757600,9.516757568359376,5.24376223899126,0.8518605747193098,-0.2646753475749865
1726225473757794600,9.526794677734374,3.3543688803374767,3.4138550885289907,0.23621621887516228
1726225473767831600,9.53683154296875,-6.578669949781895,2.5022552076399327,-0.17811401238795369
1726225473777869800,9.546869873046875,-1.9183271921932696,-2.9689596961975098,0.5126710342342033
1726225473787906600,9.556906494140625,-4.245802171510458,-2.9422552291452884,1.3464945420794188
1726225473797943600,9.566943603515625,1.7784277231156824,0.7732862196981907,0.2866393421018496
1726225473807980500,9.57698046875,11.171700335597992,2.3731904363095757,1.9269713941588997
1726225473818017800,9.587017822265626,15.713416713762282,-0.5577051944315433,1.5855620952650904
1726225473828054800,9.5970546875,4.55456826095283,1.471855344325304,0.3187513672860339
1726225473838091500,9.607091552734374,-13.040236784183978,7.183263152116536,0.9095529582966119
1726225473848129800,9.6171298828125,-16.17732368055582,-0.7789245178461074,0.6644294660728425
1726225473858166800,9.627166748046875,-13.766544979608058,-6.631506636956334,0.3557419217593968
1726225473868203500,9.63720361328125,-7.935309015387296,-5.123777430695295,0.9219882231082767
1726225473878240500,9.647240478515625,-2.913404397714138,0.3224953395873308,0.8242186076212674
1726225473888277500,9.657277587890626,5.67122309691906,4.054613244700431,-1.2515640955410896
1726225473898314800,9.667314697265626,14.130122271168231,-2.801511125937104,0.22144918664768337
1726225473908351700,9.677351806640624,12.32075112825632,-0.6152893683940172,1.7157786669790744
1726225473918389500,9.687389404296875,5.591020848435163,3.1831349463194605,0.9543764348853379
1726225473928426800,9.6974267578125,-4.06502416407764,1.0600257707715033,0.5070052270248532
1726225473938463700,9.707463623046875,-11.921643089109658,-2.239545351451635,1.725986464999616
1726225473948500700,9.717500732421875,-15.81739614367485,-1.905463618966937,1.4036084681816399
1726225473958537500,9.727537353515626,-6.698360743567347,-2.243868475347757,-1.04864176857844
1726225473968574500,9.737574462890626,4.683376427173614,-0.33953298362791534,-0.9738345840711146
1726225473978612700,9.74761279296875,12.180823602128028,-0.31662849338054655,2.129615927093476
1726225473988649700,9.757649658203125,7.999246357768773,3.3789754983276126,0.8549022074375301
1726225473998686500,9.7676865234375,10.034335304558276,6.483587527552246,1.3997630447998641
1726225474008723700,9.7777236328125,0.16867781979441643,-0.12304361134469509,0.6091360333960503
1726225474018760700,9.7877607421875,-15.117466252088546,-0.6320762525439262,1.165776009748876
1726225474028797700,9.797797607421876,-20.79270618343353,0.3017868980795145,1.6508984907895325
1726225474038834700,9.807834716796876,-10.393765997833013,-3.042259325686097,-0.35504835000466556
1726225474048872700,9.817872802734374,7.252346040692925,-4.940404730594158,-0.7215097821664065
1726225474058909700,9.82790966796875,9.358196038404106,1.8781980109006164,1.8921170845292508
1726225474068946700,9.83794677734375,8.459974694526196,4.494024652662873,1.454861977817863
1726225474078983400,9.8479833984375,11.43940785394311,4.2836663304805755,1.0330704707633704
1726225474089020700,9.858020751953125,8.384896364927291,0.7199480127424002,0.12093615420404821
1726225474099057700,9.8680576171875,-1.1923112577140331,3.2286955050110815,-0.46515192535333333
1726225474109095700,9.878095703125,-10.297542004352808,5.485868283089995,1.5859063786581158
1726225474119135700,9.8881357421875,-11.633266876745223,-0.6595908669352532,0.013572397349122911
1726225474129172500,9.89817236328125,-12.33561435086727,3.6984751632302997,-1.4614850492194293
1726225474139209700,9.908209716796875,-4.099772821375727,1.3513935661673544,-1.1877760985024273
1726225474149246700,9.918246826171876,8.727242652410268,-4.393987238374352,1.803175503142178
1726225474159283700,9.92828369140625,15.227473271727561,-6.391035500583052,1.1143206939302384
1726225474169320700,9.93832080078125,7.792509733214974,-0.6175234110563993,0.6994505836367607
1726225474179358700,9.948358642578125,4.364273652634024,0.8256757476270198,0.09692412283988669
1726225474189395700,9.958395751953125,-5.502925800874829,0.8364677752763032,-0.04974185383110307
1726225474199432700,9.9684326171875,-9.363428678360581,1.4911112489372491,0.3106127767549828
1726225474209469400,9.978469482421875,-9.03727540078759,1.8406407259225843,-2.8915678289592264
1726225474219506700,9.988506591796876,-1.583638141465187,-0.4172136046797037,-1.9005150566488502
1726225474229543700,9.998543701171876,4.974084881877899,-6.936500806644559,2.520082248492539
1726225474239581700,10.008581787109375,7.540847925263643,-0.5768821885883808,1.5428877595342694
1726225474249618400,10.018618408203125,-1.9276824650377034,2.9513176565229893,1.0634084720123558
1726225474259655700,10.02865576171875,0.0681049834549427,-1.0853075115442274,-0.46221163411773736
1726225474269692700,10.038692626953125,-4.786179214522242,-4.846155252057313,0.5712736279916018
1726225474279729700,10.048729736328125,-6.649747811567783,-0.5822761565864086,2.8823659931108354
1726225474289766700,10.0587666015625,-3.9223675052464007,1.636818527510762,-1.2035668112218378
1726225474299803600,10.0688037109375,-2.0206939262121915,0.2956032410085201,-1.6309128105983137
1726225474309841700,10.078841552734374,7.013847665697336,-2.3970897828131914,-0.1131277272091247
1726225474319878700,10.088878662109375,1.7438877401322126,-1.056980996248126,2.7996707587674257
1726225474329915600,10.09891552734375,4.520570714282989,2.983129675847292,-0.7655161702185869
1726225474339952600,10.10895263671875,1.0947615685880183,-3.276466725489497,-1.3560368619285523
1726225474349989600,10.11898974609375,3.419792077362537,-1.5741981129467486,-1.1328800676453858
1726225474360026600,10.129026611328126,1.8052759825527667,2.358314938738942,0.11945464694201946
1726225474370063600,10.139063720703126,-0.39997839224040505,3.2067566449254747,1.2777055218830704
1726225474380101600,10.1491015625,-4.7053638025760645,0.9780278710424899,3.3596874450117347
1726225474390138600,10.159138671875,-0.28874446115493774,2.188194518920779,2.7563275838643313
1726225474400175600,10.169175537109375,2.708126739796996,-2.013300308829546,1.5749952546738086
1726225474410212900,10.179212890625,-0.8214245199233293,1.3271417529642582,1.1424628656353801
1726225474420249600,10.18924951171875,-6.409140481594204,3.6638475019633767,-0.33031039725244044
1726225474430286600,10.19928662109375,-0.3995125282943249,2.551581840866804,-1.7433698537379503
1726225474440324600,10.20932470703125,1.5459142677485942,-1.9581226114869117,-0.6789408065062016
1726225474450361900,10.21936181640625,-0.4593278223097324,-0.8719020767509936,-1.1685638869017363
1726225474460398600,10.229398681640625,1.2923913421005009,2.1661030986219645,-0.9611965632289647
1726225474470435600,10.239435546875,-0.9489870699971914,0.9164929136276244,0.30928872507698835
1726225474480472600,10.24947265625,-0.6450783574581146,0.7304863578915596,0.37735790656618773
1726225474490509800,10.259509765625,1.6272282768666744,-0.08563713301420212,-0.26198722273586317
1726225474500546800,10.269546875,2.891018962904811,-0.42637832338809967,-0.5056080735780298
1726225474510584600,10.27958447265625,1.2159060683131218,3.6996973985016344,-1.4959678951881825
1726225474520621600,10.28962158203125,0.6540560291618108,3.5881641922086476,-0.6946610112726688
1726225474530658800,10.299658935546875,-1.2637561992466448,-1.8497084139972924,0.46635571165252476
1726225474540695600,10.309695556640625,-0.32350363984704017,-0.8501905956804752,0.25572584251984953
1726225474550732500,10.319732666015625,-2.5311639067381617,-0.971944167214632,0.7671359534401446
1726225474560769500,10.32976953125,-2.779689170229435,-2.0268015954375267,1.2457779133550821
1726225474570807800,10.339807861328126,-7.836915276652574,-1.9929934338599442,1.1879969747114927
1726225474580844500,10.349844482421876,-3.1701568068027495,0.2864981435328722,0.047082964219618585
1726225474590881500,10.359881591796874,5.566863727778196,-1.8888246188551185,-1.3540579630710183
1726225474600918500,10.36991845703125,3.6054344759613275,-3.6425837646603583,-0.9199370627321303
1726225474610955800,10.379955810546875,0.4441834446698427,1.379856275063753,-3.2141108070805666
1726225474620992800,10.38999267578125,-6.679359690499306,6.32837533853054,0.040023474162165076
1726225474631029500,10.400029541015625,-0.26406068627536294,-0.24705460641682148,0.391629812220484
1726225474641067800,10.41006787109375,2.0201415530264377,-7.609218866178393,-2.165261533231288
1726225474651104800,10.420104736328126,-2.2624732225745916,-1.3891203624933957,0.4959373050436377
1726225474661141800,10.430141845703124,-13.418971897387504,7.4592422397226095,1.8077531863212584
1726225474671178500,10.440178466796874,-5.871969541147351,0.9745026195257902,-1.5481968257278202
1726225474681215500,10.450215576171875,4.48796900588572,-7.282198742642998,1.3010787986859678
1726225474691252700,10.460252685546875,1.7712620692700147,-1.2705939363121985,0.10767349865753204
1726225474701290500,10.47029052734375,4.855525137948989,6.062408526372909,-0.5382550824217498
1726225474711327500,10.480327392578126,6.664351506459712,2.263526531019807,1.8312015741869807
1726225474721364700,10.49036474609375,5.618457721415162,0.09316928208470344,1.7574642839334904
1726225474731401700,10.500401611328124,8.158559552368521,1.344869132834673,1.274338091276586
1726225474741438700,10.510438720703124,2.711027137413621,3.1518647787868974,0.369819035493955
1726225474751475500,10.520475341796875,-7.350680742716789,3.031881724056601,0.37033652002941814
1726225474761512700,10.5305126953125,-11.335159543961286,-3.1006963170856237,1.1344278085440396
1726225474771550700,10.54055078125,-5.654140444692969,-4.919260820278525,-0.5359586055150255
1726225474781587700,10.550587646484376,-6.453670528194308,-3.3462896187782287,-1.0539277461573482
1726225474791624400,10.56062451171875,-0.33196868585348127,2.5036411090403794,-0.7155119299910963
1726225474801661700,10.57066162109375,3.707208504784107,1.4046411722302437,-1.4855170821920036
1726225474811698700,10.58069873046875,5.8038113662004465,2.0808470738798377,-0.14005089677963406
1726225474821735700,10.590735595703125,8.040199714925885,0.9165677324295043,0.43315278595909473
1726225474831772700,10.600772705078125,4.235049306827784,0.10847089611291885,1.0800487142331898
1726225474841810700,10.610810791015625,-6.14896102066636,1.9182371758222578,0.4691517355792224
1726225474851847700,10.62084765625,-1.1958406008839606,1.105551258149743,0.22353571059815586
1726225474861884700,10.630884765625,3.766612295389175,-2.67816707034111,-0.7596917018488049
1726225474871921700,10.640921630859374,-2.265102402034402,-2.1396698497265576,0.3299248320009559
1726225474881958700,10.650958740234374,-0.41244858223497866,-0.4770388355672359,-0.30576310823410746
1726225474891995600,10.66099560546875,2.814450102487206,-1.0158563741773365,-2.1381512618571517
1726225474902033700,10.67103369140625,4.80492541604638,-2.093811769393086,-0.9768173992741852
1726225474912070700,10.681070556640625,2.5259084704279897,0.3678536537051201,1.2675827717974781
1726225474922107600,10.691107666015625,-3.0108839442133903,1.0854641634106637,1.6357428611032663
1726225474932144600,10.70114453125,-5.52267387291789,0.11182020654082298,0.7594063821014017
1726225474942181600,10.711181640625,-5.861006248584389,-3.469357195520401,0.037604704316332935
1726225474952218600,10.721218505859374,-6.292009893685579,-2.0125982980400323,-0.0901109174273908
1726225474962255600,10.731255615234375,2.650479437470436,1.4306266773581504,-0.3391996600203216
1726225474972293600,10.741293701171875,1.8643150314986705,-4.384821935144067,-0.46137014179229735
1726225474982330600,10.75133056640625,-0.40872693136334415,-3.015840105316043,0.0948830272000283
1726225474992367900,10.761367919921875,-2.0438164431244132,0.5180716877013445,-0.8781252621147781
1726225475002404600,10.771404541015626,-4.402068838021159,3.817296188443899,1.0512577962957321
1726225475012441600,10.781441650390626,4.952975458353758,-0.6250649124771356,0.3912963424824178
1726225475022478600,10.791478515625,6.213012929338216,-4.053341325068474,-0.2548170571118593
1726225475032515600,10.801515625,-5.0728117980897425,4.789022913515567,1.143502218620479
1726225475042553600,10.8115537109375,-5.044681097626686,6.467557599249481,1.5746077166609465
1726225475052590600,10.821590576171875,-0.1093617074728012,1.3529635919630527,1.0213223844982684
1726225475062627600,10.831627685546875,0.617033581712842,-2.4078017309635875,0.4240349751323461
1726225475072664800,10.841664794921876,6.223512111520767,-2.1382728424102067,-1.1398637159876526
1726225475082701600,10.85170166015625,2.6618647548377514,0.9454530506521462,-0.2834416055064648
1726225475092738600,10.861738525390624,-0.5731172830969095,4.830784664446115,-0.9238284441474824
1726225475102775600,10.871775634765624,-0.1239794308900833,-0.18471476235985754,-0.12127360599748789
1726225475112810500,10.881810546875,-0.5911632273972034,0.6269184313893318,-0.2518572574581951
1726225475122847500,10.891847412109374,0.864475141620636,3.514079549822211,0.21322335622459648
1726225475132884500,10.901884521484375,-0.7097282320231199,3.47228623470962,1.0761676350161433
1726225475142921500,10.91192138671875,-4.594038101553917,-0.38680794502198695,0.8840008761499076
1726225475152958500,10.92195849609375,-3.641674248600006,-3.2972236823141574,-0.6571311257582158
1726225475162995500,10.931995361328125,-6.712876175653934,-2.484789693576097,-1.3221513973310588
1726225475173033500,10.942033447265626,-2.953205077704787,2.6033383315891028,-1.6406347247980535
1726225475183070500,10.952070556640624,1.7694827846378087,2.7832261121839283,-1.9046381279282272
1726225475193107700,10.962107666015624,8.895303801611066,-2.072714036306739,-1.9098884496718644
1726225475203144400,10.97214453125,0.9646247841119766,-1.1943044773578644,-0.4057473310306668
1726225475213181400,10.982181396484375,-0.8749404215335845,5.819287752273678,0.20308584696128965
1726225475223218400,10.992218505859375,-0.9958464363276958,2.1421920616805554,0.5769687708932906
1726225475233255700,11.002255615234375,-0.5867214455574751,-4.644897935697436,-0.2917706771083176
1726225475243293400,11.01229345703125,-5.445013710132241,-5.27186955857873,0.9570052490189671
1726225475253330400,11.022330322265624,-3.7209693191111084,0.9741174196004867,-0.13320530520118773
1726225475263367400,11.032367431640624,0.0819254190146923,0.6380564959973096,-0.39583720078244805
1726225475273404700,11.04240478515625,6.573173690453172,-4.267684332972765,-1.1713734644297509
1726225475283441700,11.052441650390625,2.144096433997154,-1.9240566757559776,-0.012465148493275046
1726225475293478400,11.062478515625,4.068058417207002,5.575527511227131,-0.32211686166375875
1726225475303515400,11.072515380859375,0.5753811363756657,-0.27317455157935616,-1.0882190150767563
1726225475313553700,11.0825537109375,-3.297388517487049,-4.03591088231802,-1.079313751022145
1726225475323590400,11.09259033203125,-13.582431105750798,0.21847674670815467,-0.014847148258984089
1726225475333627400,11.10262744140625,-9.056530720877646,0.0628460400134325,-1.5665388303652406
1726225475343664400,11.112664306640625,-5.865084457808733,-2.1729121941149234,-0.4023050816223025
1726225475353701600,11.12270166015625,6.352147843784094,-4.78868155273199,-0.49339733823724086
1726225475363738600,11.132738525390625,9.126582162225246,-3.6393864299237726,-1.2503443444877862
1726225475373775400,11.142775390625,3.5696687505751847,7.064582996678352,0.7569553356874734
1726225475383813600,11.152813720703126,12.256076119250059,6.177394503468275,-1.5447493156224488
1726225475393850600,11.1628505859375,11.430272945851087,-2.989374707716703,-0.7184354892875999
1726225475403887600,11.1728876953125,-3.5285371142417192,0.42587621908485884,-0.6247822961434721
1726225475413924400,11.18292431640625,-16.011810462272166,6.3761407137900585,-0.7933172003358602
1726225475423961300,11.19296142578125,-3.0396190403103827,-0.16076748506128788,-0.6559628856964409
1726225475433998600,11.20299853515625,-0.11629121447503567,-4.290023006030917,0.7502874752961098
1726225475444035600,11.21303564453125,2.0216537111550568,-1.6342051301419733,-0.1285490038279444
1726225475454073300,11.2230732421875,2.0870459285199643,3.1022780333191156,-1.2681887748666107
1726225475464110600,11.233110595703126,6.97473029179573,0.468687186807394,-0.8905309355057776
1726225475474147600,11.243147705078124,7.479788184145092,-2.0739386096656323,-0.7056663163464516
1726225475484184600,11.2531845703125,-0.5676829830884933,-0.41602702524363994,0.9415327354032546
1726225475494221600,11.2632216796875,-11.287684676080941,3.544678686225414,0.1948036832410842
1726225475504258300,11.27325830078125,-10.40261332115531,2.4762831465154886,-1.2089096335545182
1726225475514295600,11.283295654296875,3.338092283797264,-2.3207886334210635,1.213394231622666
1726225475524333600,11.29333349609375,3.431325278767943,-2.4258289705634115,0.27657961078248916
1726225475534370300,11.303370361328126,3.983417894014716,6.0337587704718105,-2.1546011691376568
1726225475544407600,11.313407470703124,4.63536029202342,0.08967091857492923,-0.8251227899193764
1726225475554444500,11.323444580078124,3.8414205758750435,-5.4689399446427815,-0.7918612293738871
1726225475564481500,11.3334814453125,-2.7723353003352877,0.421731958886981,-2.4439509027093647
1726225475574518500,11.3435185546875,-6.372527783989906,3.7417420580267904,-1.0434759102478623
1726225475584555500,11.353555419921875,1.7776655065715312,-1.9282009359538554,-0.3463812420874834
1726225475594593500,11.363593505859376,-4.064161409768462,-3.0305104357033965,0.028819048053398726
1726225475604630500,11.373630615234376,-5.3818771627396345,2.6815736639142034,1.571413889055699
1726225475614667500,11.38366748046875,-4.318149614840745,4.527070013174415,-0.6932800783082842
1726225475624704500,11.39370458984375,3.791633339399099,-4.637482106482983,-0.03334909269846976
1726225475634741500,11.403741455078125,1.187781213068962,-7.288409287720918,0.38765667080581184
1726225475644778500,11.413778564453125,1.717591853880882,-0.8018190712213515,-0.6699628425415605
1726225475654816500,11.42381640625,-3.2395629359841345,1.0997446176975965,0.8936563740499317
1726225475664853500,11.433853515625,-2.3566484668314454,0.3543681491881609,0.606327990237996
1726225475674890500,11.443890380859376,-2.6186136421322823,-2.234965622445941,-0.4323541829273104
1726225475684927500,11.453927490234374,-3.5882056932628155,1.0307260265290736,0.8855382417850196
1726225475694964500,11.463964599609374,-2.3974679684758184,3.132514181628823,-1.0760324643291532
1726225475705001500,11.47400146484375,3.7964761032551526,-1.4803993007868528,-2.2674773144721985
1726225475715038500,11.48403857421875,4.778642973798513,-0.8608265559852123,-2.039625567305833
1726225475725076500,11.494076416015625,2.419576339909434,2.964546555930376,-0.9738125183697789
1726225475735113700,11.50411376953125,-0.738454560291767,3.3447605095148085,2.474458561436832
1726225475745150500,11.514150390625,0.4131096764922142,-0.12463818705976008,2.2801846742235123
1726225475755187500,11.5241875,-1.334361767345667,0.1454734698176384,0.6278437295407057
1726225475765224400,11.534224365234374,-5.023143804079294,5.159944138097763,3.7091967559918757
1726225475775261400,11.544261474609375,-0.32032033363580703,1.2030582771778107,1.4073466317966579
1726225475785298700,11.554298583984375,0.5316588990271092,-3.4794308457672596,0.09739486389048398
1726225475795335400,11.56433544921875,-0.0056423898011446,-1.702204315134883,0.25514676399026065
1726225475805373400,11.57437353515625,3.204941704457998,0.272024212500453,0.3628631519414484
1726225475815410700,11.58441064453125,1.7702455857038497,-0.24760990221202372,2.388384498310089
1726225475825447700,11.59444775390625,-0.4301327074855566,1.6511965969532727,1.4041931362017988
1726225475835484400,11.604484375,-0.1374427235752344,2.1068734955400226,-0.07751520135700703
1726225475845521400,11.614521484375,3.0812866832166907,1.946262077823281,1.169234114313498
1726225475855558400,11.624558349609375,0.6596124942451715,4.277095719918608,-0.1908145770723
1726225475865595600,11.634595703125,1.6284113491714,1.3642156383395194,1.5656737379685044
1726225475875633400,11.64463330078125,-2.32196995216012,-2.0553794551461935,1.4266609885975718
1726225475885670400,11.65467041015625,-8.382374737495184,-3.0600808135807513,2.3440974666856227
1726225475895707600,11.664707763671874,-8.116948608085513,1.2796698076933621,0.32220885079614814
1726225475905744600,11.67474462890625,-4.120703965723514,-4.4392000065416095,1.1168607338018715
1726225475915781400,11.684781494140625,-0.7162994271069765,-5.3051621718496085,0.46607020924203096
1726225475925818400,11.694818359375,2.0347779811441895,1.3481944778650998,1.1831320720888674
1726225475935855600,11.704855712890625,11.816308737456797,0.20216157172322272,0.052786326960381116
1726225475945893600,11.7148935546875,8.152166636461018,-3.6029625328898427,-0.3600190876219421
1726225475955930400,11.724930419921876,2.016565448105335,2.595066762328148,1.666795878753811
1726225475965967400,11.73496728515625,-0.9770435361802577,1.839627164965868,1.689955512806028
1726225475976004600,11.745004638671874,-2.966495351910591,-1.4130524422228337,-1.5851861015595494
1726225475986041600,11.75504150390625,-6.267932852527498,-5.019292389348149,1.6357150963135063
1726225475996078600,11.76507861328125,-4.813254268452525,-1.9787346068829297,-0.2223194118772633
1726225476006115300,11.775115234375,4.093026854246855,1.2305816593974828,0.006396738132671453
1726225476016153600,11.785153564453125,5.539872845000028,0.35754619470238685,2.0332620236232875
1726225476026190600,11.795190673828126,6.363342607015371,0.890126300227642,0.12369201051713898
1726225476036227600,11.8052275390625,0.9342179554104805,2.21176594864428,0.31021256192363794
1726225476046264300,11.815264404296874,2.9138714307039972,5.013913034397364,1.9645321862682699
1726225476056301600,11.825301513671874,-1.672587760028243,0.321795666885376,-0.5326584679910913
1726225476066338600,11.835338623046875,-7.242636547583341,1.2908604792714118,1.6269645113639533
1726225476076375600,11.84537548828125,-8.897674622395634,-0.264815888556838,2.9578426743775603
1726225476086413600,11.85541357421875,-8.620255272853374,-3.860558991587162,0.9080286713387816
1726225476096450600,11.865450439453125,-4.96477637078464,-4.881714056694507,2.4851117651373147
1726225476106487600,11.875487548828126,-1.2435533691734075,-2.4838755013406275,0.9452888000011443
1726225476116524000,11.88552392578125,0.6518225710213184,3.3641923552155495,-1.1192428066328168
1726225476126561000,11.89556103515625,6.951191595298051,3.5788948440819977,1.2571730214640497
1726225476136597800,11.90559765625,9.392536699423193,1.8272347163826226,-1.684009025491774
1726225476146634800,11.915634765625,5.057812381878495,5.147157721760869,-2.490242113763094
1726225476156672000,11.925672119140625,-1.9563228685885667,6.052556409922242,0.518486040655896
1726225476166710000,11.9357099609375,3.567318388056755,0.7734007859885692,-1.6072423044145105
1726225476176746800,11.945746826171876,2.5297546244621274,-3.7235394618600606,-1.4933464606434106
1726225476186783700,11.95578369140625,-5.752602572488785,-1.0713082122862339,1.9780458939664065
1726225476196821000,11.965821044921874,-9.870652808833121,-0.4954600429207086,0.5595759567394852
1726225476206858000,11.97585791015625,-7.217412674477696,-4.852408467233181,1.579257149901986
1726225476216895000,11.98589501953125,0.5593634830325842,-4.08742070480287,-1.1584971778523176
1726225476226931700,11.995931640625,0.8348895661741494,2.418705986815691,-3.2760835713908074
1726225476236970000,12.005969970703125,4.716286178606748,5.330713377213478,-1.1695295170634985
1726225476247007000,12.016007080078126,4.040888086208701,1.0308084441155194,2.274288601922244
1726225476257043700,12.026043701171876,5.150035323023796,-3.544803773909807,0.5582302412189543
1726225476267080700,12.036080810546874,0.10646423246562481,-2.3161504522264003,1.9749736469142138
1726225476277118000,12.046117919921874,-7.638231610172986,2.5835470049262046,-0.5165623060517013
1726225476287155000,12.056155029296875,-5.746092167681455,1.1934960835844277,-1.1772678562305867
1726225476297192000,12.06619189453125,-5.707140213474631,-2.16316412256062,-1.1023109610542654
1726225476307230000,12.07622998046875,-2.040295867782831,-0.9695125561535358,-3.6649759214714166
1726225476317267000,12.086266845703125,-1.4078718247145414,1.9453660057663917,-0.36059995624981817
1726225476327304000,12.096303955078126,1.87901224989295,1.1520230864673853,0.9986763990566134
1726225476337341000,12.1063408203125,3.5070571038395166,-1.0582207671761512,0.6444586911898106
1726225476347377700,12.116377685546874,3.6007600544095038,-0.7198141572296619,1.9466013927802441
1726225476357415000,12.126414794921875,4.97643232178688,0.47607437444925305,-0.3817326875843107
1726225476367452000,12.136451904296875,-0.1262193187713623,1.7380518735855817,0.06845514859948307
1726225476377489000,12.146489013671875,-5.348931755471229,1.549133814316988,1.2544698999851942
1726225476387527000,12.15652685546875,-1.5650152740597725,0.8981266513317823,-1.266820262992382
1726225476397564000,12.16656396484375,0.27420331010520455,-3.966947820729017,-0.002424048809148371
1726225476407601000,12.176600830078126,2.7843875571787358,-1.1649456964045761,-0.10319226159024983
1726225476417638000,12.186637939453124,1.8675521137237547,0.061713821113109586,-1.754006398564577
1726225476427675000,12.1966748046875,2.5317759011566636,-1.8448147967368362,-1.2749578306101261
1726225476437712000,12.2067119140625,0.2643722364425659,-0.8742419178754091,-2.237458900566399
1726225476447748900,12.216748779296875,-2.7431670735180376,3.732636376029253,-2.3483000329419967
1726225476457787000,12.226786865234375,-2.234677453154325,3.7414381066441535,0.6916130218788981
1726225476467823900,12.236823974609376,-9.275743965166807,1.9304437464445827,-0.26211236521918324
1726225476477860900,12.24686083984375,-5.2730362642705435,1.866848933890462,-1.312357294677943
1726225476487897900,12.25689794921875,2.2716063771009445,-4.983515558046102,1.2290654096156357
1726225476497934800,12.266934814453125,5.201449283918738,-2.6591987504988905,1.3921382490098475
1726225476507972000,12.27697216796875,4.4967537853658195,1.3041291261672974,0.16499803530313073
1726225476518008800,12.2870087890625,10.174266337817906,-1.6345821467608213,-1.1565709590300917
1726225476528045800,12.2970458984375,8.36209065887928,-5.324316369652748,-2.3588204040430485
1726225476538083800,12.307083740234376,-5.524435037371516,4.578493910941481,-1.276916563462466
1726225476548121000,12.31712109375,-11.705340763831138,3.1436323724925517,1.6650538573920726
1726225476558157800,12.32715771484375,-9.111777391803264,-3.074778031975031,1.0599366311833263
1726225476568194800,12.33719482421875,-4.756302547174692,-9.35893370502889,0.33683329621516167
1726225476578231800,12.347231689453125,2.0942478227227923,-1.5499714341849087,1.3158920446753501
1726225476588269000,12.35726904296875,10.85696452409625,4.810436872944235,-0.7319017776474356
1726225476598306000,12.36730615234375,11.738784768271445,4.3707408028215164,-1.2652834088139235
1726225476608342800,12.3773427734375,6.662204557558894,-0.50317865447402,0.7898702747523784
1726225476618380800,12.387380859375,-3.4654356381624933,1.33049515504539,1.667766623482108
1726225476628418000,12.39741796875,-12.616439709460735,4.564456617760658,3.847429460901022
1726225476638455000,12.407455078125,-9.3849700635612,-3.254271844816208,2.832499846179783
1726225476648491800,12.41749169921875,-6.531410185956955,-8.30792886058092,0.09412183356918394
1726225476658528800,12.42752880859375,-0.4452940362602472,-1.7783751161456107,-0.8168012440368533
1726225476668566000,12.43756591796875,-2.2779706514358518,4.3025422958642245,-0.979489029636234
1726225476678603000,12.44760302734375,7.0151084794133896,3.9038568660438058,-2.657989374709129
1726225476688640800,12.457640869140626,8.66763369462192,-5.25066427346468,0.4226057095142081
1726225476698677800,12.467677734375,3.8757366869747636,3.6767993379950523,0.2767299059733748
1726225476708715000,12.477715087890624,-0.4711269811749458,6.072481592097878,1.2382498559378088
1726225476718752000,12.487751953125,-2.1894284446299075,2.1756068400263784,3.29971842173934
1726225476728788700,12.497788818359375,-4.714725505161285,-3.748878485777974,2.083815860557556
1726225476738825700,12.50782568359375,-4.108901299726963,-0.21775778478384017,0.7751307515863328
1726225476748863000,12.517863037109375,-0.4451946675390005,4.1459722624927755,0.32518052355069665
1726225476758900000,12.52789990234375,0.861699831688404,2.2676392270356414,0.2658014289954677
1726225476768937700,12.537937744140624,3.63898077173233,-4.43319404412508,-0.9791191003452986
1726225476778974700,12.547974609375,-4.526203167212009,0.23016367737054824,-1.3826128802955149
1726225476789012000,12.558011962890625,-6.777127406290173,2.665171979689598,1.6524620868444442
1726225476799049000,12.568049072265625,-0.47465515530109403,-5.787390977275371,0.09988998690815643
1726225476809086000,12.5780859375,-1.4863608395397663,-5.156520593389868,-1.0658197709377855
1726225476819122700,12.588122802734375,2.927587236845493,4.259843556344509,1.2668969814904034
1726225476829160000,12.598159912109375,7.736700167709588,7.093797400724887,0.4752575416410342
1726225476839197000,12.608197021484376,9.537980943146348,3.62670873465836,0.3313755057333037
1726225476849235000,12.61823486328125,8.277606203031539,0.9323357949256896,0.7748254119642078
1726225476859272000,12.62827197265625,-1.9254981067359447,-0.10452011266052723,-0.14153782913545146
1726225476869309000,12.638308837890625,-10.581024599456786,-1.5061737935125827,-0.6186954505104572
1726225476879346000,12.648345947265625,-10.845008713364601,-8.157558850893377,1.4300415709465741
1726225476889383000,12.6583828125,-6.636289779579639,-6.435789419066905,-0.23243699259739367
1726225476899420000,12.668419921875,-6.5238581631422035,0.40295010152757166,0.8317812248952686
