time,seconds_elapsed,z,y,x
1726940418824851500,0.0428515625,-0.3695294779628515,0.30039734341725705,-0.27408940140195187
1726940418834836500,0.05283642578125,-0.32100247068107124,0.3897232479467988,-0.18649382779635487
1726940418844822500,0.062822509765625,-0.27642916946113105,0.45182986776977774,-0.13297668407708405
1726940418854808600,0.07280859375,-0.5702846900194883,0.3678787881463766,-0.21639657943323254
1726940418864794400,0.08279443359375,-0.7582301048636436,0.21097090112268924,-0.34718517888151107
1726940418874779400,0.092779296875,-1.075216910162568,0.05167494991868734,-0.3501061078295111
1726940418884765700,0.102765625,-1.5056886403441427,0.04484159676730633,-0.3893723156172782
1726940418894751500,0.11275146484375,-1.4359604396015404,0.20201953290402888,-0.38196890749298035
1726940418904737500,0.122737548828125,-1.3476134631067513,0.222511993573606,-0.5143892728615552
1726940418914722600,0.13272265625,-1.161503446996212,0.08782119905501604,-0.6272929637901484
1726940418924708600,0.14270849609375,-0.9562070843786,-0.09724603000432253,-0.6285860723406076
1726940418934694700,0.152694580078125,-0.776692813271284,-0.28410131152421236,-0.5932007245741784
1726940418944679400,0.162679443359375,-1.0326099405795335,-0.38739860439151524,-0.5583794404312968
1726940418954665700,0.172665771484375,-1.51106507268548,-0.30231062969267364,-0.6516724950261413
1726940418964651500,0.182651611328125,-1.4448229604929685,-0.035275311520695685,-0.6914104119788855
1726940418974637600,0.192637451171875,-1.6671446921914814,0.05891396126151085,-0.6960698551572859
1726940418984622600,0.20262255859375,-2.376709842607379,0.2538388597294688,-0.7927520407337695
1726940418994608600,0.212608642578125,-2.8425761267751453,0.6884051657482981,-0.9047793141540139
1726940419004594700,0.2225947265625,-3.2189006717056032,0.9571250760063529,-1.1551782625626772
1726940419014579500,0.232579345703125,-2.806837873917818,1.1698404827088118,-1.1208009227950124
1726940419024565500,0.2425654296875,-2.2893670747190713,1.0236088880002499,-0.994441172639653
1726940419034551600,0.252551513671875,-1.4825889197856188,0.8446016896322369,-0.7164847936112433
1726940419044537600,0.26253759765625,-0.8176537692129612,0.5359557194381952,-0.3375052041273564
1726940419054522600,0.272522705078125,-0.5914958203524351,0.3511971179366112,-0.10915566350668668
1726940419064508700,0.2825087890625,-0.5113204598754644,0.3440016534745693,-0.3879527311429381
1726940419074494700,0.29249462890625,-1.051066803768277,0.0018956044882535933,-1.1829366225820035
1726940419084479500,0.3024794921875,-1.2348305490136147,-0.01006429789662361,-1.777475829218328
1726940419094465500,0.312465576171875,-1.7268489270478486,-0.10098492427170276,-2.3180150770545005
1726940419104451600,0.32245166015625,-2.088362856337428,0.029179332733154296,-2.4046181324914095
1726940419114437600,0.332437744140625,-1.9840876583486795,0.45251229707598684,-2.1827076119422912
1726940419124422700,0.342422607421875,-1.8948159682244061,0.6622831747591496,-1.761895398248732
1726940419134408400,0.352408447265625,-1.9752023411035537,0.9089654407322406,-1.6186372663930058
1726940419144394800,0.362394775390625,-1.772596532744169,1.2152028884798287,-1.4575972480006516
1726940419154379500,0.372379638671875,-1.4505658880591392,1.3654057249069214,-1.020273898358643
1726940419164365600,0.382365478515625,-1.2094161217719315,1.152041791167855,-0.9481854712907224
1726940419174351600,0.3923515625,-0.49863691939115523,0.8709569048553705,-0.7263474314559251
1726940419184337700,0.402337646484375,0.258163444930315,0.8196247770249843,-0.45617279234491287
1726940419194322700,0.41232275390625,0.049077626901865005,1.1063111366063356,-0.14148666520379483
1726940419204308500,0.42230859375,-0.3640145139336586,1.7610235838502644,-0.07757496872022747
1726940419214294800,0.432294677734375,-0.6056809975713491,2.5162264498472213,-0.2317525539971888
1726940419224279600,0.442279541015625,-0.3696165717244148,3.0636645172864196,-0.1365852299630642
1726940419234265600,0.452265625,0.16999708569943903,3.1822868050575255,0.10596168977096676
1726940419244251400,0.46225146484375,0.7271756259083747,3.2689217169374225,0.3383599943257868
1726940419254237700,0.47223779296875,1.9987427911669016,3.307469181996584,0.7446046073541045
1726940419264222700,0.48222265625,3.6497879969507454,2.9111832145333287,1.3043923071481287
1726940419274208500,0.49220849609375,4.552787222754955,2.575677586725354,1.8205895792797206
1726940419284194600,0.502194580078125,4.344596307739615,2.789987861403823,2.1347800318583845
1726940419294180600,0.5121806640625,3.3505776713609694,3.163494426304102,2.371668049047887
1726940419304165600,0.52216552734375,2.064546511942148,3.725243343168497,2.365819615280628
1726940419314151400,0.5321513671875,1.3575783922821283,4.025419298920035,2.287619938790798
1726940419324137700,0.5421376953125,1.211865853011608,4.151491902697086,2.2839900578558443
1726940419334122800,0.552122802734375,1.9505840326756239,4.068011655455828,2.695107683748007
1726940419344108500,0.562108642578125,2.9854163254797457,3.760032916998863,2.8618472289562225
1726940419354094800,0.5720947265625,3.21696707329452,3.519092409548163,2.6586811563655735
1726940419364080600,0.58208056640625,3.0436651008307933,2.74967163310647,1.3245166651576756
1726940419374065700,0.592065673828125,2.8885505269646643,2.4405180056512354,0.08792918947413564
1726940419384051500,0.602051513671875,2.6599416778206826,2.422235914507508,-0.7127396887987851
1726940419394037800,0.612037841796875,2.4999276414752005,2.0593916133970023,-0.5936021449819207
1726940419404022800,0.622022705078125,2.4171119956225153,1.0923960085004567,0.045104339356720445
1726940419414008600,0.632008544921875,2.4503344662666318,-0.11391513299345969,0.8183819373570382
1726940419423994600,0.64199462890625,2.5362673673570155,-1.0124532877355814,1.540711876799911
1726940419433980700,0.651980712890625,2.7371634491890666,-1.486724996677041,2.007023566647619
1726940419443965700,0.661965576171875,3.2364462652683255,-1.7241127800822258,2.302645073965192
1726940419453951500,0.671951416015625,4.176137683653831,-1.6260791068315505,2.1469173366367817
1726940419463937800,0.681937744140625,4.817117373621463,-1.3920599230766295,0.9417244585830717
1726940419473923600,0.691923583984375,4.510418738102913,-1.6398761615157127,-0.818608147328347
1726940419483908600,0.70190869140625,3.7240620244294402,-1.572586001574993,-2.041411135548353
1726940419493894700,0.711894775390625,2.840753003001213,-1.1759709482878447,-2.5163898237153886
1726940419503880700,0.721880615234375,2.0719442209780214,-0.659393298536539,-2.5077140575677155
1726940419513865700,0.73186572265625,0.5000111303538084,-1.8528215775817631,-1.9643312568686901
1726940419523851500,0.7418515625,-0.5525076257884503,-1.6718670445382595,-1.2346869027592242
1726940419533837600,0.751837646484375,-1.0837439154893158,-1.2136924839168786,-0.8150163333814591
1726940419543823600,0.76182373046875,-1.4336170913457869,-0.7626391534775495,-0.37989929814469064
1726940419553808600,0.77180859375,-2.024423175868392,-0.825944043174386,-0.25458248117100446
1726940419563794700,0.781794677734375,-2.961519317063689,-1.3974386935055254,-0.21209860824467613
1726940419573780700,0.79178076171875,-3.2840579112708568,-1.1701245603471995,-0.24941028443118557
1726940419583766800,0.801766845703125,-3.068516633492708,-0.9333201297879219,0.0660901913001202
1726940419593751600,0.81175146484375,-2.7587925126731396,-1.028765540111065,0.6398044356431811
1726940419603737600,0.821737548828125,-2.145267815864086,-0.6691185737371445,0.7109559471871704
1726940419613723600,0.8317236328125,-1.7423299892961979,-0.4352174634039402,0.7995164933674037
1726940419623708700,0.841708740234375,-1.4881372015625238,-0.4089414508968591,0.5197925201445818
1726940419633694700,0.85169482421875,-1.6365186677813528,-0.567280832028389,-0.23360252924542874
1726940419643680500,0.861680419921875,-1.9197411506444215,-0.46547816163301464,-0.826512782973051
1726940419653666800,0.871666748046875,-1.7114035206347702,-0.22846505675911902,-0.6209496591780335
1726940419663651600,0.881651611328125,-1.158162904396653,0.04390110104680061,-0.07431045049894601
1726940419673637600,0.8916376953125,-1.4564964471518993,-1.1043173324406146,0.1054023023225367
1726940419683623700,0.901623779296875,-1.1970657587647437,-1.0386597421377897,-0.1123827723270282
1726940419693609700,0.911609619140625,-0.7908738988369702,-1.011086675557494,-0.7659402408495545
1726940419703594800,0.9215947265625,-0.5877344219923019,-1.264818860042095,-1.2475427310705185
1726940419713580500,0.93158056640625,-0.47444180481135845,-1.317686526876688,-1.1874739006854593
1726940419723566800,0.94156689453125,-0.6135036540210247,-1.1695347777605056,-0.7952117819108069
1726940419733551600,0.951551513671875,-0.6642027446448803,-0.8950362841010093,-0.3424495286617428
1726940419743537700,0.96153759765625,-0.4512473917067051,-0.8812059116691351,0.11464945688368752
1726940419753523700,0.971523681640625,-0.4021469684511423,-0.8473913203507661,0.025179951765527946
1726940419763509800,0.981509765625,-0.6913923648655415,-0.6639174979627132,-0.08448482117392123
1726940419773494800,0.991494873046875,-1.0728338144183158,-0.658238867804408,0.019890220460109412
1726940419783480600,1.00148046875,-1.2354548183918,-0.6670797613859176,-0.17730287866815925
1726940419793466600,1.011466552734375,-1.1461240915566682,-0.7436556360661983,-0.5387457885481417
1726940419803452700,1.02145263671875,-0.8737351373970508,-0.9252788621515035,-0.5456711308319121
1726940419813437700,1.031437744140625,-0.573202038770914,-1.0665309148818254,-0.5271913251589984
1726940419823423700,1.041423828125,-0.37973581467866896,-1.351668875977397,-0.8603030435677618
1726940419833409500,1.051409423828125,-0.2954343141824007,-1.4803642294734716,-1.4372525252386927
1726940419843394800,1.061394775390625,0.0643318946570158,-1.2959545875400305,-1.9766696371771395
1726940419853380600,1.071380615234375,0.265783856806159,-0.9097416858017444,-2.0097918623171744
1726940419863366700,1.08136669921875,-0.17525076844394205,-0.43344227042496203,-1.4773241311252117
1726940419873352700,1.091352783203125,-0.6127157185137272,0.2324783840537071,-0.7370037769615649
1726940419883337700,1.101337646484375,-0.7023433824688196,1.0249415979087353,-0.3394499815195799
1726940419893323800,1.11132373046875,-0.655831222140789,1.6008751074701546,-0.475309819817543
1726940419903309600,1.1213095703125,-0.44105391447246073,2.0188006598114967,-0.5037190449610353
1726940419913296000,1.1312958984375,0.0011450783818960188,2.555671740528941,-0.2339364739075303
1726940419923280600,1.14128076171875,0.3056733841240406,3.1430700624346732,0.23145722431242466
1726940419933266700,1.1512666015625,0.521961096355319,3.700104810258746,0.715155225507915
1726940419943252500,1.16125244140625,0.599905336779356,4.263120386058092,1.1072639072865247
1726940419953237800,1.17123779296875,0.4761848490864038,4.8367976411253215,1.5487807630956172
1726940419963223800,1.181223876953125,0.4546843804180622,5.420469635984301,1.662035678614676
1726940419973209600,1.191209716796875,0.57578328743577,5.373644756445288,1.372195238916576
1726940419983195600,1.201195556640625,1.083322475206852,5.052510183817148,0.9867860547766089
1726940419993180700,1.2111806640625,1.6660072125941514,4.732218491753936,0.4090437422275543
1726940420003166700,1.221166748046875,1.8412942213952541,4.506066972634196,-0.27136311824321746
1726940420013152500,1.231152587890625,1.9831734661132097,4.609142147183418,-0.68788874065876
1726940420023138800,1.241138916015625,2.526426356822252,5.117270533019304,-0.401537604381144
1726940420033123800,1.251123779296875,3.0418939995050427,5.915134729135036,0.32491467568874355
1726940420043109600,1.261109619140625,2.457557403257489,6.033022272890806,0.9637143912687897
1726940420053095700,1.271095703125,1.820495763516426,5.747592635372281,1.0218626288548112
1726940420063081700,1.281081787109375,1.9715362198114394,5.528862790685892,0.43327305133789773
1726940420073066800,1.291066650390625,2.0702900240302085,4.775289571717381,-0.24266455476433038
1726940420083052500,1.301052490234375,1.821353549389541,3.509916584923863,-1.6123016336306928
1726940420093038600,1.31103857421875,0.9562064998567104,2.201324049606919,-3.1253891520544883
1726940420103023900,1.32102392578125,-0.3306204861149192,1.2786357884705066,-3.89594185513556
1726940420113009700,1.331009765625,-1.1402917321413755,0.9820371066838502,-3.2382553605169058
1726940420122995700,1.34099560546875,-1.5452037813916801,0.8065876007974148,-0.9016105479247868
1726940420132981800,1.350981689453125,-1.8974094918489455,1.249658115789294,1.1036766964495182
1726940420142966800,1.360966796875,-2.5650220449373125,1.6753233224719761,2.1177821353062987
1726940420152952600,1.37095263671875,-3.112351683565974,1.804708411797881,2.137677799126506
1726940420162938600,1.380938720703125,-2.909489854618907,1.3596376628994942,1.0944611243367195
1726940420172924700,1.390924560546875,-1.5855319923877715,0.7024813296347856,-0.32749263641797005
1726940420182909700,1.40090966796875,-0.17536401956006883,0.5264274281144142,-1.167830092734471
1726940420192895700,1.410895751953125,0.5134100525658577,0.3895242182433605,-0.35408962450772524
1726940420202881500,1.420881591796875,2.5100211654663083,-1.6449387056022882,-0.8003495831906795
1726940420212866600,1.430866455078125,4.567516005331278,-3.521489533817768,-1.2553263706840574
1726940420222852600,1.4408525390625,5.124678763449192,-5.330239914482831,-0.4584748587422073
1726940420232838700,1.450838623046875,4.473573985308408,-5.266842670327424,-2.110098741196841
1726940420242824400,1.460824462890625,2.5661913809776307,-4.9681923167079685,-1.1691785116687416
1726940420252809700,1.470809814453125,0.8330195345185697,-4.55408310778439,-1.0990066588118672
1726940420262795800,1.480795654296875,-0.24252061624899504,-3.6976959955513475,-2.1454981174886227
1726940420272781600,1.490781494140625,-0.22825477500930427,-2.629115162402391,-3.6640775113269686
1726940420282768000,1.500767822265625,0.21749343475922941,-1.6953917125105857,-3.1459421107396484
1726940420292752600,1.510752685546875,0.9223618056610227,-1.760740675255656,-1.9421990661680697
1726940420302738700,1.52073876953125,2.2016180641174317,-0.03753273505866527,0.13803630555421112
1726940420312724500,1.530724365234375,1.7716864321619272,3.658527768245339,2.03511349670887
1726940420322710800,1.540710693359375,0.47714784889966244,3.0544220571666956,1.276197747668624
1726940420332695800,1.55069580078125,0.32385786011219025,3.062570876830816,0.8947259029775857
1726940420342681300,1.560681396484375,2.167402198521793,2.6483225516974924,-1.7354057429909706
1726940420352667400,1.57066748046875,7.245337038713693,-5.252634112232923,-15.541195522272586
1726940420362652400,1.58065234375,-1.366279000610113,-3.9200843627452846,12.279191621899605
1726940420372638500,1.590638427734375,0.21537994973659513,3.251294290310144,10.12140568524599
1726940420382624500,1.60062451171875,-1.004178795865178,3.005871669009328,3.235962281143665
1726940420392610600,1.610610595703125,-0.15409458316862581,0.0017845453292131422,-5.331935612484813
1726940420402595600,1.620595703125,0.5061860195964575,-3.2513755388528107,-5.287343606564402
1726940420412581400,1.630581298828125,4.620933415003121,-2.458750996956229,-8.2101301651299
1726940420422567400,1.6405673828125,7.219738487076759,-2.7467712354898453,-5.998015841439366
1726940420432553500,1.650553466796875,2.1488462588727475,0.9152595724403858,2.239057860195637
1726940420442538500,1.66053857421875,-0.9774784204661846,5.279861141854524,6.716251205044984
1726940420452524500,1.670524658203125,-4.392924577578902,7.015282082414626,13.157535129874944
1726940420462510300,1.68051025390625,-5.1994309298336505,8.403741350650787,14.714793798458576
1726940420472495600,1.69049560546875,-0.9611293432116508,10.640438911455869,8.930425968396664
1726940420482481400,1.7004814453125,1.3018231873124837,10.839556293177605,4.442568021669984
1726940420492467500,1.710467529296875,0.7372229726701974,7.853638447916508,-0.4300345078080892
1726940420502453500,1.72045361328125,0.016364859345555306,3.70980465875715,-2.7206886997282504
1726940420512438500,1.7304384765625,0.17597382202148437,0.15251535115316509,-5.269744236987829
1726940420522424600,1.740424560546875,1.5666455056101083,-2.245681662249565,-9.478136423036455
1726940420532410400,1.750410400390625,1.5580220541715621,-4.082345008973777,-10.44252096865177
1726940420542396700,1.760396728515625,1.8377941043198107,-4.068429296346008,-8.214190254175662
1726940420552381400,1.77038134765625,1.74372465852499,-2.533372230437398,-5.053287013408541
1726940420562367500,1.780367431640625,1.2623118456572293,-1.3692292287178336,-2.0432477033257483
1726940420572353300,1.790353271484375,0.5941331831187009,-1.0572005572829395,-0.48474108050763604
1726940420582339600,1.800339599609375,-1.1101128669768572,-1.3460082198671997,0.08784078053832053
1726940420592324600,1.81032470703125,-4.664328027832508,2.0235593986459075,3.2789649720460177
1726940420602310400,1.820310302734375,-4.041798771312832,0.5857118301235139,2.5212276191353795
1726940420612296400,1.83029638671875,-4.126422927892208,-3.4724849721521136,-2.258975443586707
1726940420622281500,1.840281494140625,-4.085917314502597,-4.962843941417336,-5.410230566042661
1726940420632267500,1.850267578125,-3.434024600854516,-4.723921788051724,-7.637193499296903
1726940420642253300,1.86025341796875,-2.4673884769201275,-3.7025659396752713,-7.464750774011016
1726940420652239600,1.870239501953125,-0.8140601286351681,-5.592166511338949,-7.8694889279991385
1726940420662224600,1.880224609375,0.7867693861275911,-7.5651161050796505,-8.907338522797822
1726940420672210400,1.89021044921875,2.836822093293071,-6.526840978345274,-7.554843132868409
1726940420682196500,1.900196533203125,7.023688676232099,-4.238787032051384,-5.822994790098071
1726940420692182500,1.9101826171875,9.515860881274937,-1.4601359726980327,-2.5011416934400796
1726940420702167600,1.92016748046875,9.696392804992199,-1.855235068464279,1.5657465109437703
1726940420712153300,1.9301533203125,7.934191409534216,-1.1705687969833611,2.1877251478433606
1726940420722139400,1.940139404296875,5.834471877402067,-0.588058831641078,1.519496800944209
1726940420732124700,1.950124755859375,5.419833091646432,-2.2148387802183627,1.9050614679068325
1726940420742110500,1.9601103515625,5.411752661043405,-3.548430732235312,0.9404735086739062
1726940420752096500,1.970096435546875,5.543187084114551,-2.6953023295372724,-0.24732173292040824
1726940420762082300,1.980082275390625,5.3985769531279795,0.4228429888688028,0.13772797025740147
1726940420772067600,1.990067626953125,4.317154758584499,3.7909278214782476,-0.6341869610875844
1726940420782053400,2.000053466796875,2.540844466014206,6.945347545444965,-0.5329238043963909
1726940420792039400,2.010039306640625,0.6228226865082979,7.383589909628033,4.4946436613440515
1726940420802025500,2.020025390625,-4.141844076646864,7.156815874695777,9.113993314287066
1726940420812010500,2.030010498046875,-2.9902763327315447,8.541649353650211,10.017145684826373
1726940420821996500,2.03999658203125,-0.3913897198542952,8.643774680128693,7.622524922475218
1726940420831982300,2.049982421875,-1.9079861231818793,5.283119266867637,0.20414719258248804
1726940420841968600,2.05996875,-4.364102972242236,0.7475836962301283,-8.213645479774474
1726940420851953400,2.069953369140625,-5.8823167476385825,-2.7287656231999398,-13.16561906760931
1726940420861939500,2.079939453125,-6.020348669278621,-5.15715304607451,-13.304550568437575
1726940420871925200,2.08992529296875,-3.8676699926361437,-5.184632589152455,-6.068903149089217
1726940420881911600,2.09991162109375,1.089404133208096,-0.9671803868789225,1.99193837184906
1726940420891896600,2.109896484375,4.877182550744712,2.254229856494814,5.664822582226991
1726940420901882400,2.11988232421875,6.358708517473936,2.550345284809172,7.322124510318041
1726940420911868400,2.129868408203125,5.7558770641148085,2.4539739918127657,8.045684868338704
1726940420921853400,2.139853515625,2.6789941688150165,3.1135002690792084,8.200771969676017
1726940420931839500,2.149839599609375,0.3005122019685805,3.285657163161039,8.405051848727464
1726940420941825300,2.1598251953125,-0.7999871796190738,4.3925481454819435,6.474949463066459
1726940420951811600,2.1698115234375,-2.390367488820851,6.286344123008847,2.8696652092307806
1726940420961796600,2.179796630859375,-2.9016110840678215,6.46379386280179,0.6975222459226846
1726940420971782400,2.189782470703125,-1.5939210505485533,6.3358291616678235,-0.872733266878128
1726940420981768400,2.1997685546875,-1.0981459503293036,6.258831262183189,-2.0410428867578507
1726940420991754500,2.20975439453125,0.5604068546056747,5.675125365054607,-2.464566405236721
1726940421001739500,2.219739501953125,0.6632113955199718,5.746537573361397,-1.5025298840522765
1726940421011725300,2.229725341796875,2.2721990822970866,5.441444034951925,0.8329343404531478
1726940421021711400,2.23971142578125,3.3724224234223366,4.254296735872328,3.3830355873733757
1726940421031697400,2.249697509765625,2.350316341200471,0.29118513230532406,1.2097715110808611
1726940421041682400,2.259682373046875,-1.5508219135344028,-2.9186943208158014,-7.461950329637527
1726940421051668500,2.26966845703125,-5.0174248419106,-3.9133874954551455,-13.519563438427447
1726940421061654500,2.279654541015625,-6.561964314174651,-4.935004917377233,-11.577445036280155
1726940421071639600,2.2896396484375,-5.512403823316097,-4.126043865446746,-6.718596306866407
1726940421081625300,2.299625244140625,-2.996421703618765,-2.9177465185716747,-2.78365164411962
1726940421091611400,2.309611328125,-1.37359122331962,-2.581971718433499,-2.6273639348208904
1726940421101597400,2.319597412109375,0.046387218774110076,-2.2202584671795367,-1.2474772646188734
1726940421111582500,2.32958251953125,1.598115141237527,-1.80638891223073,0.060818333578109736
1726940421121568500,2.339568603515625,2.6547528770059348,-1.969524587728083,0.07363280696570873
1726940421131554300,2.34955419921875,2.7279952233493328,-1.7543372379541395,1.3826397683024405
1726940421141540600,2.35954052734375,2.9224820226609705,-1.6568898401588201,2.4977824461400506
1726940421151525400,2.369525390625,2.929243187358975,-1.7570365600407123,3.047836249035597
1726940421161511400,2.379511474609375,1.974218590763211,-1.8146888308033347,2.9398750560104845
1726940421171497500,2.38949755859375,0.9593623335391283,-1.8592483957588672,2.2458131796747445
1726940421181483500,2.3994833984375,0.05242638934049755,-1.893861443978548,1.1716256125599145
1726940421191468500,2.409468505859375,-0.45013270846307274,-2.0034291954174637,-0.45422786882221694
1726940421201454300,2.419454345703125,-0.7335995945412666,-2.090432940609753,-1.1385872663110495
1726940421211440600,2.429440673828125,0.002468435940146446,-2.067448955385387,-0.5026543383389711
1726940421221426400,2.439426513671875,0.3259458453673869,-2.3242717993617057,0.08326046701073646
1726940421231411500,2.449411376953125,-0.1640039827644825,-2.5597791758477686,0.24409283400177953
1726940421241397500,2.4593974609375,-0.46016544217765326,-2.501344522535801,0.5893710832834244
1726940421251383600,2.469383544921875,-0.46125959408991035,-2.2733804010361434,0.9054279142558574
1726940421261368600,2.47936865234375,-0.7786591449081898,-2.051793705613911,0.8709393691986799
1726940421271354400,2.489354248046875,-0.990431352476403,-1.3702128329277037,0.554214429706335
1726940421281340400,2.49934033203125,-0.7209335166484117,-0.5948740646138787,0.4175298310220241
1726940421291326500,2.509326416015625,-0.5600122292649,-0.15574235037565232,0.2644032161027193
1726940421301311500,2.5193115234375,-0.3152407653491944,0.052147828127443785,0.17971183950603006
1726940421311297500,2.529297607421875,-0.09929375631436704,0.16456483151763676,-0.07990472684204578
1726940421321283300,2.539283447265625,0.28035248038470745,0.17167875517606734,-0.31584698761403557
1726940421331269400,2.549269287109375,0.6858014129906892,0.10903671330213546,-0.3007575550317764
1726940421341255200,2.559255126953125,0.7873251203142106,0.027122692464292046,-0.191418643912673
1726940421351241500,2.569241455078125,0.5931869883097708,-0.018355740901827813,-0.1276619187951088
1726940421361227300,2.579227294921875,0.5251666143983602,-0.0825660550057888,-0.06290916837751866
1726940421371212300,2.58921240234375,0.43608898554146286,-0.1459934020385146,0.034226094728708266
1726940421381198000,2.599197998046875,0.24980901969149708,-0.168327983443439,0.15384908397495745
1726940421391184400,2.609184326171875,0.21274097953513263,-0.15398673887997866,0.5161807593882084
1726940421401170200,2.619170166015625,0.3715349725663662,-0.06941928092390298,1.0121025746017693
1726940421411155200,2.6291552734375,0.6166074652552604,-0.03290858238935471,1.2160539523512124
1726940421421141500,2.6391416015625,0.8202233274400234,-0.2134752851590514,1.03138595174253
1726940421431127300,2.649127197265625,0.9326789092749357,-0.5592644065722823,0.5208727165967225
1726940421441113300,2.65911328125,0.9590819091625511,-0.9005383886486291,-0.07046937449872494
1726940421451098000,2.66909814453125,0.9087059130132198,-1.092548568713665,-0.5620037684082985
1726940421461084400,2.67908447265625,0.9262292947441338,-0.8780772582545876,-0.6334954716920852
1726940421471070200,2.6890703125,0.7778969283640385,-0.4811088614851236,-0.6597837591588497
1726940421481056300,2.69905615234375,0.6962567560315132,-0.22355273479819296,-0.6358376509040594
1726940421491041300,2.709041259765625,0.7540875982314348,-0.25435762290656566,-0.5514893886566162
1726940421501027300,2.71902734375,0.9655997666239738,-0.48847033016383645,-0.26587913387417794
1726940421511013400,2.729013427734375,1.029365844091773,-0.8193342696458101,-0.06344634399414062
1726940421520999200,2.738999267578125,0.8202206970915198,-1.1063581906184554,-0.38718203903138637
1726940421530984400,2.748984375,0.4769637245044112,-1.1611503957748412,-0.6486912872582674
1726940421540970200,2.75897021484375,0.21500877833664417,-0.9626011693298816,-0.5570049372076988
1726940421550956300,2.768956298828125,-0.09418152786716819,-0.47465194043070075,-0.369504343521595
1726940421560941300,2.77894140625,-0.24614494422599673,-0.0014949147328734396,-0.26589433144330976
1726940421570927400,2.78892724609375,-0.13840776921510695,0.3384484032616019,-0.16487375133633614
1726940421580913400,2.798913330078125,-0.036057986330986024,0.6177703715547919,0.1532546252131462
1726940421590899200,2.808899169921875,0.09567746551334858,0.8168512206584214,0.2625473591029644
1726940421600884200,2.81888427734375,0.21941344303637741,0.79883800958395,-0.12195230897665023
1726940421610870300,2.828870361328125,0.5728814285144209,0.8294146418944001,-0.7900397861003875
1726940421620856300,2.838856201171875,0.2245440839231014,0.8257225093781948,-0.6462725356787443
1726940421630842000,2.848842041015625,0.04846797057092189,0.843558902581036,-0.21959259899556635
1726940421640827100,2.8588271484375,0.03999240317046642,0.8861991899117827,0.07509060455858707
1726940421650813400,2.8688134765625,-0.05048398656845093,0.9063912063300609,0.31510815194547176
1726940421660799200,2.87879931640625,-0.1883200933754444,0.9744126031547784,0.4288257165402174
1726940421670784300,2.8887841796875,-0.44368338619321585,0.9964607688337563,0.3837292682290077
1726940421680770300,2.898770263671875,-0.6634568947136402,1.0193643822982907,0.42324645510315895
1726940421690756400,2.90875634765625,-0.7072989590495824,0.8679206058993935,0.48411447304189203
1726940421700742100,2.9187421875,-0.5592328423902392,0.4862830492526293,0.4940016608059406
1726940421710727200,2.92872705078125,-0.1356347973704338,-0.03480652496516704,0.6292664558202028
1726940421720713500,2.93871337890625,0.0715013478949666,-0.4008195192396641,0.5009019417136907
1726940421730699300,2.94869921875,0.054555473791062827,-0.708015875147283,0.13566402346491813
1726940421740685300,2.958685302734375,-0.17540654352754353,-0.9702005384176969,-0.28733517887890336
1726940421750670000,2.968670166015625,-0.4937821728363633,-0.8877072563871741,-0.5170055197745561
1726940421760656400,2.978656494140625,-0.7461635272338986,-0.6160337570205331,-0.5584995596796274
1726940421770642200,2.98864208984375,-0.8954141775026917,-0.2686667187660932,-0.4886585462123155
1726940421780628200,2.998628173828125,-0.7483458397090434,-0.023446926560997963,-0.3577677284985781
1726940421790613200,3.00861328125,-0.5026534615561365,0.06482026269584894,-0.22733108429312704
1726940421800599300,3.018599365234375,-0.25107085632085796,0.09434241751730442,-0.02293371634185314
1726940421810585300,3.02858544921875,0.0975955740943551,0.011593407160043716,0.14421324062347413
1726940421820570000,3.038570068359375,0.4118593841701746,-0.1328176941230893,0.41805239359140395
1726940421830556400,3.048556396484375,0.5719499928832054,-0.13271072661727665,0.70206281196177
1726940421840542200,3.058542236328125,0.6564718581318855,-0.10247428604662417,0.8908119444042444
1726940421850528300,3.0685283203125,0.6813491097569465,0.042213001829385755,1.0935714820206164
1726940421860513300,3.07851318359375,0.5211731608480215,0.18656798901110885,1.1421738926261662
1726940421870499300,3.088499267578125,0.4747188681870699,0.19532851083278654,1.1412737289160488
1726940421880485400,3.0984853515625,0.585464723494649,0.2894087702825665,1.1875205163061617
1726940421890471200,3.10847119140625,0.7165513560414314,0.19600041874498128,0.9467162024557589
1726940421900456200,3.118456298828125,0.6992375254079699,-0.10376432585716247,0.4451502438753843
1726940421910442200,3.128442138671875,0.6007897183984517,-0.5915221238374709,-0.2758323726117611
1726940421920428300,3.13842822265625,0.4256874185144901,-1.0883853115543722,-1.1825485731124876
1726940421930414000,3.1484140625,0.14330606265068052,-1.3803928661584852,-1.7634885126590727
1726940421940399000,3.158399169921875,-0.09689122521728277,-1.4850176082372664,-1.8497756340146063
1726940421950385400,3.168385498046875,-0.3921516441375017,-1.3764268851369619,-1.59306940215528
1726940421960371200,3.17837109375,-0.8421937517076731,-1.3399910054042934,-1.2739227884739637
1726940421970356200,3.188356201171875,-1.0538020739510654,-1.295049163132906,-0.8031687322646379
1726940421980342300,3.19834228515625,-1.036523899152875,-1.2529814149931073,-0.36206396438777444
1726940421990328300,3.208328369140625,-0.8975088116943836,-1.1792384256511925,0.06258417420685292
1726940422000314000,3.218314208984375,-0.9633569561332463,-1.2085828858181833,0.1013099184423685
1726940422010299100,3.228299072265625,-1.0552867595508695,-1.2252867678597568,0.16301789433658123
1726940422020285400,3.238285400390625,-0.8455287413492798,-1.1819900624468922,0.489649895337224
1726940422030271200,3.248271240234375,-0.40514088957011696,-0.9671005265757441,0.9404308385759591
1726940422040257300,3.25825732421875,0.12731120566129683,-0.6856994139209389,1.3493103301525116
1726940422050242300,3.2682421875,0.6117781454026698,-0.41771541672199963,1.4459657007873057
1726940422060228400,3.278228271484375,0.8958993306711316,-0.35872225274443625,1.3242419398695229
1726940422070214100,3.288214111328125,1.1096548940762876,-0.2976113659605384,1.2450719570428133
1726940422080199200,3.29819921875,1.1916340891048312,-0.21974252886027096,0.9823673615515232
1726940422090185200,3.308185302734375,1.1909288634449242,-0.2661354467228055,0.6601046616762876
1726940422100171300,3.318171142578125,1.072535123732686,-0.323763167566061,0.2722849092632532
1726940422110157300,3.3281572265625,0.9102443746268749,-0.4277168785154819,0.11943126606643199
1726940422120142300,3.338142333984375,0.7721656912356615,-0.5188713136464357,0.1785866348683834
1726940422130128400,3.34812841796875,0.6949722691789268,-0.4617857368558645,0.3704588677674532
1726940422140114400,3.358114501953125,0.5668585149630904,-0.4004270127907395,0.49220133338570593
1726940422150100200,3.368100341796875,0.45236207495033737,-0.35703590709269045,0.526589925199747
1726940422160085200,3.378085205078125,0.22582477138340473,-0.40665392448157067,0.37270284730195996
1726940422170071300,3.3880712890625,-0.09175415458977222,-0.4028460566312074,0.22592472462654112
1726940422180057300,3.398057373046875,-0.49275312204957006,-0.426618269623816,0.014973112726211548
1726940422190042400,3.40804248046875,-1.0639394370839,-0.49602410654425616,-0.4127420122236013
1726940422200028200,3.418028076171875,-1.6541700598061084,-0.5483262484505772,-0.8904507098764181
1726940422210014500,3.428014404296875,-2.3217302981853485,-0.4565539736822247,-1.2458926257759333
1726940422220000300,3.438000244140625,-3.012132482969761,-0.20149258642047643,-1.4605086054027079
1726940422229985300,3.4479853515625,-3.31219445695281,0.2508230190396309,-1.5193635299533605
1726940422239971300,3.457971435546875,-2.9046500133723017,0.8029965905681252,-1.1686264307439327
1726940422249957400,3.467957275390625,-2.2766829497128724,1.4024109289601445,-0.8132932359158992
1726940422259943200,3.477943115234375,-1.55955525508821,1.7217726466968655,-0.5227642294317484
1726940422269928200,3.48792822265625,-1.0676444290816782,1.9179051673889158,-0.2899275334596634
1726940422279914500,3.49791455078125,-1.0613567271143198,1.9665137154743073,-0.4763192891210317
1726940422289900300,3.507900390625,-1.0570955625385046,1.8372163044318555,-0.8773135804057121
1726940422299885300,3.51788525390625,-0.7706874353766441,1.7629840702682733,-0.8649789994895458
1726940422309871000,3.52787109375,-0.4076069874227047,1.6830331661969422,-0.7526718862146139
1726940422319857400,3.537857421875,0.2745499315857887,1.4672759075805544,-0.2946358572810888
1726940422329843200,3.54784326171875,1.0505939255595207,1.3117284952551125,0.42000235861539836
1726940422339828200,3.557828125,1.664165384119749,1.2070698509067297,0.8136655763596295
1726940422349813200,3.567813232421875,2.033530026909709,1.0321750562936067,1.0881816056758165
1726940422359799300,3.57779931640625,2.283092232233286,0.5921411325186491,1.176548455914855
1726940422369785300,3.587785400390625,2.4800556507915257,0.13427023101896046,1.1450777973741293
1726940422379770400,3.597770263671875,2.5902123080343005,-0.27070231624692676,0.9417489354372024
1726940422389756400,3.60775634765625,2.5091911443829535,-0.8486272918865084,0.5160258610874414
1726940422399742500,3.617742431640625,2.3539731101423502,-1.5420558387547731,0.23676526759266853
1726940422409728300,3.627728271484375,2.221418158608675,-2.510163204285502,-0.0011339724659919738
1726940422419713300,3.63771337890625,2.130450185960531,-3.7287089734524486,-0.326845936012268
1726940422429699300,3.64769921875,1.8981664476960896,-4.207837474775314,-0.6646627633720636
1726940422439685400,3.657685302734375,1.3060183009147643,-4.369375944209098,-1.2987217141658067
1726940422449670400,3.66767041015625,0.5283867454886436,-4.473804286932945,-2.02963009686172
1726940422459656200,3.67765625,0.35504970171153544,-5.063002936258912,-2.250450191825628
1726940422469642500,3.687642578125,-0.12378887675404548,-4.988561735519767,-2.4082851305663584
1726940422479628300,3.697628173828125,-0.9729144735515117,-2.838507269901037,-1.768426553583145
1726940422489613300,3.70761328125,-1.4250626134902238,-0.3328071825042367,-1.383582602110505
1726940422499599000,3.71759912109375,-2.013962572130561,1.6493679202213882,-0.981854735854268
1726940422509585400,3.72758544921875,-2.197716965025663,3.260827257809043,-0.2563625329881906
1726940422519571200,3.7375712890625,-1.7605314164191483,4.169380026087165,0.19699732082784174
1726940422529556200,3.74755615234375,-1.514468743649125,5.034152689349651,0.7849298957407475
1726940422539542500,3.75754248046875,-1.2035638886123894,5.65762536419928,0.9755167650043964
1726940422549528300,3.7675283203125,-1.223348785534501,5.710792306241393,0.5323877978235483
1726940422559513300,3.777513427734375,-1.1175327878445387,5.197264691710472,0.6521382128417491
1726940422569499100,3.7874990234375,-0.9558686462044715,3.848471663430333,0.5787549967229366
1726940422579485400,3.7974853515625,0.03466214805841446,2.2736223930984734,0.5510837304651737
1726940422589471200,3.80747119140625,0.7764888151317835,1.5423285182163118,0.8107447204768657
1726940422599456300,3.817456298828125,1.3137328208148478,1.1057549640282989,0.6966770272701979
1726940422609442300,3.8274423828125,1.6918892573475837,0.9641023676730692,0.8529606449156999
1726940422619428400,3.837428466796875,1.874584496578574,0.7325583418600261,1.0158850157499313
1726940422629414400,3.847414306640625,1.6004758790194988,0.24170374690815805,0.808709415256977
1726940422639399200,3.857399169921875,1.034884315252304,-0.3240568898156285,0.3950947118520736
1726940422649385200,3.86738525390625,0.49002983456552024,-0.6866632905170321,0.025790859338641167
1726940422659371300,3.877371337890625,0.2970446719884872,-0.9622223991453647,-0.3200765880078077
1726940422669356300,3.887356201171875,0.09979133057296276,-1.0932464878499508,-0.7750000378787517
1726940422679342300,3.89734228515625,-0.22766718437969682,-0.9337705039039254,-1.067162198522687
1726940422689328400,3.907328369140625,-0.47572249227166175,-0.7251333064258099,-1.2348556834548712
1726940422699314400,3.917314453125,-0.8220949665307998,-0.6543275395795702,-1.5002496641606091
1726940422709299200,3.92729931640625,-1.1142781699627637,-0.5598085964515805,-1.5090870506107805
1726940422719285200,3.93728515625,-1.1528192052811383,-0.6296764979258179,-1.1570207486242055
1726940422729271300,3.947271240234375,-0.6708002432137727,-0.846477712637186,-0.6972422599375248
1726940422739257300,3.95725732421875,-0.04209843553900718,-0.8523296535357833,-0.0006394669473171234
1726940422749242400,3.967242431640625,0.2078004543930292,-0.9115285692185163,0.3494464748769998
1726940422759228200,3.977228271484375,0.03515782262086868,-1.1833797632396221,0.21849428236484525
1726940422769214500,3.98721435546875,-0.23516718474626538,-1.4634355987653136,0.04001812213361263
1726940422779199500,3.997199462890625,-0.6695663175046443,-1.575066420213878,-0.20811609621345994
1726940422789185300,4.007185302734375,-1.0279717593848705,-1.3890288848176597,-0.32516368201375007
1726940422799171300,4.01717138671875,-1.2891028219491243,-0.73382397788167,-0.31976094618737694
1726940422809157400,4.027157470703125,-1.2541940056532621,0.20766046140044928,-0.12171557761132716
1726940422819142400,4.037142333984375,-1.0255021544009446,1.1751245605915783,0.15145254422724247
1726940422829128200,4.047128173828125,-0.6605237638711929,1.964063984234631,0.33885376919209953
1726940422839114500,4.057114501953125,-0.20252280625104904,2.381403553381562,0.418014984190464
1726940422849100300,4.067100341796875,0.1841594665646553,2.5192843761131165,0.29513503897488114
1726940422859085300,4.077085205078125,0.517100796842575,2.3553993435531853,0.15746785899400711
1726940422869071400,4.0870712890625,0.47802784660458564,1.930451052968204,-0.12560206365585327
1726940422879057400,4.097057373046875,0.36317397145628927,1.4107640390247105,-0.3844757026821375
1726940422889042400,4.10704248046875,0.2585872233003378,0.8059905116870999,-0.5599608644038438
1726940422899028200,4.1170283203125,0.32418226976096626,0.1859983724296093,-0.5809148051053286
1726940422909014300,4.12701416015625,0.4749316341549158,-0.08354805178046226,-0.4081956009656191
1726940422919000300,4.137000244140625,0.4250549658298492,-0.06893325097262859,-0.3273351808339357
1726940422928985300,4.1469853515625,0.41681437622904777,0.1116319904923439,-0.30411387972235676
1726940422938971400,4.156971435546875,0.41237317891120906,0.2941591796800494,-0.35573125423491
1726940422948957400,4.16695751953125,0.4725169742286205,0.3083440646380186,-0.36535248453915115
1726940422958943500,4.176943603515625,0.5056920985996722,0.17207155388593673,-0.4561982921123504
1726940422968928300,4.18692822265625,0.5933072536885738,-0.031055940259993073,-0.6485019021660089
1726940422978914300,4.196914306640625,0.7556079396665096,-0.3078235478952527,-0.6167664552092552
1726940422988900400,4.206900390625,0.982880571770668,-0.44054917982071634,-0.5192407314807176
1726940422998885400,4.216885498046875,1.097112515628338,-0.5770519921973347,-0.2655658301413059
1726940423008871400,4.226871337890625,1.178228956347704,-0.5605564922094345,0.11520575732588767
1726940423018857200,4.236857177734375,1.0057190110445022,-0.3703139063388109,0.4298328477561474
1726940423028843500,4.246843505859375,0.5047872587144374,0.08615122001618146,0.5271802923083305
1726940423038828300,4.256828369140625,-0.13259469902217388,0.5715516412153839,0.5198983186066151
1726940423048814300,4.266814453125,-0.7033680493414401,0.9982596349492668,0.3652858490437269
1726940423058800000,4.276800048828125,-0.9601356559991836,1.1026160814806818,0.03418926984965801
1726940423068785400,4.286785400390625,-0.8811024512946605,0.7551826999917626,-0.4034668188780546
1726940423078771500,4.296771484375,-0.5361106177389622,0.1428663560591638,-0.7179810965836048
1726940423088757200,4.30675732421875,-0.19964578951001166,-0.537762330468744,-1.0131441926091909
1726940423098743600,4.31674365234375,0.04431026636958122,-1.0791009119890629,-1.0785936931192874
1726940423108728300,4.326728271484375,0.1334030927956104,-1.397186180049181,-1.022149921363592
1726940423118714400,4.33671435546875,0.026834815433621404,-1.0640767997279763,-0.7633388261795043
1726940423128700200,4.3467001953125,-0.21206512610018252,-0.2756936947934329,-0.32877602729201316
1726940423138686500,4.3566865234375,-0.48683951409161086,0.5963381458170711,-0.023686580535769462
1726940423148671500,4.36667138671875,-0.6282891352206468,1.2670927963234484,0.13430910172462462
1726940423158657300,4.3766572265625,-0.4664133966565132,1.3557406554609537,0.08283318150937556
1726940423168643300,4.386643310546875,0.053685412958264345,0.9739889709152281,0.0021469489008188246
1726940423178629400,4.39662939453125,0.5304442625403404,0.6264497909642756,-0.13181903847455978
1726940423188614400,4.406614501953125,0.6369768840670585,0.32278526244461536,-0.30345453903079034
1726940423198600200,4.41660009765625,0.5303635985195636,-0.05040332254767418,-0.513059412497282
1726940423208586200,4.426586181640625,0.5156944371759892,-0.47131592787578697,-0.5381845014035701
1726940423218571500,4.436571533203125,0.4649754728078842,-0.8101942469872534,-0.4883990184932947
1726940423228557300,4.446557373046875,0.23085224415659902,-0.915175109027326,-0.5069675253629684
1726940423238543400,4.45654345703125,0.16472995895147322,-0.7919885820806026,-0.4111030128449201
1726940423248529400,4.466529296875,0.27393852168917654,-0.5827846906304359,-0.24922552071511744
1726940423258514400,4.476514404296875,0.7611193965643643,-0.37598172284215686,0.07825579059123992
1726940423268500200,4.486500244140625,1.2838894712150095,-0.15602672027498482,0.30299861195683475
1726940423278486300,4.496486328125,1.6005553739964962,-0.11000424316003918,0.37584991315603256
1726940423288472300,4.506472412109375,1.7832330775707959,-0.16272461047843098,0.30363574081659317
1726940423298457300,4.516457275390625,1.6921347565412521,-0.2861411467887461,0.0352963543087244
1726940423308443400,4.526443359375,1.20259299775362,-0.3555626196697354,-0.32542145616710183
1726940423318429200,4.53642919921875,0.6945370926320552,-0.36862010803297157,-0.6265858384341001
1726940423328414500,4.54641455078125,0.41854865267574787,-0.4189573796071112,-0.7975912243932485
1726940423338400300,4.556400146484375,0.17408815440535544,-0.6053143562160432,-1.0070242484241723
1726940423348387600,4.5663876953125,0.09346446563899516,-1.122162055080384,-1.1658382613301277
1726940423358373600,4.57637353515625,-0.0005173018723726272,-1.6200876113317906,-1.1109627618044615
1726940423368358700,4.586358642578125,-0.23932196633815764,-2.024663122104108,-1.145697390577197
1726940423378344400,4.596344482421875,-0.6152315007269382,-2.036750742521882,-1.0851233871489763
1726940423388330500,4.60633056640625,-0.9672954646259546,-1.382351599010825,-0.8276531851798296
1726940423398315500,4.6163154296875,-1.2639841627836226,-0.40771892336457966,-0.6063789167076349
1726940423408301600,4.626301513671875,-1.3802408904671668,0.40030031767114993,-0.23775661671757697
1726940423418287600,4.63628759765625,-1.1725503261893988,0.778334881389886,0.15403203932642937
1726940423428273400,4.6462734375,-0.7569359733998775,0.8665934489488601,0.5313648845165968
1726940423438258700,4.6562587890625,-0.25583880137503145,0.5770169208839535,0.7354086167246103
1726940423448244500,4.666244384765625,0.09720715929865836,0.1836390959523618,0.8062702054113149
1726940423458230500,4.67623046875,0.0737818600475788,0.10418532774820924,0.808931533575058
1726940423468216300,4.68621630859375,-0.1911608697593212,0.1959210698984563,0.5352870263963937
1726940423478201600,4.69620166015625,-0.4645423420876264,0.22639248826876282,0.05243512063622474
1726940423488187600,4.706187744140625,-0.2988496755838394,-0.03194207544475794,-0.25555939991176124
1726940423498173400,4.71617333984375,0.10137129324078559,-0.5939248010650277,-0.2904074259310961
1726940423508158500,4.726158447265625,0.3855167361676693,-1.146455661598593,-0.30781565684974194
1726940423518144500,4.73614453125,0.3690589378416538,-1.2726732268042862,-0.4496645064294338
1726940423528130600,4.746130615234375,0.3147194448888302,-0.9014343145750463,-0.542308303335309
1726940423538116400,4.756116455078125,-0.033007951110601425,0.2233504902243614,-0.4650941307514906
1726940423548101400,4.766101318359375,-0.9073381317913531,1.8772854261003433,-0.24436229859292505
1726940423558087700,4.776087646484375,-2.0008347950100895,2.983679710945487,-0.15969664095938205
1726940423568073500,4.786073486328125,-2.497681323853135,3.039672816324234,-0.31499475469887256
1726940423578059500,4.7960595703125,-2.840212320253253,2.087965089191496,-0.5574655404567718
1726940423588044500,4.80604443359375,-2.7231442761868236,0.8728623000852763,-0.4164876284927129
1726940423598030600,4.816030517578125,-2.0377116965085267,-0.3445011274293065,-0.008995207360386849
1726940423608016400,4.826016357421875,-1.0728139406740664,-1.2557324672669172,0.5183902521312237
1726940423618001400,4.83600146484375,-0.12757716312110423,-1.7289460454575716,0.7819301294028759
1726940423627987700,4.84598779296875,0.9135217888623476,-1.5081076841846108,0.9182862267851829
1726940423637973500,4.855973388671875,1.3712018439650535,-0.948484088911116,0.8967992021203041
1726940423647959600,4.86595947265625,1.5496493626236916,-0.28611089778095483,0.897206029355526
1726940423657944300,4.8759443359375,1.522204890859127,0.389754519867897,0.6903273659825324
1726940423667930600,4.8859306640625,1.5072890612781047,0.941061537694931,0.5251823964893818
1726940423677916400,4.89591650390625,1.455057354259491,1.2927578373253346,0.17343991962969302
1726940423687902500,4.90590234375,1.253736909535527,1.554189636401832,-0.11827917342185973
1726940423697887500,4.915887451171875,1.4539046770930288,1.662932335193455,-0.14072949016094208
1726940423707873500,4.92587353515625,1.6658067215859889,1.6404820184543727,-0.21907997329831122
1726940423717859600,4.935859619140625,1.6932587921351194,1.2509059238933027,-0.6150123050183057
1726940423727844400,4.94584423828125,1.6721084520787,0.6665845252148807,-1.0855062489867209
1726940423737830700,4.95583056640625,1.5392700074285268,0.17292364067062735,-1.5951193204224108
1726940423747816400,4.96581640625,1.2573837416052818,-0.3611846973352134,-2.095890329232812
1726940423757802500,4.975802490234375,1.2022639119297265,-0.7820904345311224,-2.2677198910564185
1726940423767787500,4.98578759765625,1.222692367452383,-0.9038689943760633,-2.1790572727411983
1726940423777773600,4.995773681640625,1.24034083686769,-0.593816079993546,-1.8144611595273017
1726940423787759600,5.005759521484375,1.2439268786609172,-0.08106427214071155,-1.256364919951558
1726940423797744600,5.01574462890625,1.0284680184692143,0.42042613698542114,-0.8055237709581852
1726940423807730400,5.02573046875,0.8979618161588907,0.7396263805501162,-0.48280982018411156
1726940423817716500,5.035716552734375,0.7790835078001022,0.909694777920097,-0.23471593384742737
1726940423827702500,5.04570263671875,0.5474228698700666,0.8945987694665789,-0.15418869119286535
1726940423837687600,5.0556875,-0.04675765952169895,0.475195107396692,-0.5150894570201635
1726940423847673300,5.06567333984375,-0.6937813058286905,-0.154106419736892,-1.0828022507250308
1726940423857659600,5.07565966796875,-1.0303776514828205,-0.8807361022002994,-1.642885864725709
1726940423867645400,5.0856455078125,-1.0836129825860261,-1.3832095310144126,-2.03183082177639
1726940423877630500,5.09563037109375,-1.0214870735406876,-1.4716031231299043,-2.019917096620798
1726940423887616500,5.105616455078125,-0.874299785542488,-1.0041177133277057,-1.6242594901889562
1726940423897602600,5.1156025390625,-0.6260591842114925,-0.39955344482660293,-1.184172374922037
1726940423907587600,5.125587646484375,-0.3193500272989273,-0.22071400424093007,-0.9685539402544497
1726940423917573400,5.135573486328125,0.014430676412582397,-0.21527795066684483,-0.81161332000494
1726940423927559700,5.1455595703125,0.30570553282797336,-0.1411252114802599,-0.6226251181095838
1726940423937545500,5.15554541015625,0.45021921770274637,0.004151858982443809,-0.45590486212372777
1726940423947530500,5.165530517578125,0.3732628192722797,0.17442717710137368,-0.2861070983886719
1726940423957516500,5.1755166015625,0.24558336482048032,0.26341537410914895,-0.14246785826086997
1726940423967502600,5.185502685546875,0.24059271692633627,0.31794746702462434,-0.022552608069777488
1726940423977487600,5.195487548828125,0.303766673719883,0.26714345472157,0.03045826662778854
1726940423987473400,5.205473388671875,0.4194260200321674,0.06220394271761179,0.011184241837263107
1726940423997459700,5.215459716796875,0.5433335547298193,-0.2273880751773715,-0.005817161846160888
1726940424007445500,5.225445556640625,0.6998404597371817,-0.465145568677783,0.0663537558734417
1726940424017430500,5.235430419921875,0.8937702096879482,-0.4426677794098854,0.08207038044333458
1726940424027416600,5.24541650390625,0.8951321456909179,-0.2676420518934727,-0.18489362605810164
1726940424037402600,5.255402587890625,0.812066324469447,-0.03549596853405237,-0.5424883360773325
1726940424047388700,5.265388671875,0.6200333480507135,0.0939507878512144,-0.9687778121381998
1726940424057373400,5.27537353515625,0.4468810131907463,0.08184650855958461,-1.410737151017785
1726940424067359500,5.285359375,0.360582201397419,-0.16693156064897774,-1.7173820105224846
1726940424077345500,5.295345458984375,0.2942027265608311,-0.5071630479350686,-1.8157710730820893
1726940424087330600,5.30533056640625,0.2707294965147972,-0.6477852783292531,-1.658947357210517
1726940424097316600,5.315316650390625,0.18057225572764873,-0.5960194352567195,-1.4085218130558728
1726940424107302400,5.325302490234375,-0.05478606767654419,-0.5823851699188352,-1.255859893038869
1726940424117288700,5.335288818359375,-0.3742296184778213,-0.47590544762313364,-0.9830267022430896
1726940424127273500,5.3452734375,-0.4696919799357652,-0.3088403237223625,-0.5850239939898252
1726940424137259500,5.355259521484375,-0.4458955092847347,0.00009644611179828643,-0.06577157207131386
1726940424147245600,5.36524560546875,-0.41875323533713815,0.2993736994579434,0.3775584706395864
1726940424157231600,5.375231689453125,-0.17985154023766517,0.5900193180590868,0.7472925312638282
1726940424167216600,5.385216552734375,0.04175181405842304,0.8242235029920935,1.0132201804548502
1726940424177202400,5.395202392578125,0.10441197611093521,1.0814324236765502,0.9977452556863426
1726940424187188700,5.405188720703125,0.2439589784890413,1.1676543708413838,0.7075193238019943
1726940424197173500,5.415173583984375,0.4730927282899618,1.1343927372306584,0.17323446018546818
1726940424207159600,5.42515966796875,0.5906552778750658,1.0341808431580661,-0.3879974470674991
1726940424217145300,5.435145263671875,0.7580366281181573,0.7940873079255223,-0.7381210905537009
1726940424227131600,5.445131591796875,0.8021253606915474,0.4819669396191835,-0.9924380891889333
1726940424237116700,5.45511669921875,0.9359054701060057,0.18593232145607472,-1.1962518120333552
1726940424247102500,5.4651025390625,0.9187824858695268,0.03431289622932672,-1.2845292304232716
1726940424257088500,5.475088623046875,0.9201029208183288,0.09763502932190894,-1.2180576933890581
1726940424267074600,5.485074462890625,0.864967309051752,0.20285861407667397,-1.0581935869082808
1726940424277059600,5.4950595703125,0.8449117784947157,0.3648278761431575,-0.820662303379178
1726940424287045400,5.50504541015625,1.1358587181299924,0.45097588128894567,-0.6562243131116032
1726940424297031700,5.51503173828125,1.4920856469273567,0.41530894010215996,-0.4621507707759738
1726940424307016700,5.5250166015625,1.8148773391127586,0.1983338301286101,-0.27673896606266496
1726940424317002500,5.53500244140625,2.1508090833783147,-0.13032149339318275,-0.01747165154367685
1726940424326988500,5.544988525390625,2.3922125321656464,-0.6044254445523023,0.31437574601769447
1726940424336974600,5.554974609375,2.4875965676903724,-1.1296259612202644,0.45454760229587554
1726940424346959000,5.564958984375,2.3569658622175456,-1.6362728763267398,0.25825872199833394
1726940424356945200,5.574945068359375,1.7899696923494337,-1.8806430659651756,-0.17508797909766435
1726940424366931200,5.58493115234375,1.1113584831237793,-2.055088070984185,-0.6034241585552692
1726940424376916200,5.594916259765625,0.5839046345710754,-1.7946084580659865,-0.9678621585980057
1726940424386902000,5.604902099609375,0.09319675461351871,-1.085502449594438,-1.058930084489286
1726940424396888300,5.614888427734375,-0.30809038213789464,0.020012275937199592,-0.9191837601467967
1726940424406874000,5.6248740234375,-0.544902411481738,1.1085174144789576,-0.7380094468727707
1726940424416859100,5.634859130859375,-0.8272200544595718,2.1522198269590733,-0.6090896369710564
1726940424426845200,5.64484521484375,-1.2702654350101947,2.8198411478757857,-0.6616551059886813
1726940424436831200,5.654831298828125,-1.6903414433836936,3.043378100582957,-0.6017834056109189
1726940424446817300,5.6648173828125,-1.615826592886448,3.1102228548437356,-0.32933161534816024
1726940424456802000,5.674802001953125,-1.468240660959482,3.0425135927081106,0.01768558655530214
1726940424466788000,5.6847880859375,-1.3691004877716302,2.8356448662072418,0.26916765402555465
1726940424476774100,5.694774169921875,-1.1135463485568762,2.5536837815821167,0.5760699954226612
1726940424486759200,5.70475927734375,-0.782450353884697,2.3036752937957643,0.8573670631811022
1726940424496745200,5.7147451171875,-0.34296354259848594,1.9114087911069393,1.1713999871104954
1726940424506731300,5.724731201171875,-0.11014029062986373,1.252959203161299,1.2314382762268186
1726940424516717300,5.73471728515625,-0.21000351739525794,0.4061933212324977,0.9666703184649348
1726940424526702000,5.7447021484375,-0.32847499851882456,-0.2318720887236297,0.7521446474701166
1726940424536688000,5.754688232421875,-0.09201835848391056,-0.8114943698003888,0.6511676142439246
1726940424546674200,5.764674072265625,0.1551724415332079,-1.1888956040516494,0.8685171104878187
1726940424556659200,5.7746591796875,0.1986123548090458,-1.581416958284378,0.7140279750436545
1726940424566645200,5.784645263671875,-0.13851590576469897,-2.0354960662856696,0.12366057419925927
1726940424576631000,5.794631103515625,-0.16140870557427406,-2.6721944256722927,-0.5771116134300828
1726940424586617300,5.804617431640625,-0.36372868272960185,-3.5490851044908163,-1.4091624490469694
1726940424596602000,5.81460205078125,-0.24478198530972003,-4.158540944425761,-2.0164061658903956
1726940424606588200,5.824588134765625,0.47412265585958957,-4.376459180468321,-2.3834227842494844
1726940424616574000,5.834573974609375,0.849482155150175,-3.9618639415934678,-2.2225129681080578
1726940424626560300,5.844560302734375,0.9993898080229758,-3.41349239269644,-1.9517732424601912
1726940424636545300,5.854545166015625,1.3269430155217647,-3.013508447498083,-1.6233800770059228
1726940424646531000,5.864531005859375,1.37933955771327,-2.6448575059354305,-1.1562351512044668
1726940424656517400,5.874517333984375,0.7281026776254177,-2.017393715623021,-0.6581473901286721
1726940424666502100,5.884502197265625,0.5781079309910535,-1.5607885962754486,-0.19820348174721
1726940424676488200,5.89448828125,0.9244581934183835,-1.3840475892737507,-0.18302286375015972
1726940424686474000,5.904473876953125,1.449172972396016,-1.2746762371897697,-0.28497166461795564
1726940424696460300,5.914460205078125,1.4739830040037631,-1.335288526801765,-0.9437018230706453
1726940424706445300,5.9244453125,1.7684294761925934,-1.1766799733400344,-1.2113316000044345
1726940424716431000,5.93443115234375,1.7836054180145262,-1.1464356417238712,-1.621175260438025
1726940424726417200,5.944417236328125,1.4958318477183579,-1.0974512460634112,-2.0299398934632538
1726940424736402200,5.954402099609375,0.5395633885413408,-1.1125760422199964,-2.4230241422757506
1726940424746388200,5.96438818359375,-0.46019174566268917,-0.9992927773892879,-2.653898013742268
1726940424756374000,5.9743740234375,-0.9500631747961044,-0.6303603885367512,-2.721006387375295
1726940424766360000,5.984360107421875,-0.8360328909903765,0.05607581522613764,-2.4237010186240076
1726940424776345300,5.994345458984375,-0.6996124962002038,0.5687064809173346,-2.246050495561957
1726940424786331100,6.0043310546875,-0.3454617891550064,0.9790081142514944,-1.9508403455242513
1726940424796317200,6.014317138671875,-0.1161503446996212,1.3766761837229131,-1.6194184798985718
1726940424806303200,6.02430322265625,-0.7010363915234804,1.5376967667624353,-1.5778841079831123
1726940424816288300,6.034288330078125,-0.7502513810694217,1.8150410052418708,-1.1501301123276353
1726940424826274000,6.044274169921875,-0.5376157616049051,2.3161937068462373,-0.6191816996574402
1726940424836260000,6.054260009765625,-0.31945173410773275,2.757040700569749,-0.14464549456089734
1726940424846245000,6.0642451171875,-0.2172510043054819,3.2067744728431102,0.6022428398162126
1726940424856231200,6.074231201171875,-0.18290800519883632,3.6079230779066678,1.2326409300148486
1726940424866217200,6.08421728515625,0.09123802176117897,3.6203278014495965,1.5870768837422131
1726940424876203000,6.094203125,-0.10401625479161739,3.4198426385059952,1.669648491705954
1726940424886188300,6.104188232421875,-0.8358861759960651,2.8832997668296096,1.4635712078437209
1726940424896174000,6.114174072265625,-1.161907936143875,2.2853125386312603,1.4634505040735006
1726940424906160000,6.12416015625,-0.10358896929025649,1.7967296880036592,1.245251405262947
1726940424916146000,6.13414599609375,0.7779869447350501,1.2394386273309588,0.5558993140533566
1726940424926131200,6.144131103515625,0.30365386099517344,0.7844982263252138,0.30588293522149324
1726940424936117200,6.1541171875,0.14648936886191366,0.3918637671068311,0.4584373032107949
1726940424946103000,6.16410302734375,0.2984691518336534,-0.12789455850720405,0.1484770355477929
1726940424956088000,6.174088134765625,0.5948433772146702,-0.7530825128421187,-0.44378129360973834
1726940424966074000,6.18407421875,0.6586719985246658,-1.2967527521803974,-1.192999824500084
1726940424976060200,6.19406005859375,0.8266811252772808,-1.7381217239513993,-1.8879466669768095
1726940424986046000,6.2040458984375,1.12527010409832,-1.9748612725809216,-2.3338971213191746
1726940424996031000,6.214031005859375,1.3129653435736894,-1.9348551331460475,-2.776402403643727
1726940425006017300,6.224017333984375,1.1457914986014366,-1.9992197610288858,-3.0908886242985725
1726940425016003000,6.234003173828125,0.39902386799454687,-2.0137091818913815,-3.1464205419063567
1726940425025988000,6.243988037109375,-0.41444472448825836,-1.9985054752796887,-2.542124276691675
1726940425035974100,6.25397412109375,-0.9966238504409789,-1.800764058086276,-1.454874398908019
1726940425045960200,6.263960205078125,-0.9330155938833952,-1.3880547790884972,-0.3043570408284664
1726940425055946000,6.273946044921875,-0.7217115152835846,-0.9480708319351077,0.4951175130933523
1726940425065931000,6.283930908203125,-0.25157003801465033,-0.5899143963798881,1.0474427680522203
1726940425075917300,6.293917236328125,0.36109599613845345,-0.5634735486999154,1.197260989075899
1726940425085903000,6.303903076171875,0.7165694762200117,-0.6388505689844489,1.1679349413484335
1726940425095889200,6.31388916015625,0.9362918390750884,-0.3761304836630821,0.7199819150120019
1726940425105874200,6.323874267578125,1.1406219870090484,0.08348287758976221,0.32055589595735073
1726940425115860200,6.333860107421875,1.3247872987926006,0.4925716280028224,-0.23254092789590358
1726940425125846300,6.34384619140625,1.3628583785116672,0.6242144331276417,-0.7578069110155106
1726940425135831000,6.3538310546875,1.2995973279565571,0.8108432124152779,-0.9758744924008845
1726940425145817000,6.363817138671875,0.9099205494999885,0.6142363522097468,-1.5123188721388579
1726940425155803100,6.37380322265625,0.5522200410187245,0.5523451287031174,-1.5271052301213144
1726940425165789200,6.3837890625,-0.12142857736349105,0.6425698817685246,-0.9412789798378944
1726940425175774200,6.393774169921875,-0.7289870592445135,1.0296551824271678,-0.6354962901204824
1726940425185760300,6.40376025390625,-1.1135995400488377,1.7028016965061425,-0.6746765001252293
1726940425195746300,6.413746337890625,-1.1227999145925045,2.075637814798951,-1.5124460056498645
1726940425205732000,6.423732177734375,-1.032157520636916,2.337100301274657,-1.8941899452805517
1726940425215717000,6.433717041015625,-0.7393214062541723,2.550442023181915,-1.4547861361026764
1726940425225703200,6.443703125,-0.3344815454572439,2.2608897527754306,-0.8675231310144066
1726940425235689200,6.453689208984375,-0.12437106055617332,1.5701520524263382,-0.21021628336310386
1726940425245674200,6.46367431640625,0.1740600973546505,1.0011229154258965,0.2780123469993472
1726940425255660000,6.473659912109375,0.5015256265699863,0.5228589219778775,0.04741583116948604
1726940425265646300,6.483646240234375,0.6035656128525734,0.13207973523736,-0.48491935968399047
1726940425275632000,6.493632080078125,0.5593734199047088,-0.07617576944679022,-0.9986275914788245
1726940425285617200,6.5036171875,0.397471962377429,-0.2053802415087819,-0.9591980828881264
1726940425295603200,6.513603271484375,0.13537410060763358,-0.19469459684342144,-0.22233634474575517
1726940425305589200,6.52358935546875,0.03834112883210182,-0.10179477934986353,0.17810557335317134
1726940425315574300,6.53357421875,0.33868834949731824,-0.13918898272067307,0.06363339099884033
1726940425325560000,6.54356005859375,0.5509966367036104,-0.33342911379486323,-0.33631957453936334
1726940425335546400,6.55354638671875,0.36378421230912206,-0.6661375120997428,-0.5811176342010498
1726940425345532200,6.5635322265625,-0.08971709580421447,-0.9009963615491986,-0.23309125525504348
1726940425355517200,6.57351708984375,-1.0095394461154936,-0.9430632329061627,0.3308551716536283
1726940425365503000,6.5835029296875,-1.7116116104274988,-0.7044888700649142,0.7391609549954533
1726940425375489000,6.593489013671875,-1.9157763386666773,-0.456792166352272,0.9767132813125848
1726940425385474000,6.60347412109375,-1.8102853351473807,0.0022387188374996185,0.6936395592704415
1726940425395460000,6.613460205078125,-1.5246744958430527,0.5255509375408292,0.3318196327716112
1726940425405446100,6.623446044921875,-0.8081599646806716,0.8472706165805458,0.20094985784590244
1726940425415432000,6.633431884765625,0.043996378114819525,1.0322779321461915,0.11409311990886926
1726940425425417200,6.643417236328125,0.633624651029706,1.3647484300419688,0.12539806551635266
1726940425435403000,6.653403076171875,0.5338537787228822,1.5747767896175384,0.13677023114115
1726940425445389000,6.66338916015625,0.8584872993826865,1.797386398346722,0.09875818813294172
1726940425455374800,6.673374755859375,1.0814262861967086,1.909754886420071,0.096349957947433
1726940425465360100,6.683360107421875,1.1497580641448497,1.7573115775898098,-0.059833121933043
1726940425475346200,6.69334619140625,0.9262439077913761,1.4353677344053983,-0.10888532213270663
1726940425485332000,6.70333203125,0.28418635945916176,1.0491431422293185,0.10283639735728502
1726940425495317000,6.71331689453125,-0.7324889298856258,0.6303036899134516,0.06509966415911912
1726940425505303000,6.723302978515625,-1.686651941215992,0.19290625212192533,-0.028870120653510092
1726940425515289000,6.7332890625,-2.2576894954293967,-0.20210779570937157,-0.01699292811602354
1726940425525275000,6.74327490234375,-2.532337042170763,-0.43604689996540547,-0.11612550251930952
1726940425535260000,6.753260009765625,-2.095578779065609,-0.7191051321774721,-0.406325130918622
1726940425545246200,6.76324609375,-1.246620355528593,-0.9374626364201307,-0.5874690490543842
1726940425555232000,6.77323193359375,-0.3080687548279762,-0.967305986019969,-0.5291004467159509
1726940425565218000,6.783218017578125,0.25054244853258134,-0.6104688163697719,-0.21080109751373527
1726940425575203000,6.793203125,0.35521336784064766,-0.21857845351696012,-0.13697452154159545
1726940425585189000,6.803189208984375,0.6200812788456678,0.11873685406148433,-0.2926820928648114
1726940425595175000,6.8131748046875,0.8081623027682304,0.3861784149467945,-0.47824032031148667
1726940425605160000,6.823159912109375,0.9003601094722747,0.5344949992358684,-0.6577461158514022
1726940425615146200,6.833146240234375,0.9229168091952801,0.7016121455848217,-0.49119858608394856
1726940425625132000,6.843132080078125,0.9813841957330703,1.017567854270339,-0.29754180785566564
1726940425635118000,6.8531181640625,1.114997716408968,1.2497194905877114,-0.18671061235219238
1726940425645103000,6.86310302734375,1.317449210989475,1.481435658097267,0.2707408946916461
1726940425655089200,6.873089111328125,1.6212345894098281,1.3407289642900229,0.005681845028698444
1726940425665075000,6.883074951171875,1.7922230242341757,1.0059037199616432,-0.9186337250486015
1726940425675060000,6.89306005859375,1.5582377427488565,0.7061743389338254,-1.9497595645502208
1726940425685046000,6.9030458984375,0.7960182759881019,0.4696154075682163,-2.780534973403811
1726940425695032000,6.913031982421875,-0.0894108063340187,0.3127870155215263,-2.7622318394720553
1726940425705018000,6.92301806640625,-0.35463527569174763,0.03417641036808491,-1.7796493738651276
1726940425715003100,6.933003173828125,-0.15293898339271544,-0.18766484433710573,-0.5120502354547382
1726940425724989200,6.9429892578125,0.45597558927237986,-0.3332353447884321,0.6077490360170602
1726940425734975000,6.95297509765625,0.8593290109038353,-0.24120003516972063,1.0973790576100348
1726940425744961000,6.9629609375,1.2745745303809641,-0.2445084290653467,1.0371066674768925
1726940425754946000,6.972946044921875,1.1004635796219109,-0.0018792378753423689,1.132761921158433
1726940425764932000,6.98293212890625,0.14933248333334923,0.31489012528061866,0.9514736261159181
1726940425774918100,6.992918212890625,-0.43969782368838783,0.8011661602705716,0.675229165571928
1726940425784903200,7.002903076171875,-0.6748866357445716,1.119635897603631,0.08462620240598917
1726940425794889000,7.012888916015625,-0.41050972312688827,1.1912246315211057,-0.5346875991985202
1726940425804875000,7.022875,-0.42165889365077014,1.2472665444776414,-0.8986378157243132
1726940425814861000,7.032861083984375,-0.3620101883739233,1.1874401445463298,-1.0060200398176908
1726940425824846000,7.04284619140625,0.23525135589838025,1.2415703786626457,-0.4426660258442163
1726940425834832100,7.05283203125,0.45221945160925386,1.13156452806741,-0.34283348647803064
1726940425844818200,7.062818115234375,0.3608241934597492,0.8024687673017382,-0.3434749992519617
1726940425854803200,7.07280322265625,-0.15210136352479456,0.5076709974572062,-0.35962475454211235
1726940425864789000,7.0827890625,-0.9921639484226703,-0.4491182707235217,-0.16823241411447523
1726940425874775300,7.092775390625,-1.407460321304202,-1.476989784604311,-0.03316255715042352
1726940425884761000,7.102760986328125,-1.845468292209506,-1.9600386742413043,-0.23923311901092528
1726940425894746000,7.11274609375,-2.4181150351852176,-1.9659090275794266,-0.00008212532550096511
1726940425904732000,7.12273193359375,-2.767823960390687,-1.3659224422574043,1.7574562467575072
1726940425914718200,7.13271826171875,-1.092628648212552,-0.7108683419689535,2.2076778025478125
1726940425924704000,7.1427041015625,-0.5538894355356693,0.0795376470953226,1.6700313535436986
1726940425934689000,7.15268896484375,-0.3744482296645641,0.015240823751688002,0.5344178423464298
1726940425944675000,7.162675048828125,0.12026654784679412,0.008502455407381057,0.34761166066527366
1726940425954661000,7.1726611328125,0.33210078780055047,0.008869827415049075,0.44977205845713614
1726940425964646100,7.182646240234375,0.9615583822786807,0.21986557071805,0.5646224264740943
1726940425974632000,7.1926318359375,1.3475906667530535,0.4516095030173659,0.6605056436926126
1726940425984618200,7.2026181640625,1.3768939181268214,0.5412760376781225,0.6149827866628765
1726940425994604000,7.21260400390625,1.341569506767392,0.4956912213280797,0.530280888672173
1726940426004589000,7.222589111328125,1.4059540083944797,0.548690405587852,0.47519379222244024
1726940426014575000,7.2325751953125,1.1646341462373733,0.47346594551652665,0.07944763072431087
1726940426024561200,7.24256103515625,0.678752079001069,0.11867372569739817,-0.5239709748730064
1726940426034546200,7.252546142578125,-0.07026771444678306,-0.3870654269143939,-1.580687474966049
1726940426044532000,7.262531982421875,-1.1491349638104438,-0.9511834109976887,-2.598672677865624
1726940426054518000,7.27251806640625,-2.2161276509851215,-1.6271797615498302,-3.4613942538172005
1726940426064504000,7.282504150390625,-3.387641035342216,-1.7519985658735036,-3.7748213208079338
1726940426074489000,7.292489013671875,-4.120539715072512,-1.3016206504777073,-2.688048412886262
1726940426084475100,7.30247509765625,-3.3704356335192918,-0.6064277242854237,-1.6515227601677178
1726940426094461000,7.3124609375,-2.90825300630033,0.1240820144817233,-0.8395721710324286
1726940426104447200,7.322447265625,-2.0746616632431745,0.3221700531557202,-0.3414206970706582
1726940426114432000,7.332431884765625,-0.8542635442078113,0.38627018488347525,-0.15100626176446674
1726940426124418000,7.34241796875,0.06737900726795196,0.36425416790843007,-0.07244418170303106
1726940426134404000,7.352404052734375,0.7386813547849654,0.5475456194669008,0.17075053441524504
1726940426144389000,7.36238916015625,1.4664128610104321,0.7800196196064353,0.3123880793318152
1726940426154375200,7.372375244140625,2.082490164911747,1.0246335548728704,0.5400587708428501
1726940426164361000,7.38236083984375,2.5240052671551703,1.3635840624377131,0.7558344418987631
1726940426174347300,7.39234716796875,3.0163737738013268,1.6023995405584572,0.8589429341956972
1726940426184332000,7.40233203125,3.339527869558334,1.6462024419277905,0.970084803083539
1726940426194318000,7.412318115234375,3.4887031165033577,1.6042764403462408,0.8601689688593148
1726940426204304000,7.422303955078125,3.2933272593975067,1.3823568597078322,0.7658005401179194
1726940426214290200,7.432290283203125,3.3075124366164204,1.16629097353369,0.8476303898036479
1726940426224275200,7.442275146484375,3.141585376834869,0.9423360876753926,0.7054620990112423
1726940426234261000,7.452260986328125,2.898678537747264,0.6643497519001365,0.41230625115484
1726940426244247000,7.4622470703125,2.295880402135849,0.10841010583639145,-0.23209318412840366
1726940426254232000,7.472232177734375,1.414181738513708,-0.5862997130140661,-0.799406749382615
1726940426264218000,7.482218017578125,0.3925754225075245,-1.228479426421225,-1.298615038920939
1726940426274204000,7.492203857421875,-0.5230822093397378,-1.7513173056110738,-1.9971543529316782
1726940426284190200,7.502190185546875,-1.3993705383509396,-2.140461584626138,-2.7173186387732624
1726940426294175200,7.51217529296875,-2.0311784953474996,-2.190628468069434,-3.1344600549995896
1726940426304161000,7.5221611328125,-2.5225673433065414,-2.006440652193129,-3.410191305324435
1726940426314147000,7.53214697265625,-2.7209102335244415,-1.585635452762246,-3.4567148638293146
1726940426324131800,7.5421318359375,-2.2992121769070626,-0.9394380281463265,-3.158876995636523
1726940426334118100,7.5521181640625,-1.323732821303606,-0.3919958690539002,-2.658581203122437
1726940426344104000,7.56210400390625,-0.3071580697238445,0.06341711789965629,-2.402673428164422
1726940426354090200,7.57209033203125,0.4431102624803781,0.4265189009025693,-2.248214980119467
1726940426364075300,7.5820751953125,0.8966296907722949,0.6899222923129796,-1.8429437421679495
1726940426374061000,7.59206103515625,1.210879180061817,0.8892258442565798,-1.315760234989226
1726940426384047400,7.60204736328125,1.3780886808693409,0.997640041746199,-0.9712105922430753
1726940426394033200,7.612033203125,1.1479682581186295,0.8581418469458818,-0.76143533064574
1726940426404018200,7.62201806640625,0.7524158656269312,0.29980858374387026,-0.6617386926189065
1726940426414004000,7.63200390625,0.4500234028697014,-0.182507607704401,-0.5695590060934425
1726940426423990300,7.641990234375,0.3080330989927053,-0.578949934773147,-0.6238771639972924
1726940426433975300,7.651975341796875,0.3082955493211746,-0.8074939019873738,-0.5273208698228001
1726940426443961000,7.661961181640625,0.6438894399344921,-0.8376882569819688,-0.26290333293378354
1726940426453947400,7.671947509765625,0.7627209865421056,-0.7886357645213603,-0.1915598059490323
1726940426463933200,7.68193310546875,0.7050257534205913,-0.5883566455438732,-0.15647767891287803
1726940426473918200,7.691918212890625,0.47103404219448564,-0.504430115839839,-0.13079729421138764
1726940426483904000,7.701904052734375,0.42533378277122974,-0.5351029020011425,0.07313684014230966
1726940426493890300,7.711890380859375,0.871735488012433,-0.5632397399440408,0.32336364685446023
1726940426503876000,7.7218759765625,1.1619663883328437,-0.46514732224345207,0.5149585241168737
1726940426513861000,7.731861083984375,1.4011626824647188,-0.28896482590734957,0.5845759579613804
1726940426523847200,7.74184716796875,1.6754197685837744,-0.42746027340590953,0.44001726490110155
1726940426533833200,7.751833251953125,1.5274311010748147,-0.8081260624110698,0.2632297884091735
1726940426543818200,7.761818359375,1.1966425649166106,-1.3259919984072446,-0.0721636111959815
1726940426553804000,7.771803955078125,0.33966508557498454,-2.005543118831515,-0.6552405627712607
1726940426563790000,7.7817900390625,-0.6068699150949716,-2.531608143374324,-1.3490095936402677
1726940426573776100,7.791776123046875,-1.9265344640463589,-2.531533616833389,-1.5476085044458507
1726940426583761200,7.80176123046875,-2.9553888514846562,-1.2866691650614142,-1.0516156698226928
1726940426593747200,7.811747314453125,-3.039047962424159,0.18531433568820357,-0.5771674352705478
1726940426603733200,7.821733154296875,-1.860994362643361,1.0101128620892763,0.10710720654428005
1726940426613718300,7.83171826171875,-0.6918868703842163,1.3665867513850332,0.6607087650492787
1726940426623704300,7.841704345703125,0.01710311049222946,1.3525168711088598,1.0998603530317543
1726940426633690000,7.851690185546875,0.767651428681612,1.3105129819855093,1.3307704648554324
1726940426643676200,7.86167626953125,1.0697124675273895,0.833566208615899,1.0778124796137214
1726940426653661200,7.8716611328125,1.1042840146929025,-0.15632804130911826,0.40093116292059416
1726940426663647200,7.881647216796875,1.1532494133919478,-1.0120593199819325,-0.2963806551218033
1726940426673633000,7.891633056640625,0.9561749356746673,-1.45492817492187,-0.8397092414155602
1726940426683619300,7.901619384765625,0.620672230476141,-1.2557701689288019,-0.7961395642802119
1726940426693604400,7.911604248046875,0.5719944165468216,-0.5215564610771835,-0.2790370138719678
1726940426703590100,7.921590087890625,0.7810878333598374,0.2529733289413154,0.08221943352520465
1726940426713576200,7.931576171875,1.2511568299144507,1.1599904120847582,0.33757921921163797
1726940426723561200,7.941561279296875,1.730158489987254,1.975031222320348,0.40174657095670696
1726940426733547300,7.95154736328125,1.7120277900129555,2.4265078927382824,-0.07267389880567789
1726940426743533000,7.961532958984375,1.2492618099480866,2.3633074863292274,-0.7685513001307844
1726940426753519400,7.971519287109375,0.5286994646996259,1.7543164874270558,-1.8081378017246723
1726940426763504400,7.98150439453125,-0.22757950609624383,0.8341985151700675,-2.814136798754334
1726940426773490200,7.991490234375,-0.9789595989346503,0.3424110232822597,-3.194120742975175
1726940426783476200,8.001476318359375,-1.307596510016918,0.4346193513803184,-2.9439406980141998
1726940426793462300,8.011462158203125,-0.7015525243520736,0.8615870189636945,-2.0169439260289073
1726940426803447300,8.021447265625,-0.25023615906238555,1.2841603971108793,-1.5094325030475855
1726940426813433000,8.03143310546875,-0.16570552598536015,1.4801381656326353,-1.5959747682079672
1726940426823419100,8.041419189453125,-0.217948338919878,1.4994456543013452,-1.7430337536513805
1726940426833404400,8.051404296875,-0.01799509089589119,1.1370371142596005,-1.8982322064086794
1726940426843390200,8.06139013671875,0.10832301207482814,0.8170221933111548,-1.9171902971178292
1726940426853376300,8.071376220703126,0.48385202271342276,0.6998398752152919,-1.6621423538595437
1726940426863362300,8.0813623046875,1.0155085836529731,0.7707619619175792,-1.2833482039451598
1726940426873347300,8.091347412109375,1.1954811199218034,0.9506108718067408,-0.8057537803217768
1726940426883333000,8.1013330078125,1.362642105412483,1.1549785752721131,-0.42252427830845113
1726940426893319200,8.111319091796876,1.4498001643836498,1.3814087652027607,-0.2279930553331971
1726940426903304200,8.12130419921875,1.465443723717332,1.4744320629455148,0.02052256354689598
1726940426913290200,8.131290283203125,1.3516864116340874,1.3919737060979007,0.09906710795164107
1726940426923276300,8.1412763671875,1.5336276176273822,1.2660866880208252,0.2732604762971401
1726940426933262000,8.151261962890626,1.5622563307404518,1.3396250947013497,0.5476251144438982
1726940426943247400,8.161247314453124,1.4761901586592197,1.389988669760525,0.7111956742271781
1726940426953233200,8.171233154296875,1.2135305713534354,1.3410247323662041,0.7302247843459249
1726940426963219200,8.18121923828125,0.8321218550264835,1.2482394811630249,0.6405152873262763
1726940426973205000,8.191205078125,0.6062345398008823,0.9331675695747137,0.49405251421034335
1726940426983190300,8.201190185546874,0.22619711182713506,0.361085767005384,0.09188391844928263
1726940426993176300,8.21117626953125,0.2823240727186203,-0.3554068445861339,-0.28491818086504933
1726940427003162000,8.221162109375,0.5165039999932051,-1.0006865698352456,-0.5205915615677833
1726940427013147100,8.231147216796876,0.4602075277537107,-1.4434785601466893,-0.5958762273937463
1726940427023133200,8.24113330078125,-0.1372860717087984,-1.6405591753438113,-0.7637029833167791
1726940427033119200,8.251119140625,-1.248593701428175,-1.7553168966412542,-1.0181137977153063
1726940427043105000,8.26110498046875,-2.174841116350889,-1.9350424724116921,-1.2351853538006543
1726940427053090000,8.271090087890625,-3.099144411468506,-1.953707133132219,-1.4886562570005655
1726940427063076400,8.281076416015624,-2.833401471194625,-1.7346338818356393,-1.4406082654073833
1726940427073062100,8.291062255859375,-1.7584136936128139,-1.3142702886924147,-0.8314607607692479
1726940427083048200,8.301048095703125,-0.8926841680169105,-0.7539467284560203,-0.1753893001317978
1726940427093033200,8.311033203125,-0.4157780189186334,-0.09097937082499265,0.2666369665041566
1726940427103019300,8.321019287109374,-0.2741542102664709,0.44290714112371204,0.5480415862902999
1726940427113005000,8.331005126953125,-0.04897007487416267,0.8278428625330329,0.7050485497742891
1726940427122990000,8.340989990234375,-0.018509470158815385,1.193254968304932,0.8108239231929183
1726940427132976400,8.350976318359375,-0.06564180821180343,1.2668550420448184,0.8166700188726186
1726940427142962200,8.360962158203124,-0.18458850563168525,1.1542869397461413,0.7351455818742513
1726940427152948200,8.3709482421875,-0.44449557935893536,1.0197595190957187,0.598970978538692
1726940427162933000,8.38093310546875,-0.4896270989835262,0.8106906522020697,0.4896370358556509
1726940427172919300,8.390919189453125,-0.31736089930832384,0.5933084227323532,0.30013942313343284
1726940427182905000,8.400905029296876,-0.26987726359963415,0.261151228569448,0.015368249523639677
1726940427192891100,8.41089111328125,-0.5637853911280631,-0.012253916895389556,-0.2892442273706198
1726940427202876200,8.420876220703125,-0.7768389437437057,-0.35559593741744755,-0.5948650045245886
1726940427212862200,8.4308623046875,-0.5550035342574119,-0.6744175569280981,-0.7833619157716631
1726940427222848300,8.44084814453125,0.030692075383663177,-1.048901734688878,-1.006644309195876
1726940427232833000,8.4508330078125,0.7414502349764108,-1.2427063969552516,-0.9507862283736467
1726940427242819300,8.4608193359375,1.1496908441275357,-1.4370675240606068,-1.0621458316653967
1726940427252805000,8.47080517578125,1.227722178313136,-1.4670327464744448,-1.4720999667361379
1726940427262791200,8.480791259765626,1.456677648937702,-1.3357158123031259,-1.4797732778429984
1726940427272776200,8.490776123046874,1.3988438841283322,-1.2628268094420432,-1.4534946349874138
1726940427282762200,8.50076220703125,0.9126397453308105,-1.3813535278841853,-1.872624594682455
1726940427292748300,8.510748291015625,0.6523685144662856,-1.3318831022724509,-1.7800746135398744
1726940427302734000,8.520734130859376,0.3231125947028398,-1.022012266458571,-1.3905080174595117
1726940427312719000,8.530718994140624,-0.07029577149748802,-0.7838920771256088,-1.0280132604390382
1726940427322705200,8.540705078125,-0.33877661230266093,-0.3441892850011587,-0.851960820223391
1726940427332691200,8.550691162109375,-0.7778811462730169,0.40617753914147614,-0.40625937220603225
1726940427342676200,8.56067626953125,-1.2793150029063225,1.192369125381112,0.154437405256927
1726940427352662000,8.570662109375,-1.340264269387722,1.6777487960532307,0.46883653215020893
1726940427362648300,8.5806484375,-1.0152899724662303,1.8894632090196013,0.36343174560964103
1726940427372634000,8.590634033203125,-0.7334083828181028,1.8226187470197677,-0.4819698622286319
1726940427382619100,8.600619140625,-0.5585644416093826,1.4226485380858183,-1.4582698865652084
1726940427392605200,8.610605224609374,-0.7811386867642403,0.9276312704965471,-1.981406456440687
1726940427402591200,8.62059130859375,-0.9859686009138822,0.7075453350260853,-1.7720538041695952
1726940427412576300,8.630576171875,-0.7199918518841266,0.5448083034574985,-1.385604171065986
1726940427422562000,8.64056201171875,-0.47528643894195555,0.2968853897735476,-1.0436427912473678
1726940427432548000,8.650548095703124,-0.23540099350214003,0.15023673869669438,-0.568349338042736
1726940427442534100,8.6605341796875,0.21331892555356025,-0.003167524120211601,0.08282675176858902
1726940427452519200,8.670519287109375,0.4586281496077776,-0.16587094568014144,0.758109985615313
1726940427462505200,8.680505126953125,0.3646469666182995,-0.24012276132702826,1.6702967264816164
1726940427472491300,8.6904912109375,0.1568009195178747,-0.15028846888393163,2.7432024370923638
1726940427482476300,8.700476318359375,0.5190349797755479,0.019996493846178055,3.3947871077045795
1726940427492462000,8.710462158203125,1.5306605845153332,0.08185206151753664,3.510491754463315
1726940427502448000,8.7204482421875,2.2749445816129445,0.15058832861334084,3.391000282642245
1726940427512434200,8.73043408203125,3.26719153214395,0.31737112844139337,2.661752234373987
1726940427522419200,8.740419189453124,3.875208279186487,0.027793723593652248,1.7998603872448204
1726940427532405200,8.7504052734375,3.9452211420893666,-0.18788140969723463,0.8637371827349066
1726940427542391000,8.76039111328125,3.37241540915966,-0.29293285275548697,-0.21171032131314277
1726940427552377300,8.77037744140625,2.7760511059880253,-0.3049637745499611,-0.9747165545374155
1726940427562362000,8.780362060546874,2.0103367828488348,-0.11536094788759946,-1.2831161487549543
1726940427572348200,8.79034814453125,1.4966589461922644,0.14671645561605692,-1.5933575714468955
1726940427582334000,8.800333984375,1.4335668224632738,0.3717854401960969,-1.7151809933468698
1726940427592319200,8.8103193359375,1.0334867234140634,0.3040437370955944,-2.3252853603184223
1726940427602305300,8.82030517578125,-0.09450316103696822,-0.09546411502361297,-2.838938354794681
1726940427612291000,8.830291015625,-1.7032202141791581,-0.6698804980203509,-2.8494559494167566
1726940427622277400,8.84027734375,-3.6979146067380904,-1.2909060719788075,-2.360639290033281
1726940427632262100,8.85026220703125,-4.595372565028071,-2.082761675329506,-1.8098454824253916
1726940427642248200,8.860248291015624,-4.7318853142768145,-2.4359502593442794,-0.8437868661180138
1726940427652234000,8.87023388671875,-4.722067100095749,-2.389648234635591,0.4021653808906674
1726940427662220300,8.88022021484375,-3.760030578911304,-2.373973403380811,0.7498688114926219
1726940427672205300,8.890205322265626,-1.9382897837698458,-2.2543720414444803,0.5828326214253902
1726940427682191000,8.900191162109374,-0.2278904717415571,-2.0380387365058064,0.49554333728998895
1726940427692177200,8.91017724609375,1.1783037751495837,-1.9402692671492694,0.24028350484669206
1726940427702162200,8.920162109375,1.8588117579072714,-1.6024530243113635,-0.1416878137990832
1726940427712148200,8.930148193359376,1.7227970213085413,-1.0221943450272082,0.03261573692262173
1726940427722134000,8.940134033203124,2.2733535130292175,-0.5771642204001546,0.2533689041301608
1726940427732120300,8.950120361328125,2.0788596994549033,-0.14110212286561727,0.42226504285037514
1726940427742105300,8.960105224609375,1.6282067665100097,0.3059758742019534,0.6051338850826025
1726940427752091100,8.970091064453126,1.4680109438568352,0.49160190618783234,0.8215218428179621
1726940427762077200,8.9800771484375,1.5737755036205052,0.49344168883562084,0.5325307134255767
1726940427772063200,8.990063232421875,1.8794740221858024,0.4116895805612206,0.14619710791707038
1726940427782048300,9.00004833984375,2.219627768060565,0.3132411890298128,-0.5290463784411549
1726940427792034000,9.010033935546875,1.2440700865238905,0.2378337736070156,-1.2194324888736008
1726940427802020000,9.02002001953125,0.1548451092749834,0.14361205985993147,-1.2595955724358558
1726940427812005000,9.030005126953125,-0.37201837216913697,-0.1397846105262637,-1.3071750697344542
1726940427821991200,9.0399912109375,-0.9608423429638147,-0.35504648684114215,-1.0447679958850145
1726940427831977200,9.049977294921876,-0.6534189003020524,-0.5219806778386235,-1.036367247286439
1726940427841963000,9.059962890625,-0.15354863972365856,-0.6482295149654149,-1.4781319403767585
1726940427851948300,9.0699482421875,-0.630123949432373,-0.7180582534730434,-1.5872148309081793
1726940427861934000,9.07993408203125,-1.0859037238717077,-0.7920445500515401,-1.2879478066951036
1726940427871920000,9.089920166015625,-1.3077128298729657,-0.9666356855429709,-1.241327509817481
1726940427881906200,9.09990625,-1.6623124497294426,-1.419291921134293,-1.14483405174613
1726940427891891200,9.10989111328125,-1.7947972586363552,-1.5691355688601731,-0.8064306566700339
1726940427901877200,9.119877197265625,-0.9740496150612831,-1.3862889384597539,-0.5942194000974297
1726940427911863000,9.129863037109375,0.17175532754361628,-1.3680948178604244,-0.4934568864047527
1726940427921848000,9.13984814453125,0.5859831944108009,-1.2873866656810045,-0.49150750590264797
1726940427931834000,9.149834228515624,0.7643734299242496,-1.1566678435333073,-0.41905630993694065
1726940427941820200,9.159820068359375,0.6747147863090038,-1.2538846474431455,-0.414298009493947
1726940427951806000,9.169805908203125,0.23966215807795524,-1.364609167701751,-0.39329964512884613
1726940427961791200,9.179791259765626,-0.20576398012936115,-1.3816948886677622,-0.2917939118534326
1726940427971777300,9.18977734375,-0.15137129568457602,-1.456180659200996,-0.13735913694500923
1726940427981763000,9.19976318359375,0.7066834574997425,-1.467824335243553,0.2730769364237785
1726940427991748000,9.209748046875,1.5719003573983907,-1.2488600972793995,0.7416358206763863
1726940428001734100,9.219734130859376,2.251446217125654,-0.7197416765153407,1.026644894695282
1726940428011720200,9.22972021484375,2.1164543938338753,-0.16277897101417182,0.9325807095974683
1726940428021706000,9.2397060546875,1.2400316247880458,-0.19519421692863106,0.437110729804635
1726940428031691000,9.24969091796875,0.2646697580844164,-0.8325754440128803,-0.1407777132168412
1726940428041677300,9.25967724609375,-1.1443681878000498,-1.6942184309475123,-0.25460195305645467
1726940428051663000,9.2696630859375,-1.730792696237564,-1.635378119444102,0.43296939221620556
1726940428061649200,9.279649169921875,-1.4057044175475835,-0.7141191604584455,1.2302999198466538
1726940428071634200,9.28963427734375,-0.6672112788110971,0.012379150710254907,1.3580293509200214
1726940428081620200,9.2996201171875,-0.059598436394333834,0.8305969835467636,1.201472177030146
1726940428091606000,9.30960595703125,-0.07724222963452339,1.4930105066873132,0.8078487067744136
1726940428101591000,9.319591064453125,-0.1301361999541521,1.2648591920524834,0.27031740858256814
1726940428111577300,9.329577392578125,-0.08394844927489757,0.9206982563629746,-0.010356851102411746
1726940428121563100,9.339563232421876,0.23831015894711016,0.936204014661163,0.022483049964904783
1726940428131549200,9.349549072265624,0.6945850234270096,1.040932363244891,0.29247108046263454
1726940428141534200,9.3595341796875,1.1492413467943667,1.497586874692142,0.45765199805200096
1726940428151520300,9.369520263671875,1.562683031719923,1.9995166981488466,0.24083587803244588
1726940428161506000,9.379506103515626,1.7737112159878015,1.8692678316004574,-0.36836540261954065
1726940428171492000,9.3894921875,2.0537059689760206,0.9131219758898019,-0.9655334233894943
1726940428181477000,9.39947705078125,1.5230845963031052,0.12284739465285092,-1.169733515202999
1726940428191463200,9.409463134765625,0.8702654154598712,0.006683094493113458,-0.9905860315814614
1726940428201449200,9.41944921875,0.8311211535513401,0.01330349901355803,-0.6650277972921729
1726940428211434200,9.429434326171876,0.841636117824912,0.17518669023178518,-0.18448299943059682
1726940428221420000,9.439419921875,0.8592325647920369,0.4036322385728359,0.15960545554459094
1726940428231406300,9.44940625,1.043155884513259,0.48426542581990356,0.43766397977322335
1726940428241392000,9.45939208984375,1.1438625763654708,0.34381562938317656,0.6344169704511762
1726940428251377200,9.469377197265626,1.2124860307365655,0.36768772255368526,0.8521987206324935
1726940428261363200,9.47936328125,1.2029168228805065,0.573118159879744,0.958480582268536
1726940428271349200,9.489349365234375,0.7733388266682625,0.7124944818660617,0.8450503101825714
1726940428281335000,9.4993349609375,0.26695816128253935,0.7060825689971446,0.6979124142840504
1726940428291320000,9.509320068359376,-0.2374590950757265,0.5818987015761434,0.4768117488130927
1726940428301306400,9.519306396484374,-0.9220487941890955,0.3282556566797197,0.14788929878771304
1726940428311292200,9.529292236328125,-1.36005559605062,-0.036700522018224,-0.3495858833476901
1726940428321277200,9.539277099609375,-1.6217390318006275,-0.2888037901267409,-0.7894760147377848
1726940428331263000,9.549262939453126,-1.9428443783342837,-0.6617604660592973,-1.5257655059501527
1726940428341249300,9.559249267578124,-1.9945710584402083,-0.9940580916061997,-2.220394076257944
1726940428351234600,9.569234619140625,-1.9389654910743235,-1.3346975751712917,-2.711742884467542
1726940428361219600,9.579219482421875,-2.2214941464543343,-1.6260786684401332,-3.040946197260916
1726940428371205600,9.58920556640625,-1.8111404906719921,-1.52295454018265,-2.9881194469586014
1726940428381191700,9.599191650390624,-1.1771382385015488,-1.2352014281526207,-2.641454419493675
1726940428391176700,9.6091767578125,-0.6670359222441912,-0.7663008908554911,-2.1935952089205384
1726940428401162800,9.619162841796875,-0.22428221811652183,-0.2504245212413371,-1.6500968190178273
1726940428411148500,9.6291484375,-0.012127075645327567,0.12340104648023843,-1.3586834309145808
1726940428421134600,9.639134521484374,0.1272124214619398,0.400863504511863,-1.213428572283685
1726940428431119600,9.64911962890625,0.4320990391224622,0.5649772312611341,-0.9085001613080501
1726940428441105700,9.659105712890625,1.1315806024193764,0.6073417703904211,-0.5520201345324516
1726940428451091700,9.669091796875,1.5132996998697519,0.6723201462574303,-0.31990532309412956
1726940428461077800,9.679077880859374,1.626971671757102,0.6508982957832515,-0.210695299051702
1726940428471062800,9.689062744140625,1.3368576758146284,0.6467743477210403,-0.13136340366154908
1726940428481048600,9.699048583984375,0.4938578684210777,0.6086829558663069,-0.06661971333324909
1726940428491034600,9.70903466796875,-0.4429033417314291,0.3729110832251608,-0.2070052123621106
1726940428501019600,9.71901953125,-0.5547521898448466,0.07465162861943245,-0.20848317596018312
1726940428511005700,9.729005615234374,-0.3375187211960554,0.016932283969968556,0.09723404730558395
1726940428520991500,9.738991455078125,0.1506798062890768,-0.020414719258248806,0.2191620986238122
1726940428530977800,9.748977783203125,0.7434241653978824,0.06671791301071643,0.5446802931636572
1726940428540962800,9.758962890625,0.7227309214591979,0.11332359684109687,0.6984095501512289
1726940428550948600,9.768948486328124,0.14161913247704505,-0.0911275471240282,0.4068856874108314
1726940428560934700,9.7789345703125,-0.4858049103468656,-0.20835078175216912,0.07830226008147001
1726940428570920700,9.788920654296875,-0.8626479261934756,-0.4281684216752648,-0.4233665743514895
1726940428580905700,9.79890576171875,-0.40339492268562316,-0.4062108568891883,-0.4945227620705962
1726940428590891500,9.8088916015625,0.48456280133128166,-0.2831073320508003,-0.5375874122932554
1726940428600877800,9.8188779296875,1.116235733771324,-0.05404430939853191,-0.32074002035260196
1726940428610862800,9.82886279296875,0.5775368531048297,0.44043169092088935,0.0653904637992382
1726940428620848600,9.8388486328125,-0.4927168816924095,0.9600085224881768,0.3333703693449497
1726940428630834700,9.848834716796874,-1.5187942056328056,1.1587304751515388,0.31774025401473044
1726940428640820700,9.85882080078125,-1.6571464452683924,1.1294938592731951,-0.17637889569103718
1726940428650805800,9.8688056640625,-1.2034335402309895,1.2849641147091984,-0.46997781113982195
1726940428660791600,9.87879150390625,-0.7295850251376629,1.2913149450406431,-0.5716314284533262
1726940428670777600,9.888777587890624,-0.7254951254755259,1.1485048492133616,-0.44607934141904115
1726940428680763000,9.898762939453125,-0.48783495486974715,1.206948270353675,-0.032995676150918
1726940428690748700,9.908748779296875,-0.8157926515161991,0.7671881950840354,-0.3662950260862708
1726940428700734700,9.918734619140626,-1.1733844389259815,0.4088210393875837,-0.6585571399733424
1726940428710720500,9.928720458984374,-1.3543623528450726,0.48625206959247586,-0.31917613203674555
1726940428720705800,9.938705810546875,-0.911549612006545,0.4372212044417858,0.5141752647846937
1726940428730691600,9.948691650390625,0.21440730531215665,0.5137739905074239,1.5903493295416236
1726940428740677600,9.958677734375,1.1823416523635386,0.6256213773161172,2.2702783433675764
1726940428750663700,9.96866357421875,1.565661170747876,0.60880322124511,1.6587629405543207
1726940428760648700,9.978648681640625,1.2595476416409015,0.07081570371836424,-0.6229357914939523
1726940428770634800,9.988634765625,1.1441039839059113,-0.2021282539755106,-1.5411659041777253
1726940428780620500,9.99862060546875,1.5907815834790466,0.09676233814060688,-0.3316635654270649
1726940428790605600,10.00860546875,2.2660621869772672,0.22099311344325542,0.6680272713690996
1726940428800591600,10.018591552734375,2.5567080978393553,0.04919453127980232,1.0165414338320493
1726940428810577700,10.02857763671875,2.4811270794153213,-0.20335750350952148,0.606651011647284
1726940428820563500,10.0385634765625,2.0010271027117965,-0.6401984764620662,-0.9957146266415715
1726940428830548700,10.048548828125,1.0535393313616515,-0.8838783457487821,-1.9124463174611328
1726940428840534800,10.05853466796875,0.12805062585175037,-0.6831558669179677,-1.3351657772049308
1726940428850520600,10.0685205078125,-0.11982523382008076,-0.311534385111928,-0.16864771691709757
1726940428860507000,10.0785068359375,-0.11922960601449012,0.19030922136604786,0.32461423143744467
1726940428870491600,10.08849169921875,-0.16022621779143809,0.020023381853103636,0.12273030761182308
1726940428880477700,10.098477783203125,-0.35703707613646984,-0.45265755076557396,-0.4844336219936609
1726940428890463500,10.10846337890625,-0.79301909417212,-1.0417629688501358,-0.8822437302842736
1726940428900448500,10.118448486328125,-1.0958324126899242,-1.1982742577716707,-0.8910591971635818
1726940428910434800,10.128434814453126,-0.6355769541412591,-0.8312745905473827,-0.26824673978835345
1726940428920420600,10.138420654296874,-0.1694324375540018,-0.2687441679164767,0.46741555943638086
1726940428930406700,10.14840673828125,0.07155366260409354,-0.05634586433917284,0.6854813872560859
1726940428940391400,10.158391357421875,-0.010426701468229294,-0.1408504861921072,0.3272369811564684
1726940428950377700,10.168377685546876,-0.54280982311666,-0.43262277073562144,-0.25574060169756413
1726940428960363500,10.178363525390624,-0.9423036467105149,-0.7712859857916832,-0.930041254247725
1726940428970349600,10.188349609375,-1.1074831029951573,-1.0193304800286889,-0.9768915604889392
1726940428980334800,10.1983349609375,-0.7271762104302645,-0.8205164651677012,-0.40272213799059386
1726940428990320600,10.208320556640626,0.4040057480603456,-0.42325522293150425,-0.18303923036307096
1726940429000306700,10.218306640625,0.20923311754465101,-0.08662117561548947,0.21398937216103076
1726940429010291500,10.22829150390625,0.2988064209640026,0.28399814341068264,-0.05034603940248489
1726940429020277800,10.23827783203125,0.08186696682572364,0.4420627992540598,-0.4627148343995213
1726940429030263600,10.248263671875,0.017593524357676506,0.3397106782823801,-0.9401908923402428
1726940429040249600,10.25824951171875,-0.39881110202670095,0.21323446214050054,-1.054526881094277
1726940429050234600,10.268234619140625,-0.489504349386692,-0.040779461894929404,-0.8651958571106195
1726940429060220700,10.278220703125,-0.7164823824584484,-0.17289660653322933,-0.8479545071914791
1726940429070206700,10.288206787109376,-0.3958534212648868,-0.23299627044796942,-0.6951444108754397
1726940429080192500,10.298192626953124,0.009220248287916183,-0.1603045437246561,-0.6517424915224314
1726940429090177800,10.308177734375,0.17459668844938278,-0.14121873498260973,-0.510398084333539
1726940429100163600,10.31816357421875,0.13436580034792422,-0.17194661233201622,-0.29637130277156826
1726940429110149600,10.328149658203126,0.14943185205459594,-0.5583475839883089,-0.04719400511234999
1726940429120134700,10.338134765625,0.4672545236557722,-0.9445971644751727,0.1988090464249253
1726940429130120700,10.34812060546875,0.9577888006120919,-0.9730214410573244,0.28796850834637877
1726940429140106800,10.358106689453125,1.4269231466650962,-0.979509487902373,0.20244126544743776
1726940429150092500,10.368092529296876,1.17301385204792,-1.4523665077403187,-0.3913724764585495
1726940429160077600,10.37807763671875,-0.04834989714920521,-2.563855631506443,-1.3098001575410365
1726940429170063600,10.388063720703125,-1.1055226165771483,-3.3455122046649453,-1.6305127053648232
1726940429180049700,10.398049560546875,-1.170367721453309,-2.9375366761907933,-1.053485847608745
1726940429190035500,10.408035400390625,-0.5622369926422834,-1.9281873458199201,-0.2056219413101673
1726940429200020500,10.4180205078125,0.07503799758851527,-1.2564173807911574,0.503702678348124
1726940429210006800,10.4280068359375,0.4139052107840776,-0.41411541946865615,1.0098892824664711
1726940429219992600,10.43799267578125,0.022607553127408028,0.027011852500960228,0.7746271129131317
1726940429229977600,10.4479775390625,-0.38814065493047234,0.19821305329315364,0.5670639744073153
1726940429239963600,10.457963623046876,-0.4600374318838119,0.686191581352055,1.0210656332582235
1726940429249949700,10.46794970703125,-0.15537176349759102,1.0654244149446488,1.2135808402359485
1726940429259935700,10.477935791015625,0.20759061103463172,1.5069916857667267,1.0520619522854686
1726940429269920500,10.48792041015625,0.010044424152374267,1.4522799985006452,0.26887743890732524
1726940429279906800,10.49790673828125,-0.07538637263476848,0.8349667230635881,-0.26764877389520403
1726940429289892600,10.507892578125,-0.25970950532853604,0.1715848846138455,-0.43339989258795975
1726940429299877600,10.517877685546875,-0.19341186355650425,-0.4372663952903822,-0.26568361130207774
1726940429309863700,10.52786376953125,-0.07799041765332222,-0.4531081440772861,0.14027414760887622
1726940429319849700,10.537849609375,0.05790916813313961,0.015577508360147475,0.4392100401714444
1726940429329835800,10.547835693359374,0.43064007248580455,0.4977980939468369,0.631778146380186
1726940429339820500,10.557820556640625,0.9094359808534384,0.5372906943690031,0.6984981052175164
1726940429349807600,10.5678076171875,1.138006251552701,0.10432459008842707,0.9990852721184491
1726940429359793400,10.57779345703125,1.151713874387741,-0.08030658564120531,0.942934053568542
1726940429369779500,10.587779541015625,1.3514718921005726,0.20476620126366615,0.3847513047531247
1726940429379764500,10.597764404296875,1.3517331733852624,0.4610945762539282,-0.134892162309587
1726940429389750500,10.60775048828125,1.0190326661258935,0.5111188728887588,-0.25993103912472726
1726940429399736300,10.617736328125,0.680287033483386,0.1578742843704298,0.07696136686652898
1726940429409721300,10.627721435546874,0.4301783001929521,-0.22566486811395733,0.4871604166090488
1726940429419707600,10.637707763671875,0.1795978577375412,-0.05671805865243077,0.8779206063881516
1726940429429693400,10.647693359375,0.20525427704155444,0.32773429968673734,0.9829042449072003
1726940429439679500,10.657679443359376,0.13458265796899796,0.7503773455366491,0.8734151116624475
1726940429449664300,10.667664306640624,0.45306525478363036,0.9185532802235334,0.5823074285075068
1726940429459650600,10.677650634765625,0.4628063120752573,0.6762549284230918,0.27112200296372174
1726940429469636400,10.68763623046875,0.11968553308844565,0.39888851464446634,-0.02158697790801525
1726940429479622400,10.697622314453126,-0.34834289754927156,0.07691497044153511,-0.499094307769835
1726940429489607400,10.707607421875,-0.8215788337022065,-0.07712391875078901,-0.8035609464526176
1726940429499593500,10.717593505859375,-1.3644646446645259,-0.0944119025569409,-0.9657692779719829
1726940429509579500,10.72757958984375,-1.9118553658306598,-0.262279319283925,-1.0969944422066211
1726940429519564300,10.737564208984375,-1.6504086614459752,-0.7134408228054643,-0.9738038236066698
1726940429529550600,10.747550537109374,-0.9718675948470831,-1.105275436883047,-0.7384647894248366
1726940429539536400,10.757536376953125,0.2305447856426239,-0.8195510542016476,-0.340210736759007
1726940429549522400,10.7675224609375,0.6616857933878898,-0.36154476281926035,0.09363397698700428
1726940429559507500,10.777507568359376,0.3238666279405355,-0.08710618265345692,0.02347439908981323
1726940429569493500,10.787493408203124,-0.3137035458445549,-0.2494283498108387,-0.45388826160430906
1726940429579479600,10.7974794921875,-0.6321925723999738,-0.3050835284721106,-0.8980722907960415
1726940429589465300,10.80746533203125,-0.39607612410485743,-0.11498188544213771,-0.9692401689529418
1726940429599450400,10.817450439453125,0.06664309420883655,0.004635770041868091,-0.9820976046994327
1726940429609436400,10.8274365234375,0.21027298198640346,0.04660422252565622,-1.0957409350141882
1726940429619422500,10.83742236328125,0.2042149971216917,0.06949892203137278,-1.1511790368586778
1726940429629407500,10.847407470703125,-0.11500117466449737,0.14726356810480357,-1.0585469303905963
1726940429639393500,10.8573935546875,-0.3748194010645151,0.1589962376050651,-0.723241793590784
1726940429649379600,10.867379638671874,-0.16344284175038337,0.2608158591352403,-0.40978462372273206
1726940429659365400,10.877365478515625,-0.39816286725103855,0.23862609302848575,-0.6439502302110195
1726940429669350400,10.887350341796875,0.1008826329410076,0.2633433317862451,-0.5111807591438293
1726940429679336400,10.89733642578125,0.4019546607494354,0.3582525894060731,-0.4905296007812023
1726940429689322500,10.907322509765624,0.09831424375772475,0.2958819118194282,-0.6939698141381144
1726940429699307500,10.9173076171875,-0.39149697962105273,0.37073622340410944,-0.5873293483227491
1726940429709293300,10.927293212890625,-0.745415046954155,0.3157265761047601,-0.5020058113023639
1726940429719279600,10.937279541015625,-0.9836129776984452,0.049105391691625117,-0.9010340632110834
1726940429729265400,10.947265380859376,-0.8500988257437944,-0.2101829656153917,-1.1453136519566178
1726940429739250400,10.95725048828125,-0.5461784227669239,-0.44567499840185043,-1.2901643137007952
1726940429749236200,10.967236328125,0.05672726487219333,-0.531004526771605,-1.1160539474636315
1726940429759222500,10.977222412109375,0.5035410580456257,-0.30439737283885476,-0.37100218086391684
1726940429769208300,10.987208251953126,0.17731705332398415,0.0973106196731329,0.4462289790228009
1726940429779193300,10.997193359375,0.6013999592512845,0.20541297473460435,0.5759966379255056
1726940429789179600,11.0071796875,0.7747814266920089,0.33708500595390795,0.6098576987341046
1726940429799165400,11.01716552734375,-0.002759527841210365,0.3504311020001769,0.3910249781951308
1726940429809150500,11.027150390625,-0.5118541283607483,0.21183453221470117,-0.06726970167458057
1726940429819136300,11.03713623046875,-0.8741793740332127,0.410262178106606,-0.48392041177451606
1726940429829122600,11.04712255859375,-0.7695137154221534,0.6821684633158147,-0.17501520612239838
1726940429839108400,11.0571083984375,-0.5461982965111732,0.7449798704072833,0.017552607825398445
1726940429849093400,11.06709326171875,-1.6118144346356391,0.922952465030551,0.2226645537868142
1726940429859079400,11.077079345703124,-2.1120810010552407,1.2116565941751003,1.0894017951205373
1726940429869065500,11.0870654296875,-1.50629069789052,1.5215405817314982,1.6648302777692674
1726940429879051500,11.097051513671875,-0.611505758202076,1.3948556912750005,1.7127867916867137
1726940429889036500,11.10703662109375,0.05860007300674915,1.1146630776271222,1.1601835965692997
1726940429899022300,11.117022216796874,0.5917459957212209,0.8511074182644486,0.031553952910006046
1726940429909008400,11.12700830078125,0.5721048911839723,0.7789487755045295,0.04293810123354196
1726940429918994400,11.136994384765625,0.9957423914313316,0.817331405390799,0.9368170319929718
1726940429928979500,11.1469794921875,1.543881885138154,0.8055550428792834,1.5639315704762935
1726940429938965500,11.156965576171874,1.6022838052242994,-0.05947977845072746,0.7319649060115218
1726940429948951600,11.16695166015625,1.3572259255826473,-1.0962833713278173,-0.2711073899164796
1726940429958936600,11.1769365234375,1.4417852002322673,-1.2277625103235243,-0.2029059603497386
1726940429968922400,11.18692236328125,1.8534733194887636,-0.5024906722098589,0.10827712710648775
1726940429978908400,11.196908447265624,1.910472971561551,0.13269582130908966,0.5001897017911077
1726940429988894500,11.20689453125,1.846292468073964,0.24349691393524406,0.6361036083638668
1726940429998879500,11.21687939453125,2.0276240177363154,-0.07163578792959452,-0.28645196630358694
1726940430008865300,11.226865234375,1.9140888239711522,-0.26493396197855473,-0.9992474769428372
1726940430018851600,11.2368515625,1.7027444133609533,-0.1900724900007248,-1.0297644880205392
1726940430028836600,11.246836669921874,1.473830443790555,-0.07166033784896135,-0.5624179021671414
1726940430038822400,11.256822509765625,1.7083125688821077,0.00118511813133955,-0.29104455479085445
1726940430048808400,11.266808349609375,1.924562871712446,0.07984919726252555,0.030563480567932125
1726940430058794500,11.27679443359375,1.3443442321777344,-0.023086861076951026,0.24504618920385837
1726940430068779500,11.286779541015624,0.7216735213607549,-0.16168489216715096,0.23772943644970654
1726940430078765300,11.296765380859375,0.06591945610940456,-0.13244243106991052,-0.06368541344702243
1726940430088751600,11.306751708984375,-0.31053777529001236,-0.1714618975549936,-0.3436617539957166
1726940430098737400,11.3167373046875,-0.24057108961641788,-0.20193331592530012,-0.2786921459570527
1726940430108722400,11.326722412109374,-0.5486883597612381,-0.22199410717934367,-0.1427805774718523
1726940430118708500,11.33670849609375,-1.4752753819018602,-0.4600777638942003,-0.32833208291679616
1726940430128694500,11.346694580078125,-2.4730390500277277,-0.8024775351300835,-0.7584691743165254
1726940430138679600,11.356679443359376,-2.3521540780216452,-0.9729590433456003,-1.5154501559019087
1726940430148665300,11.366665283203124,-2.4292291343957184,-0.8072000336073338,-1.3055679267987608
1726940430158651400,11.3766513671875,-1.2822498873144388,-0.5455865943536162,-1.0904439976498483
1726940430168637400,11.386637451171875,-1.0119108514219521,-0.4568022493548691,-0.7974684747964144
1726940430178622500,11.39662255859375,-0.9293494725912809,-0.36925095328241586,-1.1806278341829777
1726940430188608500,11.4066083984375,-0.4478934051036835,-0.48860798506885766,-1.5187030202180147
1726940430198594300,11.41659423828125,-0.48869244848191734,-0.2602845287375152,-1.6037664449974893
1726940430208580600,11.42658056640625,-0.2474275313824415,-0.1521962022013962,-1.2551245645016431
1726940430218565400,11.4365654296875,0.07999182060360908,-0.22644918689206242,-0.7980740394741296
1726940430228551400,11.446551513671874,0.41759880460500715,-0.3910642872922122,-0.6763038090661168
1726940430238537500,11.456537353515625,0.7723013003140687,-0.8375362812906503,-0.7390075179994106
1726940430248522500,11.4665224609375,0.702540366345644,-1.3956518100887536,-0.6890314809530973
1726940430258508500,11.476508544921876,0.32656302741765975,-2.1196962983645498,-0.8301081771165132
1726940430268494300,11.486494384765624,0.11045417888462543,-2.574614925929904,-0.9693129419282078
1726940430278480600,11.496480712890625,-0.22723463818132875,-2.5967703513756395,-0.9459922720953822
1726940430288465400,11.50646533203125,0.055472880896925925,-2.016470755559206,-0.4977937465652823
1726940430298451500,11.516451416015625,0.4504483502835035,-1.2922742915920913,0.021206454157829284
1726940430308437200,11.526437255859374,0.4680740233451128,-0.7970609169088304,0.33494653262048957
1726940430318423600,11.536423583984375,0.06337210971415043,-0.34794849140420553,0.45716363001316784
1726940430328408600,11.54640869140625,-0.6217132639616727,-0.18734503779821096,0.7353162622660399
1726940430338394400,11.556394287109375,-1.0155138443499803,-0.04856500120460987,0.5406444617763161
1726940430348379600,11.566379638671876,-1.221508126103878,0.2512901981599629,0.11669307327419519
1726940430358364700,11.57636474609375,-1.2492851908236742,0.5471868326244875,-0.3909343773022294
1726940430368350700,11.586350830078125,-1.0387713858187198,0.5984734042800962,-0.6136445237964392
1726940430378336800,11.596336669921875,-0.5414361966758966,0.5434555736742913,-0.3401072763845324
1726940430388322600,11.606322509765626,-0.16192308483719825,0.1329692405561451,-0.3821253401637077
1726940430398307600,11.6163076171875,-0.0729670365333557,0.39562487320601936,0.05688274769484997
1726940430408293600,11.626293701171875,0.025337270352244375,1.1967404723331332,0.2925818473607302
1726940430418279700,11.63627978515625,0.38899873306453225,1.3555696828082202,0.372969389283657
1726940430428265500,11.646265380859376,0.6495294916480779,1.139222057083249,0.5920575458884239
1726940430438250500,11.65625048828125,1.2139444128513335,0.3431207059215754,0.5846209661468863
1726940430448236800,11.66623681640625,1.0460194572508335,-0.13252835578769445,0.9368991573184728
1726940430458222600,11.67622265625,0.623570290005207,0.061084583298861975,1.104566338765621
1726940430468207600,11.68620751953125,0.41288463556468485,0.23397125295996665,0.9540963758349418
1726940430478193700,11.696193603515624,0.7356400873929262,0.007472308642044663,0.8291656355693936
1726940430488179700,11.7061796875,1.0931026954650878,-0.2918611318707466,1.0647054530203341
1726940430498165500,11.71616552734375,1.351816175493598,-0.45778139658533035,1.2141864049136637
1726940430508150500,11.726150634765625,1.789516103363037,-0.09386837026476859,1.0214724604934453
1726940430518136800,11.73613671875,2.029053758278489,0.6377106782343238,0.2582274500772357
1726940430528122600,11.74612255859375,1.8639993896782396,0.8820996456384659,-0.2695823723062873
1726940430538108700,11.756108642578125,1.455311036759615,0.7812471155747771,-0.3747399060875177
1726940430548093400,11.766093505859375,0.8070891205787658,0.6142678433265537,-0.32555472715795036
1726940430558079700,11.776079833984374,0.2998819412410259,0.39824338514134283,-0.17511778971403835
1726940430568065500,11.7860654296875,-0.06870937908887863,0.28630937949512153,-0.04254647156745195
1726940430578051600,11.796051513671875,-0.5240472549796105,0.3711639107642695,0.2236637939572334
1726940430588036900,11.806036865234375,-0.705114016225934,0.6036089770702645,0.7435267489895224
1726940430598022700,11.816022705078124,-0.5358014056593179,1.0388076992411166,1.1513532243818043
1726940430608008700,11.8260087890625,-0.1625567065656185,1.6068762475810945,1.2291945889532565
1726940430617993500,11.835993408203125,-0.23418401892781257,1.897048841843009,0.9776377026811242
1726940430627979800,11.845979736328125,-0.5408084201663732,1.8251871362030505,0.6716364017769694
1726940430637965600,11.855965576171876,-0.7543745984792709,1.5216615777626632,0.47819268177747726
1726940430647951600,11.86595166015625,-0.6310141762703657,0.8107301804948598,0.35124914038479327
1726940430657936600,11.8759365234375,-0.7577274160385131,0.15635503891389815,0.22309826902896165
1726940430667922700,11.885922607421875,-0.6605681875348091,-0.14656769479513168,0.23243805204331874
1726940430677908700,11.89590869140625,-0.3461228834122419,-0.46143290483020244,0.2875917839884758
1726940430687893500,11.9058935546875,-0.034033202505111694,-0.6194219381541013,0.022789631696045396
1726940430697879600,11.915879638671875,-0.1829343086838722,-0.738640657448396,-0.1616264399781823
1726940430707865600,11.925865478515625,0.04164367750883102,-0.6596190701164305,-0.17583382902890443
1726940430717851600,11.9358515625,0.6581909370094537,-0.5092003989815712,-0.1462526374965906
1726940430727836700,11.945836669921874,0.852218302115798,-0.6070307316798716,-0.4464139802008867
1726940430737822700,11.95582275390625,0.24069383921325205,-0.828646580131352,-1.2142521636262535
1726940430747808800,11.965808837890625,0.08919979393184184,-0.997607089324668,-1.825410131303966
1726940430757794600,11.975794677734376,0.5373918897211551,-1.1399354660496115,-2.141384836950898
1726940430767779600,11.985779541015624,0.7042343107819556,-1.0646542342897505,-2.1074220693334937
1726940430777765600,11.995765625,0.2666980490416288,-0.6752471396200358,-1.891968469838798
1726940430787751700,12.005751708984375,0.06274199511706828,-0.3549373273782432,-1.8913857015147804
1726940430797736700,12.01573681640625,-0.5470318247258663,-0.16687230474241077,-1.8738301710799334
1726940430807722500,12.025722412109374,-0.8912544274747372,0.10067015923410653,-1.5458333114668725
1726940430817708800,12.035708740234375,-0.5314490556687116,0.1925414373975247,-1.15085754981935
1726940430827694600,12.045694580078125,-0.6561217295199632,0.021970278137177227,-0.9554738016679882
1726940430837679600,12.0556796875,-0.8897714954406023,0.007540332376956939,-0.8948401770070195
1726940430847665700,12.065665771484374,-0.766254421365261,0.206927032559365,-0.5631675514906644
1726940430857651700,12.075651611328125,-1.7726485551923512,0.4877591131545603,-0.37312867149859663
1726940430867637800,12.0856376953125,-3.4217934803128243,0.6036724342279136,-0.265425837148726
1726940430877622500,12.09562255859375,-2.511592360305786,0.4470918794624507,-0.21014409490972757
1726940430887608800,12.10560888671875,-1.2492150481969118,0.6499753357194363,-0.2987710573896766
1726940430897594600,12.1155947265625,-0.8074462634533643,0.977519483128935,-0.567159543736279
1726940430907579600,12.12557958984375,-0.9959212551295756,1.25674822018072,-0.5974746025010943
1726940430917565700,12.135565673828125,-0.7556383348047733,1.5187303466163575,0.13769611381441355
1726940430927551700,12.1455517578125,-0.2847755575239658,1.613113388404995,0.5768155530929565
1726940430937537800,12.155537841796875,-0.02613397368788719,1.1728526701368391,0.12857494198679922
1726940430947522600,12.1655224609375,0.4568669851541519,0.5363346357531845,-0.5210992188289761
1726940430957508600,12.175508544921875,0.7277969726771116,0.3313996537938714,-0.648358109781146
1726940430967494700,12.18549462890625,0.6130676006913185,0.36827217137813567,0.27364421491771934
1726940430977480700,12.195480712890625,0.8806137909948826,0.5087152458131313,1.3807391953781247
1726940430987465700,12.2054658203125,1.0615414360314608,0.41661242391616105,1.571657196292281
1726940430997451500,12.215451416015625,1.089873796546459,0.12763123139590024,0.8349600010618567
1726940431007437800,12.225437744140624,1.0592641387492419,-0.015172726951539515,0.057604339967668054
1726940431017422600,12.235422607421874,1.3670003006219864,0.1822375585913658,0.4374143889263272
1726940431027408600,12.24540869140625,1.387553259307146,0.6529045210391282,1.4332131867200135
1726940431037394700,12.255394775390625,1.445349614715576,0.7392758135467767,1.5764625507473944
1726940431047380700,12.265380615234376,1.5494699144035577,0.30049715052992104,0.08925473898947238
1726940431057365800,12.27536572265625,0.8224187916576862,-0.2653402046918869,-0.9921969739094376
1726940431067351600,12.2853515625,0.33727556008994575,-0.3490776415646076,-0.3540206509247422
1726940431077337900,12.295337890625,0.6523696835100651,-0.05400047025680542,1.1733563818752766
1726940431087323600,12.30532373046875,1.387795835891366,0.6344979267328977,2.7201222980171442
1726940431097308700,12.31530859375,1.4051082052201032,0.8771665731504559,2.4030273561686277
1726940431107294500,12.32529443359375,1.4446943656772375,0.879423119905591,1.2543100332483648
1726940431117280800,12.33528076171875,1.6414245600014925,0.4247463382720947,0.023239421290159223
1726940431127266600,12.3452666015625,1.5984809058099985,0.4069228045508265,-0.6139443835258483
1726940431137251600,12.35525146484375,1.3888713561683892,0.6360138842537999,-0.9572712064787745
1726940431147237600,12.365237548828125,0.4073082967370748,0.9354390216380357,-0.5309700399801135
1726940431157223700,12.3752236328125,-0.5629238058626651,0.9135160897739231,-0.05110591785907745
1726940431167208700,12.385208740234376,-1.2095651748538017,0.49005058509260413,-0.16756313655078411
1726940431177194500,12.395194580078124,-1.9483149186998605,0.12430267149507998,-0.25515315719842907
1726940431187180800,12.405180908203125,-3.2570360488325356,-0.030360066950321195,0.5625850754275917
1726940431197166600,12.41516650390625,-2.9976696578532454,-0.26289003506079317,0.5288818355292082
1726940431207151600,12.425151611328126,-1.7994588207066058,-0.6233129542432725,0.5745917395636438
1726940431217137700,12.4351376953125,-0.5442401481807232,-0.8358189559787511,-0.2710007146716118
1726940431227123700,12.445123779296875,-0.1958709471464157,-0.9940521002568304,-1.1823568499326704
1726940431237109800,12.45510986328125,-0.3059457713246345,-0.9387053299576044,-1.7795409450545907
1726940431247094500,12.465094482421875,-0.5414870500802993,-0.7237940206460655,-2.160135130128264
1726940431257080600,12.47508056640625,-0.5405670126259327,-0.3616048224434256,-2.3053455650955437
1726940431267066600,12.485066650390625,-0.6969844857841729,-0.17583368289843201,-2.1095330701380965
1726940431277051600,12.4950517578125,-0.7775520604491233,-0.08503902099058032,-1.9519050521463155
1726940431287037700,12.50503759765625,-0.9626105216801166,-0.006231733996421098,-1.5730854755297303
1726940431297023700,12.515023681640624,-0.7445049463719129,0.04775090834274888,-1.0447525060549379
