time,seconds_elapsed,z,y,x
1726940418809872600,0.02787255859375,-1.00848388671875,-0.2154388427734375,-0.1279754638671875
1726940418819858400,0.0378583984375,-1.00323486328125,-0.2133941650390625,-0.1182708740234375
1726940418829844500,0.047844482421875,-0.996063232421875,-0.211822509765625,-0.1123504638671875
1726940418839829800,0.057829833984375,-0.9892425537109375,-0.2130584716796875,-0.1096038818359375
1726940418849815600,0.067815673828125,-1.01690673828125,-0.2292938232421875,-0.1200714111328125
1726940418859801600,0.077801513671875,-1.03375244140625,-0.253082275390625,-0.134552001953125
1726940418869786600,0.08778662109375,-1.0636138916015625,-0.2776947021484375,-0.135040283203125
1726940418879772700,0.097772705078125,-1.1047821044921875,-0.28759765625,-0.1385498046875
1726940418889758500,0.107758544921875,-1.0946502685546875,-0.281463623046875,-0.1370849609375
1726940418899744500,0.11774462890625,-1.082366943359375,-0.2896575927734375,-0.1499786376953125
1726940418909729500,0.1277294921875,-1.0599517822265625,-0.313690185546875,-0.1612091064453125
1726940418919715600,0.137715576171875,-1.0355072021484375,-0.3426361083984375,-0.16131591796875
1726940418929701600,0.14770166015625,-1.013671875,-0.371368408203125,-0.1580963134765625
1726940418939687400,0.1576875,-1.0360565185546875,-0.3917236328125,-0.155059814453125
1726940418949672400,0.16767236328125,-1.080841064453125,-0.3933258056640625,-0.1650390625
1726940418959658500,0.177658447265625,-1.0697479248046875,-0.376922607421875,-0.16937255859375
1726940418969644500,0.18764453125,-1.0876007080078125,-0.3792266845703125,-0.1689910888671875
1726940418979629600,0.197629638671875,-1.1544036865234375,-0.373016357421875,-0.17596435546875
1726940418989615600,0.20761572265625,-1.19525146484375,-0.34466552734375,-0.182586669921875
1726940418999601700,0.2176015625,-1.225616455078125,-0.335479736328125,-0.202362060546875
1726940419009587500,0.22758740234375,-1.1741790771484375,-0.33380126953125,-0.1932373046875
1726940419019572500,0.237572509765625,-1.1107177734375,-0.369842529296875,-0.1756744384765625
1726940419029558800,0.247558837890625,-1.016876220703125,-0.4093017578125,-0.1446533203125
1726940419039544600,0.257544677734375,-0.93701171875,-0.4612884521484375,-0.105926513671875
1726940419049529600,0.267529541015625,-0.9018096923828125,-0.4993438720703125,-0.08526611328125
1726940419059515400,0.277515380859375,-0.8816375732421875,-0.5179595947265625,-0.1175537109375
1726940419069501700,0.287501708984375,-0.925018310546875,-0.569549560546875,-0.201446533203125
1726940419079487500,0.297487548828125,-0.9329681396484375,-0.5860443115234375,-0.2613983154296875
1726940419089472500,0.307472412109375,-0.9734954833984375,-0.609100341796875,-0.311065673828125
1726940419099458600,0.31745849609375,-1.0019683837890625,-0.608001708984375,-0.309722900390625
1726940419109444600,0.327444580078125,-0.984161376953125,-0.5753173828125,-0.2726898193359375
1726940419119429600,0.3374296875,-0.968719482421875,-0.56298828125,-0.211883544921875
1726940419129415400,0.34741552734375,-0.97076416015625,-0.5460357666015625,-0.1765594482421875
1726940419139401700,0.357401611328125,-0.9434661865234375,-0.522735595703125,-0.138031005859375
1726940419149387500,0.367387451171875,-0.9029998779296875,-0.51556396484375,-0.071014404296875
1726940419159372500,0.37737255859375,-0.8695831298828125,-0.54583740234375,-0.040863037109375
1726940419169358600,0.387358642578125,-0.7874603271484375,-0.58306884765625,0.00323486328125
1726940419179344600,0.3973447265625,-0.700286865234375,-0.5966644287109375,0.0499420166015625
1726940419189329700,0.40732958984375,-0.71142578125,-0.5755615234375,0.0990142822265625
1726940419199315500,0.4173154296875,-0.7429962158203125,-0.5169219970703125,0.1210479736328125
1726940419209301500,0.427301513671875,-0.7566680908203125,-0.4479217529296875,0.120513916015625
1726940419219287600,0.43728759765625,-0.7213897705078125,-0.399566650390625,0.1462249755859375
1726940419229272600,0.4472724609375,-0.6552581787109375,-0.3939208984375,0.1882476806640625
1726940419239258600,0.457258544921875,-0.5876007080078125,-0.390350341796875,0.2303619384765625
1726940419249244700,0.46724462890625,-0.44805908203125,-0.3903350830078125,0.2895965576171875
1726940419259230700,0.477230712890625,-0.271881103515625,-0.4330291748046875,0.3620452880859375
1726940419269215500,0.487215576171875,-0.1743927001953125,-0.46807861328125,0.4268341064453125
1726940419279201500,0.497201416015625,-0.192138671875,-0.4462432861328125,0.4678497314453125
1726940419289187600,0.5071875,-0.290863037109375,-0.4082489013671875,0.4983367919921875
1726940419299172600,0.517172607421875,-0.4189605712890625,-0.3520355224609375,0.50213623046875
1726940419309158700,0.52715869140625,-0.4868316650390625,-0.3240509033203125,0.496917724609375
1726940419319144400,0.53714453125,-0.496337890625,-0.31561279296875,0.4968414306640625
1726940419329130800,0.547130859375,-0.4156646728515625,-0.330108642578125,0.5344085693359375
1726940419339115500,0.557115478515625,-0.3054656982421875,-0.3686676025390625,0.5416259765625
1726940419349101600,0.5671015625,-0.2772979736328125,-0.4012451171875,0.50738525390625
1726940419359087600,0.577087646484375,-0.28997802734375,-0.4880828857421875,0.35650634765625
1726940419369072600,0.58707275390625,-0.300201416015625,-0.5279693603515625,0.215850830078125
1726940419379058700,0.59705859375,-0.3172454833984375,-0.5380096435546875,0.1208343505859375
1726940419389044700,0.607044677734375,-0.3264007568359375,-0.5831756591796875,0.1209564208984375
1726940419399030800,0.61703076171875,-0.3264923095703125,-0.6902923583984375,0.1749114990234375
1726940419409015600,0.627015625,-0.3137054443359375,-0.8222808837890625,0.2422332763671875
1726940419419001600,0.637001708984375,-0.2949066162109375,-0.923248291015625,0.30267333984375
1726940419428987600,0.646987548828125,-0.2642974853515625,-0.980987548828125,0.334381103515625
1726940419438973700,0.6569736328125,-0.2042388916015625,-1.0138702392578125,0.3453369140625
1726940419448958700,0.666958740234375,-0.1017913818359375,-1.010711669921875,0.3069305419921875
1726940419458944500,0.676944580078125,-0.03350830078125,-0.9907989501953125,0.1602783203125
1726940419468930800,0.686930908203125,-0.0662841796875,-1.0165252685546875,-0.0413360595703125
1726940419478915600,0.69691552734375,-0.1526336669921875,-1.00653076171875,-0.1844482421875
1726940419488901600,0.706901611328125,-0.253509521484375,-0.95947265625,-0.2469329833984375
1726940419498887400,0.716887451171875,-0.3462677001953125,-0.8973846435546875,-0.255859375
1726940419508873700,0.726873779296875,-0.52301025390625,-1.0077667236328125,-0.2068023681640625
1726940419518858800,0.736858642578125,-0.647735595703125,-0.9767913818359375,-0.13677978515625
1726940419528844500,0.746844482421875,-0.7192840576171875,-0.9169769287109375,-0.0974578857421875
1726940419538830800,0.756830810546875,-0.7714996337890625,-0.857940673828125,-0.0565032958984375
1726940419548815600,0.766815673828125,-0.8464813232421875,-0.8522796630859375,-0.0466461181640625
1726940419558801700,0.7768017578125,-0.9541473388671875,-0.9002227783203125,-0.045013427734375
1726940419568787500,0.786787353515625,-0.9962921142578125,-0.8688812255859375,-0.0517425537109375
1726940419578773800,0.796773681640625,-0.98077392578125,-0.8388671875,-0.0226593017578125
1726940419588758800,0.8067587890625,-0.95318603515625,-0.844818115234375,0.03173828125
1726940419598744600,0.81674462890625,-0.8926849365234375,-0.8060150146484375,0.0338287353515625
1726940419608730600,0.826730712890625,-0.852264404296875,-0.7812347412109375,0.037200927734375
1726940419618716700,0.836716552734375,-0.826263427734375,-0.778289794921875,0.00335693359375
1726940419628701700,0.84670166015625,-0.840911865234375,-0.79461669921875,-0.0771942138671875
1726940419638687500,0.8566875,-0.8689727783203125,-0.7848663330078125,-0.1392669677734375
1726940419648673800,0.866673828125,-0.84686279296875,-0.7614288330078125,-0.11907958984375
1726940419658658800,0.876658935546875,-0.7897796630859375,-0.7342529296875,-0.0634765625
1726940419668644600,0.88664453125,-0.81976318359375,-0.8517608642578125,-0.044830322265625
1726940419678630700,0.896630615234375,-0.7935943603515625,-0.84490966796875,-0.065643310546875
1726940419688616700,0.90661669921875,-0.753662109375,-0.841033935546875,-0.128173828125
1726940419698601700,0.916601806640625,-0.7356414794921875,-0.8648834228515625,-0.1703033447265625
1726940419708587500,0.92658740234375,-0.7277374267578125,-0.867401123046875,-0.154754638671875
1726940419718573600,0.936573486328125,-0.74615478515625,-0.848785400390625,-0.1032257080078125
1726940419728559600,0.9465595703125,-0.7557373046875,-0.8169097900390625,-0.0444183349609375
1726940419738544600,0.956544677734375,-0.7382659912109375,-0.8115081787109375,0.0146636962890625
1726940419748530700,0.96653076171875,-0.737091064453125,-0.8042144775390625,0.017547607421875
1726940419758516500,0.9765166015625,-0.76971435546875,-0.7821044921875,0.018402099609375
1726940419768501800,0.986501708984375,-0.810821533203125,-0.7787628173828125,0.04168701171875
1726940419778487800,0.99648779296875,-0.82855224609375,-0.7776336669921875,0.0352783203125
1726940419788473600,1.0064736328125,-0.8195953369140625,-0.7840118408203125,0.013336181640625
1726940419798459600,1.016459716796875,-0.791259765625,-0.8013763427734375,0.0285186767578125
1726940419808444700,1.026444580078125,-0.759796142578125,-0.81439208984375,0.0471954345703125
1726940419818430700,1.0364306640625,-0.7395172119140625,-0.84112548828125,0.031707763671875
1726940419828416500,1.04641650390625,-0.73101806640625,-0.8502044677734375,-0.0058441162109375
1726940419838402800,1.05640283203125,-0.6952972412109375,-0.8251190185546875,-0.0366668701171875
1726940419848387800,1.066387939453125,-0.6763916015625,-0.7772216796875,-0.013580322265625
1726940419858373600,1.07637353515625,-0.7229766845703125,-0.7184600830078125,0.0688934326171875
1726940419868359700,1.086359619140625,-0.7685089111328125,-0.6392822265625,0.1737823486328125
1726940419878344700,1.0963447265625,-0.7773895263671875,-0.5465240478515625,0.2447357177734375
1726940419888330800,1.106330810546875,-0.7709503173828125,-0.4752655029296875,0.2623138427734375
1726940419898316500,1.116316650390625,-0.7459564208984375,-0.4196929931640625,0.2911376953125
1726940419908302600,1.126302490234375,-0.6966400146484375,-0.3521270751953125,0.349090576171875
1726940419918288000,1.136287841796875,-0.6606292724609375,-0.2804107666015625,0.4239959716796875
1726940419928273700,1.146273681640625,-0.63336181640625,-0.2137603759765625,0.4962921142578125
1726940419938259700,1.156259765625,-0.61993408203125,-0.14959716796875,0.5541229248046875
1726940419948245800,1.166245849609375,-0.62615966796875,-0.088409423828125,0.6123199462890625
1726940419958230800,1.176230712890625,-0.62042236328125,-0.0307464599609375,0.6331024169921875
1726940419968216600,1.186216552734375,-0.5986328125,-0.04193115234375,0.60888671875
1726940419978202600,1.19620263671875,-0.5365753173828125,-0.085357666015625,0.5703582763671875
1726940419988188700,1.206188720703125,-0.4664764404296875,-0.1323394775390625,0.5074920654296875
1726940419998173700,1.216173583984375,-0.4371185302734375,-0.1726226806640625,0.4305419921875
1726940420008159700,1.22615966796875,-0.4096527099609375,-0.18157958984375,0.37823486328125
1726940420018145500,1.2361455078125,-0.34002685546875,-0.1511383056640625,0.3948822021484375
1726940420028130800,1.246130859375,-0.2723236083984375,-0.0931549072265625,0.452423095703125
1726940420038116600,1.25611669921875,-0.3155364990234375,-0.1059112548828125,0.4976348876953125
1726940420048102700,1.2661025390625,-0.363128662109375,-0.1601104736328125,0.4810791015625
1726940420058088400,1.27608837890625,-0.3304595947265625,-0.2070465087890625,0.395355224609375
1726940420068073700,1.28607373046875,-0.304046630859375,-0.307464599609375,0.2970123291015625
1726940420078059800,1.296059814453125,-0.31341552734375,-0.45880126953125,0.1251373291015625
1726940420088045600,1.306045654296875,-0.3848114013671875,-0.612884521484375,-0.0614013671875
1726940420098031900,1.316031982421875,-0.4973907470703125,-0.7259368896484375,-0.16986083984375
1726940420108016600,1.3260166015625,-0.558929443359375,-0.774078369140625,-0.130706787109375
1726940420118002700,1.336002685546875,-0.5760498046875,-0.8097686767578125,0.0788726806640625
1726940420127988500,1.345988525390625,-0.5829010009765625,-0.7831268310546875,0.251251220703125
1726940420137973500,1.355973388671875,-0.614837646484375,-0.759124755859375,0.317779541015625
1726940420147959800,1.365959716796875,-0.62579345703125,-0.7653350830078125,0.2778472900390625
1726940420157945600,1.375945556640625,-0.5514373779296875,-0.8282470703125,0.1265106201171875
1726940420167931600,1.385931640625,-0.35546875,-0.9089813232421875,-0.0623931884765625
1726940420177916700,1.395916748046875,-0.14617919921875,-0.935546875,-0.1895751953125
1726940420187902700,1.40590283203125,-0.0104827880859375,-0.9524993896484375,-0.143585205078125
1726940420197888500,1.415888427734375,0.252532958984375,-1.157989501953125,-0.220855712890625
1726940420207874800,1.425874755859375,0.5106353759765625,-1.3437347412109375,-0.296722412109375
1726940420217859800,1.43585986328125,0.6002044677734375,-1.520751953125,-0.2442779541015625
1726940420227845600,1.445845703125,0.5548248291015625,-1.5061187744140625,-0.44146728515625
1726940420237831700,1.455831787109375,0.375518798828125,-1.466339111328125,-0.376068115234375
1726940420247817700,1.465817626953125,0.214263916015625,-1.4131011962890625,-0.400543212890625
1726940420257802800,1.475802734375,0.1226043701171875,-1.312713623046875,-0.5394744873046875
1726940420267788500,1.48578857421875,0.1448822021484375,-1.1894073486328125,-0.724212646484375
1726940420277774600,1.495774658203125,0.2133941650390625,-1.0788421630859375,-0.698516845703125
1726940420287759600,1.505759521484375,0.3100433349609375,-1.06884765625,-0.6011505126953125
1726940420297745700,1.51574560546875,0.467041015625,-0.8736114501953125,-0.4156341552734375
1726940420307731700,1.525731689453125,0.44989013671875,-0.473419189453125,-0.251800537109375
1726940420317717500,1.535717529296875,0.3422088623046875,-0.5093536376953125,-0.3598480224609375
1726940420327702800,1.545702880859375,0.3484344482421875,-0.4806365966796875,-0.430084228515625
1726940420337688600,1.5556884765625,0.554412841796875,-0.5039520263671875,-0.7152557373046875
1726940420347674400,1.56567431640625,1.081634521484375,-1.2959747314453125,-2.1364288330078125
1726940420357660400,1.575660400390625,0.2183990478515625,-1.1383514404296875,0.6807403564453125
1726940420367645400,1.5856455078125,0.4001922607421875,-0.3779144287109375,0.43743896484375
1726940420377631500,1.595631591796875,0.2999114990234375,-0.372039794921875,-0.28460693359375
1726940420387617300,1.6056171875,0.4148712158203125,-0.6493682861328125,-1.17034912109375
1726940420397602600,1.6156025390625,0.511749267578125,-0.953704833984375,-1.1725616455078125
1726940420407588600,1.625588623046875,0.955535888671875,-0.851715087890625,-1.472991943359375
1726940420417574400,1.635574462890625,1.2338409423828125,-0.863739013671875,-1.2532806396484375
1726940420427560400,1.645560546875,0.720703125,-0.4706268310546875,-0.427703857421875
1726940420437545500,1.65554541015625,0.399566650390625,0.0023345947265625,0.0041351318359375
1726940420447531500,1.665531494140625,0.051116943359375,0.2196502685546875,0.63092041015625
1726940420457517300,1.675517333984375,-0.0247039794921875,0.411773681640625,0.7613677978515625
1726940420467503600,1.685503662109375,0.41888427734375,0.695098876953125,0.1485595703125
1726940420477488600,1.695488525390625,0.66650390625,0.7754364013671875,-0.32562255859375
1726940420487474400,1.705474365234375,0.6294403076171875,0.5339202880859375,-0.8322296142578125
1726940420497460500,1.71546044921875,0.57476806640625,0.174591064453125,-1.071197509765625
1726940420507446500,1.725446533203125,0.609588623046875,-0.129547119140625,-1.3303985595703125
1726940420517431600,1.735431640625,0.7694854736328125,-0.3249359130859375,-1.7532806396484375
1726940420527417300,1.745417236328125,0.781524658203125,-0.4735107421875,-1.845245361328125
1726940420537403400,1.7554033203125,0.815887451171875,-0.4407501220703125,-1.6150054931640625
1726940420547388700,1.765388671875,0.8057861328125,-0.255096435546875,-1.29351806640625
1726940420557374500,1.77537451171875,0.7498321533203125,-0.106597900390625,-0.9913787841796875
1726940420567360500,1.785360595703125,0.6696014404296875,-0.0437469482421875,-0.839996337890625
1726940420577346600,1.7953466796875,0.4752960205078125,-0.040618896484375,-0.7937469482421875
1726940420587331600,1.80533154296875,0.0872955322265625,0.3387298583984375,-0.481475830078125
1726940420597317400,1.8153173828125,0.131195068359375,0.230712890625,-0.5648193359375
1726940420607303400,1.825303466796875,0.1102447509765625,-0.1435394287109375,-1.0511322021484375
1726940420617289500,1.83528955078125,0.10406494140625,-0.2550201416015625,-1.36767578125
1726940420627274500,1.8452744140625,0.1568450927734375,-0.19049072265625,-1.59002685546875
1726940420637260500,1.855260498046875,0.2337646484375,-0.0500335693359375,-1.57183837890625
1726940420647246300,1.865246337890625,0.3764495849609375,-0.2143096923828125,-1.6162261962890625
1726940420657231400,1.8752314453125,0.5112152099609375,-0.3967437744140625,-1.72918701171875
1726940420667217400,1.885217529296875,0.688720703125,-0.2831573486328125,-1.60357666015625
1726940420677203500,1.895203369140625,1.0861053466796875,-0.0530853271484375,-1.4419708251953125
1726940420687189200,1.905189208984375,1.31463623046875,0.21783447265625,-1.11932373046875
1726940420697174500,1.915174560546875,1.3095245361328125,0.1597747802734375,-0.7208709716796875
1726940420707160600,1.92516064453125,1.1068878173828125,0.2094268798828125,-0.673126220703125
1726940420717146400,1.935146484375,0.8715972900390625,0.2491302490234375,-0.7549591064453125
1726940420727132700,1.945132568359375,0.8111114501953125,0.065277099609375,-0.7268524169921875
1726940420737117400,1.955117431640625,0.7952423095703125,-0.0886688232421875,-0.8347625732421875
1726940420747103500,1.965103515625,0.8011322021484375,-0.0221710205078125,-0.9635772705078125
1726940420757089300,1.97508935546875,0.7869110107421875,0.26959228515625,-0.93084716796875
1726940420767075600,1.98507568359375,0.682891845703125,0.58087158203125,-1.0151214599609375
1726940420777060600,1.995060546875,0.5171966552734375,0.8675537109375,-1.007232666015625
1726940420787046400,2.00504638671875,0.3427734375,0.8791046142578125,-0.493560791015625
1726940420797032400,2.015032470703125,-0.124847412109375,0.8282318115234375,-0.020263671875
1726940420807018500,2.0250185546875,0.0177001953125,0.953826904296875,0.0785675048828125
1726940420817003500,2.03500341796875,0.3173370361328125,0.9651336669921875,-0.1529693603515625
1726940420826989300,2.0449892578125,0.1926727294921875,0.634185791015625,-0.896209716796875
1726940420836975400,2.054975341796875,-0.0446929931640625,0.1840057373046875,-1.7475738525390625
1726940420846960600,2.064960693359375,-0.2104339599609375,-0.1652984619140625,-2.2566375732421875
1726940420856946400,2.074946533203125,-0.2595672607421875,-0.417022705078125,-2.2854461669921875
1726940420866932500,2.084932373046875,-0.0890960693359375,-0.4303741455078125,-1.5660247802734375
1726940420876918500,2.09491845703125,0.368499755859375,-0.0147857666015625,-0.7595367431640625
1726940420886903600,2.104903564453125,0.71917724609375,0.2953033447265625,-0.395233154296875
1726940420896889300,2.114889404296875,0.851287841796875,0.3022918701171875,-0.2316436767578125
1726940420906875400,2.12487548828125,0.781982421875,0.2642059326171875,-0.1602630615234375
1726940420916861400,2.134861328125,0.4609527587890625,0.30010986328125,-0.14581298828125
1726940420926846500,2.144846435546875,0.2056884765625,0.2845916748046875,-0.126190185546875
1726940420936832500,2.15483251953125,0.07672119140625,0.3628082275390625,-0.323455810546875
1726940420946818300,2.164818359375,-0.1039276123046875,0.520843505859375,-0.6902313232421875
1726940420956804600,2.1748046875,-0.179840087890625,0.504669189453125,-0.9100341796875
1726940420966789400,2.184789306640625,-0.075469970703125,0.4578094482421875,-1.0672454833984375
1726940420976775400,2.194775390625,-0.056182861328125,0.41436767578125,-1.18115234375
1726940420986761200,2.20476123046875,0.083221435546875,0.3176116943359375,-1.216278076171875
1726940420996746500,2.21474658203125,0.0716705322265625,0.2886199951171875,-1.10797119140625
1726940421006732500,2.224732666015625,0.2285614013671875,0.226226806640625,-0.8595123291015625
1726940421016718300,2.23471826171875,0.344757080078125,0.082122802734375,-0.5911407470703125
1726940421026704600,2.24470458984375,0.232269287109375,-0.333038330078125,-0.808502197265625
1726940421036689400,2.254689453125,-0.1917877197265625,-0.6640777587890625,-1.69073486328125
1726940421046675500,2.264675537109375,-0.5807342529296875,-0.7695159912109375,-2.3048858642578125
1726940421056661200,2.2746611328125,-0.77435302734375,-0.8787841796875,-2.10137939453125
1726940421066647600,2.2846474609375,-0.6970672607421875,-0.7999420166015625,-1.60052490234375
1726940421076632600,2.294632568359375,-0.459686279296875,-0.6788787841796875,-1.195343017578125
1726940421086618400,2.304618408203125,-0.301544189453125,-0.647186279296875,-1.17706298828125
1726940421096604400,2.3146044921875,-0.154022216796875,-0.6133575439453125,-1.0355377197265625
1726940421106590500,2.324590576171875,0.0142059326171875,-0.5758819580078125,-0.90179443359375
1726940421116575500,2.334575439453125,0.1362762451171875,-0.5993804931640625,-0.8997344970703125
1726940421126561300,2.344561279296875,0.1608123779296875,-0.5846099853515625,-0.76544189453125
1726940421136547600,2.354547607421875,0.1989288330078125,-0.5808563232421875,-0.651123046875
1726940421146532600,2.36453271484375,0.216705322265625,-0.596038818359375,-0.5944671630859375
1726940421156518400,2.374518310546875,0.1324615478515625,-0.6054229736328125,-0.604949951171875
1726940421166504400,2.38450439453125,0.0372314453125,-0.6122589111328125,-0.6752471923828125
1726940421176490500,2.394490478515625,-0.0521697998046875,-0.617767333984375,-0.7840576171875
1726940421186475500,2.4044755859375,-0.1051788330078125,-0.632293701171875,-0.948150634765625
1726940421196461300,2.41446142578125,-0.1403656005859375,-0.646331787109375,-1.0150299072265625
1726940421206447400,2.424447265625,-0.0746917724609375,-0.6497650146484375,-0.9466400146484375
1726940421216433400,2.434433349609375,-0.051788330078125,-0.681396484375,-0.88330078125
1726940421226418400,2.44441845703125,-0.1108551025390625,-0.7100677490234375,-0.8636474609375
1726940421236404500,2.454404541015625,-0.1489410400390625,-0.707366943359375,-0.8259124755859375
1726940421246390300,2.464390380859375,-0.1555328369140625,-0.6855926513671875,-0.7921600341796875
1726940421256376600,2.47437646484375,-0.193023681640625,-0.6628570556640625,-0.79510498046875
1726940421266361600,2.484361572265625,-0.21856689453125,-0.5919189453125,-0.8276214599609375
1726940421276347400,2.494347412109375,-0.1938934326171875,-0.5104827880859375,-0.8423919677734375
1726940421286333400,2.50433349609375,-0.1795654296875,-0.462799072265625,-0.85919189453125
1726940421296318500,2.514318359375,-0.1561737060546875,-0.4385833740234375,-0.8691253662109375
1726940421306304500,2.524304443359375,-0.1357879638671875,-0.4244842529296875,-0.8966827392578125
1726940421316290300,2.534290283203125,-0.0991973876953125,-0.421661376953125,-0.921478271484375
1726940421326276600,2.544276611328125,-0.060150146484375,-0.4266357421875,-0.9203033447265625
1726940421336261600,2.55426171875,-0.05218505859375,-0.4342193603515625,-0.9091796875
1726940421346248400,2.56424853515625,-0.07489013671875,-0.4385223388671875,-0.90240478515625
1726940421356234200,2.574234130859375,-0.08526611328125,-0.4449615478515625,-0.89532470703125
1726940421366220300,2.58422021484375,-0.097991943359375,-0.4514007568359375,-0.884857177734375
1726940421376205300,2.594205322265625,-0.1204376220703125,-0.45367431640625,-0.872100830078125
1726940421386191400,2.60419140625,-0.1272125244140625,-0.452056884765625,-0.8347320556640625
1726940421396177400,2.614177490234375,-0.113372802734375,-0.443084716796875,-0.783935546875
1726940421406163200,2.6241630859375,-0.0903167724609375,-0.438873291015625,-0.7630462646484375
1726940421416148200,2.634148193359375,-0.0716705322265625,-0.456756591796875,-0.781768798828125
1726940421426134300,2.64413427734375,-0.063201904296875,-0.491485595703125,-0.83355712890625
1726940421436120300,2.654120361328125,-0.064788818359375,-0.52569580078125,-0.89337158203125
1726940421446106000,2.664106201171875,-0.074981689453125,-0.544342041015625,-0.9430084228515625
1726940421456091100,2.674091064453125,-0.078033447265625,-0.520904541015625,-0.95013427734375
1726940421466077400,2.684077392578125,-0.097015380859375,-0.4782867431640625,-0.953094482421875
1726940421476063200,2.694063232421875,-0.1081695556640625,-0.449615478515625,-0.9512481689453125
1726940421486048300,2.70404833984375,-0.1045074462890625,-0.4504852294921875,-0.9432830810546875
1726940421496034300,2.714034423828125,-0.0851898193359375,-0.472503662109375,-0.914581298828125
1726940421506020400,2.724020263671875,-0.0819854736328125,-0.5049285888671875,-0.8938751220703125
1726940421516006100,2.734006103515625,-0.108367919921875,-0.533447265625,-0.9261627197265625
1726940421525991200,2.7439912109375,-0.1504974365234375,-0.5383758544921875,-0.951568603515625
1726940421535977500,2.7539775390625,-0.186309814453125,-0.5172271728515625,-0.9405517578125
1726940421545963300,2.76396337890625,-0.2286529541015625,-0.4662933349609375,-0.91937255859375
1726940421555949300,2.77394921875,-0.2560577392578125,-0.4167938232421875,-0.9063568115234375
1726940421565934000,2.78393408203125,-0.2575531005859375,-0.38067626953125,-0.89337158203125
1726940421575920400,2.79392041015625,-0.26007080078125,-0.350341796875,-0.8581085205078125
1726940421585906200,2.80390625,-0.2596435546875,-0.3278045654296875,-0.8441009521484375
1726940421595891200,2.81389111328125,-0.2593994140625,-0.327392578125,-0.8804473876953125
1726940421605877500,2.82387744140625,-0.2339019775390625,-0.3223876953125,-0.9459686279296875
1726940421615863300,2.83386328125,-0.2771148681640625,-0.321319580078125,-0.929351806640625
1726940421625849300,2.843849365234375,-0.2993011474609375,-0.3183135986328125,-0.884918212890625
1726940421635834000,2.853834228515625,-0.30145263671875,-0.3128204345703125,-0.854949951171875
1726940421645820400,2.8638203125,-0.310943603515625,-0.3094482421875,-0.83099365234375
1726940421655806200,2.87380615234375,-0.3261871337890625,-0.3009490966796875,-0.8197021484375
1726940421665792300,2.883792236328125,-0.3545989990234375,-0.2969818115234375,-0.824249267578125
1726940421675777300,2.89377734375,-0.3799285888671875,-0.2928924560546875,-0.819976806640625
1726940421685763300,2.903763427734375,-0.38751220703125,-0.306640625,-0.81341552734375
1726940421695749400,2.913749267578125,-0.375732421875,-0.3438873291015625,-0.81195068359375
1726940421705735200,2.923735107421875,-0.3362579345703125,-0.395294189453125,-0.7975616455078125
1726940421715720200,2.93372021484375,-0.3193817138671875,-0.43096923828125,-0.8097991943359375
1726940421725706200,2.943706298828125,-0.32586669921875,-0.4608306884765625,-0.84588623046875
1726940421735692300,2.9536923828125,-0.35455322265625,-0.486328125,-0.887542724609375
1726940421745677300,2.96367724609375,-0.3924713134765625,-0.47674560546875,-0.909332275390625
1726940421755663400,2.973663330078125,-0.42352294921875,-0.44775390625,-0.9120025634765625
1726940421765649400,2.9836494140625,-0.4434814453125,-0.4108428955078125,-0.9036102294921875
1726940421775635200,2.99363525390625,-0.432220458984375,-0.3842620849609375,-0.8894195556640625
1726940421785620200,3.0036201171875,-0.410186767578125,-0.3737030029296875,-0.87554931640625
1726940421795606300,3.013606201171875,-0.3876190185546875,-0.36920166015625,-0.85406494140625
1726940421805592300,3.02359228515625,-0.3555908203125,-0.3763427734375,-0.836090087890625
1726940421815578000,3.033578125,-0.3276519775390625,-0.38995361328125,-0.806884765625
1726940421825563100,3.043563232421875,-0.3161163330078125,-0.38885498046875,-0.77630615234375
1726940421835549400,3.053549560546875,-0.3128204345703125,-0.3845062255859375,-0.7552490234375
1726940421845535200,3.06353515625,-0.315704345703125,-0.3682403564453125,-0.7327880859375
1726940421855521300,3.073521240234375,-0.3371734619140625,-0.3519439697265625,-0.726165771484375
1726940421865506000,3.083506103515625,-0.3464508056640625,-0.3495330810546875,-0.7248077392578125
1726940421875492400,3.093492431640625,-0.3387908935546875,-0.3386383056640625,-0.7189483642578125
1726940421885478100,3.10347802734375,-0.3282928466796875,-0.34710693359375,-0.7425994873046875
1726940421895463200,3.113463134765625,-0.3323211669921875,-0.376861572265625,-0.7930145263671875
1726940421905449500,3.123449462890625,-0.34423828125,-0.4261016845703125,-0.8658447265625
1726940421915435300,3.133435302734375,-0.363983154296875,-0.4766387939453125,-0.9574432373046875
1726940421925421300,3.14342138671875,-0.394927978515625,-0.5063629150390625,-1.015655517578125
1726940421935406300,3.15340625,-0.4218292236328125,-0.516510009765625,-1.02349853515625
1726940421945392400,3.163392333984375,-0.4544677734375,-0.5042266845703125,-0.9965972900390625
1726940421955378200,3.173378173828125,-0.5027618408203125,-0.498748779296875,-0.963623046875
1726940421965364200,3.1833642578125,-0.5263214111328125,-0.4920501708984375,-0.9155426025390625
1726940421975349200,3.193349365234375,-0.5262603759765625,-0.4853515625,-0.8707427978515625
1726940421985335300,3.203335205078125,-0.513763427734375,-0.47528076171875,-0.8276824951171875
1726940421995321300,3.2133212890625,-0.5225067138671875,-0.4759979248046875,-0.82366943359375
1726940422005306400,3.223306396484375,-0.534210205078125,-0.475738525390625,-0.8170166015625
1726940422015292200,3.233292236328125,-0.5152587890625,-0.469329833984375,-0.783294677734375
1726940422025278200,3.2432783203125,-0.4729461669921875,-0.4449920654296875,-0.73699951171875
1726940422035264300,3.25326416015625,-0.42156982421875,-0.4133148193359375,-0.6950225830078125
1726940422045249300,3.263249267578125,-0.3751068115234375,-0.38287353515625,-0.684906005859375
1726940422055235300,3.2732353515625,-0.348846435546875,-0.37396240234375,-0.6970672607421875
1726940422065221400,3.283221435546875,-0.32940673828125,-0.3653564453125,-0.7048492431640625
1726940422075207200,3.293207275390625,-0.32293701171875,-0.355804443359375,-0.7312774658203125
1726940422085192200,3.303192138671875,-0.3246002197265625,-0.3598785400390625,-0.7635498046875
1726940422095178200,3.31317822265625,-0.337982177734375,-0.3660430908203125,-0.802276611328125
1726940422105164300,3.323164306640625,-0.355499267578125,-0.3776397705078125,-0.8169403076171875
1726940422115149300,3.3331494140625,-0.37017822265625,-0.38812255859375,-0.8101043701171875
1726940422125135000,3.343135009765625,-0.3780670166015625,-0.3832855224609375,-0.790130615234375
1726940422135121400,3.353121337890625,-0.3907928466796875,-0.377532958984375,-0.7776947021484375
1726940422145107200,3.363107177734375,-0.40228271484375,-0.3730621337890625,-0.7743072509765625
1726940422155092200,3.37309228515625,-0.425689697265625,-0.37750244140625,-0.7900848388671875
1726940422165078500,3.38307861328125,-0.4593048095703125,-0.3756866455078125,-0.804962158203125
1726940422175064300,3.393064208984375,-0.5028076171875,-0.375701904296875,-0.826019287109375
1726940422185050400,3.40305029296875,-0.56573486328125,-0.3794403076171875,-0.8683929443359375
1726940422195035100,3.41303515625,-0.632781982421875,-0.380706787109375,-0.914886474609375
1726940422205021400,3.423021484375,-0.70928955078125,-0.3668975830078125,-0.9480743408203125
1726940422215007200,3.43300732421875,-0.7881317138671875,-0.3365020751953125,-0.9667510986328125
1726940422224993300,3.4429931640625,-0.826995849609375,-0.2860260009765625,-0.969512939453125
1726940422234978300,3.452978271484375,-0.793609619140625,-0.2249908447265625,-0.9305877685546875
1726940422244964400,3.46296435546875,-0.738250732421875,-0.15850830078125,-0.8909912109375
1726940422254950400,3.472950439453125,-0.6744232177734375,-0.1198577880859375,-0.85772705078125
1726940422264935200,3.48293505859375,-0.6339569091796875,-0.0931549072265625,-0.83013916015625
1726940422274921200,3.492921142578125,-0.6426849365234375,-0.0816802978515625,-0.8452606201171875
1726940422284907300,3.5029072265625,-0.6507568359375,-0.0892181396484375,-0.8823699951171875
1726940422294893300,3.512893310546875,-0.6291351318359375,-0.09234619140625,-0.877410888671875
1726940422304878300,3.52287841796875,-0.5987091064453125,-0.09771728515625,-0.862274169921875
1726940422314864400,3.532864501953125,-0.5347442626953125,-0.1186065673828125,-0.81195068359375
1726940422324850400,3.542850341796875,-0.46014404296875,-0.134735107421875,-0.7357025146484375
1726940422334836200,3.552836181640625,-0.401153564453125,-0.14697265625,-0.6923980712890625
1726940422344820200,3.5628203125,-0.3661346435546875,-0.1676025390625,-0.661468505859375
1726940422354806500,3.572806640625,-0.342681884765625,-0.21636962890625,-0.6495819091796875
1726940422364792300,3.582792236328125,-0.3245697021484375,-0.2674407958984375,-0.64971923828125
1726940422374777300,3.59277734375,-0.3159942626953125,-0.312652587890625,-0.6669921875
1726940422384763100,3.60276318359375,-0.3285369873046875,-0.373870849609375,-0.706268310546875
1726940422394749400,3.61274951171875,-0.350616455078125,-0.444061279296875,-0.7300872802734375
1726940422404735200,3.6227353515625,-0.3732147216796875,-0.5385284423828125,-0.7487640380859375
1726940422414720300,3.63272021484375,-0.3941802978515625,-0.6544647216796875,-0.7755889892578125
1726940422424706300,3.642706298828125,-0.4310150146484375,-0.691680908203125,-0.8032684326171875
1726940422434692400,3.6526923828125,-0.5049896240234375,-0.69488525390625,-0.86083984375
1726940422444678400,3.662678466796875,-0.5982666015625,-0.691558837890625,-0.9275970458984375
1726940422454663200,3.6726630859375,-0.630584716796875,-0.73638916015625,-0.9414825439453125
1726940422464649500,3.6826494140625,-0.693939208984375,-0.7131195068359375,-0.9484405517578125
1726940422474635300,3.69263525390625,-0.793487548828125,-0.47991943359375,-0.8743743896484375
1726940422484620300,3.702620361328125,-0.8502960205078125,-0.21441650390625,-0.82696533203125
1726940422494606300,3.7126064453125,-0.918975830078125,-0.0072174072265625,-0.778350830078125
1726940422504592400,3.72259228515625,-0.94488525390625,0.158050537109375,-0.696990966796875
1726940422514578400,3.732578369140625,-0.9064483642578125,0.248809814453125,-0.6436004638671875
1726940422524563200,3.742563232421875,-0.886871337890625,0.3343505859375,-0.57684326171875
1726940422534549200,3.75254931640625,-0.8597259521484375,0.3953399658203125,-0.55157470703125
1726940422544535300,3.762535400390625,-0.8648529052734375,0.397979736328125,-0.592437744140625
1726940422554521300,3.772521240234375,-0.85546875,0.342071533203125,-0.5775909423828125
1726940422564506400,3.78250634765625,-0.8381500244140625,0.19976806640625,-0.584625244140625
1726940422574492200,3.7924921875,-0.73504638671875,0.033905029296875,-0.5882568359375
1726940422584478500,3.802478515625,-0.657928466796875,-0.0460205078125,-0.561798095703125
1726940422594464300,3.81246435546875,-0.60235595703125,-0.095855712890625,-0.5726318359375
1726940422604449300,3.82244921875,-0.5633697509765625,-0.11529541015625,-0.5555419921875
1726940422614435300,3.832435302734375,-0.54486083984375,-0.1434478759765625,-0.537261962890625
1726940422624421400,3.84242138671875,-0.573089599609375,-0.198089599609375,-0.556488037109375
1726940422634406400,3.852406494140625,-0.63092041015625,-0.2606353759765625,-0.596771240234375
1726940422644392200,3.86239208984375,-0.6871795654296875,-0.3024139404296875,-0.6318817138671875
1726940422654378500,3.87237841796875,-0.707763671875,-0.334930419921875,-0.664459228515625
1726940422664364300,3.8823642578125,-0.728363037109375,-0.3522796630859375,-0.708770751953125
1726940422674349300,3.892349365234375,-0.761749267578125,-0.33941650390625,-0.7372589111328125
1726940422684335000,3.902335205078125,-0.786468505859375,-0.32110595703125,-0.753875732421875
1726940422694321400,3.9123212890625,-0.8207244873046875,-0.316986083984375,-0.7809600830078125
1726940422704307200,3.92230712890625,-0.8493194580078125,-0.3110809326171875,-0.781768798828125
1726940422714292200,3.932292236328125,-0.852264404296875,-0.3226470947265625,-0.745208740234375
1726940422724278300,3.9422783203125,-0.8023681640625,-0.349212646484375,-0.6973419189453125
1726940422734264300,3.952264404296875,-0.7378692626953125,-0.3534393310546875,-0.6252288818359375
1726940422744249300,3.962249267578125,-0.7124176025390625,-0.3620758056640625,-0.58837890625
1726940422754235400,3.9722353515625,-0.730865478515625,-0.39141845703125,-0.60003662109375
1726940422764221400,3.982221435546875,-0.7601165771484375,-0.4203948974609375,-0.616058349609375
1726940422774207200,3.992207275390625,-0.8063201904296875,-0.431304931640625,-0.6392974853515625
1726940422784192300,4.002192138671875,-0.8441314697265625,-0.4116058349609375,-0.6500396728515625
1726940422794178300,4.01217822265625,-0.87115478515625,-0.34454345703125,-0.6491241455078125
1726940422804164400,4.022164306640625,-0.8675994873046875,-0.24896240234375,-0.6287384033203125
1726940422814149400,4.0321494140625,-0.8444671630859375,-0.15106201171875,-0.6003265380859375
1726940422824135400,4.042135498046875,-0.8075103759765625,-0.0712738037109375,-0.5806121826171875
1726940422834121200,4.052121337890625,-0.760986328125,-0.0288848876953125,-0.5722503662109375
1726940422844107300,4.062107177734375,-0.7218475341796875,-0.0144500732421875,-0.5845947265625
1726940422854092300,4.07209228515625,-0.688232421875,-0.030487060546875,-0.5985260009765625
1726940422864078300,4.082078369140625,-0.6927337646484375,-0.0731201171875,-0.6270751953125
1726940422874064100,4.092064208984375,-0.7052764892578125,-0.1255645751953125,-0.6527099609375
1726940422884050400,4.102050537109375,-0.716766357421875,-0.187103271484375,-0.6696624755859375
1726940422894035500,4.112035400390625,-0.7106781005859375,-0.2506103515625,-0.6709442138671875
1726940422904021200,4.122021240234375,-0.69549560546875,-0.2786712646484375,-0.6528472900390625
1726940422914007600,4.132007568359375,-0.7004852294921875,-0.277984619140625,-0.6443634033203125
1726940422923993300,4.141993408203125,-0.701171875,-0.260467529296875,-0.64178466796875
1726940422933978400,4.151978271484375,-0.7018890380859375,-0.242431640625,-0.6464691162109375
1726940422943964200,4.161964111328125,-0.6963958740234375,-0.2409210205078125,-0.646697998046875
1726940422953950500,4.171950439453125,-0.694061279296875,-0.2541351318359375,-0.6549835205078125
1726940422963935500,4.181935546875,-0.6864776611328125,-0.2738037109375,-0.67340087890625
1726940422973921300,4.19192138671875,-0.6715545654296875,-0.3007049560546875,-0.6687469482421875
1726940422983907300,4.2019072265625,-0.6502838134765625,-0.312713623046875,-0.6571197509765625
1726940422993893400,4.211893310546875,-0.6404876708984375,-0.3249969482421875,-0.629669189453125
1726940423003878400,4.22187841796875,-0.63409423828125,-0.32159423828125,-0.5892486572265625
1726940423013864200,4.2318642578125,-0.6540985107421875,-0.30029296875,-0.554962158203125
1726940423023850500,4.2418505859375,-0.7080841064453125,-0.2515106201171875,-0.542327880859375
1726940423033835500,4.25183544921875,-0.7758941650390625,-0.1994781494140625,-0.5405731201171875
1726940423043821300,4.2618212890625,-0.8365936279296875,-0.153228759765625,-0.5543060302734375
1726940423053807400,4.271807373046875,-0.864776611328125,-0.1396636962890625,-0.58673095703125
1726940423063793400,4.28179345703125,-0.858245849609375,-0.1719818115234375,-0.6306915283203125
1726940423073778400,4.2917783203125,-0.8244781494140625,-0.2310791015625,-0.662322998046875
1726940423083764200,4.30176416015625,-0.7916717529296875,-0.2970428466796875,-0.6918792724609375
1726940423093750300,4.311750244140625,-0.7684478759765625,-0.348968505859375,-0.697723388671875
1726940423103736300,4.321736328125,-0.7611541748046875,-0.3785400390625,-0.690765380859375
1726940423113721300,4.331721435546875,-0.7738800048828125,-0.342254638671875,-0.662841796875
1726940423123707400,4.341707275390625,-0.8000946044921875,-0.2601470947265625,-0.6167449951171875
1726940423133693200,4.351693115234375,-0.829925537109375,-0.170196533203125,-0.5836181640625
1726940423143678500,4.361678466796875,-0.845794677734375,-0.1014404296875,-0.565704345703125
1726940423153664300,4.371664306640625,-0.83038330078125,-0.0925140380859375,-0.569427490234375
1726940423163650300,4.381650390625,-0.7785491943359375,-0.1316070556640625,-0.575958251953125
1726940423173636400,4.39163623046875,-0.7313079833984375,-0.1669464111328125,-0.5877838134765625
1726940423183621400,4.401621337890625,-0.7218475341796875,-0.1973419189453125,-0.6035919189453125
1726940423193607400,4.411607421875,-0.7339630126953125,-0.234466552734375,-0.623626708984375
1726940423203593200,4.42159326171875,-0.736480712890625,-0.276336669921875,-0.6251983642578125
1726940423213579500,4.43157958984375,-0.742401123046875,-0.3099517822265625,-0.6194610595703125
1726940423223564300,4.441564208984375,-0.7666168212890625,-0.3200836181640625,-0.6211090087890625
1726940423233550300,4.45155029296875,-0.7732696533203125,-0.3073883056640625,-0.61151123046875
1726940423243536100,4.4615361328125,-0.7616424560546875,-0.2862396240234375,-0.595611572265625
1726940423253521400,4.471521484375,-0.711181640625,-0.2652435302734375,-0.563262939453125
1726940423263507500,4.481507568359375,-0.65673828125,-0.2425689697265625,-0.5420074462890625
1726940423273493200,4.4914931640625,-0.623260498046875,-0.2372894287109375,-0.53643798828125
1726940423283479300,4.501479248046875,-0.603729248046875,-0.241943359375,-0.545318603515625
1726940423293464300,4.51146435546875,-0.61260986328125,-0.253814697265625,-0.573516845703125
1726940423303450400,4.521450439453125,-0.6628265380859375,-0.2602691650390625,-0.610137939453125
1726940423313436200,4.531436279296875,-0.7154693603515625,-0.2609710693359375,-0.63995361328125
1726940423323422500,4.54142236328125,-0.7446136474609375,-0.26531982421875,-0.6563262939453125
1726940423333407500,4.551407470703125,-0.770721435546875,-0.2830810546875,-0.676544189453125
1726940423343394600,4.56139453125,-0.7801361083984375,-0.3341064453125,-0.691741943359375
1726940423353380400,4.57138037109375,-0.7906341552734375,-0.3833465576171875,-0.6854705810546875
1726940423363365600,4.58136572265625,-0.8156585693359375,-0.4239654541015625,-0.688323974609375
1726940423373351700,4.5913515625,-0.8546600341796875,-0.4256134033203125,-0.681060791015625
1726940423383337500,4.60133740234375,-0.8911285400390625,-0.3600616455078125,-0.653564453125
1726940423393323500,4.611323486328125,-0.921539306640625,-0.2622528076171875,-0.6301727294921875
1726940423403308500,4.62130859375,-0.93328857421875,-0.1811981201171875,-0.5922088623046875
1726940423413294600,4.631294677734375,-0.912017822265625,-0.143280029296875,-0.5521392822265625
1726940423423280400,4.6412802734375,-0.8697357177734375,-0.1342926025390625,-0.513519287109375
1726940423433266700,4.6512666015625,-0.819091796875,-0.163543701171875,-0.4921875
1726940423443251700,4.661251708984375,-0.7839508056640625,-0.2034454345703125,-0.4838409423828125
1726940423453237500,4.671237548828125,-0.787261962890625,-0.2118682861328125,-0.482147216796875
1726940423463223600,4.6812236328125,-0.8149261474609375,-0.2036285400390625,-0.508697509765625
1726940423473208300,4.691208251953125,-0.843048095703125,-0.2022857666015625,-0.556884765625
1726940423483194600,4.701194580078125,-0.825927734375,-0.230865478515625,-0.58770751953125
1726940423493180400,4.711180419921875,-0.784393310546875,-0.290679931640625,-0.5912628173828125
1726940423503166500,4.72116650390625,-0.754486083984375,-0.3497161865234375,-0.5932464599609375
1726940423513151700,4.73115185546875,-0.755340576171875,-0.365447998046875,-0.6076812744140625
1726940423523137500,4.741137451171875,-0.7604217529296875,-0.330291748046875,-0.61663818359375
1726940423533123600,4.75112353515625,-0.796478271484375,-0.2175445556640625,-0.607086181640625
1726940423543109400,4.761109375,-0.887451171875,-0.04986572265625,-0.581573486328125
1726940423553094700,4.7710947265625,-1.0014495849609375,0.06243896484375,-0.5691375732421875
1726940423563080400,4.78108056640625,-1.0547027587890625,0.0677032470703125,-0.581024169921875
1726940423573066500,4.79106640625,-1.0916748046875,-0.0300445556640625,-0.602447509765625
1726940423583051500,4.801051513671875,-1.0809173583984375,-0.1551055908203125,-0.5858154296875
1726940423593037600,4.81103759765625,-1.011322021484375,-0.2806549072265625,-0.543182373046875
1726940423603023600,4.821023681640625,-0.912628173828125,-0.3750152587890625,-0.48919677734375
1726940423613009400,4.831009521484375,-0.8160858154296875,-0.4246673583984375,-0.4619140625
1726940423622994400,4.840994384765625,-0.7100677490234375,-0.4033660888671875,-0.447235107421875
1726940423632980500,4.85098046875,-0.6634521484375,-0.3473968505859375,-0.4488372802734375
1726940423642966500,4.860966552734375,-0.6454620361328125,-0.2807769775390625,-0.44805908203125
1726940423652951600,4.87095166015625,-0.6487884521484375,-0.2125091552734375,-0.4680633544921875
1726940423662937600,4.8809375,-0.6509246826171875,-0.15643310546875,-0.483917236328125
1726940423672923600,4.890923583984375,-0.656890869140625,-0.120269775390625,-0.5189666748046875
1726940423682909400,4.900909423828125,-0.678009033203125,-0.0928802490234375,-0.5481719970703125
1726940423692894500,4.91089453125,-0.6579742431640625,-0.0805816650390625,-0.5504608154296875
1726940423702880500,4.920880615234375,-0.6368255615234375,-0.0814056396484375,-0.558441162109375
1726940423712866600,4.930866455078125,-0.6350860595703125,-0.1194915771484375,-0.5979766845703125
1726940423722852400,4.940852294921875,-0.638916015625,-0.1772308349609375,-0.6442718505859375
1726940423732837400,4.95083740234375,-0.6541595458984375,-0.2257537841796875,-0.694488525390625
1726940423742823700,4.96082373046875,-0.684295654296875,-0.2785186767578125,-0.74420166015625
1726940423752809500,4.9708095703125,-0.690765380859375,-0.32012939453125,-0.761016845703125
1726940423762794500,4.98079443359375,-0.6891326904296875,-0.331878662109375,-0.7515869140625
1726940423772780500,4.990780517578125,-0.6877593994140625,-0.30010986328125,-0.7138214111328125
1726940423782766600,5.0007666015625,-0.688018798828125,-0.2480316162109375,-0.655853271484375
1726940423792752400,5.01075244140625,-0.7108154296875,-0.1973419189453125,-0.6083984375
1726940423802737400,5.0207373046875,-0.7251434326171875,-0.1651763916015625,-0.57373046875
1726940423812723700,5.0307236328125,-0.7384185791015625,-0.1479034423828125,-0.546600341796875
1726940423822709500,5.04070947265625,-0.7632904052734375,-0.1490936279296875,-0.536590576171875
1726940423832695600,5.050695556640625,-0.8249359130859375,-0.1913909912109375,-0.5719451904296875
1726940423842680600,5.0606806640625,-0.8914642333984375,-0.2552947998046875,-0.62908935546875
1726940423852666600,5.07066650390625,-0.9256744384765625,-0.3295440673828125,-0.686309814453125
1726940423862652400,5.08065234375,-0.9304351806640625,-0.38165283203125,-0.72662353515625
1726940423872637400,5.090637451171875,-0.923065185546875,-0.3923187255859375,-0.7262725830078125
1726940423882623500,5.10062353515625,-0.9068145751953125,-0.346893310546875,-0.68682861328125
1726940423892609500,5.110609619140625,-0.8802490234375,-0.2879486083984375,-0.64263916015625
1726940423902595600,5.120595703125,-0.847869873046875,-0.2725982666015625,-0.621002197265625
1726940423912580600,5.13058056640625,-0.8128509521484375,-0.2749481201171875,-0.605133056640625
1726940423922566400,5.14056640625,-0.7823333740234375,-0.2702789306640625,-0.585723876953125
1726940423932552700,5.150552734375,-0.7669677734375,-0.2583770751953125,-0.568267822265625
1726940423942537500,5.160537353515625,-0.774261474609375,-0.2441253662109375,-0.550262451171875
1726940423952523500,5.1705234375,-0.786712646484375,-0.238372802734375,-0.534820556640625
1726940423962509600,5.180509521484375,-0.786590576171875,-0.236175537109375,-0.5218505859375
1726940423972495600,5.19049560546875,-0.7794647216796875,-0.24468994140625,-0.515777587890625
1726940423982480600,5.200480712890625,-0.76702880859375,-0.2688140869140625,-0.5170440673828125
1726940423992466400,5.210466552734375,-0.7538604736328125,-0.3014068603515625,-0.517974853515625
1726940424002452700,5.22045263671875,-0.73760986328125,-0.3286285400390625,-0.50946044921875
1726940424012438500,5.2304384765625,-0.71783447265625,-0.32928466796875,-0.5062408447265625
1726940424022423600,5.240423583984375,-0.7178802490234375,-0.3143463134765625,-0.53155517578125
1726940424032409300,5.250409423828125,-0.7263946533203125,-0.293548583984375,-0.5663299560546875
1726940424042395600,5.260395751953125,-0.7457733154296875,-0.2831268310546875,-0.6085357666015625
1726940424052380700,5.270380615234375,-0.762939453125,-0.2871246337890625,-0.6527862548828125
1726940424062366500,5.280366455078125,-0.770965576171875,-0.315338134765625,-0.683624267578125
1726940424072352800,5.290352783203125,-0.7766571044921875,-0.3529205322265625,-0.69366455078125
1726940424082338600,5.300338623046875,-0.7778778076171875,-0.3702545166015625,-0.6777496337890625
1726940424092323600,5.310323486328125,-0.7861480712890625,-0.36810302734375,-0.65179443359375
1726940424102309400,5.320309326171875,-0.809478759765625,-0.37017822265625,-0.6351776123046875
1726940424112295700,5.330295654296875,-0.8416595458984375,-0.363311767578125,-0.6055145263671875
1726940424122281500,5.340281494140625,-0.8513336181640625,-0.350799560546875,-0.5621795654296875
1726940424132266500,5.3502666015625,-0.848907470703125,-0.324188232421875,-0.5060882568359375
1726940424142252500,5.36025244140625,-0.8460235595703125,-0.2986602783203125,-0.457794189453125
1726940424152238600,5.370238525390625,-0.821563720703125,-0.273773193359375,-0.4170684814453125
1726940424162223600,5.3802236328125,-0.798858642578125,-0.2541656494140625,-0.38720703125
1726940424172209400,5.39020947265625,-0.79229736328125,-0.231689453125,-0.3864593505859375
1726940424182195500,5.400195556640625,-0.7779083251953125,-0.225921630859375,-0.4141845703125
1726940424192181500,5.410181396484375,-0.75445556640625,-0.231689453125,-0.4671173095703125
1726940424202166500,5.42016650390625,-0.7423858642578125,-0.2439117431640625,-0.523040771484375
1726940424212152600,5.430152587890625,-0.72515869140625,-0.2702484130859375,-0.5576629638671875
1726940424222138600,5.440138671875,-0.72039794921875,-0.303985595703125,-0.5826416015625
1726940424232123600,5.45012353515625,-0.706512451171875,-0.3361968994140625,-0.6023406982421875
1726940424242109400,5.460109375,-0.707916259765625,-0.3541107177734375,-0.6100921630859375
1726940424252095500,5.470095458984375,-0.707366943359375,-0.35076904296875,-0.6016693115234375
1726940424262081500,5.48008154296875,-0.71234130859375,-0.34375,-0.5836334228515625
1726940424272066600,5.490066650390625,-0.7134246826171875,-0.331146240234375,-0.558013916015625
1726940424282052600,5.500052490234375,-0.6828155517578125,-0.3258209228515625,-0.540130615234375
1726940424292038400,5.510038330078125,-0.64581298828125,-0.332183837890625,-0.5193328857421875
1726940424302024700,5.520024658203125,-0.61285400390625,-0.3562774658203125,-0.498931884765625
1726940424312009500,5.530009521484375,-0.5795440673828125,-0.39093017578125,-0.469970703125
1726940424321995500,5.53999560546875,-0.55694580078125,-0.4395294189453125,-0.432464599609375
1726940424331981300,5.549981201171875,-0.5503387451171875,-0.492156982421875,-0.41351318359375
1726940424341966600,5.559966552734375,-0.5681304931640625,-0.541107177734375,-0.4278717041015625
1726940424351952100,5.5699521484375,-0.6317901611328125,-0.561492919921875,-0.4652862548828125
1726940424361938200,5.579938232421875,-0.707305908203125,-0.5736541748046875,-0.501983642578125
1726940424371924200,5.58992431640625,-0.7668914794921875,-0.5413970947265625,-0.532928466796875
1726940424381909200,5.5999091796875,-0.8220672607421875,-0.463623046875,-0.5368499755859375
1726940424391895000,5.60989501953125,-0.8675079345703125,-0.3452606201171875,-0.5183868408203125
1726940424401881300,5.61988134765625,-0.8961639404296875,-0.2276153564453125,-0.4963836669921875
1726940424411866000,5.6298662109375,-0.9299774169921875,-0.112884521484375,-0.47979736328125
1726940424421852200,5.63985205078125,-0.9804840087890625,-0.0353546142578125,-0.4817352294921875
1726940424431838200,5.649838134765625,-1.0289306640625,-0.0023956298828125,-0.4718475341796875
1726940424441824300,5.65982421875,-1.02685546875,0.014862060546875,-0.4403076171875
1726940424451809300,5.669809326171875,-1.0168609619140625,0.0181732177734375,-0.4016265869140625
1726940424461795000,5.679795166015625,-1.01116943359375,0.0066375732421875,-0.373260498046875
1726940424471781400,5.689781494140625,-0.9889068603515625,-0.0132598876953125,-0.3398284912109375
1726940424481767200,5.69976708984375,-0.9582977294921875,-0.0305938720703125,-0.309722900390625
1726940424491752200,5.709752197265625,-0.9155731201171875,-0.06353759765625,-0.2777252197265625
1726940424501738000,5.719738037109375,-0.8926544189453125,-0.1252288818359375,-0.273284912109375
1726940424511724300,5.729724365234375,-0.9023284912109375,-0.20831298828125,-0.3034515380859375
1726940424521709300,5.739709228515625,-0.912689208984375,-0.272613525390625,-0.3295440673828125
1726940424531695000,5.749695068359375,-0.8860015869140625,-0.3331298828125,-0.344512939453125
1726940424541681200,5.75968115234375,-0.857421875,-0.374725341796875,-0.3275909423828125
1726940424551667200,5.769667236328125,-0.8490142822265625,-0.4192657470703125,-0.3488616943359375
1726940424561652200,5.77965234375,-0.879425048828125,-0.470855712890625,-0.4139251708984375
1726940424571638000,5.789637939453125,-0.878204345703125,-0.540863037109375,-0.4893951416015625
1726940424581624300,5.799624267578125,-0.8957672119140625,-0.6346588134765625,-0.577606201171875
1726940424591610000,5.809610107421875,-0.8807220458984375,-0.7005615234375,-0.6428985595703125
1726940424601595100,5.81959521484375,-0.80419921875,-0.7266693115234375,-0.684112548828125
1726940424611581200,5.829581298828125,-0.76202392578125,-0.6892242431640625,-0.6721038818359375
1726940424621567200,5.839567138671875,-0.7420501708984375,-0.639495849609375,-0.6493682861328125
1726940424631552300,5.84955224609375,-0.7032928466796875,-0.6060028076171875,-0.6210784912109375
1726940424641538000,5.8595380859375,-0.6923370361328125,-0.5765228271484375,-0.5783233642578125
1726940424651524000,5.869524169921875,-0.75335693359375,-0.5208740234375,-0.5316009521484375
1726940424661510100,5.87951025390625,-0.763092041015625,-0.482330322265625,-0.489044189453125
1726940424671495200,5.8894951171875,-0.7219696044921875,-0.47149658203125,-0.4925994873046875
1726940424681481200,5.899481201171875,-0.6624298095703125,-0.467010498046875,-0.5086212158203125
1726940424691467000,5.909467041015625,-0.654449462890625,-0.4793243408203125,-0.580596923828125
1726940424701452300,5.919452392578125,-0.6204986572265625,-0.4684600830078125,-0.610595703125
1726940424711438000,5.92943798828125,-0.61676025390625,-0.4700927734375,-0.652587890625
1726940424721424100,5.939424072265625,-0.64520263671875,-0.4697265625,-0.6923675537109375
1726940424731410200,5.94941015625,-0.7423858642578125,-0.47607421875,-0.7294158935546875
1726940424741395200,5.959395263671875,-0.8438720703125,-0.4693450927734375,-0.75006103515625
1726940424751381200,5.96938134765625,-0.8929443359375,-0.4360809326171875,-0.7550048828125
1726940424761367000,5.979366943359375,-0.8800048828125,-0.369659423828125,-0.7240753173828125
1726940424771353300,5.989353271484375,-0.8647918701171875,-0.320068359375,-0.7060089111328125
1726940424781338000,5.999338134765625,-0.8278961181640625,-0.2796783447265625,-0.676055908203125
1726940424791324200,6.00932421875,-0.8047332763671875,-0.2394561767578125,-0.641632080078125
1726940424801310000,6.01931005859375,-0.86553955078125,-0.22235107421875,-0.6360015869140625
1726940424811295200,6.029295166015625,-0.872802734375,-0.192169189453125,-0.5901336669921875
1726940424821281300,6.03928125,-0.8545074462890625,-0.1380767822265625,-0.5326385498046875
1726940424831267000,6.04926708984375,-0.83636474609375,-0.08941650390625,-0.48016357421875
1726940424841253000,6.059253173828125,-0.8297882080078125,-0.039886474609375,-0.400238037109375
1726940424851238100,6.069238037109375,-0.8290557861328125,0.0038604736328125,-0.333343505859375
1726940424861224200,6.07922412109375,-0.8025665283203125,0.0068511962890625,-0.2959747314453125
1726940424871210000,6.0892099609375,-0.8223419189453125,-0.013397216796875,-0.2879486083984375
1726940424881195000,6.099195068359375,-0.895172119140625,-0.0697784423828125,-0.310821533203125
1726940424891181300,6.109181396484375,-0.9252777099609375,-0.1334381103515625,-0.314208984375
1726940424901167000,6.1191669921875,-0.813018798828125,-0.185699462890625,-0.3420257568359375
1726940424911153200,6.129153076171875,-0.71832275390625,-0.24456787109375,-0.418853759765625
1726940424921138200,6.13913818359375,-0.7619476318359375,-0.2927703857421875,-0.4508209228515625
1726940424931124200,6.149124267578125,-0.77337646484375,-0.334503173828125,-0.4414520263671875
1726940424941110000,6.159110107421875,-0.7534027099609375,-0.38909912109375,-0.47900390625
1726940424951096000,6.169095947265625,-0.7191314697265625,-0.4544525146484375,-0.5445556640625
1726940424961081300,6.179081298828125,-0.709136962890625,-0.51171875,-0.6249847412109375
1726940424971067100,6.189067138671875,-0.6888580322265625,-0.5590667724609375,-0.69891357421875
1726940424981053200,6.19905322265625,-0.6552734375,-0.586151123046875,-0.7469329833984375
1726940424991038200,6.2090380859375,-0.6329193115234375,-0.5855865478515625,-0.7942352294921875
1726940425001024300,6.219024169921875,-0.64691162109375,-0.59619140625,-0.827789306640625
1726940425011010000,6.229010009765625,-0.721099853515625,-0.6017608642578125,-0.833221435546875
1726940425020996000,6.23899609375,-0.803314208984375,-0.604156494140625,-0.769622802734375
1726940425030981000,6.248981201171875,-0.8623046875,-0.587890625,-0.6562347412109375
1726940425040967200,6.25896728515625,-0.85491943359375,-0.5499114990234375,-0.5369720458984375
1726940425050953200,6.268953125,-0.8317413330078125,-0.5093994140625,-0.4543609619140625
1726940425060939000,6.27893896484375,-0.7816162109375,-0.4774169921875,-0.3975830078125
1726940425070924000,6.288924072265625,-0.71624755859375,-0.47955322265625,-0.3826141357421875
1726940425080910000,6.29891015625,-0.67669677734375,-0.4920501708984375,-0.386474609375
1726940425090896100,6.308896240234375,-0.6512451171875,-0.4697723388671875,-0.432830810546875
1726940425100881200,6.318881103515625,-0.6279144287109375,-0.4269866943359375,-0.4737396240234375
1726940425110867200,6.3288671875,-0.607177734375,-0.389007568359375,-0.52978515625
1726940425120853200,6.338853271484375,-0.60186767578125,-0.3789520263671875,-0.5825042724609375
1726940425130839000,6.348839111328125,-0.607421875,-0.363067626953125,-0.6032867431640625
1726940425140824000,6.358823974609375,-0.646484375,-0.386474609375,-0.6559906005859375
1726940425150810400,6.368810302734375,-0.682464599609375,-0.396270751953125,-0.65509033203125
1726940425160796200,6.378796142578125,-0.75091552734375,-0.390625,-0.59246826171875
1726940425170781200,6.38878125,-0.8130340576171875,-0.3545074462890625,-0.5579376220703125
1726940425180767000,6.39876708984375,-0.8528289794921875,-0.2889404296875,-0.5581817626953125
1726940425190753300,6.408753173828125,-0.854461669921875,-0.2537689208984375,-0.6398468017578125
1726940425200739000,6.418739013671875,-0.8458099365234375,-0.229400634765625,-0.6756591796875
1726940425210724000,6.42872412109375,-0.816192626953125,-0.2091827392578125,-0.6289825439453125
1726940425220710100,6.438710205078125,-0.7746429443359375,-0.2397613525390625,-0.5684814453125
1726940425230696200,6.4486962890625,-0.752410888671875,-0.3110504150390625,-0.501861572265625
1726940425240682200,6.45868212890625,-0.7207489013671875,-0.36993408203125,-0.453125
1726940425250667000,6.4686669921875,-0.686065673828125,-0.419708251953125,-0.477630615234375
1726940425260653300,6.4786533203125,-0.6746063232421875,-0.4608306884765625,-0.5322723388671875
1726940425270639000,6.48863916015625,-0.6781768798828125,-0.4838104248046875,-0.5843658447265625
1726940425280624000,6.4986240234375,-0.6935882568359375,-0.498992919921875,-0.5800323486328125
1726940425290610200,6.508610107421875,-0.718780517578125,-0.4997711181640625,-0.50537109375
1726940425300596200,6.51859619140625,-0.72674560546875,-0.491729736328125,-0.466033935546875
1726940425310582300,6.528582275390625,-0.694427490234375,-0.496307373046875,-0.4794921875
1726940425320567000,6.538567138671875,-0.6718597412109375,-0.5161590576171875,-0.5216064453125
1726940425330553000,6.548552978515625,-0.6907958984375,-0.5495147705078125,-0.54736328125
1726940425340539100,6.5585390625,-0.737518310546875,-0.5724334716796875,-0.512176513671875
1726940425350524200,6.568524169921875,-0.832366943359375,-0.57550048828125,-0.4542999267578125
1726940425360510200,6.57851025390625,-0.9053802490234375,-0.5499267578125,-0.4117584228515625
1726940425370496000,6.58849609375,-0.9277496337890625,-0.523529052734375,-0.386322021484375
1726940425380482000,6.59848193359375,-0.9181976318359375,-0.47601318359375,-0.4140625
1726940425390467000,6.608467041015625,-0.889404296875,-0.422698974609375,-0.450408935546875
1726940425400453000,6.618453125,-0.8157806396484375,-0.3907470703125,-0.4637603759765625
1726940425410439000,6.62843896484375,-0.7278289794921875,-0.373260498046875,-0.4728546142578125
1726940425420425200,6.63842529296875,-0.6665496826171875,-0.3410491943359375,-0.471771240234375
1726940425430410200,6.64841015625,-0.6755523681640625,-0.3214874267578125,-0.4705352783203125
1726940425440396000,6.65839599609375,-0.6410675048828125,-0.3005218505859375,-0.474761962890625
1726940425450382000,6.668382080078125,-0.616790771484375,-0.2905120849609375,-0.4758758544921875
1726940425460366800,6.678366943359375,-0.608367919921875,-0.3072662353515625,-0.492767333984375
1726940425470353200,6.688353271484375,-0.6300048828125,-0.3411407470703125,-0.498443603515625
1726940425480339000,6.6983388671875,-0.6947174072265625,-0.3815155029296875,-0.47698974609375
1726940425490325000,6.708324951171875,-0.79766845703125,-0.42559814453125,-0.48052978515625
1726940425500310300,6.718310302734375,-0.8940277099609375,-0.47247314453125,-0.4892120361328125
1726940425510296000,6.728296142578125,-0.950927734375,-0.516204833984375,-0.4864654541015625
1726940425520282000,6.7382822265625,-0.9769287109375,-0.5449066162109375,-0.49456787109375
1726940425530267000,6.748266845703125,-0.9294891357421875,-0.5799102783203125,-0.522064208984375
1726940425540253200,6.758253173828125,-0.839599609375,-0.6088714599609375,-0.538360595703125
1726940425550239000,6.768239013671875,-0.74078369140625,-0.6182403564453125,-0.5301971435546875
1726940425560225000,6.77822509765625,-0.68133544921875,-0.587371826171875,-0.4953765869140625
1726940425570210000,6.7882099609375,-0.6689453125,-0.5519866943359375,-0.4853057861328125
1726940425580196000,6.798196044921875,-0.6403350830078125,-0.5216217041015625,-0.4990234375
1726940425590182100,6.80818212890625,-0.6197052001953125,-0.4979095458984375,-0.51605224609375
1726940425600168000,6.81816796875,-0.6088104248046875,-0.486083984375,-0.5327911376953125
1726940425610153000,6.828153076171875,-0.6047821044921875,-0.472137451171875,-0.514801025390625
1726940425620139000,6.838138916015625,-0.5967559814453125,-0.44287109375,-0.49468994140625
1726940425630125000,6.848125,-0.5807647705078125,-0.421844482421875,-0.4838104248046875
1726940425640110000,6.858110107421875,-0.5577392578125,-0.400299072265625,-0.4382476806640625
1726940425650096000,6.86809619140625,-0.5247802734375,-0.416229248046875,-0.466339111328125
1726940425660082200,6.878082275390625,-0.50640869140625,-0.4515380859375,-0.5605926513671875
1726940425670068000,6.88806787109375,-0.53118896484375,-0.4827880859375,-0.6635589599609375
1726940425680053000,6.898052978515625,-0.612335205078125,-0.50677490234375,-0.743316650390625
1726940425690039000,6.9080390625,-0.7079010009765625,-0.521575927734375,-0.7348480224609375
1726940425700025000,6.918025146484375,-0.7406005859375,-0.5475006103515625,-0.6288909912109375
1726940425710011000,6.928010986328125,-0.7244110107421875,-0.5664215087890625,-0.49725341796875
1726940425719996000,6.937995849609375,-0.6648712158203125,-0.576385498046875,-0.3849639892578125
1726940425729982200,6.947982177734375,-0.6258087158203125,-0.560516357421875,-0.33953857421875
1726940425739968000,6.957968017578125,-0.5861968994140625,-0.5523681640625,-0.351318359375
1726940425749953000,6.967953125,-0.60772705078125,-0.51751708984375,-0.3471527099609375
1726940425759939000,6.97793896484375,-0.709442138671875,-0.474395751953125,-0.370208740234375
1726940425769925000,6.987925048828125,-0.774505615234375,-0.41424560546875,-0.40191650390625
1726940425779911200,6.9979111328125,-0.8033294677734375,-0.3721771240234375,-0.4646148681640625
1726940425789896000,7.00789599609375,-0.780609130859375,-0.35662841796875,-0.529571533203125
1726940425799882200,7.01788232421875,-0.7848052978515625,-0.3445892333984375,-0.5682373046875
1726940425809868000,7.027867919921875,-0.7803955078125,-0.34619140625,-0.5810089111328125
1726940425819853000,7.03785302734375,-0.7201385498046875,-0.3371734619140625,-0.5259552001953125
1726940425829839000,7.047839111328125,-0.6985015869140625,-0.345184326171875,-0.518096923828125
1726940425839825200,7.0578251953125,-0.7088470458984375,-0.3754730224609375,-0.519683837890625
1726940425849811200,7.067811279296875,-0.76239013671875,-0.4027252197265625,-0.522064208984375
1726940425859796000,7.0777958984375,-0.8491973876953125,-0.498321533203125,-0.50262451171875
1726940425869782000,7.087781982421875,-0.892547607421875,-0.60198974609375,-0.488372802734375
1726940425879768000,7.09776806640625,-0.9383392333984375,-0.6510467529296875,-0.5078277587890625
1726940425889754000,7.107754150390625,-0.99822998046875,-0.651824951171875,-0.4809417724609375
1726940425899739100,7.1177392578125,-1.035491943359375,-0.5902557373046875,-0.2995758056640625
1726940425909725200,7.12772509765625,-0.8661956787109375,-0.5216522216796875,-0.252960205078125
1726940425919711200,7.137711181640625,-0.8129425048828125,-0.438507080078125,-0.3075103759765625
1726940425929696000,7.147696044921875,-0.79608154296875,-0.4422607421875,-0.42364501953125
1726940425939682000,7.15768212890625,-0.746551513671875,-0.440277099609375,-0.4437103271484375
1726940425949668000,7.167668212890625,-0.725250244140625,-0.438079833984375,-0.4347991943359375
1726940425959654100,7.177654052734375,-0.6610107421875,-0.4150543212890625,-0.4245452880859375
1726940425969639200,7.18763916015625,-0.6215972900390625,-0.3905181884765625,-0.4156646728515625
1726940425979625000,7.197625,-0.618621826171875,-0.380950927734375,-0.4206695556640625
1726940425989611300,7.207611328125,-0.6221923828125,-0.3852996826171875,-0.42962646484375
1726940425999596000,7.217595947265625,-0.615753173828125,-0.3792877197265625,-0.4355926513671875
1726940426009582000,7.22758203125,-0.6410064697265625,-0.3857574462890625,-0.47601318359375
1726940426019567900,7.23756787109375,-0.691925048828125,-0.4198760986328125,-0.5372314453125
1726940426029554200,7.24755419921875,-0.7704925537109375,-0.468597412109375,-0.644073486328125
1726940426039539200,7.257539306640625,-0.8834075927734375,-0.5227203369140625,-0.7462921142578125
1726940426049525000,7.26752490234375,-0.995574951171875,-0.5880889892578125,-0.83203125
1726940426059511300,7.27751123046875,-1.118896484375,-0.5977630615234375,-0.860443115234375
1726940426069497000,7.2874970703125,-1.1972808837890625,-0.5496368408203125,-0.7455902099609375
1726940426079482000,7.297482177734375,-1.1240234375,-0.4774169921875,-0.635711669921875
1726940426089468000,7.307468017578125,-1.0797271728515625,-0.4023590087890625,-0.5486602783203125
1726940426099454200,7.3174541015625,-0.997161865234375,-0.3819427490234375,-0.4939117431640625
1726940426109439200,7.327439208984375,-0.8749237060546875,-0.3753814697265625,-0.4707183837890625
1726940426119425000,7.337425048828125,-0.7830352783203125,-0.377716064453125,-0.458984375
1726940426129411000,7.3474111328125,-0.7164459228515625,-0.3592071533203125,-0.4307403564453125
1726940426139397000,7.357397216796875,-0.64373779296875,-0.335601806640625,-0.413543701171875
1726940426149382100,7.367382080078125,-0.58197021484375,-0.310577392578125,-0.388519287109375
1726940426159368000,7.377367919921875,-0.537689208984375,-0.2755889892578125,-0.3655853271484375
1726940426169354000,7.38735400390625,-0.487823486328125,-0.2503509521484375,-0.35528564453125
1726940426179340000,7.397340087890625,-0.4549102783203125,-0.24456787109375,-0.3451080322265625
1726940426189325000,7.407324951171875,-0.439605712890625,-0.247283935546875,-0.3579254150390625
1726940426199311000,7.41731103515625,-0.4595489501953125,-0.2681732177734375,-0.369110107421875
1726940426209297200,7.427297119140625,-0.4582366943359375,-0.288238525390625,-0.3623199462890625
1726940426219282200,7.4372822265625,-0.4754638671875,-0.3088531494140625,-0.3782806396484375
1726940426229268000,7.44726806640625,-0.5007781982421875,-0.334747314453125,-0.4094085693359375
1726940426239254000,7.45725390625,-0.563018798828125,-0.3889312744140625,-0.475982666015625
1726940426249240000,7.467239990234375,-0.6534881591796875,-0.45758056640625,-0.5347747802734375
1726940426259225000,7.47722509765625,-0.757720947265625,-0.5213623046875,-0.587066650390625
1726940426269211100,7.487211181640625,-0.8508758544921875,-0.573394775390625,-0.6597900390625
1726940426279197000,7.497197021484375,-0.940216064453125,-0.6118316650390625,-0.7343292236328125
1726940426289182200,7.50718212890625,-1.0048065185546875,-0.6155242919921875,-0.777801513671875
1726940426299168000,7.51716796875,-1.0550384521484375,-0.595428466796875,-0.80682373046875
1726940426309154000,7.527154052734375,-1.0755462646484375,-0.551544189453125,-0.8119049072265625
1726940426319139800,7.537139892578125,-1.032867431640625,-0.4850006103515625,-0.781524658203125
1726940426329125000,7.547125,-0.9334564208984375,-0.4288482666015625,-0.730682373046875
1726940426339111200,7.557111083984375,-0.82989501953125,-0.38201904296875,-0.704742431640625
1726940426349097200,7.56709716796875,-0.753814697265625,-0.344329833984375,-0.688812255859375
1726940426359083300,7.577083251953125,-0.7081756591796875,-0.3164825439453125,-0.6472625732421875
1726940426369068000,7.587068115234375,-0.6767730712890625,-0.2949371337890625,-0.593414306640625
1726940426379054300,7.597054443359375,-0.660430908203125,-0.282562255859375,-0.5581512451171875
1726940426389040000,7.6070400390625,-0.68475341796875,-0.2952728271484375,-0.536529541015625
1726940426399025200,7.617025146484375,-0.726043701171875,-0.350250244140625,-0.5263214111328125
1726940426409011200,7.62701123046875,-0.758026123046875,-0.396820068359375,-0.5170745849609375
1726940426418997200,7.636997314453125,-0.7742156982421875,-0.4337005615234375,-0.52252197265625
1726940426428983300,7.6469833984375,-0.7765960693359375,-0.4524993896484375,-0.5121002197265625
1726940426438968000,7.656968017578125,-0.745086669921875,-0.4504241943359375,-0.4844818115234375
1726940426448954000,7.6669541015625,-0.735687255859375,-0.44012451171875,-0.4765777587890625
1726940426458940200,7.676940185546875,-0.7440643310546875,-0.414825439453125,-0.4723663330078125
1726940426468925200,7.68692529296875,-0.7700347900390625,-0.4022369384765625,-0.469085693359375
1726940426478911200,7.6969111328125,-0.776458740234375,-0.4022064208984375,-0.447540283203125
1726940426488897000,7.70689697265625,-0.7328643798828125,-0.4022674560546875,-0.420684814453125
1726940426498883300,7.71688330078125,-0.7055511474609375,-0.3892822265625,-0.399261474609375
1726940426508868000,7.7268681640625,-0.6841583251953125,-0.3675079345703125,-0.3895416259765625
1726940426518854100,7.736854248046875,-0.6604461669921875,-0.37628173828125,-0.4004058837890625
1726940426528840200,7.746840087890625,-0.68145751953125,-0.407501220703125,-0.4129180908203125
1726940426538826200,7.756826171875,-0.722930908203125,-0.449798583984375,-0.4398956298828125
1726940426548811300,7.766811279296875,-0.8190765380859375,-0.5059967041015625,-0.4914093017578125
1726940426558797000,7.776797119140625,-0.92474365234375,-0.5444183349609375,-0.5541229248046875
1726940426568783400,7.786783447265625,-1.0677947998046875,-0.5280303955078125,-0.567596435546875
1726940426578768100,7.79676806640625,-1.1790924072265625,-0.38525390625,-0.5135040283203125
1726940426588754200,7.806754150390625,-1.191680908203125,-0.2212677001953125,-0.46478271484375
1726940426598740200,7.816740234375,-1.07452392578125,-0.1256256103515625,-0.39520263671875
1726940426608726300,7.826726318359375,-0.9577484130859375,-0.0804443359375,-0.3383026123046875
1726940426618711300,7.836711181640625,-0.887603759765625,-0.0751953125,-0.2923736572265625
1726940426628697000,7.846697021484375,-0.8126983642578125,-0.074432373046875,-0.2678680419921875
1726940426638683100,7.85668310546875,-0.7828826904296875,-0.1195068359375,-0.293304443359375
1726940426648669200,7.866669189453125,-0.7804412841796875,-0.2173614501953125,-0.361480712890625
1726940426658654200,7.876654296875,-0.7770843505859375,-0.3011627197265625,-0.4306640625
1726940426668640300,7.88664013671875,-0.7994232177734375,-0.34246826171875,-0.4829254150390625
1726940426678626300,7.896626220703125,-0.83624267578125,-0.3182830810546875,-0.4744415283203125
1726940426688611300,7.906611328125,-0.8439178466796875,-0.239959716796875,-0.4171295166015625
1726940426698597000,7.91659716796875,-0.8252410888671875,-0.158477783203125,-0.37530517578125
1726940426708583200,7.926583251953125,-0.779754638671875,-0.0643463134765625,-0.34423828125
1726940426718569200,7.9365693359375,-0.733062744140625,0.02044677734375,-0.33331298828125
1726940426728554200,7.94655419921875,-0.7370758056640625,0.0694732666015625,-0.377838134765625
1726940426738540300,7.956540283203125,-0.786651611328125,0.0677032470703125,-0.4451141357421875
1726940426748526000,7.966526123046875,-0.862274169921875,0.0107269287109375,-0.5481414794921875
1726940426758511400,7.976511474609375,-0.9409027099609375,-0.078826904296875,-0.64886474609375
1726940426768497200,7.9864970703125,-1.0184173583984375,-0.1265106201171875,-0.6864471435546875
1726940426778483200,7.996483154296875,-1.0521240234375,-0.117431640625,-0.6602935791015625
1726940426788469200,8.00646923828125,-0.9901123046875,-0.0767059326171875,-0.565032958984375
1726940426798454300,8.016454345703124,-0.94403076171875,-0.0377349853515625,-0.5115203857421875
1726940426808440300,8.0264404296875,-0.9358062744140625,-0.022216796875,-0.517181396484375
1726940426818426000,8.036426025390625,-0.941558837890625,-0.0246124267578125,-0.528900146484375
1726940426828412400,8.046412353515626,-0.921112060546875,-0.0660552978515625,-0.542572021484375
1726940426838397200,8.056397216796874,-0.907501220703125,-0.10369873046875,-0.5437774658203125
1726940426848383200,8.06638330078125,-0.8679046630859375,-0.12115478515625,-0.5182037353515625
1726940426858369000,8.076369140625,-0.8118896484375,-0.1199798583984375,-0.4809112548828125
1726940426868354000,8.08635400390625,-0.7912445068359375,-0.1082916259765625,-0.434356689453125
1726940426878340400,8.09634033203125,-0.77154541015625,-0.09454345703125,-0.3979339599609375
1726940426888326100,8.106326171875,-0.759765625,-0.078643798828125,-0.3811187744140625
1726940426898312200,8.116312255859375,-0.75518798828125,-0.076141357421875,-0.3589630126953125
1726940426908297200,8.126297119140625,-0.763702392578125,-0.091400146484375,-0.3542938232421875
1726940426918283300,8.136283203125,-0.74188232421875,-0.1111297607421875,-0.3401031494140625
1726940426928269000,8.14626904296875,-0.7353363037109375,-0.1108856201171875,-0.316131591796875
1726940426938255400,8.15625537109375,-0.7402191162109375,-0.11322021484375,-0.3037261962890625
1726940426948240400,8.166240478515626,-0.76312255859375,-0.125518798828125,-0.305908203125
1726940426958226200,8.17622607421875,-0.7983245849609375,-0.141754150390625,-0.3188934326171875
1726940426968212200,8.186212158203125,-0.8173828125,-0.1803131103515625,-0.3383636474609375
1726940426978197000,8.196197021484375,-0.85107421875,-0.24554443359375,-0.3857879638671875
1726940426988183300,8.206183349609375,-0.839599609375,-0.3258514404296875,-0.43157958984375
1726940426998169000,8.216169189453124,-0.809967041015625,-0.3985748291015625,-0.4628753662109375
1726940427008155100,8.226155029296875,-0.8101043701171875,-0.4499359130859375,-0.4777069091796875
1726940427018140400,8.236140380859375,-0.865814208984375,-0.4756317138671875,-0.5013580322265625
1726940427028126200,8.246126220703125,-0.9745025634765625,-0.492279052734375,-0.532928466796875
1726940427038112300,8.2561123046875,-1.064422607421875,-0.515045166015625,-0.5606842041015625
1726940427048097000,8.266096923828124,-1.1540679931640625,-0.5211181640625,-0.5923309326171875
1726940427058083300,8.276083251953125,-1.1227569580078125,-0.5023651123046875,-0.5927581787109375
1726940427068069000,8.286069091796875,-1.009857177734375,-0.462066650390625,-0.5348663330078125
1726940427078055200,8.29605517578125,-0.9197235107421875,-0.4061431884765625,-0.470489501953125
1726940427088040200,8.306040283203124,-0.87054443359375,-0.3386383056640625,-0.4263458251953125
1726940427098026200,8.316026123046875,-0.856170654296875,-0.283782958984375,-0.3978271484375
1726940427108012300,8.32601220703125,-0.833282470703125,-0.2440643310546875,-0.38201904296875
1726940427117998000,8.335998046875,-0.8298492431640625,-0.2066802978515625,-0.371917724609375
1726940427127983000,8.345983154296874,-0.833648681640625,-0.199615478515625,-0.372833251953125
1726940427137969200,8.35596923828125,-0.844390869140625,-0.211944580078125,-0.3830413818359375
1726940427147955200,8.365955078125,-0.869171142578125,-0.2269744873046875,-0.399078369140625
1726940427157940200,8.375940185546876,-0.871795654296875,-0.2499237060546875,-0.4125823974609375
1726940427167926300,8.38592626953125,-0.8523406982421875,-0.273651123046875,-0.4341278076171875
1726940427177912300,8.395912353515625,-0.8458099365234375,-0.3088531494140625,-0.465179443359375
1726940427187898000,8.405898193359375,-0.8743438720703125,-0.3379058837890625,-0.4979095458984375
1726940427197883100,8.415883056640626,-0.8944854736328125,-0.3742523193359375,-0.5308685302734375
1726940427207869200,8.425869140625,-0.8700408935546875,-0.40850830078125,-0.5519866943359375
1726940427217855200,8.435855224609375,-0.80853271484375,-0.448516845703125,-0.576507568359375
1726940427227841000,8.445841064453125,-0.734466552734375,-0.469879150390625,-0.5723724365234375
1726940427237826000,8.455825927734375,-0.691375732421875,-0.491241455078125,-0.5850982666015625
1726940427247812400,8.465812255859374,-0.6822967529296875,-0.49554443359375,-0.627899169921875
1726940427257798100,8.475798095703125,-0.6580657958984375,-0.4826812744140625,-0.629791259765625
1726940427267783200,8.485783203125,-0.66314697265625,-0.475128173828125,-0.628570556640625
1726940427277769200,8.495769287109376,-0.712127685546875,-0.4867401123046875,-0.6726531982421875
1726940427287755300,8.50575537109375,-0.73822021484375,-0.4810028076171875,-0.664459228515625
1726940427297741000,8.515740966796875,-0.771453857421875,-0.4485015869140625,-0.625946044921875
1726940427307726000,8.52572607421875,-0.8117828369140625,-0.4228515625,-0.589599609375
1726940427317712400,8.53571240234375,-0.8402099609375,-0.376007080078125,-0.571319580078125
1726940427327698200,8.5456982421875,-0.886810302734375,-0.2969512939453125,-0.5246124267578125
1726940427337683200,8.55568310546875,-0.940032958984375,-0.214080810546875,-0.4658203125
1726940427347669200,8.565669189453125,-0.9480438232421875,-0.1619873046875,-0.4325408935546875
1726940427357655000,8.575655029296875,-0.9160003662109375,-0.1382598876953125,-0.4429168701171875
1726940427367641000,8.58564111328125,-0.8876800537109375,-0.14373779296875,-0.529327392578125
1726940427377626000,8.595626220703124,-0.8699188232421875,-0.18414306640625,-0.6290283203125
1726940427387612200,8.605612060546875,-0.892669677734375,-0.2349090576171875,-0.6820831298828125
1726940427397598200,8.61559814453125,-0.913726806640625,-0.25799560546875,-0.660003662109375
1726940427407584300,8.625584228515624,-0.8867034912109375,-0.2759246826171875,-0.6195068359375
1726940427417569300,8.6355693359375,-0.8616485595703125,-0.3035736083984375,-0.583160400390625
1726940427427555000,8.64555517578125,-0.8367919921875,-0.3219451904296875,-0.532958984375
1726940427437541000,8.655541015625,-0.790283203125,-0.34161376953125,-0.4649658203125
1726940427447526100,8.665526123046876,-0.7642364501953125,-0.3623504638671875,-0.394866943359375
1726940427457512200,8.67551220703125,-0.7726593017578125,-0.373687744140625,-0.3010711669921875
1726940427467498000,8.685498046875,-0.7925262451171875,-0.3676300048828125,-0.1916351318359375
1726940427477484300,8.695484375,-0.7540130615234375,-0.3523712158203125,-0.126312255859375
1726940427487469300,8.70546923828125,-0.64935302734375,-0.3470306396484375,-0.1163482666015625
1726940427497455000,8.715455078125,-0.5725555419921875,-0.3394622802734375,-0.1304779052734375
1726940427507441200,8.725441162109375,-0.4709625244140625,-0.3206634521484375,-0.2068634033203125
1726940427517427200,8.73542724609375,-0.4092254638671875,-0.34771728515625,-0.2961273193359375
1726940427527412200,8.745412109375,-0.4034576416015625,-0.367218017578125,-0.3910980224609375
1726940427537398000,8.75539794921875,-0.4639739990234375,-0.3759765625,-0.498626708984375
1726940427547384300,8.76538427734375,-0.527069091796875,-0.3755340576171875,-0.573760986328125
1726940427557369300,8.775369384765625,-0.6076812744140625,-0.3542327880859375,-0.602294921875
1726940427567355100,8.785355224609376,-0.6631011962890625,-0.3246307373046875,-0.6307525634765625
1726940427577341200,8.795341064453124,-0.6729583740234375,-0.297760009765625,-0.6400146484375
1726940427587327200,8.8053271484375,-0.71759033203125,-0.3003387451171875,-0.69854736328125
1726940427597312300,8.815312255859375,-0.8362884521484375,-0.337188720703125,-0.7471160888671875
1726940427607298000,8.825298095703126,-1.00201416015625,-0.39276123046875,-0.747283935546875
1726940427617284000,8.8352841796875,-1.2042236328125,-0.4537811279296875,-0.7012176513671875
1726940427627270100,8.845270263671875,-1.29302978515625,-0.5319976806640625,-0.6516265869140625
1726940427637255200,8.855255126953125,-1.3040771484375,-0.5647430419921875,-0.5603485107421875
1726940427647241200,8.8652412109375,-1.3006591796875,-0.5566558837890625,-0.439666748046875
1726940427657227000,8.87522705078125,-1.200836181640625,-0.55218505859375,-0.4089813232421875
1726940427667212300,8.88521240234375,-1.014251708984375,-0.537567138671875,-0.428924560546875
1726940427677198000,8.895197998046875,-0.8399505615234375,-0.5130767822265625,-0.4391632080078125
1726940427687184100,8.90518408203125,-0.6973419189453125,-0.50006103515625,-0.4657745361328125
1726940427697170200,8.915170166015624,-0.6302490234375,-0.4615478515625,-0.5033721923828125
1726940427707155200,8.9251552734375,-0.6474609375,-0.3971710205078125,-0.483123779296875
1726940427717141200,8.935141357421875,-0.5945892333984375,-0.3457794189453125,-0.458648681640625
1726940427727127000,8.945126953125,-0.6175994873046875,-0.2953033447265625,-0.43951416015625
1726940427737113300,8.95511328125,-0.6663665771484375,-0.2446136474609375,-0.4189605712890625
1726940427747098000,8.96509814453125,-0.6846771240234375,-0.221893310546875,-0.3956298828125
1726940427757084200,8.975084228515625,-0.675048828125,-0.2192535400390625,-0.424468994140625
1726940427767070000,8.985070068359375,-0.6449127197265625,-0.22528076171875,-0.463348388671875
1726940427777055200,8.99505517578125,-0.6110992431640625,-0.232421875,-0.53228759765625
1726940427787041300,9.005041259765624,-0.7115631103515625,-0.2367401123046875,-0.602813720703125
1726940427797027000,9.015027099609375,-0.8236846923828125,-0.242645263671875,-0.6070709228515625
1726940427807013400,9.025013427734375,-0.87835693359375,-0.2681732177734375,-0.612060546875
1726940427816998100,9.034998046875,-0.9391937255859375,-0.2875518798828125,-0.58526611328125
1726940427826984200,9.044984130859374,-0.908447265625,-0.30242919921875,-0.58447265625
1726940427836970000,9.054969970703125,-0.858123779296875,-0.31298828125,-0.62957763671875
1726940427846955000,9.064955078125,-0.90765380859375,-0.31732177734375,-0.6404876708984375
1726940427856941300,9.07494140625,-0.9554901123046875,-0.3215789794921875,-0.6092376708984375
1726940427866927000,9.084927001953124,-0.9796295166015625,-0.33636474609375,-0.603302001953125
1726940427876913200,9.0949130859375,-1.016937255859375,-0.3807830810546875,-0.59228515625
1726940427886898000,9.10489794921875,-1.030914306640625,-0.395782470703125,-0.5570831298828125
1726940427896884200,9.11488427734375,-0.947906494140625,-0.3768463134765625,-0.53436279296875
1726940427906870000,9.1248701171875,-0.8327178955078125,-0.3732757568359375,-0.52197265625
1726940427916856000,9.13485595703125,-0.7933197021484375,-0.361724853515625,-0.5182647705078125
1726940427926841300,9.14484130859375,-0.7792510986328125,-0.3434600830078125,-0.5057220458984375
1726940427936827100,9.1548271484375,-0.79364013671875,-0.3469696044921875,-0.4985198974609375
1726940427946813200,9.164813232421874,-0.8436737060546875,-0.3511199951171875,-0.4889373779296875
1726940427956798000,9.1747978515625,-0.894561767578125,-0.345550537109375,-0.4713134765625
1726940427966784300,9.1847841796875,-0.8941650390625,-0.345794677734375,-0.448638916015625
1726940427976770000,9.19477001953125,-0.8115386962890625,-0.3391571044921875,-0.4003448486328125
1726940427986756000,9.204756103515624,-0.727752685546875,-0.3083343505859375,-0.347015380859375
1726940427996741000,9.2147412109375,-0.66241455078125,-0.244598388671875,-0.3136749267578125
1726940428006727200,9.22472705078125,-0.67999267578125,-0.176055908203125,-0.3197479248046875
1726940428016713200,9.234713134765625,-0.7733612060546875,-0.1653289794921875,-0.36676025390625
1726940428026699000,9.244698974609374,-0.8765411376953125,-0.215240478515625,-0.422576904296875
1726940428036684300,9.254684326171875,-1.0229339599609375,-0.289093017578125,-0.432403564453125
1726940428046670000,9.264670166015625,-1.0843963623046875,-0.2712249755859375,-0.3618011474609375
1726940428056656100,9.27465625,-1.05224609375,-0.1667938232421875,-0.28082275390625
1726940428066641200,9.28464111328125,-0.9778289794921875,-0.0830535888671875,-0.2679290771484375
1726940428076627200,9.294627197265624,-0.91656494140625,0.00946044921875,-0.28411865234375
1726940428086613200,9.30461328125,-0.9186248779296875,0.0851898193359375,-0.325103759765625
1726940428096599000,9.31459912109375,-0.9239044189453125,0.069305419921875,-0.381317138671875
1726940428106584000,9.324583984375,-0.9188995361328125,0.040435791015625,-0.4114532470703125
1726940428116570000,9.334570068359374,-0.88568115234375,0.0462493896484375,-0.409423828125
1726940428126556200,9.34455615234375,-0.8386993408203125,0.0588226318359375,-0.38311767578125
1726940428136541200,9.354541259765625,-0.7918548583984375,0.1053009033203125,-0.3673248291015625
1726940428146527000,9.36452685546875,-0.749359130859375,0.1552581787109375,-0.3900299072265625
1726940428156513300,9.37451318359375,-0.7276153564453125,0.140380859375,-0.45245361328125
1726940428166499000,9.3844990234375,-0.698883056640625,0.0409393310546875,-0.5135040283203125
1726940428176484000,9.394484130859375,-0.752899169921875,-0.0424652099609375,-0.5341644287109375
1726940428186470100,9.40447021484375,-0.819366455078125,-0.0582427978515625,-0.5155792236328125
1726940428196456200,9.414456298828124,-0.8232269287109375,-0.0623321533203125,-0.481964111328125
1726940428206442200,9.424442138671875,-0.822021484375,-0.0512237548828125,-0.4323883056640625
1726940428216427000,9.434427001953125,-0.820037841796875,-0.034027099609375,-0.3966522216796875
1726940428226413300,9.444413330078126,-0.8009185791015625,-0.03271484375,-0.3677825927734375
1726940428236399000,9.454399169921874,-0.7899322509765625,-0.0550384521484375,-0.347625732421875
1726940428246384000,9.464384033203125,-0.7817230224609375,-0.0615234375,-0.3260345458984375
1726940428256370200,9.4743701171875,-0.7811279296875,-0.0499420166015625,-0.3162841796875
1726940428266356200,9.484356201171876,-0.82305908203125,-0.04547119140625,-0.3292694091796875
1726940428276342300,9.49434228515625,-0.872467041015625,-0.0561981201171875,-0.3461151123046875
1726940428286327000,9.5043271484375,-0.9215850830078125,-0.078826904296875,-0.3704681396484375
1726940428296313000,9.51431298828125,-0.9888916015625,-0.1138916015625,-0.406219482421875
1726940428306299100,9.524299072265626,-1.0309906005859375,-0.158782958984375,-0.459625244140625
1726940428316285200,9.53428515625,-1.0552520751953125,-0.190216064453125,-0.5074310302734375
1726940428326270200,9.544270263671875,-1.0857086181640625,-0.232635498046875,-0.5855865478515625
1726940428336256300,9.55425634765625,-1.0886383056640625,-0.2700958251953125,-0.65985107421875
1726940428346241800,9.56424169921875,-1.080352783203125,-0.30816650390625,-0.713958740234375
1726940428356226600,9.5742265625,-1.106292724609375,-0.341583251953125,-0.7518157958984375
1726940428366212600,9.584212646484374,-1.0617828369140625,-0.3352508544921875,-0.750030517578125
1726940428376198700,9.59419873046875,-0.9950408935546875,-0.3107757568359375,-0.716796875
1726940428386184700,9.604184814453125,-0.9416351318359375,-0.26849365234375,-0.6715240478515625
1726940428396169700,9.614169677734376,-0.8953857421875,-0.22222900390625,-0.615509033203125
1726940428406155500,9.624155517578124,-0.8724365234375,-0.1912841796875,-0.58514404296875
1726940428416141800,9.634141845703125,-0.856475830078125,-0.1706695556640625,-0.5701751708984375
1726940428426127600,9.644127685546875,-0.823455810546875,-0.16119384765625,-0.539337158203125
1726940428436112600,9.654112548828126,-0.7503509521484375,-0.1629180908203125,-0.5034332275390625
1726940428446098700,9.6640986328125,-0.7101593017578125,-0.1608428955078125,-0.4799041748046875
1726940428456084700,9.674084716796875,-0.6978912353515625,-0.1662139892578125,-0.4684295654296875
1726940428466069800,9.68406982421875,-0.726959228515625,-0.1691741943359375,-0.4600067138671875
1726940428476055600,9.6940556640625,-0.8119659423828125,-0.1761474609375,-0.45361328125
1726940428486041600,9.70404150390625,-0.905975341796875,-0.203948974609375,-0.4688262939453125
1726940428496027600,9.714027587890625,-0.91571044921875,-0.238006591796875,-0.4701995849609375
1726940428506012700,9.7240126953125,-0.8920745849609375,-0.246826171875,-0.44024658203125
1726940428515998700,9.733998779296876,-0.84149169921875,-0.2525634765625,-0.4282684326171875
1726940428525984800,9.74398486328125,-0.7807159423828125,-0.2448577880859375,-0.395050048828125
1726940428535969800,9.7539697265625,-0.782501220703125,-0.2412261962890625,-0.379364013671875
1726940428545955600,9.76395556640625,-0.841064453125,-0.263580322265625,-0.4095611572265625
1726940428555941600,9.773941650390626,-0.90380859375,-0.277587890625,-0.444244384765625
1726940428565927700,9.783927734375,-0.9407806396484375,-0.30218505859375,-0.4969024658203125
1726940428575912700,9.79391259765625,-0.8927459716796875,-0.301483154296875,-0.5055389404296875
1726940428585898800,9.803898681640625,-0.8016815185546875,-0.2894439697265625,-0.5106048583984375
1726940428595884500,9.813884521484376,-0.7373199462890625,-0.2659149169921875,-0.488494873046875
1726940428605870800,9.823870849609374,-0.7924957275390625,-0.2153778076171875,-0.44873046875
1726940428615855600,9.833855712890625,-0.901580810546875,-0.1630706787109375,-0.421112060546875
1726940428625841700,9.843841552734375,-1.005645751953125,-0.144683837890625,-0.4226837158203125
1726940428635827500,9.853827392578125,-1.0190582275390625,-0.1504058837890625,-0.4727783203125
1726940428645812700,9.863812744140626,-0.9722137451171875,-0.1379241943359375,-0.5018157958984375
1726940428655798800,9.873798828125,-0.92340087890625,-0.141510009765625,-0.5105743408203125
1726940428665784600,9.88378466796875,-0.9225921630859375,-0.1612701416015625,-0.495330810546875
1726940428675771000,9.89377099609375,-0.8976287841796875,-0.161529541015625,-0.45068359375
1726940428685755600,9.903755615234376,-0.9297943115234375,-0.214141845703125,-0.4820709228515625
1726940428695741700,9.91374169921875,-0.9647064208984375,-0.259979248046875,-0.50860595703125
1726940428705727500,9.9237275390625,-0.9814453125,-0.2625274658203125,-0.470001220703125
1726940428715713800,9.9337138671875,-0.9341583251953125,-0.278228759765625,-0.38134765625
1726940428725698800,9.94369873046875,-0.8164825439453125,-0.280609130859375,-0.269439697265625
1726940428735684600,9.9536845703125,-0.7144622802734375,-0.2782135009765625,-0.199493408203125
1726940428745670700,9.963670654296875,-0.672210693359375,-0.2879791259765625,-0.261505126953125
1726940428755655700,9.97365576171875,-0.701019287109375,-0.3502349853515625,-0.49273681640625
1726940428765641700,9.983641845703126,-0.7114105224609375,-0.3838958740234375,-0.584136962890625
1726940428775627500,9.99362744140625,-0.665191650390625,-0.3567047119140625,-0.45928955078125
1726940428785613800,10.00361376953125,-0.596343994140625,-0.344757080078125,-0.3567047119140625
1726940428795598800,10.013598876953125,-0.5674896240234375,-0.3611602783203125,-0.3206024169921875
1726940428805584600,10.023584716796876,-0.576934814453125,-0.3848114013671875,-0.360809326171875
1726940428815570700,10.03357080078125,-0.62860107421875,-0.4269256591796875,-0.5209503173828125
1726940428825556700,10.043556640625,-0.728729248046875,-0.44903564453125,-0.609771728515625
1726940428835541800,10.053541748046875,-0.8267059326171875,-0.4249114990234375,-0.5467529296875
1726940428845527600,10.063527587890626,-0.8548126220703125,-0.3820648193359375,-0.4262542724609375
1726940428855513600,10.073513671875,-0.856964111328125,-0.32513427734375,-0.37628173828125
1726940428865498600,10.08349853515625,-0.8628692626953125,-0.33673095703125,-0.3981170654296875
1726940428875484700,10.093484619140625,-0.8839569091796875,-0.379608154296875,-0.4622802734375
1726940428885470700,10.103470703125,-0.9286956787109375,-0.43499755859375,-0.506011962890625
1726940428895456500,10.11345654296875,-0.9593505859375,-0.446258544921875,-0.5110321044921875
1726940428905441800,10.12344189453125,-0.911773681640625,-0.40338134765625,-0.4529571533203125
1726940428915427600,10.133427490234375,-0.86328125,-0.339813232421875,-0.3843994140625
1726940428925413600,10.14341357421875,-0.8376617431640625,-0.3116607666015625,-0.368804931640625
1726940428935398700,10.153398681640626,-0.8446807861328125,-0.3143310546875,-0.4119720458984375
1726940428945384700,10.163384765625,-0.8973388671875,-0.339385986328125,-0.47760009765625
1726940428955370800,10.173370849609375,-0.9362945556640625,-0.3705291748046875,-0.551849365234375
1726940428965356500,10.1833564453125,-0.951751708984375,-0.39312744140625,-0.5608673095703125
1726940428975341600,10.193341552734376,-0.912139892578125,-0.3700714111328125,-0.50555419921875
1726940428985327600,10.20332763671875,-0.7968902587890625,-0.32647705078125,-0.48486328125
1726940428995313700,10.213313720703125,-0.81744384765625,-0.28912353515625,-0.4449615478515625
1726940429005299500,10.223299560546875,-0.809112548828125,-0.2485198974609375,-0.4721527099609375
1726940429015284700,10.23328466796875,-0.8319244384765625,-0.2295989990234375,-0.514617919921875
1726940429025270800,10.243270751953125,-0.8389434814453125,-0.237060546875,-0.564208984375
1726940429035256600,10.253256591796875,-0.8818817138671875,-0.2467803955078125,-0.57684326171875
1726940429045241600,10.26324169921875,-0.891876220703125,-0.2694091796875,-0.5580596923828125
1726940429055227600,10.2732275390625,-0.915985107421875,-0.2797698974609375,-0.5563201904296875
1726940429065213700,10.283213623046874,-0.8845367431640625,-0.28265380859375,-0.5402984619140625
1726940429075199500,10.293199462890625,-0.8450469970703125,-0.2714385986328125,-0.5346832275390625
1726940429085184500,10.3031845703125,-0.8305816650390625,-0.2649078369140625,-0.518402099609375
1726940429095170800,10.3131708984375,-0.8377532958984375,-0.2625732421875,-0.4938812255859375
1726940429105156600,10.323156494140624,-0.839752197265625,-0.2959136962890625,-0.465118408203125
1726940429115141600,10.3331416015625,-0.8115234375,-0.32843017578125,-0.4357452392578125
1726940429125127700,10.343127685546875,-0.7662353515625,-0.3231658935546875,-0.4217681884765625
1726940429135113700,10.35311376953125,-0.723724365234375,-0.313568115234375,-0.425201416015625
1726940429145099500,10.363099609375,-0.7556915283203125,-0.348876953125,-0.479827880859375
1726940429155084500,10.37308447265625,-0.8865814208984375,-0.447479248046875,-0.5672454833984375
1726940429165070800,10.38307080078125,-1.0003204345703125,-0.512054443359375,-0.594024658203125
1726940429175056600,10.393056640625,-1.0121002197265625,-0.455810546875,-0.529998779296875
1726940429185042700,10.403042724609374,-0.95477294921875,-0.3383331298828125,-0.438720703125
1726940429195027700,10.41302783203125,-0.8939666748046875,-0.2540130615234375,-0.3624420166015625
1726940429205013800,10.423013671875,-0.8629608154296875,-0.1501312255859375,-0.3081512451171875
1726940429214999600,10.43299951171875,-0.905792236328125,-0.0858306884765625,-0.330291748046875
1726940429224985600,10.442985595703124,-0.949737548828125,-0.0497894287109375,-0.3504791259765625
1726940429234970600,10.452970703125,-0.95819091796875,0.0165252685546875,-0.3041839599609375
1726940429244956700,10.462956787109375,-0.92742919921875,0.06982421875,-0.2855224609375
1726940429254942700,10.472942626953126,-0.89007568359375,0.1287689208984375,-0.3038330078125
1726940429264927700,10.482927734375,-0.9092254638671875,0.137451171875,-0.386505126953125
1726940429274913500,10.49291357421875,-0.9159698486328125,0.088897705078125,-0.4456329345703125
1726940429284899600,10.502899658203125,-0.931854248046875,0.0341033935546875,-0.4684906005859375
1726940429294885600,10.5128857421875,-0.9217681884765625,-0.0180511474609375,-0.457916259765625
1726940429304870700,10.52287060546875,-0.907196044921875,-0.0126953125,-0.4218597412109375
1726940429314856700,10.532856689453125,-0.8915863037109375,0.03973388671875,-0.39459228515625
1726940429324842800,10.5428427734375,-0.85260009765625,0.091583251953125,-0.376708984375
1726940429334827800,10.552827880859375,-0.803192138671875,0.0962371826171875,-0.37103271484375
1726940429344813600,10.5628134765625,-0.7798614501953125,0.050811767578125,-0.340545654296875
1726940429354800400,10.57280029296875,-0.77923583984375,0.0296630859375,-0.34490966796875
1726940429364786400,10.582786376953125,-0.760009765625,0.056427001953125,-0.399688720703125
1726940429374771500,10.592771484375,-0.76092529296875,0.0804443359375,-0.4509124755859375
1726940429384757500,10.602757568359374,-0.7954864501953125,0.083038330078125,-0.4625396728515625
1726940429394743600,10.61274365234375,-0.830780029296875,0.0433349609375,-0.4268798828125
1726940429404729300,10.622729248046875,-0.8576812744140625,-0.0007476806640625,-0.3824310302734375
1726940429414714400,10.63271435546875,-0.8853302001953125,0.01080322265625,-0.33843994140625
1726940429424700400,10.642700439453124,-0.8851470947265625,0.043914794921875,-0.32275390625
1726940429434686500,10.6526865234375,-0.8945465087890625,0.0806884765625,-0.3292999267578125
1726940429444672300,10.66267236328125,-0.863800048828125,0.0915985107421875,-0.355224609375
1726940429454657500,10.672657470703125,-0.8639678955078125,0.0608062744140625,-0.3843231201171875
1726940429464643600,10.6826435546875,-0.89923095703125,0.0262451171875,-0.41339111328125
1726940429474629400,10.69262939453125,-0.9463653564453125,-0.0135498046875,-0.4630889892578125
1726940429484614400,10.702614501953125,-0.99334716796875,-0.037139892578125,-0.4964599609375
1726940429494600400,10.712600341796875,-1.047027587890625,-0.0479736328125,-0.51593017578125
1726940429504586500,10.72258642578125,-1.1007843017578125,-0.07568359375,-0.5326690673828125
1726940429514572300,10.732572265625,-1.0713958740234375,-0.134002685546875,-0.5243377685546875
1726940429524557300,10.742557373046875,-0.999176025390625,-0.187042236328125,-0.5046539306640625
1726940429534543600,10.752543701171875,-0.8738250732421875,-0.1701507568359375,-0.46746826171875
1726940429544529400,10.762529296875,-0.827606201171875,-0.13348388671875,-0.4257659912109375
1726940429554514400,10.772514404296874,-0.8601837158203125,-0.1128692626953125,-0.43505859375
1726940429564500200,10.782500244140625,-0.923431396484375,-0.135223388671875,-0.4859161376953125
1726940429574486500,10.792486572265625,-0.95440673828125,-0.1458892822265625,-0.5329742431640625
1726940429584472300,10.802472412109376,-0.9291534423828125,-0.130584716796875,-0.5415191650390625
1726940429594457300,10.812457275390624,-0.8809356689453125,-0.121734619140625,-0.5439910888671875
1726940429604443600,10.822443603515625,-0.865325927734375,-0.1204986572265625,-0.5566558837890625
1726940429614429400,10.832429443359375,-0.8649444580078125,-0.12115478515625,-0.563446044921875
1726940429624415500,10.84241552734375,-0.896453857421875,-0.1164398193359375,-0.5551300048828125
1726940429634400300,10.852400146484374,-0.9217071533203125,-0.1188201904296875,-0.5223236083984375
1726940429644386600,10.862386474609375,-0.8990325927734375,-0.1125640869140625,-0.491302490234375
1726940429654372400,10.872372314453125,-0.9221343994140625,-0.119384765625,-0.515380859375
1726940429664357400,10.882357421875,-0.870452880859375,-0.1210784912109375,-0.5020294189453125
1726940429674343400,10.892343505859374,-0.839263916015625,-0.1148681640625,-0.499725341796875
1726940429684329500,10.90232958984375,-0.8701324462890625,-0.1240386962890625,-0.5196990966796875
1726940429694315500,10.9123154296875,-0.9200592041015625,-0.1189117431640625,-0.50799560546875
1726940429704300300,10.92230029296875,-0.9559173583984375,-0.127227783203125,-0.4987945556640625
1726940429714286600,10.93228662109375,-0.9795989990234375,-0.1577606201171875,-0.5394744873046875
1726940429724272400,10.9422724609375,-0.9649810791015625,-0.188079833984375,-0.5649261474609375
1726940429734258400,10.952258544921875,-0.933013916015625,-0.2159576416015625,-0.5801544189453125
1726940429744243500,10.962243408203125,-0.8711090087890625,-0.22772216796875,-0.5620574951171875
1726940429754229500,10.9722294921875,-0.8260040283203125,-0.2067718505859375,-0.484344482421875
1726940429764215600,10.982215576171875,-0.860137939453125,-0.167633056640625,-0.3985748291015625
1726940429774200300,10.992200439453125,-0.817474365234375,-0.158966064453125,-0.38323974609375
1726940429784186400,11.002186279296875,-0.8002166748046875,-0.1493682861328125,-0.3773651123046875
1726940429794172400,11.01217236328125,-0.8797454833984375,-0.1540069580078125,-0.396636962890625
1726940429804158500,11.022158447265625,-0.9315948486328125,-0.1763916015625,-0.4398193359375
1726940429814143500,11.0321435546875,-0.968048095703125,-0.1662139892578125,-0.47857666015625
1726940429824129300,11.04212939453125,-0.9563751220703125,-0.1490478515625,-0.4438629150390625
1726940429834115600,11.052115478515624,-0.9320526123046875,-0.1535186767578125,-0.42169189453125
1726940429844101400,11.062101318359375,-1.0384368896484375,-0.147430419921875,-0.398773193359375
1726940429854086400,11.07208642578125,-1.0861968994140625,-0.13140869140625,-0.3092193603515625
1726940429864072400,11.082072509765625,-1.0198974609375,-0.1141815185546875,-0.2509307861328125
1726940429874058500,11.09205859375,-0.9228363037109375,-0.14202880859375,-0.2481536865234375
1726940429884043500,11.10204345703125,-0.847930908203125,-0.185455322265625,-0.3075714111328125
1726940429894029300,11.112029296875,-0.7868194580078125,-0.2266845703125,-0.4257965087890625
1726940429904015600,11.122015625,-0.7828216552734375,-0.2467193603515625,-0.4269866943359375
1726940429914001400,11.13200146484375,-0.7349395751953125,-0.2525482177734375,-0.33746337890625
1726940429923986400,11.141986328125,-0.6758575439453125,-0.260406494140625,-0.274444580078125
1726940429933972500,11.151972412109375,-0.66815185546875,-0.3533935546875,-0.3588409423828125
1726940429943958500,11.16195849609375,-0.6927032470703125,-0.4626617431640625,-0.4591064453125
1726940429953944300,11.1719443359375,-0.684722900390625,-0.4780426025390625,-0.4492950439453125
1726940429963929300,11.181929443359374,-0.644073486328125,-0.404296875,-0.414794921875
1726940429973915400,11.191915283203125,-0.6401519775390625,-0.3381195068359375,-0.372283935546875
1726940429983901400,11.2019013671875,-0.6494293212890625,-0.3241119384765625,-0.355255126953125
1726940429993886500,11.211886474609376,-0.6343994140625,-0.352569580078125,-0.4454345703125
1726940430003872500,11.22187255859375,-0.6498260498046875,-0.367950439453125,-0.5138702392578125
1726940430013858600,11.231858642578125,-0.6750030517578125,-0.3553314208984375,-0.51361083984375
1726940430023844600,11.2418447265625,-0.7014617919921875,-0.337615966796875,-0.4640655517578125
1726940430033829400,11.251829345703126,-0.680999755859375,-0.3235626220703125,-0.434478759765625
1726940430043815400,11.2618154296875,-0.66259765625,-0.30780029296875,-0.4000701904296875
1726940430053801500,11.271801513671875,-0.7250213623046875,-0.30950927734375,-0.3780364990234375
1726940430063787500,11.28178759765625,-0.790618896484375,-0.3143157958984375,-0.3812713623046875
1726940430073772500,11.2917724609375,-0.8582305908203125,-0.30218505859375,-0.4170074462890625
1726940430083758300,11.30175830078125,-0.8964996337890625,-0.29742431640625,-0.451812744140625
1726940430093744600,11.31174462890625,-0.88873291015625,-0.2922821044921875,-0.451904296875
1726940430103729400,11.3217294921875,-0.9185943603515625,-0.287078857421875,-0.44573974609375
1726940430113715500,11.331715576171876,-1.0107421875,-0.3054962158203125,-0.472808837890625
1726940430123701200,11.341701171875,-1.11004638671875,-0.335540771484375,-0.5242156982421875
1726940430133687600,11.3516875,-1.095947265625,-0.3487548828125,-0.60711669921875
1726940430143672600,11.361672607421875,-1.10272216796875,-0.328216552734375,-0.5897369384765625
1726940430153658400,11.371658447265625,-0.9853668212890625,-0.298187255859375,-0.5703277587890625
1726940430163644700,11.381644775390624,-0.9580841064453125,-0.2862091064453125,-0.5414581298828125
1726940430173629400,11.39162939453125,-0.9505615234375,-0.2745819091796875,-0.58026123046875
1726940430183615500,11.401615478515625,-0.902862548828125,-0.2837371826171875,-0.613677978515625
1726940430193601300,11.411601318359375,-0.908782958984375,-0.2570953369140625,-0.620758056640625
1726940430203587600,11.421587646484374,-0.886016845703125,-0.242401123046875,-0.583587646484375
1726940430213572600,11.431572509765624,-0.8546600341796875,-0.245880126953125,-0.53515625
1726940430223558400,11.441558349609375,-0.8230743408203125,-0.25738525390625,-0.5198822021484375
1726940430233544400,11.45154443359375,-0.790863037109375,-0.2957916259765625,-0.5220184326171875
1726940430243530500,11.461530517578124,-0.8027496337890625,-0.3439788818359375,-0.5115966796875
1726940430253515500,11.471515625,-0.846221923828125,-0.407806396484375,-0.52020263671875
1726940430263501300,11.481501220703125,-0.873626708984375,-0.4433746337890625,-0.528106689453125
1726940430273487600,11.491487548828125,-0.913421630859375,-0.4342498779296875,-0.5192413330078125
1726940430283473400,11.501473388671876,-0.8900299072265625,-0.3627777099609375,-0.4667510986328125
1726940430293458400,11.51145849609375,-0.8551483154296875,-0.27557373046875,-0.406951904296875
1726940430303444500,11.521444580078125,-0.8584747314453125,-0.210784912109375,-0.3683624267578125
1726940430313430500,11.531430419921875,-0.9043731689453125,-0.150115966796875,-0.34991455078125
1726940430323415600,11.54141552734375,-0.9780731201171875,-0.11822509765625,-0.316864013671875
1726940430333401300,11.5514013671875,-1.021453857421875,-0.087677001953125,-0.3329620361328125
1726940430343387400,11.561387451171875,-1.0452728271484375,-0.0394287109375,-0.3728790283203125
1726940430353372700,11.57137255859375,-1.05047607421875,0.0095977783203125,-0.4216766357421875
1726940430363357400,11.581357421875,-1.03033447265625,0.0343017578125,-0.4430389404296875
1726940430373343700,11.59134375,-0.979278564453125,0.04803466796875,-0.416839599609375
1726940430383329500,11.60132958984375,-0.9385986328125,0.024932861328125,-0.42578125
1726940430393315600,11.611315673828125,-0.92626953125,0.069366455078125,-0.387786865234375
1726940430403300900,11.62130078125,-0.912139892578125,0.1670074462890625,-0.371734619140625
1726940430413286700,11.63128662109375,-0.87054443359375,0.1967010498046875,-0.3719635009765625
1726940430423272700,11.641272705078125,-0.8393402099609375,0.185333251953125,-0.3581390380859375
1726940430433257500,11.651257568359375,-0.7772216796875,0.1121673583984375,-0.3672637939453125
1726940430443243800,11.661243896484375,-0.7905426025390625,0.0690460205078125,-0.338287353515625
1726940430453229600,11.6712294921875,-0.8311004638671875,0.09185791015625,-0.325775146484375
1726940430463215600,11.681215576171875,-0.850982666015625,0.1104888916015625,-0.34417724609375
1726940430473200600,11.69120068359375,-0.8170013427734375,0.0865478515625,-0.3592376708984375
1726940430483186700,11.701186767578125,-0.7801971435546875,0.05340576171875,-0.33642578125
1726940430493172700,11.7111728515625,-0.7545318603515625,0.032379150390625,-0.32049560546875
1726940430503158500,11.721158447265625,-0.7114105224609375,0.0650177001953125,-0.3378753662109375
1726940430513143600,11.7311435546875,-0.6886444091796875,0.1354217529296875,-0.41302490234375
1726940430523129600,11.741129638671875,-0.7070770263671875,0.156280517578125,-0.464202880859375
1726940430533115600,11.75111572265625,-0.7504730224609375,0.1418609619140625,-0.47198486328125
1726940430543100700,11.7611005859375,-0.818603515625,0.120452880859375,-0.463348388671875
1726940430553086700,11.771086669921875,-0.8727569580078125,0.093536376953125,-0.443511962890625
1726940430563072800,11.78107275390625,-0.9131622314453125,0.076019287109375,-0.4246826171875
1726940430573058600,11.79105859375,-0.9623565673828125,0.076568603515625,-0.392364501953125
1726940430583043600,11.801043701171874,-0.9829254150390625,0.0899505615234375,-0.3355560302734375
1726940430593029600,11.811029541015625,-0.967010498046875,0.122650146484375,-0.2916107177734375
1726940430603015700,11.821015625,-0.929656982421875,0.1684722900390625,-0.28240966796875
1726940430613001500,11.83100146484375,-0.936981201171875,0.1856842041015625,-0.3079681396484375
1726940430622986500,11.840986572265624,-0.9678192138671875,0.1659393310546875,-0.3397064208984375
1726940430632972800,11.850972900390625,-0.98870849609375,0.1231231689453125,-0.36065673828125
1726940430642958600,11.86095849609375,-0.9743804931640625,0.0386810302734375,-0.376373291015625
1726940430652943600,11.870943603515625,-0.9846954345703125,-0.0401763916015625,-0.3936920166015625
1726940430662929700,11.8809296875,-0.971435546875,-0.0824737548828125,-0.3983001708984375
1726940430672915700,11.890915771484375,-0.9356231689453125,-0.1239776611328125,-0.3990325927734375
1726940430682901500,11.900901611328125,-0.900146484375,-0.1474456787109375,-0.4322662353515625
1726940430692886500,11.910886474609375,-0.912384033203125,-0.165557861328125,-0.4559173583984375
1726940430702872800,11.920872802734374,-0.8875274658203125,-0.1623992919921875,-0.460296630859375
1726940430712858600,11.930858642578125,-0.8233184814453125,-0.15093994140625,-0.4591217041015625
1726940430722844700,11.9408447265625,-0.8023681640625,-0.1642608642578125,-0.491302490234375
1726940430732829700,11.95082958984375,-0.863494873046875,-0.1903228759765625,-0.5712432861328125
1726940430742815700,11.960815673828124,-0.8777618408203125,-0.2108306884765625,-0.6351165771484375
1726940430752801500,11.970801513671875,-0.8311004638671875,-0.2280426025390625,-0.6685638427734375
1726940430762786600,11.98078662109375,-0.8134307861328125,-0.2225341796875,-0.6658477783203125
1726940430772772600,11.990772705078125,-0.857666015625,-0.1846923828125,-0.6441497802734375
1726940430782758700,12.000758544921876,-0.8780364990234375,-0.1539154052734375,-0.644439697265625
1726940430792744700,12.01074462890625,-0.93975830078125,-0.13702392578125,-0.6429443359375
1726940430802729700,12.020729736328125,-0.974365234375,-0.112152099609375,-0.6098175048828125
1726940430812715800,12.0307158203125,-0.937225341796875,-0.1049652099609375,-0.56982421875
1726940430822701600,12.04070166015625,-0.949798583984375,-0.1246185302734375,-0.5495452880859375
1726940430832687600,12.0506875,-0.9736175537109375,-0.128173828125,-0.54278564453125
1726940430842672600,12.060672607421875,-0.9607696533203125,-0.109954833984375,-0.50885009765625
1726940430852658700,12.07065869140625,-1.06365966796875,-0.08477783203125,-0.4879302978515625
1726940430862644700,12.080644775390626,-1.2328643798828125,-0.078582763671875,-0.473175048828125
1726940430872629800,12.090629638671874,-1.140655517578125,-0.1016998291015625,-0.464019775390625
1726940430882615600,12.100615478515625,-1.012237548828125,-0.088958740234375,-0.4697113037109375
1726940430892601900,12.110601806640625,-0.9674224853515625,-0.0646514892578125,-0.4932861328125
1726940430902587600,12.120587646484376,-0.9865875244140625,-0.04681396484375,-0.4923248291015625
1726940430912572700,12.13057275390625,-0.9610748291015625,-0.0319671630859375,-0.4144439697265625
1726940430922558500,12.140558349609375,-0.9106597900390625,-0.035247802734375,-0.3687896728515625
1726940430932544800,12.150544677734375,-0.88079833984375,-0.093994140625,-0.41497802734375
1726940430942530600,12.160530517578126,-0.8275604248046875,-0.1731414794921875,-0.4820404052734375
1726940430952515600,12.170515625,-0.7959136962890625,-0.208221435546875,-0.49542236328125
1726940430962502000,12.180501953125,-0.8036346435546875,-0.2180633544921875,-0.4015655517578125
1726940430972487700,12.19048779296875,-0.7723846435546875,-0.21624755859375,-0.289031982421875
1726940430982472700,12.20047265625,-0.75018310546875,-0.2369537353515625,-0.269866943359375
1726940430992458500,12.21045849609375,-0.74444580078125,-0.2765045166015625,-0.343994140625
1726940431002444800,12.22044482421875,-0.7458953857421875,-0.299530029296875,-0.4207916259765625
1726940431012430600,12.2304306640625,-0.7137451171875,-0.2856292724609375,-0.3791961669921875
1726940431022415600,12.24041552734375,-0.711669921875,-0.24139404296875,-0.2748870849609375
1726940431032401700,12.250401611328124,-0.7066802978515625,-0.233856201171875,-0.25750732421875
1726940431042387700,12.2603876953125,-0.6981201171875,-0.2779998779296875,-0.4053802490234375
1726940431052373800,12.270373779296875,-0.7750701904296875,-0.3341217041015625,-0.510986328125
1726940431062358500,12.280358642578125,-0.827056884765625,-0.34027099609375,-0.4423980712890625
1726940431072344600,12.290344482421874,-0.7969207763671875,-0.3062744140625,-0.2853240966796875
1726940431082330600,12.30033056640625,-0.7237701416015625,-0.230438232421875,-0.1278076171875
1726940431092315600,12.310315673828125,-0.72393798828125,-0.1991729736328125,-0.16070556640625
1726940431102301700,12.3203017578125,-0.7219085693359375,-0.192108154296875,-0.278350830078125
1726940431112287700,12.330287841796874,-0.7039031982421875,-0.2312164306640625,-0.404449462890625
1726940431122273800,12.340273681640625,-0.7108001708984375,-0.2248687744140625,-0.469451904296875
1726940431132258600,12.350258544921875,-0.7344970703125,-0.1927642822265625,-0.505096435546875
1726940431142244600,12.36024462890625,-0.8358154296875,-0.15350341796875,-0.4644012451171875
1726940431152230700,12.370230712890624,-0.9349517822265625,-0.1472015380859375,-0.42010498046875
1726940431162216700,12.380216796875,-1.0004119873046875,-0.1822967529296875,-0.43756103515625
1726940431172201700,12.39020166015625,-1.074737548828125,-0.212554931640625,-0.4523773193359375
1726940431182187500,12.4001875,-1.20654296875,-0.2227935791015625,-0.375213623046875
1726940431192173800,12.410173828125,-1.17816162109375,-0.2420196533203125,-0.384765625
1726940431202158600,12.42015869140625,-1.054840087890625,-0.2747039794921875,-0.3843231201171875
1726940431212144600,12.43014453125,-0.9264068603515625,-0.2928466796875,-0.4730682373046875
1726940431222130700,12.440130615234375,-0.89080810546875,-0.3057098388671875,-0.567657470703125
1726940431232116700,12.45011669921875,-0.9022979736328125,-0.296356201171875,-0.6297149658203125
1726940431242101800,12.460101806640624,-0.927093505859375,-0.2697296142578125,-0.669097900390625
1726940431252087600,12.470087646484375,-0.928253173828125,-0.22711181640625,-0.6839141845703125
1726940431262073900,12.480073974609375,-0.945709228515625,-0.202178955078125,-0.66351318359375
1726940431272059600,12.4900595703125,-0.955322265625,-0.1871795654296875,-0.64703369140625
1726940431282044700,12.500044677734374,-0.97540283203125,-0.173828125,-0.608123779296875
1726940431292030500,12.510030517578125,-0.9544219970703125,-0.1628875732421875,-0.5538482666015625
1726940431302016800,12.520016845703125,-0.9233245849609375,-0.154205322265625,-0.5243682861328125
1726940431312001800,12.530001708984376,-0.87677001953125,-0.1515655517578125,-0.4989776611328125
1726940431321987600,12.539987548828124,-0.85467529296875,-0.13818359375,-0.49310302734375
1726940431331973600,12.5499736328125,-0.82965087890625,-0.1419830322265625,-0.515167236328125
1726940431341959700,12.559959716796875,-0.8165283203125,-0.14471435546875,-0.52069091796875
1726940431351945000,12.569945068359376,-0.8358917236328125,-0.13433837890625,-0.494537353515625
1726940431361930800,12.5799306640625,-0.84283447265625,-0.128173828125,-0.4615631103515625
1726940431371917000,12.5899169921875,-0.867523193359375,-0.1410369873046875,-0.4762420654296875
1726940431381902800,12.59990283203125,-0.9214324951171875,-0.1688995361328125,-0.4976043701171875
1726940431391888000,12.609887939453126,-0.94097900390625,-0.200103759765625,-0.4794921875
1726940431401874000,12.6198740234375,-0.9420928955078125,-0.174072265625,-0.43560791015625
1726940431411860000,12.62985986328125,-0.894012451171875,-0.1689605712890625,-0.409942626953125
1726940431421845000,12.639844970703125,-0.8231658935546875,-0.1544952392578125,-0.349029541015625
1726940431431830800,12.649830810546876,-0.7595977783203125,-0.06793212890625,-0.2991485595703125
1726940431441816800,12.65981689453125,-0.732421875,0.0327301025390625,-0.275299072265625
1726940431451803000,12.669802978515625,-0.7913818359375,0.1129608154296875,-0.3227081298828125
1726940431461788000,12.679787841796875,-0.89385986328125,0.0988616943359375,-0.3762969970703125
1726940431471774000,12.68977392578125,-0.902069091796875,0.0773468017578125,-0.358245849609375
1726940431481760000,12.699760009765624,-0.8694305419921875,0.0535888671875,-0.3573760986328125
1726940431491746000,12.70974609375,-0.85791015625,0.0282745361328125,-0.3647003173828125
1726940431501730800,12.719730712890625,-0.896148681640625,0.092529296875,-0.33917236328125
1726940431511716900,12.729716796875,-0.956390380859375,0.1181640625,-0.31536865234375
1726940431521703000,12.739702880859374,-1.0002593994140625,0.150726318359375,-0.272003173828125
1726940431531688000,12.74968798828125,-1.0175933837890625,0.2052001953125,-0.2590179443359375
