time,seconds_elapsed,z,y,x
1726940418799886600,0.017886474609375,-0.23058420419692993,-0.2947775721549988,0.6651782989501953
1726940418809872600,0.02787255859375,-0.2643160820007324,-0.36153823137283325,0.7021064758300781
1726940418819858400,0.0378583984375,-0.28562188148498535,-0.386216402053833,0.737983226776123
1726940418829844500,0.047844482421875,-0.28997695446014404,-0.3883911371231079,0.7532508969306946
1726940418839829800,0.057829833984375,-0.28550177812576294,-0.36139655113220215,0.7560359835624695
1726940418849815600,0.067815673828125,-0.2780878245830536,-0.27922365069389343,0.7707310914993286
1726940418859801600,0.077801513671875,-0.2857084572315216,-0.20155414938926697,0.7779216170310974
1726940418869786600,0.08778662109375,-0.3162836730480194,-0.1085890606045723,0.839749813079834
1726940418879772700,0.097772705078125,-0.3332618474960327,-0.04414961859583855,0.9312938451766968
1726940418889758500,0.107758544921875,-0.331405907869339,-0.027030019089579582,1.0076861381530762
1726940418899744500,0.11774462890625,-0.32385557889938354,-0.03788932412862778,1.0542669296264648
1726940418909729500,0.1277294921875,-0.33062744140625,-0.08205598592758179,1.05731999874115
1726940418919715600,0.137715576171875,-0.35013458132743835,-0.11649971455335617,1.0368034839630127
1726940418929701600,0.14770166015625,-0.3875240385532379,-0.18414346873760223,0.9854364395141602
1726940418939687400,0.1576875,-0.42176616191864014,-0.21133168041706085,1.0063384771347046
1726940418949672400,0.16767236328125,-0.4512428045272827,-0.22421126067638397,1.0566842555999756
1726940418959658500,0.177658447265625,-0.5070067644119263,-0.23786795139312744,1.1122015714645386
1726940418969644500,0.18764453125,-0.5510596632957458,-0.139835923910141,1.2307108640670776
1726940418979629600,0.197629638671875,-0.533933162689209,0.0890803411602974,1.4319076538085938
1726940418989615600,0.20761572265625,-0.4972686171531677,0.3150610029697418,1.7055221796035767
1726940418999601700,0.2176015625,-0.48352593183517456,0.4210257828235626,1.9761539697647095
1726940419009587500,0.22758740234375,-0.5056818127632141,0.3854869604110718,2.199888229370117
1726940419019572500,0.237572509765625,-0.5581237077713013,0.24911075830459595,2.353623628616333
1726940419029558800,0.247558837890625,-0.6403813362121582,-0.04543512687087059,2.3837697505950928
1726940419039544600,0.257544677734375,-0.7135657668113708,-0.4072186350822449,2.3306899070739746
1726940419049529600,0.267529541015625,-0.7407835721969604,-0.7830063700675964,2.203526258468628
1726940419059515400,0.277515380859375,-0.7707374691963196,-0.9806587100028992,2.067953109741211
1726940419069501700,0.287501708984375,-0.8559732437133789,-0.9491617679595947,1.948652744293213
1726940419079487500,0.297487548828125,-1.0089635848999023,-0.643775224685669,1.7793045043945312
1726940419089472500,0.307472412109375,-1.2090567350387573,-0.21033726632595062,1.6006426811218262
1726940419099458600,0.31745849609375,-1.4147710800170898,0.20994843542575836,1.409530758857727
1726940419109444600,0.327444580078125,-1.5835264921188354,0.6002610325813293,1.2149332761764526
1726940419119429600,0.3374296875,-1.7185860872268677,0.9221962094306946,1.0663416385650635
1726940419129415400,0.34741552734375,-1.838876724243164,1.1884225606918335,1.0022246837615967
1726940419139401700,0.357401611328125,-1.9596391916275024,1.2603013515472412,1.02706778049469
1726940419149387500,0.367387451171875,-2.0889222621917725,1.1581467390060425,1.1303153038024902
1726940419159372500,0.37737255859375,-2.2596511840820312,1.0807278156280518,1.2708032131195068
1726940419169358600,0.387358642578125,-2.431288719177246,0.7189887762069702,1.3743524551391602
1726940419179344600,0.3973447265625,-2.568068027496338,0.24881061911582947,1.4477708339691162
1726940419189329700,0.40732958984375,-2.60589599609375,-0.11896846443414688,1.5023174285888672
1726940419199315500,0.4173154296875,-2.5405030250549316,-0.2971957325935364,1.5750772953033447
1726940419209301500,0.427301513671875,-2.4508283138275146,-0.292859822511673,1.6204121112823486
1726940419219287600,0.43728759765625,-2.370867967605591,-0.11097365617752075,1.6101770401000977
1726940419229272600,0.4472724609375,-2.258505344390869,0.1703789234161377,1.5124871730804443
1726940419239258600,0.457258544921875,-2.077366352081299,0.5395069122314453,1.3686317205429077
1726940419249244700,0.46724462890625,-1.8625304698944092,0.6791590452194214,1.1804927587509155
1726940419259230700,0.477230712890625,-1.7085826396942139,0.4602786600589752,0.9333620667457581
1726940419269215500,0.487215576171875,-1.5671586990356445,0.11068949848413467,0.6974491477012634
1726940419279201500,0.497201416015625,-1.3772900104522705,-0.173698291182518,0.5244733691215515
1726940419289187600,0.5071875,-1.1115567684173584,-0.29040467739105225,0.44701558351516724
1726940419299172600,0.517172607421875,-0.783930778503418,-0.21258017420768738,0.48186516761779785
1726940419309158700,0.52715869140625,-0.4521288573741913,-0.0821252316236496,0.6030528545379639
1726940419319144400,0.53714453125,-0.1261851042509079,-0.07386010885238647,0.7636531591415405
1726940419329130800,0.547130859375,0.18378262221813202,-0.47572365403175354,0.8947422504425049
1726940419339115500,0.557115478515625,0.4729830026626587,-1.041034460067749,0.9729433059692383
1726940419349101600,0.5671015625,0.6707613468170166,-1.4225293397903442,1.0556749105453491
1726940419359087600,0.577087646484375,0.6799753308296204,-1.6158324480056763,1.1340365409851074
1726940419369072600,0.58707275390625,0.5858477354049683,-1.6924101114273071,1.1889322996139526
1726940419379058700,0.59705859375,0.46176469326019287,-1.6542874574661255,1.2223707437515259
1726940419389044700,0.607044677734375,0.3699839115142822,-1.554194450378418,1.2734516859054565
1726940419399030800,0.61703076171875,0.35233673453330994,-1.4379738569259644,1.3650662899017334
1726940419409015600,0.627015625,0.42692282795906067,-1.409395456314087,1.4557114839553833
1726940419419001600,0.637001708984375,0.6118711233139038,-1.4654650688171387,1.5088889598846436
1726940419428987600,0.646987548828125,0.8882195949554443,-1.547568440437317,1.4936355352401733
1726940419438973700,0.6569736328125,1.212660551071167,-1.685107946395874,1.3545212745666504
1726940419448958700,0.666958740234375,1.499416708946228,-1.9027327299118042,1.0195744037628174
1726940419458944500,0.676944580078125,1.6437690258026123,-1.914182186126709,0.5184322595596313
1726940419468930800,0.686930908203125,1.6171581745147705,-1.6264965534210205,-0.08022426813840866
1726940419478915600,0.69691552734375,1.4715698957443237,-1.141364574432373,-0.6897429823875427
1726940419488901600,0.706901611328125,1.3031352758407593,-0.5653709769248962,-1.28415048122406
1726940419498887400,0.716887451171875,1.0939903259277344,-0.11799055337905884,-1.734639286994934
1726940419508873700,0.726873779296875,0.9046939015388489,0.21266406774520874,-2.009032964706421
1726940419518858800,0.736858642578125,0.7704042792320251,0.33515214920043945,-2.1491854190826416
1726940419528844500,0.746844482421875,0.673726499080658,0.33245357871055603,-2.1790871620178223
1726940419538830800,0.756830810546875,0.6145797967910767,0.22023223340511322,-2.1114747524261475
1726940419548815600,0.766815673828125,0.5328628420829773,0.199848935008049,-1.9116750955581665
1726940419558801700,0.7768017578125,0.4436839520931244,0.1065932884812355,-1.5914314985275269
1726940419568787500,0.786787353515625,0.3802530765533447,-0.023196132853627205,-1.234623908996582
1726940419578773800,0.796773681640625,0.3434481620788574,-0.06121568754315376,-0.8683923482894897
1726940419588758800,0.8067587890625,0.3394515812397003,-0.23810844123363495,-0.5477349758148193
1726940419598744600,0.81674462890625,0.3429051637649536,-0.39728957414627075,-0.2972753643989563
1726940419608730600,0.826730712890625,0.3616389036178589,-0.44961774349212646,-0.11173371970653534
1726940419618716700,0.836716552734375,0.33855941891670227,-0.4310981333255768,-0.017126522958278656
1726940419628701700,0.84670166015625,0.23319943249225616,-0.30488747358322144,0.040586840361356735
1726940419638687500,0.8566875,0.10758557915687561,-0.11241576075553894,0.1021423488855362
1726940419648673800,0.866673828125,0.08924359083175659,-0.026985811069607735,0.11531087756156921
1726940419658658800,0.876658935546875,0.06324288249015808,0.05653864145278931,0.09010858833789825
1726940419668644600,0.88664453125,0.06519178301095963,0.1102902889251709,0.06903339922428131
1726940419678630700,0.896630615234375,0.011633486486971378,0.2005767822265625,-0.022671490907669067
1726940419688616700,0.90661669921875,-0.15304628014564514,0.4464627206325531,-0.17376433312892914
1726940419698601700,0.916601806640625,-0.36376115679740906,0.6471787691116333,-0.329838365316391
1726940419708587500,0.92658740234375,-0.5333981513977051,0.8157739043235779,-0.46033617854118347
1726940419718573600,0.936573486328125,-0.6597923040390015,0.9952198266983032,-0.5482298135757446
1726940419728559600,0.9465595703125,-0.7267060875892639,1.090951681137085,-0.5899943113327026
1726940419738544600,0.956544677734375,-0.7791069746017456,0.994418740272522,-0.5876664519309998
1726940419748530700,0.96653076171875,-0.8504141569137573,0.8455850481987,-0.5504825711250305
1726940419758516500,0.9765166015625,-0.9040220379829407,0.7962228655815125,-0.46569207310676575
1726940419768501800,0.986501708984375,-0.9370545148849487,0.8488271832466125,-0.3544858992099762
1726940419778487800,0.99648779296875,-0.9876497983932495,0.9530662298202515,-0.2264437973499298
1726940419788473600,1.0064736328125,-1.0872278213500977,1.0339888334274292,-0.1099693775177002
1726940419798459600,1.016459716796875,-1.186218500137329,1.0701403617858887,-0.03460058942437172
1726940419808444700,1.026444580078125,-1.2995762825012207,1.082285761833191,-0.024564731866121292
1726940419818430700,1.0364306640625,-1.4680113792419434,1.155038833618164,-0.09990928322076797
1726940419828416500,1.04641650390625,-1.724556803703308,1.3093329668045044,-0.2572792172431946
1726940419838402800,1.05640283203125,-2.0421135425567627,1.4305249452590942,-0.45737260580062866
1726940419848387800,1.066387939453125,-2.288347005844116,1.533130407333374,-0.6433046460151672
1726940419858373600,1.07637353515625,-2.4030795097351074,1.6918963193893433,-0.7575686573982239
1726940419868359700,1.086359619140625,-2.3899126052856445,1.9101927280426025,-0.8139975666999817
1726940419878344700,1.0963447265625,-2.2891366481781006,2.181692600250244,-0.8421424031257629
1726940419888330800,1.106330810546875,-2.1862709522247314,2.471970558166504,-0.868438184261322
1726940419898316500,1.116316650390625,-2.084897994995117,2.6624817848205566,-0.8853452801704407
1726940419908302600,1.126302490234375,-1.9538486003875732,2.645076274871826,-0.84632408618927
1726940419918288000,1.136287841796875,-1.7767078876495361,2.4208850860595703,-0.7235438227653503
1726940419928273700,1.146273681640625,-1.5008749961853027,2.047463893890381,-0.5447916984558105
1726940419938259700,1.156259765625,-1.1104129552841187,1.65385901927948,-0.29674193263053894
1726940419948245800,1.166245849609375,-0.6083030104637146,1.4176334142684937,-0.0025917883031070232
1726940419958230800,1.176230712890625,-0.0536552369594574,1.3302710056304932,0.3115520179271698
1726940419968216600,1.186216552734375,0.4705464839935303,1.2333711385726929,0.6378068327903748
1726940419978202600,1.19620263671875,0.9038230776786804,0.9460986256599426,0.9919281601905823
1726940419988188700,1.206188720703125,1.1707594394683838,0.47967207431793213,1.3853750228881836
1726940419998173700,1.216173583984375,1.2657467126846313,0.033544376492500305,1.8096357583999634
1726940420008159700,1.22615966796875,1.2794033288955688,-0.2587103843688965,2.2163684368133545
1726940420018145500,1.2361455078125,1.405962586402893,-0.5214884877204895,2.504096746444702
1726940420028130800,1.246130859375,1.7853171825408936,-0.7472337484359741,2.6762595176696777
1726940420038116600,1.25611669921875,2.2979798316955566,-0.650867760181427,2.6906282901763916
1726940420048102700,1.2661025390625,2.8126227855682373,-0.32716161012649536,2.5538883209228516
1726940420058088400,1.27608837890625,3.245608329772949,-0.20290784537792206,2.382110595703125
1726940420068073700,1.28607373046875,3.4964568614959717,-0.42110303044319153,2.274113178253174
1726940420078059800,1.296059814453125,3.582362413406372,-0.7119990587234497,2.253445625305176
1726940420088045600,1.306045654296875,3.439591407775879,-0.8188540935516357,2.2969748973846436
1726940420098031900,1.316031982421875,3.13838267326355,-0.701590895652771,2.399118661880493
1726940420108016600,1.3260166015625,2.9045848846435547,-0.5778313875198364,2.5700924396514893
1726940420118002700,1.336002685546875,2.926537036895752,-0.6325497627258301,2.859358787536621
1726940420127988500,1.345988525390625,3.190666913986206,-0.8255064487457275,3.353224754333496
1726940420137973500,1.355973388671875,3.593954086303711,-1.0294222831726074,4.055074214935303
1726940420147959800,1.365959716796875,4.023494243621826,-1.2944984436035156,4.893672943115234
1726940420157945600,1.375945556640625,4.238051891326904,-1.6689636707305908,5.681251049041748
1726940420167931600,1.385931640625,3.9832990169525146,-2.2520318031311035,6.273151397705078
1726940420177916700,1.395916748046875,3.8047266006469727,-2.6028361320495605,6.5587477684021
1726940420187902700,1.40590283203125,3.509507894515991,-2.57755970954895,6.416540622711182
1726940420197888500,1.415888427734375,3.111534357070923,-2.3464722633361816,5.72885799407959
1726940420207874800,1.425874755859375,2.986055612564087,-1.8058418035507202,4.706286907196045
1726940420217859800,1.43585986328125,2.985454797744751,-0.5974950790405273,3.2075212001800537
1726940420227845600,1.445845703125,2.9367828369140625,0.034989941865205765,2.1289665699005127
1726940420237831700,1.455831787109375,3.141296148300171,0.41226187348365784,1.6470469236373901
1726940420247817700,1.465817626953125,3.2710070610046387,0.28966590762138367,1.6993790864944458
1726940420257802800,1.475802734375,3.474876880645752,-0.04384788125753403,1.8935610055923462
1726940420267788500,1.48578857421875,3.2654857635498047,-0.2938435971736908,2.1415562629699707
1726940420277774600,1.495774658203125,3.058175802230835,-0.4864040017127991,2.335592746734619
1726940420287759600,1.505759521484375,2.977646589279175,-0.6850353479385376,2.4597766399383545
1726940420297745700,1.51574560546875,3.284569501876831,-1.1502346992492676,2.472736358642578
1726940420307731700,1.525731689453125,3.8245692253112793,-1.1032520532608032,2.5494706630706787
1726940420317717500,1.535717529296875,3.9562485218048096,-0.8216863870620728,2.4545297622680664
1726940420327702800,1.545702880859375,4.14782190322876,-0.5021185278892517,2.3810713291168213
1726940420337688600,1.5556884765625,2.335402011871338,-1.0544171333312988,1.748982548713684
1726940420347674400,1.56567431640625,1.4203420877456665,0.83116215467453,1.5823379755020142
1726940420357660400,1.575660400390625,2.945171356201172,-0.7191376686096191,1.4933604001998901
1726940420367645400,1.5856455078125,4.045806884765625,-1.4773465394973755,1.658435344696045
1726940420377631500,1.595631591796875,3.9871201515197754,-1.8284872770309448,1.8596097230911255
1726940420387617300,1.6056171875,3.2672455310821533,-2.3798835277557373,2.0601725578308105
1726940420397602600,1.6156025390625,2.990504264831543,-2.6550846099853516,2.0785019397735596
1726940420407588600,1.625588623046875,2.311051845550537,-2.607326030731201,1.3246136903762817
1726940420417574400,1.635574462890625,2.351069450378418,-1.6682113409042358,0.39919427037239075
1726940420427560400,1.645560546875,3.144874095916748,-0.7684308886528015,-0.22264505922794342
1726940420437545500,1.65554541015625,4.329602241516113,0.2441444993019104,-0.2529859244823456
1726940420447531500,1.665531494140625,5.628568172454834,0.29038867354393005,0.3020203113555908
1726940420457517300,1.675517333984375,6.359801769256592,-0.2549563944339752,1.0021733045578003
1726940420467503600,1.685503662109375,6.459856033325195,-0.7941314578056335,1.2852407693862915
1726940420477488600,1.695488525390625,6.466232776641846,-1.2759274244308472,1.9935470819473267
1726940420487474400,1.705474365234375,6.192438125610352,-1.6480679512023926,2.6869468688964844
1726940420497460500,1.71546044921875,5.787935256958008,-1.417894959449768,3.1563472747802734
1726940420507446500,1.725446533203125,4.953531742095947,-1.6101490259170532,3.378574848175049
1726940420517431600,1.735431640625,3.7164297103881836,-1.8415035009384155,3.307771682739258
1726940420527417300,1.745417236328125,2.5802454948425293,-1.3891633749008179,2.972677707672119
1726940420537403400,1.7554033203125,2.045914888381958,-0.6129544973373413,2.405160427093506
1726940420547388700,1.765388671875,2.216125249862671,0.09139622747898102,1.8675438165664673
1726940420557374500,1.77537451171875,2.752972364425659,0.8707410097122192,1.323994755744934
1726940420567360500,1.785360595703125,3.2105603218078613,1.4653109312057495,0.9568146467208862
1726940420577346600,1.7953466796875,3.6717779636383057,2.4816689491271973,0.551415741443634
1726940420587331600,1.80533154296875,4.212716579437256,3.1645681858062744,0.28269293904304504
1726940420597317400,1.8153173828125,4.286348342895508,2.311046600341797,0.6739163994789124
1726940420607303400,1.825303466796875,3.9452385902404785,1.1470074653625488,1.331251859664917
1726940420617289500,1.83528955078125,3.5114362239837646,0.6026576161384583,2.2547664642333984
1726940420627274500,1.8452744140625,3.0294458866119385,0.5299783945083618,3.0585854053497314
1726940420637260500,1.855260498046875,2.484959840774536,1.4367709159851074,3.31611704826355
1726940420647246300,1.865246337890625,1.4385040998458862,1.7287055253982544,3.5662007331848145
1726940420657231400,1.8752314453125,0.44035154581069946,1.880183458328247,3.4609007835388184
1726940420667217400,1.885217529296875,-0.5381273627281189,2.528632640838623,2.922553777694702
1726940420677203500,1.895203369140625,-1.2952641248703003,2.634744644165039,1.9628980159759521
1726940420687189200,1.905189208984375,-1.8073580265045166,2.6353321075439453,0.7747681736946106
1726940420697174500,1.915174560546875,-1.8880842924118042,2.863814353942871,-0.43957391381263733
1726940420707160600,1.92516064453125,-1.8618584871292114,3.072420835494995,-1.2428780794143677
1726940420717146400,1.935146484375,-1.7293739318847656,2.882392406463623,-1.46728515625
1726940420727132700,1.945132568359375,-1.493455410003662,2.48370099067688,-1.5516846179962158
1726940420737117400,1.955117431640625,-1.466239333152771,2.192957878112793,-1.70805025100708
1726940420747103500,1.965103515625,-1.6593760251998901,1.364404559135437,-1.9948087930679321
1726940420757089300,1.97508935546875,-2.2031195163726807,0.5080791711807251,-2.308371067047119
1726940420767075600,1.98507568359375,-2.7517261505126953,-0.04677576199173927,-2.642378091812134
1726940420777060600,1.995060546875,-3.031763792037964,-1.138542652130127,-2.6240150928497314
1726940420787046400,2.00504638671875,-2.8467977046966553,-1.9899845123291016,-2.306295156478882
1726940420797032400,2.015032470703125,-2.398653268814087,-1.6081130504608154,-1.8990511894226074
1726940420807018500,2.0250185546875,-1.21751868724823,-2.4891114234924316,-1.4572100639343262
1726940420817003500,2.03500341796875,0.49804335832595825,-3.7265357971191406,-0.9990875124931335
1726940420826989300,2.0449892578125,1.6179779767990112,-3.264845848083496,-0.6558164358139038
1726940420836975400,2.054975341796875,1.7736910581588745,-1.401032567024231,-0.8557665944099426
1726940420846960600,2.064960693359375,1.1743499040603638,1.3638449907302856,-1.3563380241394043
1726940420856946400,2.074946533203125,0.29955634474754333,4.123798847198486,-1.8818745613098145
1726940420866932500,2.084932373046875,-0.31574463844299316,5.618651866912842,-2.335545539855957
1726940420876918500,2.09491845703125,-0.7997472882270813,5.314360618591309,-2.4340405464172363
1726940420886903600,2.104903564453125,-1.4219712018966675,3.8676669597625732,-1.9344635009765625
1726940420896889300,2.114889404296875,-2.1283886432647705,1.9801148176193237,-1.1813592910766602
1726940420906875400,2.12487548828125,-2.8214824199676514,0.7242391705513,-0.4377203583717346
1726940420916861400,2.134861328125,-3.2701475620269775,0.6953462958335876,0.3397226929664612
1726940420926846500,2.144846435546875,-3.573568820953369,1.3665765523910522,1.1310762166976929
1726940420936832500,2.15483251953125,-3.821012258529663,1.8630611896514893,1.6767081022262573
1726940420946818300,2.164818359375,-3.9589407444000244,2.0861992835998535,2.493056535720825
1726940420956804600,2.1748046875,-3.9231038093566895,2.8960211277008057,3.3291263580322266
1726940420966789400,2.184789306640625,-3.853557825088501,3.6611084938049316,3.9861464500427246
1726940420976775400,2.194775390625,-3.968101739883423,4.0893754959106445,4.1794538497924805
1726940420986761200,2.20476123046875,-4.039022922515869,4.167393207550049,4.233963966369629
1726940420996746500,2.21474658203125,-3.869671106338501,3.5897328853607178,4.2066144943237305
1726940421006732500,2.224732666015625,-3.3007307052612305,2.0618505477905273,3.88448166847229
1726940421016718300,2.23471826171875,-2.5330235958099365,0.42188119888305664,3.1564064025878906
1726940421026704600,2.24470458984375,-1.1383564472198486,1.4106495380401611,1.3806535005569458
1726940421036689400,2.254689453125,-0.3008328080177307,3.0386135578155518,0.2768121659755707
1726940421046675500,2.264675537109375,-0.4261302649974823,3.8723082542419434,0.054127682000398636
1726940421056661200,2.2746611328125,-0.5495246648788452,4.075653076171875,0.24612535536289215
1726940421066647600,2.2846474609375,-0.33178219199180603,3.4784977436065674,0.4717917740345001
1726940421076632600,2.294632568359375,-0.11372390389442444,2.3796308040618896,0.6347668170928955
1726940421086618400,2.304618408203125,-0.16566966474056244,1.0809046030044556,0.689715564250946
1726940421096604400,2.3146044921875,-0.21341001987457275,-0.04068377986550331,0.6307265758514404
1726940421106590500,2.324590576171875,-0.44960522651672363,-0.9651780128479004,0.3874971270561218
1726940421116575500,2.334575439453125,-0.7600557804107666,-1.5476739406585693,0.07981174439191818
1726940421126561300,2.344561279296875,-0.8224307298660278,-1.953194260597229,-0.14817748963832855
1726940421136547600,2.354547607421875,-0.7325503826141357,-2.2207465171813965,-0.41261419653892517
1726940421146532600,2.36453271484375,-0.6219860911369324,-2.2176623344421387,-0.658855140209198
1726940421156518400,2.374518310546875,-0.45307108759880066,-1.833779215812683,-0.8134923577308655
1726940421166504400,2.38450439453125,-0.31002578139305115,-1.3159006834030151,-0.8599451184272766
1726940421176490500,2.394490478515625,-0.25768160820007324,-0.705631673336029,-0.7931024432182312
1726940421186475500,2.4044755859375,-0.4107457101345062,-0.12256559729576111,-0.686353862285614
1726940421196461300,2.41446142578125,-0.6241717338562012,0.4297465682029724,-0.5926563739776611
1726940421206447400,2.424447265625,-0.6992219686508179,0.7715579867362976,-0.609318196773529
1726940421216433400,2.434433349609375,-0.6649697422981262,0.8503124713897705,-0.598783552646637
1726940421226418400,2.44441845703125,-0.5798020958900452,0.7746672034263611,-0.499336838722229
1726940421236404500,2.454404541015625,-0.4150688350200653,0.6994507312774658,-0.385842502117157
1726940421246390300,2.464390380859375,-0.19566510617733002,0.5939049124717712,-0.2746608555316925
1726940421256376600,2.47437646484375,0.005964415613561869,0.5237846374511719,-0.11163065582513809
1726940421266361600,2.484361572265625,0.1699157953262329,0.46443718671798706,0.026637203991413116
1726940421276347400,2.494347412109375,0.29223132133483887,0.3897962272167206,0.14690528810024261
1726940421286333400,2.50433349609375,0.36376968026161194,0.3561384081840515,0.23421835899353027
1726940421296318500,2.514318359375,0.38625475764274597,0.3168141543865204,0.2833406329154968
1726940421306304500,2.524304443359375,0.33786138892173767,0.32816454768180847,0.28962835669517517
1726940421316290300,2.534290283203125,0.27017930150032043,0.3557623624801636,0.2240924835205078
1726940421326276600,2.544276611328125,0.18015752732753754,0.33140748739242554,0.1403142362833023
1726940421336261600,2.55426171875,0.09472571313381195,0.29888442158699036,0.0650213435292244
1726940421346248400,2.56424853515625,0.03892103210091591,0.3391202688217163,0.0169126708060503
1726940421356234200,2.574234130859375,0.009489641524851322,0.3875828683376312,-0.008509065955877304
1726940421366220300,2.58422021484375,0.0035366779193282127,0.4157809615135193,-0.0011760519118979573
1726940421376205300,2.594205322265625,0.0065343319438397884,0.41439637541770935,0.04520662501454353
1726940421386191400,2.60419140625,0.038654450327157974,0.40252402424812317,0.12429558485746384
1726940421396177400,2.614177490234375,0.0773824080824852,0.3732033967971802,0.2163512110710144
1726940421406163200,2.6241630859375,0.10641805082559586,0.3586508333683014,0.28786906599998474
1726940421416148200,2.634148193359375,0.11660517752170563,0.393054336309433,0.32234689593315125
1726940421426134300,2.64413427734375,0.11336091160774231,0.4812401235103607,0.29717788100242615
1726940421436120300,2.654120361328125,0.1084820032119751,0.6065738201141357,0.23861071467399597
1726940421446106000,2.664106201171875,0.1361599713563919,0.6655676364898682,0.17253102362155914
1726940421456091100,2.674091064453125,0.20515207946300507,0.6228329539299011,0.13479936122894287
1726940421466077400,2.684077392578125,0.2736845314502716,0.5110776424407959,0.14833301305770874
1726940421476063200,2.694063232421875,0.3169824779033661,0.4161394238471985,0.20067717134952545
1726940421486048300,2.70404833984375,0.31271716952323914,0.37532806396484375,0.256130576133728
1726940421496034300,2.714034423828125,0.2696770131587982,0.3834986686706543,0.2869705259799957
1726940421506020400,2.724020263671875,0.20924429595470428,0.5022950768470764,0.27767235040664673
1726940421516006100,2.734006103515625,0.1307271271944046,0.6818107962608337,0.2354210466146469
1726940421525991200,2.7439912109375,0.10621405392885208,0.8802123069763184,0.14987391233444214
1726940421535977500,2.7539775390625,0.1182187870144844,1.064261794090271,0.07001902908086777
1726940421545963300,2.76396337890625,0.142149418592453,1.245012640953064,0.022418489679694176
1726940421555949300,2.77394921875,0.14379338920116425,1.3674708604812622,0.011839615181088448
1726940421565934000,2.78393408203125,0.16298305988311768,1.4221514463424683,-0.009191101416945457
1726940421575920400,2.79392041015625,0.19606564939022064,1.4647865295410156,-0.05861564353108406
1726940421585906200,2.80390625,0.22514070570468903,1.4428184032440186,-0.11691570281982422
1726940421595891200,2.81389111328125,0.194491446018219,1.3383854627609253,-0.21168695390224457
1726940421605877500,2.82387744140625,0.12255947291851044,1.0878533124923706,-0.2977757751941681
1726940421615863300,2.83386328125,0.06684081256389618,0.7608041167259216,-0.29727429151535034
1726940421625849300,2.843849365234375,0.042749859392642975,0.36482083797454834,-0.2701212167739868
1726940421635834000,2.853834228515625,0.04358769208192825,0.018375279381871223,-0.25054246187210083
1726940421645820400,2.8638203125,0.06551908701658249,-0.09731776267290115,-0.24758262932300568
1726940421655806200,2.87380615234375,0.09757715463638306,0.027400732040405273,-0.24198360741138458
1726940421665792300,2.883792236328125,0.13406379520893097,0.1938919723033905,-0.18952439725399017
1726940421675777300,2.89377734375,0.16731522977352142,0.29335492849349976,-0.10798852145671844
1726940421685763300,2.903763427734375,0.1891440898180008,0.3516477942466736,-0.025318939238786697
1726940421695749400,2.913749267578125,0.191110298037529,0.38289251923561096,-0.005797169171273708
1726940421705735200,2.923735107421875,0.18327635526657104,0.4090575575828552,-0.05384485423564911
1726940421715720200,2.93372021484375,0.1438719481229782,0.43807587027549744,-0.1318616271018982
1726940421725706200,2.943706298828125,0.09708766639232635,0.4658374786376953,-0.19806088507175446
1726940421735692300,2.9536923828125,0.05414659157395363,0.5097208023071289,-0.22984038293361664
1726940421745677300,2.96367724609375,0.04945303499698639,0.5432659387588501,-0.21938695013523102
1726940421755663400,2.973663330078125,0.08211936801671982,0.5496455430984497,-0.1710527092218399
1726940421765649400,2.9836494140625,0.13187120854854584,0.5112131834030151,-0.1096162423491478
1726940421775635200,2.99363525390625,0.16056251525878906,0.4091683328151703,-0.0659361407160759
1726940421785620200,3.0036201171875,0.16550400853157043,0.327674001455307,-0.04805620759725571
1726940421795606300,3.013606201171875,0.15343455970287323,0.33758869767189026,-0.05763639882206917
1726940421805592300,3.02359228515625,0.11777989566326141,0.37792810797691345,-0.08455243706703186
1726940421815578000,3.033578125,0.07877656817436218,0.4308914840221405,-0.12377360463142395
1726940421825563100,3.043563232421875,0.05192604660987854,0.4916898310184479,-0.1731499433517456
1726940421835549400,3.053549560546875,0.04884849861264229,0.5341022610664368,-0.2237558662891388
1726940421845535200,3.06353515625,0.07094421237707138,0.5362709164619446,-0.2469959408044815
1726940421855521300,3.073521240234375,0.07902877032756805,0.5049318671226501,-0.2405814528465271
1726940421865506000,3.083506103515625,0.08382086455821991,0.4528210163116455,-0.2143772691488266
1726940421875492400,3.093492431640625,0.07367928326129913,0.35616156458854675,-0.17512494325637817
1726940421885478100,3.10347802734375,0.05727927014231682,0.27797091007232666,-0.148050457239151
1726940421895463200,3.113463134765625,0.03640913963317871,0.21521244943141937,-0.1302935630083084
1726940421905449500,3.123449462890625,-0.006416620220988989,0.16117876768112183,-0.1412830948829651
1726940421915435300,3.133435302734375,-0.06386952847242355,0.1545610874891281,-0.16107596457004547
1726940421925421300,3.14342138671875,-0.09305324405431747,0.17302903532981873,-0.19609200954437256
1726940421935406300,3.15340625,-0.05602092295885086,0.18547238409519196,-0.24231542646884918
1726940421945392400,3.163392333984375,0.01381141971796751,0.18636268377304077,-0.2741473913192749
1726940421955378200,3.173378173828125,0.08537667989730835,0.18162119388580322,-0.2614310681819916
1726940421965364200,3.1833642578125,0.1516268104314804,0.1491154432296753,-0.20647487044334412
1726940421975349200,3.193349365234375,0.21798399090766907,0.14378726482391357,-0.1458195149898529
1726940421985335300,3.203335205078125,0.27280277013778687,0.1643974632024765,-0.07960055023431778
1726940421995321300,3.2133212890625,0.28084230422973633,0.25036242604255676,0.010125604458153248
1726940422005306400,3.223306396484375,0.2914227843284607,0.3311994969844818,0.11032330989837646
1726940422015292200,3.233292236328125,0.3285064995288849,0.3683207631111145,0.17641258239746094
1726940422025278200,3.2432783203125,0.3873580992221832,0.38756316900253296,0.185259610414505
1726940422035264300,3.25326416015625,0.44216543436050415,0.41794371604919434,0.1473846584558487
1726940422045249300,3.263249267578125,0.4393256902694702,0.4058622717857361,0.11757030338048935
1726940422055235300,3.2732353515625,0.39346206188201904,0.35990145802497864,0.0769863948225975
1726940422065221400,3.283221435546875,0.3092377483844757,0.3010091185569763,0.037461355328559875
1726940422075207200,3.293207275390625,0.20098024606704712,0.22812025249004364,0.00566986994817853
1726940422085192200,3.303192138671875,0.06421840190887451,0.18098069727420807,-0.029934994876384735
1726940422095178200,3.31317822265625,-0.0737498551607132,0.12814119458198547,-0.07274743914604187
1726940422105164300,3.323164306640625,-0.18988710641860962,0.06779182702302933,-0.12450651079416275
1726940422115149300,3.3331494140625,-0.2482558786869049,0.0015041533624753356,-0.19276146590709686
1726940422125135000,3.343135009765625,-0.2618665099143982,-0.10430935770273209,-0.2610936462879181
1726940422135121400,3.353121337890625,-0.24193966388702393,-0.18114475905895233,-0.3373149037361145
1726940422145107200,3.363107177734375,-0.22435134649276733,-0.19631625711917877,-0.4288107454776764
1726940422155092200,3.37309228515625,-0.20889435708522797,-0.17631590366363525,-0.5245013236999512
1726940422165078500,3.38307861328125,-0.1734977513551712,-0.10992170870304108,-0.6400033831596375
1726940422175064300,3.393064208984375,-0.12652811408042908,-0.0012745888670906425,-0.7730647921562195
1726940422185050400,3.40305029296875,-0.07968577742576599,0.2142350673675537,-0.8873721957206726
1726940422195035100,3.41303515625,-0.041554369032382965,0.45704904198646545,-0.9673873782157898
1726940422205021400,3.423021484375,-0.008986304514110088,0.6614397168159485,-0.9785225987434387
1726940422215007200,3.43300732421875,0.01116237323731184,0.6662121415138245,-0.9019034504890442
1726940422224993300,3.4429931640625,0.07160387933254242,0.7206085324287415,-0.7777343988418579
1726940422234978300,3.452978271484375,0.20516380667686462,0.7625256180763245,-0.6256473660469055
1726940422244964400,3.46296435546875,0.34750762581825256,0.8845657706260681,-0.512191653251648
1726940422254950400,3.472950439453125,0.4820353388786316,0.9970843195915222,-0.4321082830429077
1726940422264935200,3.48293505859375,0.6049413084983826,1.0825963020324707,-0.3737837076187134
1726940422274921200,3.492921142578125,0.656843364238739,1.0902185440063477,-0.25529035925865173
1726940422284907300,3.5029072265625,0.6469646692276001,1.0376977920532227,-0.10104432702064514
1726940422294893300,3.512893310546875,0.6171484589576721,0.9866090416908264,0.06711246073246002
1726940422304878300,3.52287841796875,0.5348389148712158,0.9269182682037354,0.2541790306568146
1726940422314864400,3.532864501953125,0.4256889820098877,0.8552704453468323,0.39833059906959534
1726940422324850400,3.542850341796875,0.3178219199180603,0.7494329810142517,0.48159247636795044
1726940422334836200,3.552836181640625,0.19049963355064392,0.6459822058677673,0.5328492522239685
1726940422344820200,3.5628203125,0.06154538691043854,0.5382786393165588,0.5697449445724487
1726940422354806500,3.572806640625,-0.0928439199924469,0.454540878534317,0.5604369640350342
1726940422364792300,3.582792236328125,-0.22871972620487213,0.4232788383960724,0.46351760625839233
1726940422374777300,3.59277734375,-0.31676995754241943,0.4364129900932312,0.2691422402858734
1726940422384763100,3.60276318359375,-0.30667683482170105,0.5678898096084595,0.00364666641689837
1726940422394749400,3.61274951171875,-0.15762105584144592,0.7091196179389954,-0.2814452648162842
1726940422404735200,3.6227353515625,0.10585719347000122,0.9961495399475098,-0.5820609927177429
1726940422414720300,3.63272021484375,0.3800458610057831,1.2361674308776855,-0.9201564788818359
1726940422424706300,3.642706298828125,0.574507474899292,1.3527494668960571,-1.2186518907546997
1726940422434692400,3.6526923828125,0.613953709602356,1.3688656091690063,-1.4100420475006104
1726940422444678400,3.662678466796875,0.5350348949432373,1.408797025680542,-1.5624123811721802
1726940422454663200,3.6726630859375,0.4933929443359375,1.4802014827728271,-1.801122784614563
1726940422464649500,3.6826494140625,0.4560098648071289,1.5058135986328125,-1.8787083625793457
1726940422474635300,3.69263525390625,0.3177523910999298,1.3784079551696777,-1.7336366176605225
1726940422484620300,3.702620361328125,0.05465259402990341,1.1823644638061523,-1.389420986175537
1726940422494606300,3.7126064453125,-0.17871275544166565,1.0297024250030518,-0.8820884823799133
1726940422504592400,3.72259228515625,-0.3068360984325409,0.9583763480186462,-0.4159279763698578
1726940422514578400,3.732578369140625,-0.35194605588912964,0.90982985496521,-0.04297037050127983
1726940422524563200,3.742563232421875,-0.21864552795886993,0.8864608407020569,0.16448162496089935
1726940422534549200,3.75254931640625,-0.1053735613822937,0.7779447436332703,0.2540205717086792
1726940422544535300,3.762535400390625,-0.06637050211429596,0.569047212600708,0.3107168674468994
1726940422554521300,3.772521240234375,-0.07184569537639618,0.3437797427177429,0.40478822588920593
1726940422564506400,3.78250634765625,-0.16280755400657654,0.011869176290929317,0.506960928440094
1726940422574492200,3.7924921875,-0.22592979669570923,-0.19162322580814362,0.5148921012878418
1726940422584478500,3.802478515625,-0.2986205220222473,-0.08022772520780563,0.4646150767803192
1726940422594464300,3.81246435546875,-0.366750031709671,0.0129951611161232,0.4021410644054413
1726940422604449300,3.82244921875,-0.3807007372379303,0.04435840994119644,0.3444924056529999
1726940422614435300,3.832435302734375,-0.34518375992774963,0.1300314962863922,0.3077802062034607
1726940422624421400,3.84242138671875,-0.32790011167526245,0.16656766831874847,0.3341710567474365
1726940422634406400,3.852406494140625,-0.31656622886657715,0.14542803168296814,0.3811438977718353
1726940422644392200,3.86239208984375,-0.2973174452781677,0.2620398700237274,0.3944397270679474
1726940422654378500,3.87237841796875,-0.26933348178863525,0.28576064109802246,0.3634522557258606
1726940422664364300,3.8823642578125,-0.2628244459629059,0.19532369077205658,0.31489482522010803
1726940422674349300,3.892349365234375,-0.23610255122184753,0.09916014224290848,0.25445252656936646
1726940422684335000,3.902335205078125,-0.23066863417625427,-0.017256751656532288,0.1947210133075714
1726940422694321400,3.9123212890625,-0.27944308519363403,-0.09619497507810593,0.1730375587940216
1726940422704307200,3.92230712890625,-0.33586031198501587,-0.09828076511621475,0.21719969809055328
1726940422714292200,3.932292236328125,-0.39104393124580383,-0.044253479689359665,0.2757066786289215
1726940422724278300,3.9422783203125,-0.3888542652130127,-0.004086620640009642,0.27894508838653564
1726940422734264300,3.952264404296875,-0.3127938508987427,0.04280046001076698,0.22867418825626373
1726940422744249300,3.962249267578125,-0.23332540690898895,0.06493239104747772,0.15007391571998596
1726940422754235400,3.9722353515625,-0.1640099734067917,0.1746615618467331,0.0819486603140831
1726940422764221400,3.982221435546875,-0.06516356021165848,0.2790074050426483,-0.004322310443967581
1726940422774207200,3.992207275390625,0.021998243406414986,0.2987251877784729,-0.055033691227436066
1726940422784192300,4.002192138671875,0.0848802700638771,0.19381554424762726,-0.03876177594065666
1726940422794178300,4.01217822265625,0.10789451003074646,0.08423098921775818,0.05089247599244118
1726940422804164400,4.022164306640625,0.13144324719905853,0.0714544728398323,0.16619056463241577
1726940422814149400,4.0321494140625,0.18057005107402802,0.14858920872211456,0.2533712685108185
1726940422824135400,4.042135498046875,0.24324780702590942,0.17575398087501526,0.2938033938407898
1726940422834121200,4.052121337890625,0.2995600700378418,0.14680887758731842,0.26673954725265503
1726940422844107300,4.062107177734375,0.32350456714630127,0.1498187929391861,0.211953267455101
1726940422854092300,4.07209228515625,0.3258098065853119,0.13401585817337036,0.17272783815860748
1726940422864078300,4.082078369140625,0.31755584478378296,0.15711452066898346,0.16734611988067627
1726940422874064100,4.092064208984375,0.31973859667778015,0.2245156615972519,0.1866801381111145
1726940422884050400,4.102050537109375,0.2975776195526123,0.2372969686985016,0.22324053943157196
1726940422894035500,4.112035400390625,0.2557353675365448,0.2136417031288147,0.24418950080871582
1726940422904021200,4.122021240234375,0.21280787885189056,0.13905403017997742,0.24738289415836334
1726940422914007600,4.132007568359375,0.17747464776039124,0.09649670869112015,0.24993793666362762
1726940422923993300,4.141993408203125,0.15013091266155243,0.07793634384870529,0.24341557919979095
1726940422933978400,4.151978271484375,0.15536482632160187,0.13708434998989105,0.2047869712114334
1726940422943964200,4.161964111328125,0.16306668519973755,0.16164295375347137,0.1229349747300148
1726940422953950500,4.171950439453125,0.13884364068508148,0.18801623582839966,0.014808240346610546
1726940422963935500,4.181935546875,0.08587362617254257,0.19061735272407532,-0.07420845329761505
1726940422973921300,4.19192138671875,0.03726508095860481,0.20256029069423676,-0.14967870712280273
1726940422983907300,4.2019072265625,0.0024716798216104507,0.23620428144931793,-0.20712974667549133
1726940422993893400,4.211893310546875,-0.022462697699666023,0.20579630136489868,-0.2420797497034073
1726940423003878400,4.22187841796875,-0.041732002049684525,0.1909119039773941,-0.26413604617118835
1726940423013864200,4.2318642578125,-0.04851960018277168,0.2774800658226013,-0.2925884425640106
1726940423023850500,4.2418505859375,-0.027770111337304115,0.35833045840263367,-0.32138973474502563
1726940423033835500,4.25183544921875,0.022344186902046204,0.3376278281211853,-0.32111331820487976
1726940423043821300,4.2618212890625,0.08194945752620697,0.29468169808387756,-0.2994428873062134
1726940423053807400,4.271807373046875,0.11364693939685822,0.21371148526668549,-0.2980785667896271
1726940423063793400,4.28179345703125,0.1097981333732605,0.11954770237207413,-0.3237794041633606
1726940423073778400,4.2917783203125,0.09674784541130066,0.08695194125175476,-0.3657146096229553
1726940423083764200,4.30176416015625,0.08226904273033142,0.09462238103151321,-0.38996267318725586
1726940423093750300,4.311750244140625,0.06428444385528564,0.13009728491306305,-0.38068875670433044
1726940423103736300,4.321736328125,0.015449795871973038,0.16255483031272888,-0.3620178699493408
1726940423113721300,4.331721435546875,-0.05789179354906082,0.17986378073692322,-0.3459904193878174
1726940423123707400,4.341707275390625,-0.12509585916996002,0.1901334524154663,-0.31961822509765625
1726940423133693200,4.351693115234375,-0.17326685786247253,0.21297885477542877,-0.2643190026283264
1726940423143678500,4.361678466796875,-0.19794130325317383,0.1767931431531906,-0.1948576420545578
1726940423153664300,4.371664306640625,-0.21157562732696533,0.12892575562000275,-0.14204369485378265
1726940423163650300,4.381650390625,-0.18479302525520325,0.16344910860061646,-0.11768055707216263
1726940423173636400,4.39163623046875,-0.13905403017997742,0.19669894874095917,-0.11619850993156433
1726940423183621400,4.401621337890625,-0.08772079646587372,0.19273456931114197,-0.14158909022808075
1726940423193607400,4.411607421875,-0.05764598399400711,0.1530390828847885,-0.16516844928264618
1726940423203593200,4.42159326171875,-0.035955335944890976,0.11498463898897171,-0.16299158334732056
1726940423213579500,4.43157958984375,-0.03056909516453743,0.07556959241628647,-0.1474728137254715
1726940423223564300,4.441564208984375,-0.041498441249132156,0.019711652770638466,-0.10658343136310577
1726940423233550300,4.45155029296875,-0.0698603093624115,-0.041559427976608276,-0.07060865312814713
1726940423243536100,4.4615361328125,-0.08934345841407776,-0.1017463356256485,-0.04081214591860771
1726940423253521400,4.471521484375,-0.10432267934083939,-0.16058887541294098,-0.06606770306825638
1726940423263507500,4.481507568359375,-0.12053573876619339,-0.24578580260276794,-0.11861266940832138
1726940423273493200,4.4914931640625,-0.14517530798912048,-0.27314844727516174,-0.18818402290344238
1726940423283479300,4.501479248046875,-0.20634251832962036,-0.24724920094013214,-0.25357475876808167
1726940423293464300,4.51146435546875,-0.27621373534202576,-0.18444520235061646,-0.31031766533851624
1726940423303450400,4.521450439453125,-0.3468852639198303,-0.07139162719249725,-0.3519356846809387
1726940423313436200,4.531436279296875,-0.39774203300476074,0.008471781387925148,-0.37131017446517944
1726940423323422500,4.54142236328125,-0.4127465486526489,0.020439760759472847,-0.40165236592292786
1726940423333407500,4.551407470703125,-0.40367263555526733,0.03254462778568268,-0.4534308612346649
1726940423343394600,4.56139453125,-0.38727208971977234,0.018811238929629326,-0.5017834901809692
1726940423353380400,4.57138037109375,-0.3851218521595001,-0.0248401015996933,-0.4846409857273102
1726940423363365600,4.58136572265625,-0.4410839080810547,-0.03779478371143341,-0.40567746758461
1726940423373351700,4.5913515625,-0.49043869972229004,0.004959604702889919,-0.3024461567401886
1726940423383337500,4.60133740234375,-0.5263346433639526,0.019475962966680527,-0.231138676404953
1726940423393323500,4.611323486328125,-0.5232938528060913,-0.040791105479002,-0.1745086908340454
1726940423403308500,4.62130859375,-0.4625820219516754,-0.08330154418945312,-0.16174308955669403
1726940423413294600,4.631294677734375,-0.37611663341522217,-0.09254883974790573,-0.1949998438358307
1726940423423280400,4.6412802734375,-0.3229093551635742,-0.07444494217634201,-0.23578962683677673
1726940423433266700,4.6512666015625,-0.30606165528297424,-0.019900470972061157,-0.2599913775920868
1726940423443251700,4.661251708984375,-0.31276777386665344,0.05709364637732506,-0.2568219304084778
1726940423453237500,4.671237548828125,-0.29925140738487244,0.09991487860679626,-0.17830555140972137
1726940423463223600,4.6812236328125,-0.26098498702049255,0.09977612644433975,-0.04676271229982376
1726940423473208300,4.691208251953125,-0.19399157166481018,0.076491579413414,0.08207117021083832
1726940423483194600,4.701194580078125,-0.12226838618516922,0.0423399992287159,0.19310767948627472
1726940423493180400,4.711180419921875,-0.029797842726111412,-0.01293523982167244,0.29171866178512573
1726940423503166500,4.72116650390625,0.0634269118309021,-0.010447048582136631,0.3811414837837219
1726940423513151700,4.73115185546875,0.12108274549245834,0.0396515391767025,0.4465751051902771
1726940423523137500,4.741137451171875,0.1094876080751419,0.08502381294965744,0.41983723640441895
1726940423533123600,4.75112353515625,0.11227088421583176,0.24703854322433472,0.3254963457584381
1726940423543109400,4.761109375,0.16083788871765137,0.4325125515460968,0.2229662388563156
1726940423553094700,4.7710947265625,0.2060311883687973,0.5458614826202393,0.19992695748806
1726940423563080400,4.78108056640625,0.2106749564409256,0.5700357556343079,0.19639508426189423
1726940423573066500,4.79106640625,0.19472448527812958,0.47638997435569763,0.21594268083572388
1726940423583051500,4.801051513671875,0.1897994875907898,0.3402004539966583,0.2712320387363434
1726940423593037600,4.81103759765625,0.26703304052352905,0.2194862812757492,0.356812983751297
1726940423603023600,4.821023681640625,0.42204898595809937,0.14600461721420288,0.4612203538417816
1726940423613009400,4.831009521484375,0.5812149047851562,0.2280115932226181,0.5668634176254272
1726940423622994400,4.840994384765625,0.7047224640846252,0.32411015033721924,0.6221922039985657
1726940423632980500,4.85098046875,0.7847999930381775,0.3125120997428894,0.6638243198394775
1726940423642966500,4.860966552734375,0.8387239575386047,0.35434290766716003,0.677308976650238
1726940423652951600,4.87095166015625,0.8707886934280396,0.41741588711738586,0.6641039252281189
1726940423662937600,4.8809375,0.8833566904067993,0.3995785415172577,0.6059583425521851
1726940423672923600,4.890923583984375,0.8578148484230042,0.3759278357028961,0.5337057113647461
1726940423682909400,4.900909423828125,0.820692241191864,0.3295462131500244,0.45362207293510437
1726940423692894500,4.91089453125,0.7616968154907227,0.23020870983600616,0.35001739859580994
1726940423702880500,4.920880615234375,0.6552859544754028,0.1967037469148636,0.2504838705062866
1726940423712866600,4.930866455078125,0.4955436885356903,0.25757747888565063,0.12418773025274277
1726940423722852400,4.940852294921875,0.36474600434303284,0.3275808095932007,0.005658684764057398
1726940423732837400,4.95083740234375,0.283438116312027,0.30401289463043213,-0.04079243540763855
1726940423742823700,4.96082373046875,0.22850534319877625,0.24046772718429565,-0.06678382307291031
1726940423752809500,4.9708095703125,0.13685426115989685,0.12575607001781464,-0.07873236387968063
1726940423762794500,4.98079443359375,-0.008579107001423836,0.04123318940401077,-0.08993947505950928
1726940423772780500,4.990780517578125,-0.15926316380500793,0.0246073417365551,-0.12306014448404312
1726940423782766600,5.0007666015625,-0.2834966778755188,0.04948686063289642,-0.16148130595684052
1726940423792752400,5.01075244140625,-0.37521809339523315,0.07299324870109558,-0.18765884637832642
1726940423802737400,5.0207373046875,-0.4392082691192627,0.09090061485767365,-0.236536905169487
1726940423812723700,5.0307236328125,-0.451256662607193,0.09266681969165802,-0.2820865511894226
1726940423822709500,5.04070947265625,-0.42493876814842224,0.09920035302639008,-0.32001927495002747
1726940423832695600,5.050695556640625,-0.38758954405784607,0.06766106933355331,-0.31061673164367676
1726940423842680600,5.0606806640625,-0.3409227132797241,-0.005268265027552843,-0.25308045744895935
1726940423852666600,5.07066650390625,-0.32079240679740906,-0.11030280590057373,-0.18947166204452515
1726940423862652400,5.08065234375,-0.340410053730011,-0.1808352917432785,-0.11287035793066025
1726940423872637400,5.090637451171875,-0.3765754997730255,-0.21634002029895782,-0.03801795467734337
1726940423882623500,5.10062353515625,-0.3963979482650757,-0.22951681911945343,0.019940951839089394
1726940423892609500,5.110609619140625,-0.4063245952129364,-0.20717449486255646,0.07178764045238495
1726940423902595600,5.120595703125,-0.39681074023246765,-0.1620485633611679,0.09818249195814133
1726940423912580600,5.13058056640625,-0.37619414925575256,-0.13336046040058136,0.11363095790147781
1726940423922566400,5.14056640625,-0.36291268467903137,-0.0968884602189064,0.1206851378083229
1726940423932552700,5.150552734375,-0.35455700755119324,-0.05473807826638222,0.1251099854707718
1726940423942537500,5.160537353515625,-0.3450295627117157,-0.022371085360646248,0.1580120027065277
1726940423952523500,5.1705234375,-0.3210344910621643,-0.0035478631034493446,0.20279651880264282
1726940423962509600,5.180509521484375,-0.26367583870887756,0.005960687063634396,0.24313116073608398
1726940423972495600,5.19049560546875,-0.2067001760005951,0.014459366910159588,0.2770228087902069
1726940423982480600,5.200480712890625,-0.15720213949680328,0.034386202692985535,0.2954060733318329
1726940423992466400,5.210466552734375,-0.12510599195957184,0.054001983255147934,0.2943059206008911
1726940424002452700,5.22045263671875,-0.10565399378538132,0.10716933012008667,0.29716935753822327
1726940424012438500,5.2304384765625,-0.09714066237211227,0.16841910779476166,0.2998844385147095
1726940424022423600,5.240423583984375,-0.0755847692489624,0.21680155396461487,0.3082648813724518
1726940424032409300,5.250409423828125,-0.05318811908364296,0.18978351354599,0.3209679126739502
1726940424042395600,5.260395751953125,-0.04039429500699043,0.14106391370296478,0.31434381008148193
1726940424052380700,5.270380615234375,-0.059542953968048096,0.07967378944158554,0.29868844151496887
1726940424062366500,5.280366455078125,-0.10320627689361572,0.0204504132270813,0.28396832942962646
1726940424072352800,5.290352783203125,-0.1743859201669693,-0.0708954781293869,0.24428164958953857
1726940424082338600,5.300338623046875,-0.2436949461698532,-0.10805456340312958,0.21514905989170074
1726940424092323600,5.310323486328125,-0.3264358937740326,-0.07169176638126373,0.17630845308303833
1726940424102309400,5.320309326171875,-0.4261438548564911,-0.0325118713080883,0.15927433967590332
1726940424112295700,5.330295654296875,-0.5228821039199829,0.026523485779762268,0.1647106558084488
1726940424122281500,5.340281494140625,-0.5940476655960083,0.11525948345661163,0.19080351293087006
1726940424132266500,5.3502666015625,-0.6127302646636963,0.15184065699577332,0.22775353491306305
1726940424142252500,5.36025244140625,-0.5737242698669434,0.14930106699466705,0.26559174060821533
1726940424152238600,5.370238525390625,-0.49527233839035034,0.17727145552635193,0.28685468435287476
1726940424162223600,5.3802236328125,-0.3819979727268219,0.18372109532356262,0.2966689467430115
1726940424172209400,5.39020947265625,-0.25072649121284485,0.1851445585489273,0.3149459660053253
1726940424182195500,5.400195556640625,-0.12149234116077423,0.18278393149375916,0.29755711555480957
1726940424192181500,5.410181396484375,-0.031382691115140915,0.18044434487819672,0.27299025654792786
1726940424202166500,5.42016650390625,0.012647618539631367,0.16897623240947723,0.25397101044654846
1726940424212152600,5.430152587890625,0.03014272265136242,0.15106141567230225,0.24152740836143494
1726940424222138600,5.440138671875,0.03696494176983833,0.13109196722507477,0.2581908106803894
1726940424232123600,5.45012353515625,0.029323799535632133,0.15111574530601501,0.2647901177406311
1726940424242109400,5.460109375,0.009356483817100525,0.15793104469776154,0.3042459189891815
1726940424252095500,5.470095458984375,-0.014417555183172226,0.20288866758346558,0.37706100940704346
1726940424262081500,5.48008154296875,-0.017980331555008888,0.21499086916446686,0.45247983932495117
1726940424272066600,5.490066650390625,0.015358716249465942,0.18200787901878357,0.5020071864128113
1726940424282052600,5.500052490234375,0.06571988761425018,0.17384102940559387,0.4732495844364166
1726940424292038400,5.510038330078125,0.10177908837795258,0.169180765748024,0.3981178104877472
1726940424302024700,5.520024658203125,0.07283079624176025,0.21661938726902008,0.2857728898525238
1726940424312009500,5.530009521484375,-0.0005845638806931674,0.31950289011001587,0.13923725485801697
1726940424321995500,5.53999560546875,-0.08763770759105682,0.4221762716770172,-0.019577164202928543
1726940424331981300,5.549981201171875,-0.1483476608991623,0.5113343596458435,-0.19653116166591644
1726940424341966600,5.559966552734375,-0.13466113805770874,0.6362323760986328,-0.41561025381088257
1726940424351952100,5.5699521484375,-0.055740758776664734,0.8205787539482117,-0.5997180342674255
1726940424361938200,5.579938232421875,0.0204008799046278,0.8711194396018982,-0.6894497871398926
1726940424371924200,5.58992431640625,0.03668450936675072,0.7707750201225281,-0.6767366528511047
1726940424381909200,5.5999091796875,0.01142922230064869,0.6609675288200378,-0.6529820561408997
1726940424391895000,5.60989501953125,-0.006302104331552982,0.4954981505870819,-0.6742556691169739
1726940424401881300,5.61988134765625,0.002879942301660776,0.4184896647930145,-0.7914057374000549
1726940424411866000,5.6298662109375,0.040117859840393066,0.426970511674881,-0.9780411124229431
1726940424421852200,5.63985205078125,0.07150827348232269,0.4279409646987915,-1.0842037200927734
1726940424431838200,5.649838134765625,0.11621182411909103,0.4910232424736023,-1.1419848203659058
1726940424441824300,5.65982421875,0.20090220868587494,0.5089103579521179,-1.1287001371383667
1726940424451809300,5.669809326171875,0.32022514939308167,0.49569523334503174,-1.0408145189285278
1726940424461795000,5.679795166015625,0.4857110381126404,0.4755745232105255,-0.8790460824966431
1726940424471781400,5.689781494140625,0.6647077202796936,0.45560482144355774,-0.7146126627922058
1726940424481767200,5.69976708984375,0.8683090209960938,0.4383493959903717,-0.5448949933052063
1726940424491752200,5.709752197265625,1.065924048423767,0.3164610266685486,-0.32673898339271545
1726940424501738000,5.719738037109375,1.257474660873413,0.1742604821920395,-0.060566142201423645
1726940424511724300,5.729724365234375,1.4266210794448853,0.04406120255589485,0.27188077569007874
1726940424521709300,5.739709228515625,1.5725369453430176,-0.04501115158200264,0.6345404982566833
1726940424531695000,5.749695068359375,1.722226858139038,-0.04415148124098778,0.9566662907600403
1726940424541681200,5.75968115234375,1.8574891090393066,-0.0678006187081337,1.2295335531234741
1726940424551667200,5.769667236328125,1.9066650867462158,-0.0873199924826622,1.4361854791641235
1726940424561652200,5.77965234375,1.8888278007507324,0.002428004052489996,1.539871096611023
1726940424571638000,5.789637939453125,1.816742181777954,0.09795825183391571,1.4893211126327515
1726940424581624300,5.799624267578125,1.6867223978042603,0.14943182468414307,1.3505805730819702
1726940424591610000,5.809610107421875,1.5404900312423706,0.098953478038311,1.2123734951019287
1726940424601595100,5.81959521484375,1.410969853401184,0.01859525591135025,1.172087550163269
1726940424611581200,5.829581298828125,1.3412320613861084,-0.06955084949731827,1.2593625783920288
1726940424621567200,5.839567138671875,1.2735451459884644,-0.13993047177791595,1.4059174060821533
1726940424631552300,5.84955224609375,1.2006211280822754,-0.20283646881580353,1.5125788450241089
1726940424641538000,5.8595380859375,1.149237036705017,-0.1752634346485138,1.6048229932785034
1726940424651524000,5.869524169921875,1.184714436531067,-0.028979454189538956,1.6684608459472656
1726940424661510100,5.87951025390625,1.227293848991394,-0.05092256888747215,1.6704806089401245
1726940424671495200,5.8894951171875,1.21071457862854,-0.13797225058078766,1.565015435218811
1726940424681481200,5.899481201171875,1.0652670860290527,-0.266069233417511,1.4437979459762573
1726940424691467000,5.909467041015625,0.8414811491966248,-0.24915336072444916,1.2628464698791504
1726940424701452300,5.919452392578125,0.6076854467391968,-0.07738107442855835,1.0274211168289185
1726940424711438000,5.92943798828125,0.3483436107635498,0.1306578814983368,0.7953828573226929
1726940424721424100,5.939424072265625,0.09679072350263596,0.28948774933815,0.6353322267532349
1726940424731410200,5.94941015625,-0.09162925183773041,0.354348748922348,0.5440899133682251
1726940424741395200,5.959395263671875,-0.22445493936538696,0.2704823613166809,0.46966975927352905
1726940424751381200,5.96938134765625,-0.3297044038772583,0.09303326904773712,0.34955134987831116
1726940424761367000,5.979366943359375,-0.4479202628135681,-0.139926478266716,0.1769779771566391
1726940424771353300,5.989353271484375,-0.6026811003684998,-0.2922893762588501,-0.02479615993797779
1726940424781338000,5.999338134765625,-0.7618853449821472,-0.3914114534854889,-0.2806878685951233
1726940424791324200,6.00932421875,-0.9228550791740417,-0.3575908839702606,-0.5183707475662231
1726940424801310000,6.01931005859375,-1.0452617406845093,-0.3232683539390564,-0.7146661877632141
1726940424811295200,6.029295166015625,-1.096859097480774,-0.24133405089378357,-0.8957510590553284
1726940424821281300,6.03928125,-1.107546091079712,-0.09836944937705994,-1.034294843673706
1726940424831267000,6.04926708984375,-1.0780649185180664,0.022007297724485397,-1.1010535955429077
1726940424841253000,6.059253173828125,-0.9765100479125977,0.028912607580423355,-1.0282281637191772
1726940424851238100,6.069238037109375,-0.8228283524513245,-0.045039113610982895,-0.824884831905365
1726940424861224200,6.07922412109375,-0.5938543081283569,-0.11000452935695648,-0.5549007654190063
1726940424871210000,6.0892099609375,-0.3277059495449066,-0.19617536664009094,-0.2169424295425415
1726940424881195000,6.099195068359375,-0.026913106441497803,-0.2434328943490982,0.19702571630477905
1726940424891181300,6.109181396484375,0.2980617880821228,-0.2697201669216156,0.5120776891708374
1726940424901167000,6.1191669921875,0.5683127045631409,-0.44111746549606323,0.6277696490287781
1726940424911153200,6.129153076171875,0.7651810646057129,-0.46568647027015686,0.7029293775558472
1726940424921138200,6.13913818359375,0.9631338119506836,-0.36747655272483826,0.8027212023735046
1726940424931124200,6.149124267578125,1.1588788032531738,-0.23094746470451355,0.9235643148422241
1726940424941110000,6.159110107421875,1.3077419996261597,-0.13966229557991028,1.016624927520752
1726940424951096000,6.169095947265625,1.3654391765594482,0.00017230652156285942,1.0667369365692139
1726940424961081300,6.179081298828125,1.3172277212142944,0.12308784574270248,1.078083872795105
1726940424971067100,6.189067138671875,1.1871485710144043,0.191724956035614,1.0739127397537231
1726940424981053200,6.19905322265625,1.005773663520813,0.16999170184135437,1.0407135486602783
1726940424991038200,6.2090380859375,0.8063766956329346,0.12246359884738922,0.9888282418251038
1726940425001024300,6.219024169921875,0.613197386264801,0.10883806645870209,0.9431625008583069
1726940425011010000,6.229010009765625,0.45711907744407654,0.26672863960266113,0.844161331653595
1726940425020996000,6.23899609375,0.36590129137039185,0.4651202857494354,0.7613785862922668
1726940425030981000,6.248981201171875,0.3353915810585022,0.5188692808151245,0.7314241528511047
1726940425040967200,6.25896728515625,0.3365924060344696,0.4393528699874878,0.7615748643875122
1726940425050953200,6.268953125,0.3575506806373596,0.3339633345603943,0.8106350898742676
1726940425060939000,6.27893896484375,0.35313835740089417,0.2569575011730194,0.8307286500930786
1726940425070924000,6.288924072265625,0.3134322166442871,0.13356897234916687,0.8515976667404175
1726940425080910000,6.29891015625,0.27136945724487305,0.027236947789788246,0.8223873376846313
1726940425090896100,6.308896240234375,0.22418490052223206,0.03633616864681244,0.754727303981781
1726940425100881200,6.318881103515625,0.18059587478637695,0.08313989639282227,0.6672707200050354
1726940425110867200,6.3288671875,0.11294625699520111,0.1153380423784256,0.577333927154541
1726940425120853200,6.338853271484375,0.03129161149263382,0.13258786499500275,0.47147032618522644
1726940425130839000,6.348839111328125,-0.05888781696557999,0.1624341905117035,0.3742412328720093
1726940425140824000,6.358823974609375,-0.18903329968452454,0.1612623929977417,0.32507848739624023
1726940425150810400,6.368810302734375,-0.2597045302391052,0.16864493489265442,0.29159510135650635
1726940425160796200,6.378796142578125,-0.27968037128448486,0.21842288970947266,0.2937314808368683
1726940425170781200,6.38878125,-0.2270137071609497,0.3149819076061249,0.3007688820362091
1726940425180767000,6.39876708984375,-0.18517838418483734,0.3964083194732666,0.2891327440738678
1726940425190753300,6.408753173828125,-0.21463534235954285,0.38129276037216187,0.24414688348770142
1726940425200739000,6.418739013671875,-0.22964385151863098,0.28541311621665955,0.15910948812961578
1726940425210724000,6.42872412109375,-0.20966242253780365,0.11956901103258133,0.06538912653923035
1726940425220710100,6.438710205078125,-0.23696434497833252,-0.0683087483048439,-0.016754478216171265
1726940425230696200,6.4486962890625,-0.2911785840988159,-0.24166056513786316,-0.07820585370063782
1726940425240682200,6.45868212890625,-0.38315272331237793,-0.39261066913604736,-0.1375325620174408
1726940425250667000,6.4686669921875,-0.494556188583374,-0.4546138346195221,-0.19088925421237946
1726940425260653300,6.4786533203125,-0.6086891889572144,-0.43667346239089966,-0.23120179772377014
1726940425270639000,6.48863916015625,-0.7101252675056458,-0.4091566205024719,-0.22809122502803802
1726940425280624000,6.4986240234375,-0.724009096622467,-0.4176481068134308,-0.2017083466053009
1726940425290610200,6.508610107421875,-0.6342861652374268,-0.4748152494430542,-0.16397695243358612
1726940425300596200,6.51859619140625,-0.5129876732826233,-0.5489283800125122,-0.1442495882511139
1726940425310582300,6.528582275390625,-0.4270589053630829,-0.5341209173202515,-0.18178896605968475
1726940425320567000,6.538567138671875,-0.3988981246948242,-0.444271981716156,-0.26506176590919495
1726940425330553000,6.548552978515625,-0.38848409056663513,-0.36308765411376953,-0.34291526675224304
1726940425340539100,6.5585390625,-0.35306137800216675,-0.27947506308555603,-0.38398441672325134
1726940425350524200,6.568524169921875,-0.2968284785747528,-0.14161625504493713,-0.3715221583843231
1726940425360510200,6.57851025390625,-0.23535606265068054,-0.026882480829954147,-0.3318120241165161
1726940425370496000,6.58849609375,-0.1946650892496109,0.041916824877262115,-0.2916739284992218
1726940425380482000,6.59848193359375,-0.18216180801391602,0.041253428906202316,-0.22483471035957336
1726940425390467000,6.608467041015625,-0.17745441198349,-0.039623308926820755,-0.1137998029589653
1726940425400453000,6.618453125,-0.18553391098976135,-0.12516404688358307,-0.005437109619379044
1726940425410439000,6.62843896484375,-0.1899435669183731,-0.15972521901130676,0.06076348200440407
1726940425420425200,6.63842529296875,-0.19044850766658783,-0.13334128260612488,0.10336340963840485
1726940425430410200,6.64841015625,-0.19648109376430511,-0.10831901431083679,0.1240905225276947
1726940425440396000,6.65839599609375,-0.20252114534378052,-0.178909033536911,0.10292558372020721
1726940425450382000,6.668382080078125,-0.2189299464225769,-0.27067944407463074,0.05020324885845184
1726940425460366800,6.678366943359375,-0.25899428129196167,-0.30686086416244507,-0.010481669567525387
1726940425470353200,6.688353271484375,-0.30569201707839966,-0.29843810200691223,-0.06422452628612518
1726940425480339000,6.6983388671875,-0.348518043756485,-0.24882793426513672,-0.10475144535303116
1726940425490325000,6.708324951171875,-0.40590089559555054,-0.23524446785449982,-0.09182259440422058
1726940425500310300,6.718310302734375,-0.46956828236579895,-0.1920677125453949,-0.00487092137336731
1726940425510296000,6.728296142578125,-0.491831511259079,-0.12005423754453659,0.1405661702156067
1726940425520282000,6.7382822265625,-0.5169690847396851,-0.07289285212755203,0.32510513067245483
1726940425530267000,6.748266845703125,-0.5495312809944153,-0.09053389728069305,0.4930379390716553
1726940425540253200,6.758253173828125,-0.5657893419265747,-0.09452677518129349,0.5638687014579773
1726940425550239000,6.768239013671875,-0.5493459701538086,-0.09204763174057007,0.5245450139045715
1726940425560225000,6.77822509765625,-0.49649471044540405,-0.03495585173368454,0.4485759139060974
1726940425570210000,6.7882099609375,-0.4422234892845154,0.03961052745580673,0.3433232605457306
1726940425580196000,6.798196044921875,-0.42947760224342346,-0.02190130390226841,0.28630074858665466
1726940425590182100,6.80818212890625,-0.41974639892578125,-0.04601249843835831,0.22115741670131683
1726940425600168000,6.81816796875,-0.4263276159763336,-0.1014893427491188,0.18638744950294495
1726940425610153000,6.828153076171875,-0.3783784508705139,-0.1510624885559082,0.18488863110542297
1726940425620139000,6.838138916015625,-0.32118120789527893,-0.19567681849002838,0.20783548057079315
1726940425630125000,6.848125,-0.23125745356082916,-0.23917822539806366,0.2271793633699417
1726940425640110000,6.858110107421875,-0.14960360527038574,-0.27825772762298584,0.19595539569854736
1726940425650096000,6.86809619140625,-0.16471438109874725,-0.29472512006759644,0.11521953344345093
1726940425660082200,6.878082275390625,-0.24953845143318176,-0.20746050775051117,-0.002013616031035781
1726940425670068000,6.88806787109375,-0.3820562958717346,0.004006459377706051,-0.15672169625759125
1726940425680053000,6.898052978515625,-0.49477458000183105,0.3272654712200165,-0.3544909656047821
1726940425690039000,6.9080390625,-0.5663318634033203,0.5229495167732239,-0.5434420108795166
1726940425700025000,6.918025146484375,-0.5424888134002686,0.42303675413131714,-0.7079768776893616
1726940425710011000,6.928010986328125,-0.45733505487442017,-0.0062914518639445305,-0.8167198896408081
1726940425719996000,6.937995849609375,-0.3235953748226166,-0.5339177250862122,-0.8880068063735962
1726940425729982200,6.947982177734375,-0.2009621411561966,-0.7941466569900513,-1.0354894399642944
1726940425739968000,6.957968017578125,-0.0847066342830658,-0.8604327440261841,-1.2496103048324585
1726940425749953000,6.967953125,0.0022471752017736435,-0.7865337133407593,-1.4204180240631104
1726940425759939000,6.97793896484375,0.056168463081121445,-0.5886395573616028,-1.4766759872436523
1726940425769925000,6.987925048828125,0.06967521458864212,-0.43962424993515015,-1.4214390516281128
1726940425779911200,6.9979111328125,0.007862716913223267,-0.324424147605896,-1.308844804763794
1726940425789896000,7.00789599609375,-0.04465881362557411,-0.27087756991386414,-1.1597936153411865
1726940425799882200,7.01788232421875,-0.13853897154331207,-0.2940284311771393,-0.9502204060554504
1726940425809868000,7.027867919921875,-0.2496260702610016,-0.3947603702545166,-0.7599601745605469
1726940425819853000,7.03785302734375,-0.30779698491096497,-0.5204301476478577,-0.6680709719657898
1726940425829839000,7.047839111328125,-0.38966360688209534,-0.560151994228363,-0.6829972267150879
1726940425839825200,7.0578251953125,-0.4513501524925232,-0.4753284454345703,-0.7405793070793152
1726940425849811200,7.067811279296875,-0.5243367552757263,-0.4198649227619171,-0.7242924571037292
1726940425859796000,7.0777958984375,-0.602069079875946,-0.3706939220428467,-0.656322181224823
1726940425869782000,7.087781982421875,-0.6777963042259216,-0.3494948744773865,-0.598789393901825
1726940425879768000,7.09776806640625,-0.7595298290252686,-0.24040408432483673,-0.5127741098403931
1726940425889754000,7.107754150390625,-0.6995618343353271,-0.08080296963453293,-0.42348068952560425
1726940425899739100,7.1177392578125,-0.48917341232299805,0.011374360881745815,-0.35316312313079834
1726940425909725200,7.12772509765625,-0.2698895335197449,-0.08065489679574966,-0.42427006363868713
1726940425919711200,7.137711181640625,-0.14497743546962738,-0.04585004597902298,-0.43828094005584717
1726940425929696000,7.147696044921875,-0.12569907307624817,-0.11846033483743668,-0.4600197970867157
1726940425939682000,7.15768212890625,-0.11788588762283325,-0.19959966838359833,-0.43017134070396423
1726940425949668000,7.167668212890625,-0.11554470658302307,-0.26899126172065735,-0.3601225018501282
1726940425959654100,7.177654052734375,-0.12837181985378265,-0.26837900280952454,-0.2838069498538971
1726940425969639200,7.18763916015625,-0.133407324552536,-0.19270659983158112,-0.20664478838443756
1726940425979625000,7.197625,-0.12867382168769836,-0.11457211524248123,-0.1372409462928772
1726940425989611300,7.207611328125,-0.09897638112306595,-0.09665384143590927,-0.10024937242269516
1726940425999596000,7.217595947265625,-0.0522775836288929,-0.07940880209207535,-0.11375266313552856
1726940426009582000,7.22758203125,-0.013681990094482899,-0.01696992851793766,-0.16849474608898163
1726940426019567900,7.23756787109375,0.014939268119633198,0.048289235681295395,-0.26707643270492554
1726940426029554200,7.24755419921875,-0.014591991901397705,0.11124769598245621,-0.3873402774333954
1726940426039539200,7.257539306640625,-0.1033700630068779,0.15599918365478516,-0.5179094672203064
1726940426049525000,7.26752490234375,-0.30783453583717346,0.10796188563108444,-0.6696627736091614
1726940426059511300,7.27751123046875,-0.5218679904937744,0.18992386758327484,-0.7247127294540405
1726940426069497000,7.2874970703125,-0.6468535661697388,0.17425169050693512,-0.6826003789901733
1726940426079482000,7.297482177734375,-0.6770610213279724,0.17731831967830658,-0.5798178315162659
1726940426089468000,7.307468017578125,-0.6154844760894775,0.22567734122276306,-0.4351818263530731
1726940426099454200,7.3174541015625,-0.5447661280632019,0.21624921262264252,-0.3517551124095917
1726940426109439200,7.327439208984375,-0.5397079586982727,0.19692078232765198,-0.3189481496810913
1726940426119425000,7.337425048828125,-0.5513193607330322,0.18721729516983032,-0.30937328934669495
1726940426129411000,7.3474111328125,-0.5515222549438477,0.14900092780590057,-0.29148805141448975
1726940426139397000,7.357397216796875,-0.5249125361442566,0.07532564550638199,-0.2871750593185425
1726940426149382100,7.367382080078125,-0.4732450544834137,-0.019509518519043922,-0.2756052017211914
1726940426159368000,7.377367919921875,-0.3983875811100006,-0.08617056906223297,-0.27728354930877686
1726940426169354000,7.38735400390625,-0.3054094612598419,-0.1929313689470291,-0.28645360469818115
1726940426179340000,7.397340087890625,-0.2016311138868332,-0.25092729926109314,-0.28385940194129944
1726940426189325000,7.407324951171875,-0.11502538621425629,-0.26925036311149597,-0.26460474729537964
1726940426199311000,7.41731103515625,-0.02057505026459694,-0.20604132115840912,-0.23289290070533752
1726940426209297200,7.427297119140625,0.0640314444899559,-0.16186906397342682,-0.21341773867607117
1726940426219282200,7.4372822265625,0.14853274822235107,-0.10747825354337692,-0.1975564807653427
1726940426229268000,7.44726806640625,0.22332683205604553,-0.04181082919239998,-0.18548357486724854
1726940426239254000,7.45725390625,0.2708389461040497,0.03531697764992714,-0.16802042722702026
1726940426249240000,7.467239990234375,0.29359325766563416,0.03370283544063568,-0.1111355721950531
1726940426259225000,7.47722509765625,0.3098052740097046,-0.018806178122758865,-0.041732799261808395
1726940426269211100,7.487211181640625,0.28359708189964294,-0.05230261757969856,0.0031902005430310965
1726940426279197000,7.497197021484375,0.24854722619056702,-0.01101589947938919,-0.011697402223944664
1726940426289182200,7.50718212890625,0.21619701385498047,-0.0004974784678779542,-0.05871843919157982
1726940426299168000,7.51716796875,0.17348656058311462,-0.030957384034991264,-0.07261108607053757
1726940426309154000,7.527154052734375,0.10872301459312439,0.016027702018618584,-0.06735027581453323
1726940426319139800,7.537139892578125,0.04752011597156525,0.02984151802957058,-0.060867346823215485
1726940426329125000,7.547125,-0.0020658141002058983,-0.021438179537653923,-0.04031413421034813
1726940426339111200,7.557111083984375,-0.057981278747320175,-0.05121897906064987,-0.08475589752197266
1726940426349097200,7.56709716796875,-0.11531993746757507,-0.03033207356929779,-0.15109869837760925
1726940426359083300,7.577083251953125,-0.14875805377960205,-0.040159936994314194,-0.21155406534671783
1726940426369068000,7.587068115234375,-0.1716788113117218,-0.0715831071138382,-0.256090372800827
1726940426379054300,7.597054443359375,-0.1799924075603485,-0.07044780254364014,-0.27084773778915405
1726940426389040000,7.6070400390625,-0.17028704285621643,-0.04807857796549797,-0.28745707869529724
1726940426399025200,7.617025146484375,-0.12773479521274567,-0.0528419092297554,-0.3198578953742981
1726940426409011200,7.62701123046875,-0.06413717567920685,-0.05000697448849678,-0.36370497941970825
1726940426418997200,7.636997314453125,0.008645153604447842,0.016078302636742592,-0.44017231464385986
1726940426428983300,7.6469833984375,0.0802072212100029,0.1176840215921402,-0.5189225077629089
1726940426438968000,7.656968017578125,0.14946778118610382,0.15013223886489868,-0.5590955018997192
1726940426448954000,7.6669541015625,0.20248226821422577,0.16670535504817963,-0.5461413860321045
1726940426458940200,7.676940185546875,0.23700349032878876,0.1815386414527893,-0.4737531840801239
1726940426468925200,7.68692529296875,0.24305233359336853,0.19323790073394775,-0.36537185311317444
1726940426478911200,7.6969111328125,0.21594294905662537,0.1777404397726059,-0.26610198616981506
1726940426488897000,7.70689697265625,0.18819573521614075,0.2480177879333496,-0.23904374241828918
1726940426498883300,7.71688330078125,0.19773943722248077,0.31469374895095825,-0.2526319921016693
1726940426508868000,7.7268681640625,0.18694885075092316,0.3902537524700165,-0.3555618226528168
1726940426518854100,7.736854248046875,0.1812845766544342,0.5412733554840088,-0.5461840033531189
1726940426528840200,7.746840087890625,0.20067743957042694,0.7408738136291504,-0.8006900548934937
1726940426538826200,7.756826171875,0.2736067771911621,0.9755744934082031,-1.1176680326461792
1726940426548811300,7.766811279296875,0.32069680094718933,1.0593771934509277,-1.3858568668365479
1726940426558797000,7.776797119140625,0.31075388193130493,1.0475813150405884,-1.6399985551834106
1726940426568783400,7.786783447265625,0.25805285573005676,0.8747379183769226,-1.794179916381836
1726940426578768100,7.79676806640625,0.19427120685577393,0.4653589129447937,-1.7381975650787354
1726940426588754200,7.806754150390625,0.1405874788761139,0.050152916461229324,-1.5178534984588623
1726940426598740200,7.816740234375,0.13489922881126404,0.009644904173910618,-1.2540735006332397
1726940426608726300,7.826726318359375,0.12347666174173355,0.08289728313684464,-0.9386523962020874
1726940426618711300,7.836711181640625,0.17635825276374817,0.17826934158802032,-0.6702305674552917
1726940426628697000,7.846697021484375,0.24886201322078705,0.1704268604516983,-0.4596163332462311
1726940426638683100,7.85668310546875,0.31443703174591064,0.10402706265449524,-0.2527227997779846
1726940426648669200,7.866669189453125,0.4088146686553955,0.18703299760818481,-0.15650252997875214
1726940426658654200,7.876654296875,0.4420732855796814,0.3134812116622925,-0.19124026596546173
1726940426668640300,7.88664013671875,0.33532261848449707,0.42798861861228943,-0.2877814471721649
1726940426678626300,7.896626220703125,0.1542782485485077,0.4876311719417572,-0.37103959918022156
1726940426688611300,7.906611328125,-0.008252337574958801,0.5082153081893921,-0.39489245414733887
1726940426698597000,7.91659716796875,-0.14764192700386047,0.5246195793151855,-0.34097835421562195
1726940426708583200,7.926583251953125,-0.19566643238067627,0.5271610021591187,-0.2598097324371338
1726940426718569200,7.9365693359375,-0.1228092759847641,0.4600229859352112,-0.22978979349136353
1726940426728554200,7.94655419921875,0.039571911096572876,0.4283958375453949,-0.3122473657131195
1726940426738540300,7.956540283203125,0.22155475616455078,0.45367029309272766,-0.43757253885269165
1726940426748526000,7.966526123046875,0.28173235058784485,0.3844083845615387,-0.4613540470600128
1726940426758511400,7.976511474609375,0.21363665163516998,0.23757687211036682,-0.3913176953792572
1726940426768497200,7.9864970703125,0.0324476882815361,0.13637807965278625,-0.26918673515319824
1726940426778483200,7.996483154296875,-0.24348269402980804,0.023481357842683792,-0.0609150156378746
1726940426788469200,8.00646923828125,-0.44434335827827454,-0.0023848607670515776,0.13835707306861877
1726940426798454300,8.016454345703124,-0.5441615581512451,0.09125933796167374,0.24021179974079132
1726940426808440300,8.0264404296875,-0.5906446576118469,0.24853098392486572,0.25744831562042236
1726940426818426000,8.036426025390625,-0.6191247701644897,0.250040203332901,0.23238210380077362
1726940426828412400,8.046412353515626,-0.6690771579742432,0.10908360779285431,0.22787444293498993
1726940426838397200,8.056397216796874,-0.7220836281776428,-0.0661526545882225,0.2710040807723999
1726940426848383200,8.06638330078125,-0.7906025052070618,-0.21143102645874023,0.2959669530391693
1726940426858369000,8.076369140625,-0.8757051229476929,-0.3312101662158966,0.32407182455062866
1726940426868354000,8.08635400390625,-0.9406364560127258,-0.4421044588088989,0.3662504255771637
1726940426878340400,8.09634033203125,-0.9718159437179565,-0.510016679763794,0.3990568518638611
1726940426888326100,8.106326171875,-0.9518025517463684,-0.5616039633750916,0.41830751299858093
1726940426898312200,8.116312255859375,-0.871213436126709,-0.5678421258926392,0.42483624815940857
1726940426908297200,8.126297119140625,-0.7993443608283997,-0.5729772448539734,0.4345381259918213
1726940426918283300,8.136283203125,-0.7507429718971252,-0.5885982513427734,0.453163743019104
1726940426928269000,8.14626904296875,-0.7120674848556519,-0.6440902948379517,0.5164889097213745
1726940426938255400,8.15625537109375,-0.6484951376914978,-0.6622365713119507,0.5669206976890564
1726940426948240400,8.166240478515626,-0.5275956392288208,-0.6169785261154175,0.5974189043045044
1726940426958226200,8.17622607421875,-0.35781538486480713,-0.5312820076942444,0.6100372672080994
1726940426968212200,8.186212158203125,-0.1718529909849167,-0.5511025786399841,0.6445111036300659
1726940426978197000,8.196197021484375,-0.05337267741560936,-0.7582123279571533,0.761219322681427
1726940426988183300,8.206183349609375,-0.034626953303813934,-0.865074872970581,0.8189257383346558
1726940426998169000,8.216169189453124,-0.039321038872003555,-0.8461187481880188,0.7833725810050964
1726940427008155100,8.226155029296875,-0.06609725952148438,-0.8571786284446716,0.6857849955558777
1726940427018140400,8.236140380859375,-0.08143173903226852,-0.7965322732925415,0.6131086945533752
1726940427028126200,8.246126220703125,-0.07312880456447601,-0.6739922761917114,0.5409306287765503
1726940427038112300,8.2561123046875,-0.05191592872142792,-0.6821692585945129,0.49291303753852844
1726940427048097000,8.266096923828124,-0.07477597147226334,-0.7222577929496765,0.4565768539905548
1726940427058083300,8.276083251953125,-0.1422508805990219,-0.6946954131126404,0.35355061292648315
1726940427068069000,8.286069091796875,-0.20281249284744263,-0.5893679261207581,0.1993434578180313
1726940427078055200,8.29605517578125,-0.20616461336612701,-0.3839511275291443,0.028624987229704857
1726940427088040200,8.306040283203124,-0.15647323429584503,-0.16840818524360657,-0.08060163259506226
1726940427098026200,8.316026123046875,-0.07065286487340927,-0.039867255836725235,-0.09550894796848297
1726940427108012300,8.32601220703125,0.03599128872156143,-0.010004697367548943,-0.04150403290987015
1726940427117998000,8.335998046875,0.1511855274438858,-0.015301991254091263,0.06143806129693985
1726940427127983000,8.345983154296874,0.23922643065452576,-0.09308306872844696,0.18372003734111786
1726940427137969200,8.35596923828125,0.3120998442173004,-0.10481376200914383,0.2713867723941803
1726940427147955200,8.365955078125,0.3557506501674652,-0.11863450706005096,0.3572617173194885
1726940427157940200,8.375940185546876,0.404296338558197,-0.12949007749557495,0.4266631603240967
1726940427167926300,8.38592626953125,0.4477679133415222,-0.08139951527118683,0.436835378408432
1726940427177912300,8.395912353515625,0.4594551920890808,-0.06276697665452957,0.42110249400138855
1726940427187898000,8.405898193359375,0.4634089469909668,-0.004464789759367704,0.40190109610557556
1726940427197883100,8.415883056640626,0.4317133128643036,-0.04044569283723831,0.40415945649147034
1726940427207869200,8.425869140625,0.36626240611076355,-0.08332285284996033,0.42781659960746765
1726940427217855200,8.435855224609375,0.31624317169189453,-0.08218088746070862,0.40841731429100037
1726940427227841000,8.445841064453125,0.3159928619861603,-0.05555940046906471,0.376316100358963
1726940427237826000,8.455825927734375,0.30660146474838257,-0.040111199021339417,0.3689599335193634
1726940427247812400,8.465812255859374,0.31553345918655396,0.019448531791567802,0.340639591217041
1726940427257798100,8.475798095703125,0.3623550236225128,0.023325296118855476,0.2781461477279663
1726940427267783200,8.485783203125,0.37933000922203064,-0.02292715385556221,0.20747755467891693
1726940427277769200,8.495769287109376,0.35227683186531067,-0.011885687708854675,0.14774765074253082
1726940427287755300,8.50575537109375,0.3250177800655365,-0.014998923055827618,0.1063661202788353
1726940427297741000,8.515740966796875,0.31801632046699524,-0.01985493116080761,0.0793297067284584
1726940427307726000,8.52572607421875,0.2963949143886566,0.05356522276997566,0.006039782892912626
1726940427317712400,8.53571240234375,0.28322798013687134,0.16035372018814087,-0.08282031118869781
1726940427327698200,8.5456982421875,0.3129208981990814,0.2934228181838989,-0.13440068066120148
1726940427337683200,8.55568310546875,0.3753294050693512,0.36372387409210205,-0.11525122821331024
1726940427347669200,8.565669189453125,0.4420117735862732,0.3413187265396118,-0.06667996197938919
1726940427357655000,8.575655029296875,0.4692854583263397,0.23747247457504272,0.006645385641604662
1726940427367641000,8.58564111328125,0.40225130319595337,0.1369336098432541,0.06671378016471863
1726940427377626000,8.595626220703124,0.25295716524124146,0.08697937428951263,0.10412533581256866
1726940427387612200,8.605612060546875,0.09021591395139694,0.07468648999929428,0.09030646085739136
1726940427397598200,8.61559814453125,-0.02394368313252926,0.0852895975112915,0.056960489600896835
1726940427407584300,8.625584228515624,-0.14741875231266022,0.07333120703697205,0.07255542278289795
1726940427417569300,8.6355693359375,-0.2492676079273224,0.0791960209608078,0.13914591073989868
1726940427427555000,8.64555517578125,-0.31660911440849304,0.09080340713262558,0.23639948666095734
1726940427437541000,8.655541015625,-0.34009766578674316,0.05879141017794609,0.29792118072509766
1726940427447526100,8.665526123046876,-0.32179346680641174,0.017545437440276146,0.3254377543926239
1726940427457512200,8.67551220703125,-0.22563418745994568,0.0031675638165324926,0.3316514492034912
1726940427467498000,8.685498046875,-0.0638202577829361,-0.01398452464491129,0.3465145528316498
1726940427477484300,8.695484375,0.11193691939115524,-0.09290038049221039,0.3219839036464691
1726940427487469300,8.70546923828125,0.2609000504016876,-0.12075997143983841,0.27735117077827454
1726940427497455000,8.715455078125,0.40230298042297363,-0.05826010927557945,0.1586114764213562
1726940427507441200,8.725441162109375,0.415168434381485,-0.07226274162530899,0.01624741218984127
1726940427517427200,8.73542724609375,0.33209165930747986,-0.03627545014023781,-0.11789175122976303
1726940427527412200,8.745412109375,0.17559579014778137,0.1462717205286026,-0.21684442460536957
1726940427537398000,8.75539794921875,-0.02948385663330555,0.2638537585735321,-0.260727196931839
1726940427547384300,8.76538427734375,-0.2180071622133255,0.23926611244678497,-0.33384668827056885
1726940427557369300,8.775369384765625,-0.348970502614975,0.21124300360679626,-0.444303423166275
1726940427567355100,8.785355224609376,-0.43233758211135864,0.21556930243968964,-0.6059216260910034
1726940427577341200,8.795341064453124,-0.48249340057373047,0.1826864629983902,-0.7646992802619934
1726940427587327200,8.8053271484375,-0.5611608028411865,0.22439049184322357,-0.8553373217582703
1726940427597312300,8.815312255859375,-0.6107581853866577,0.24873018264770508,-0.8187041878700256
1726940427607298000,8.825298095703126,-0.5655539631843567,-0.09520827233791351,-0.6773742437362671
1726940427617284000,8.8352841796875,-0.4422732889652252,-0.6461928486824036,-0.5201894044876099
1726940427627270100,8.845270263671875,-0.2930089831352234,-0.9249382019042969,-0.4696894586086273
1726940427637255200,8.855255126953125,-0.07104514539241791,-0.9194968342781067,-0.4492318630218506
1726940427647241200,8.8652412109375,0.1474328637123108,-0.7226319909095764,-0.3327910006046295
1726940427657227000,8.87522705078125,0.3239317238330841,-0.45929035544395447,-0.1629961133003235
1726940427667212300,8.88521240234375,0.4458613693714142,-0.18590062856674194,-0.030425816774368286
1726940427677198000,8.895197998046875,0.5378836989402771,0.05107303708791733,0.025471271947026253
1726940427687184100,8.90518408203125,0.5739298462867737,0.12282232195138931,-0.02858716994524002
1726940427697170200,8.915170166015624,0.6127417087554932,0.40296849608421326,-0.13156814873218536
1726940427707155200,8.9251552734375,0.6479145884513855,0.554025411605835,-0.25722408294677734
1726940427717141200,8.935141357421875,0.7009847164154053,0.47509250044822693,-0.32614749670028687
1726940427727127000,8.945126953125,0.776159942150116,0.49913549423217773,-0.28556516766548157
1726940427737113300,8.95511328125,0.889291524887085,0.5369417667388916,-0.10307631641626358
1726940427747098000,8.96509814453125,1.0305812358856201,0.4944153130054474,0.13100674748420715
1726940427757084200,8.975084228515625,1.1332027912139893,0.43410536646842957,0.3655095398426056
1726940427767070000,8.985070068359375,1.1846859455108643,0.4512670636177063,0.403581827878952
1726940427777055200,8.99505517578125,1.1387178897857666,0.3444724380970001,0.29765379428863525
1726940427787041300,9.005041259765624,1.0586718320846558,0.3207966685295105,0.19909925758838654
1726940427797027000,9.015027099609375,0.9770325422286987,0.28180772066116333,0.10647904127836227
1726940427807013400,9.025013427734375,0.9039607644081116,0.25973036885261536,0.10421615093946457
1726940427816998100,9.034998046875,0.857825756072998,0.26938673853874207,0.1815572828054428
1726940427826984200,9.044984130859374,0.7937173247337341,0.22939351201057434,0.1989021748304367
1726940427836970000,9.054969970703125,0.6932253241539001,0.1988057792186737,0.11620943248271942
1726940427846955000,9.064955078125,0.5905522108078003,0.1981961727142334,0.003896470880135894
1726940427856941300,9.07494140625,0.5090150237083435,0.236480712890625,-0.11159603297710419
1726940427866927000,9.084927001953124,0.41101470589637756,0.26086488366127014,-0.1366364061832428
1726940427876913200,9.0949130859375,0.2973549962043762,0.23325775563716888,-0.04290778562426567
1726940427886898000,9.10489794921875,0.22745606303215027,0.13636529445648193,0.10216205567121506
1726940427896884200,9.11488427734375,0.18962718546390533,0.1795913279056549,0.07998005300760269
1726940427906870000,9.1248701171875,0.16548563539981842,0.2921349108219147,-0.11232733726501465
1726940427916856000,9.13485595703125,0.11012917011976242,0.4420322775840759,-0.33393484354019165
1726940427926841300,9.14484130859375,0.03476117551326752,0.616706371307373,-0.5633949041366577
1726940427936827100,9.1548271484375,-0.049502305686473846,0.7789836525917053,-0.7828662991523743
1726940427946813200,9.164813232421874,-0.13091540336608887,0.8357332348823547,-0.8997665643692017
1726940427956798000,9.1747978515625,-0.18078389763832092,0.7951858043670654,-0.9391373991966248
1726940427966784300,9.1847841796875,-0.23718245327472687,0.7435657382011414,-0.9590988159179688
1726940427976770000,9.19477001953125,-0.2738898694515228,0.6777723431587219,-1.0277849435806274
1726940427986756000,9.204756103515624,-0.28906509280204773,0.5729010701179504,-1.0955888032913208
1726940427996741000,9.2147412109375,-0.20828582346439362,0.4353536069393158,-1.1978222131729126
1726940428006727200,9.22472705078125,-0.03481736779212952,0.38073083758354187,-1.3302417993545532
1726940428016713200,9.234713134765625,0.15321138501167297,0.4235967993736267,-1.5087374448776245
1726940428026699000,9.244698974609374,0.1818947046995163,0.38301023840904236,-1.611872673034668
1726940428036684300,9.254684326171875,-0.0060080913826823235,0.19571010768413544,-1.5648372173309326
1726940428046670000,9.264670166015625,-0.18394826352596283,0.038418229669332504,-1.3842381238937378
1726940428056656100,9.27465625,-0.13401105999946594,-0.05872909352183342,-1.2182444334030151
1726940428066641200,9.28464111328125,0.012090484611690044,-0.006271744146943092,-1.0585042238235474
1726940428076627200,9.294627197265624,0.19696952402591705,-0.0010165285784751177,-0.9201972484588623
1726940428086613200,9.30461328125,0.33991655707359314,-0.0646439716219902,-0.747850775718689
1726940428096599000,9.31459912109375,0.39707091450691223,-0.12915079295635223,-0.6414912939071655
1726940428106584000,9.324583984375,0.3028187155723572,-0.14855991303920746,-0.5587418675422668
1726940428116570000,9.334570068359374,0.14345702528953552,-0.13081873953342438,-0.4053219258785248
1726940428126556200,9.34455615234375,0.007748733274638653,-0.13317136466503143,-0.2068205624818802
1726940428136541200,9.354541259765625,-0.009036637842655182,-0.11844462156295776,0.007870705798268318
1726940428146527000,9.36452685546875,0.07037403434515,-0.05890113487839699,0.1684955358505249
1726940428156513300,9.37451318359375,0.1142091304063797,-0.02538471855223179,0.22424136102199554
1726940428166499000,9.3844990234375,0.05248850956559181,-0.015617309138178825,0.2289024293422699
1726940428176484000,9.394484130859375,-0.02215084247291088,0.0210695993155241,0.2946827709674835
1726940428186470100,9.40447021484375,-0.07641994208097458,0.03236699476838112,0.3978213965892792
1726940428196456200,9.414456298828124,-0.10649661719799042,0.03893142193555832,0.47529515624046326
1726940428206442200,9.424442138671875,-0.0828288346529007,0.059858538210392,0.553963840007782
1726940428216427000,9.434427001953125,-0.024051006883382797,0.07337940484285355,0.6578412652015686
1726940428226413300,9.444413330078126,0.0207500196993351,0.0635070726275444,0.766301155090332
1726940428236399000,9.454399169921874,0.004739894066005945,0.016594422981142998,0.8848967552185059
1726940428246384000,9.464384033203125,0.010609234683215618,-0.06637236475944519,0.9926341772079468
1726940428256370200,9.4743701171875,0.10403931885957718,-0.10767026990652084,1.0821645259857178
1726940428266356200,9.484356201171876,0.23323112726211548,-0.12415044009685516,1.1845718622207642
1726940428276342300,9.49434228515625,0.3329843580722809,-0.16243578493595123,1.2729332447052002
1726940428286327000,9.5043271484375,0.4148494005203247,-0.13085228204727173,1.3029829263687134
1726940428296313000,9.51431298828125,0.48927780985832214,-0.16880100965499878,1.2580831050872803
1726940428306299100,9.524299072265626,0.5394030213356018,-0.20183111727237701,1.1173611879348755
1726940428316285200,9.53428515625,0.5604782104492188,-0.23249556124210358,0.9020768404006958
1726940428326270200,9.544270263671875,0.5047973990440369,-0.25053662061691284,0.73104327917099
1726940428336256300,9.55425634765625,0.3873048424720764,-0.31267401576042175,0.5861694812774658
1726940428346241800,9.56424169921875,0.20774413645267487,-0.41464245319366455,0.47235581278800964
1726940428356226600,9.5742265625,-0.028660407289862633,-0.4998795986175537,0.40305185317993164
1726940428366212600,9.584212646484374,-0.26922374963760376,-0.46562254428863525,0.33586323261260986
1726940428376198700,9.59419873046875,-0.49312475323677063,-0.3470897674560547,0.30368584394454956
1726940428386184700,9.604184814453125,-0.6609219908714294,-0.17938441038131714,0.2892587184906006
1726940428396169700,9.614169677734376,-0.7870253324508667,-0.09510520845651627,0.3215724527835846
1726940428406155500,9.624155517578124,-0.8697764277458191,-0.11865208297967911,0.37557440996170044
1726940428416141800,9.634141845703125,-0.9228902459144592,-0.20205962657928467,0.4140419065952301
1726940428426127600,9.644127685546875,-0.9201990962028503,-0.2546597123146057,0.36678650975227356
1726940428436112600,9.654112548828126,-0.8833838701248169,-0.2808891832828522,0.23961472511291504
1726940428446098700,9.6640986328125,-0.8334295749664307,-0.23728711903095245,0.09147132933139801
1726940428456084700,9.674084716796875,-0.7722602486610413,-0.15916302800178528,-0.03821849077939987
1726940428466069800,9.68406982421875,-0.7043864130973816,-0.14514493942260742,-0.08412020653486252
1726940428476055600,9.6940556640625,-0.6331359148025513,-0.19415776431560516,0.028255339711904526
1726940428486041600,9.70404150390625,-0.5967757701873779,-0.27404698729515076,0.12995293736457825
1726940428496027600,9.714027587890625,-0.5778745412826538,-0.3035617470741272,0.12648816406726837
1726940428506012700,9.7240126953125,-0.5141668915748596,-0.2993893623352051,0.07314611226320267
1726940428515998700,9.733998779296876,-0.45562905073165894,-0.17810848355293274,-0.02250104770064354
1726940428525984800,9.74398486328125,-0.367908775806427,-0.10059931129217148,-0.06443864107131958
1726940428535969800,9.7539697265625,-0.2791703939437866,-0.07877950370311737,-0.02303847298026085
1726940428545955600,9.76395556640625,-0.216717928647995,-0.11526107788085938,0.05594449117779732
1726940428555941600,9.773941650390626,-0.18110880255699158,-0.19573408365249634,0.14589355885982513
1726940428565927700,9.783927734375,-0.1574053317308426,-0.22386345267295837,0.17622695863246918
1726940428575912700,9.79391259765625,-0.1189652681350708,-0.2032327502965927,0.11829201877117157
1726940428585898800,9.803898681640625,-0.09653826057910919,-0.10580712556838989,0.0036637107841670513
1726940428595884500,9.813884521484376,-0.08550345152616501,-0.023301327601075172,-0.07492084801197052
1726940428605870800,9.823870849609374,-0.05305629223585129,0.03687279671430588,-0.05115826055407524
1726940428615855600,9.833855712890625,-0.006898918654769659,0.03785257413983345,0.06754761934280396
1726940428625841700,9.843841552734375,0.009155947715044022,0.0012029499048367143,0.22604484856128693
1726940428635827500,9.853827392578125,-0.006217682268470526,0.0309898741543293,0.3193018138408661
1726940428645812700,9.863812744140626,-0.02799222059547901,0.10116682946681976,0.3776082694530487
1726940428655798800,9.873798828125,-0.10418392717838287,0.15193307399749756,0.43581724166870117
1726940428665784600,9.88378466796875,-0.17641444504261017,0.24124644696712494,0.5176596641540527
1726940428675771000,9.89377099609375,-0.2732352614402771,0.20977292954921722,0.5806905627250671
1726940428685755600,9.903755615234376,-0.4312392771244049,0.15575151145458221,0.6881768107414246
1726940428695741700,9.91374169921875,-0.570026695728302,0.1858052909374237,0.8000466227531433
1726940428705727500,9.9237275390625,-0.6289427876472473,0.2558687925338745,0.91715008020401
1726940428715713800,9.9337138671875,-0.5621485710144043,0.2371869832277298,0.9823671579360962
1726940428725698800,9.94369873046875,-0.4081496596336365,0.10030023753643036,1.0078575611114502
1726940428735684600,9.9536845703125,-0.2113436758518219,-0.021165473386645317,0.9635809659957886
1726940428745670700,9.963670654296875,-0.13315832614898682,-0.023930633440613747,0.8907501697540283
1726940428755655700,9.97365576171875,-0.22609038650989532,0.07718107104301453,0.7819293737411499
1726940428765641700,9.983641845703126,-0.2679169476032257,0.17339494824409485,0.5705977082252502
1726940428775627500,9.99362744140625,-0.18489448726177216,0.1020565927028656,0.2991566061973572
1726940428785613800,10.00361376953125,-0.061637263745069504,0.04385613650083542,0.04686044901609421
1726940428795598800,10.013598876953125,0.010251039639115334,0.06416167318820953,-0.13802684843540192
1726940428805584600,10.023584716796876,-0.010694456286728382,0.18502257764339447,-0.2675078809261322
1726940428815570700,10.03357080078125,-0.12602797150611877,0.33960843086242676,-0.35994672775268555
1726940428825556700,10.043556640625,-0.1894913613796234,0.4942203760147095,-0.4230617880821228
1726940428835541800,10.053541748046875,-0.12334137409925461,0.46679726243019104,-0.49754905700683594
1726940428845527600,10.063527587890626,0.04043397679924965,0.19147782027721405,-0.5775150060653687
1726940428855513600,10.073513671875,0.1693573296070099,0.0294905137270689,-0.613129734992981
1726940428865498600,10.08349853515625,0.22650185227394104,-0.0518789105117321,-0.5781144499778748
1726940428875484700,10.093484619140625,0.21309709548950195,-0.18390564620494843,-0.5321531295776367
1726940428885470700,10.103470703125,0.1654033362865448,-0.3069452941417694,-0.46958133578300476
1726940428895456500,10.11345654296875,0.179751917719841,-0.4132895767688751,-0.46269333362579346
1726940428905441800,10.12344189453125,0.29541248083114624,-0.5298409461975098,-0.50173419713974
1726940428915427600,10.133427490234375,0.4600192606449127,-0.5998743772506714,-0.5071114301681519
1726940428925413600,10.14341357421875,0.5975409150123596,-0.56621253490448,-0.4705651104450226
1726940428935398700,10.153398681640626,0.6689024567604065,-0.5519132614135742,-0.36476144194602966
1726940428945384700,10.163384765625,0.6652230024337769,-0.49671417474746704,-0.20815426111221313
1726940428955370800,10.173370849609375,0.598029613494873,-0.45307081937789917,-0.07821863889694214
1726940428965356500,10.1833564453125,0.5493848323822021,-0.3022112548351288,-0.017946509644389153
1726940428975341600,10.193341552734376,0.46893951296806335,-0.23316694796085358,-0.07531072944402695
1726940428985327600,10.20332763671875,0.39984381198883057,-0.06239546835422516,-0.15413017570972443
1726940428995313700,10.213313720703125,0.3348882496356964,0.052796367555856705,-0.17861901223659515
1726940429005299500,10.223299560546875,0.27727261185646057,0.07141213119029999,-0.18136553466320038
1726940429015284700,10.23328466796875,0.24066054821014404,0.03665308654308319,-0.20213179290294647
1726940429025270800,10.243270751953125,0.19862015545368195,-0.04447159543633461,-0.2477743774652481
1726940429035256600,10.253256591796875,0.15396906435489655,-0.06919877976179123,-0.29694831371307373
1726940429045241600,10.26324169921875,0.0831952840089798,-0.03319816663861275,-0.35117268562316895
1726940429055227600,10.2732275390625,0.004201935604214668,0.0012825783342123032,-0.3684595227241516
1726940429065213700,10.283213623046874,-0.07285050302743912,0.0258659515529871,-0.4239901602268219
1726940429075199500,10.293199462890625,-0.11196807771921158,0.11510315537452698,-0.5158330202102661
1726940429085184500,10.3031845703125,-0.09701496362686157,0.18915314972400665,-0.5963038802146912
1726940429095170800,10.3131708984375,-0.04122147336602211,0.31286922097206116,-0.6753613948822021
1726940429105156600,10.323156494140624,-0.025259017944335938,0.38489601016044617,-0.727230429649353
1726940429115141600,10.3331416015625,-0.02249838411808014,0.4993187189102173,-0.8138617277145386
1726940429125127700,10.343127685546875,0.03099653124809265,0.5827630162239075,-0.9306754469871521
1726940429135113700,10.35311376953125,0.19000962376594543,0.6558827757835388,-1.0858306884765625
1726940429145099500,10.363099609375,0.372461199760437,0.7739324569702148,-1.3043715953826904
1726940429155084500,10.37308447265625,0.4376508295536041,0.8154910802841187,-1.4764373302459717
1726940429165070800,10.38307080078125,0.3288404643535614,0.7414621114730835,-1.564115285873413
1726940429175056600,10.393056640625,0.13830088078975677,0.6045154333114624,-1.5816737413406372
1726940429185042700,10.403042724609374,-0.03694549947977066,0.5376618504524231,-1.6394504308700562
1726940429195027700,10.41302783203125,-0.09712468832731247,0.433956503868103,-1.8040287494659424
1726940429205013800,10.423013671875,0.022176142781972885,0.29855474829673767,-1.987866759300232
1726940429214999600,10.43299951171875,0.12829618155956268,0.221669003367424,-2.095041275024414
1726940429224985600,10.442985595703124,0.13556315004825592,0.12614142894744873,-1.9977809190750122
1726940429234970600,10.452970703125,0.1512683480978012,0.014675881713628769,-1.7551530599594116
1726940429244956700,10.462956787109375,0.22993573546409607,-0.09244178235530853,-1.498759388923645
1726940429254942700,10.472942626953126,0.40236660838127136,-0.18837150931358337,-1.342213749885559
1726940429264927700,10.482927734375,0.5105983018875122,-0.2926134765148163,-1.3415762186050415
1726940429274913500,10.49291357421875,0.5145730376243591,-0.48637309670448303,-1.366652250289917
1726940429284899600,10.502899658203125,0.3565884828567505,-0.6654488444328308,-1.2649508714675903
1726940429294885600,10.5128857421875,0.15085288882255554,-0.7409521341323853,-1.0317416191101074
1726940429304870700,10.52287060546875,0.051656268537044525,-0.6023849248886108,-0.7486140727996826
1726940429314856700,10.532856689453125,0.07844261080026627,-0.35399988293647766,-0.47869759798049927
1726940429324842800,10.5428427734375,0.1562362015247345,-0.19153881072998047,-0.22859428822994232
1726940429334827800,10.552827880859375,0.17655372619628906,-0.1340523362159729,0.0160111915320158
1726940429344813600,10.5628134765625,0.15343137085437775,-0.02917945757508278,0.22053077816963196
1726940429354800400,10.57280029296875,0.15898698568344116,0.1516776829957962,0.34225720167160034
1726940429364786400,10.582786376953125,0.24511201679706573,0.23773746192455292,0.3755190372467041
1726940429374771500,10.592771484375,0.32586997747421265,0.18879415094852448,0.3881551921367645
1726940429384757500,10.602757568359374,0.3267839848995209,0.10692218691110611,0.42982861399650574
1726940429394743600,10.61274365234375,0.23918169736862183,0.12910844385623932,0.5223073959350586
1726940429404729300,10.622729248046875,0.16017769277095795,0.2901364862918854,0.6325343251228333
1726940429414714400,10.63271435546875,0.20431718230247498,0.4615287482738495,0.7258440256118774
1726940429424700400,10.642700439453124,0.3434852063655853,0.5603429079055786,0.8326775431632996
1726940429434686500,10.6526865234375,0.4997783899307251,0.5095005035400391,0.9295446872711182
1726940429444672300,10.66267236328125,0.5888352990150452,0.4125470817089081,0.9548002481460571
1726940429454657500,10.672657470703125,0.5693031549453735,0.3043026328086853,0.9203093647956848
1726940429464643600,10.6826435546875,0.4751662611961365,0.0913245901465416,0.8967201709747314
1726940429474629400,10.69262939453125,0.38511359691619873,-0.10331360250711441,0.9343271851539612
1726940429484614400,10.702614501953125,0.35240331292152405,-0.2471378892660141,1.0241193771362305
1726940429494600400,10.712600341796875,0.3841409981250763,-0.3099868893623352,1.1696747541427612
1726940429504586500,10.72258642578125,0.38421106338500977,-0.34070858359336853,1.3392839431762695
1726940429514572300,10.732572265625,0.2885604202747345,-0.4525349736213684,1.5030138492584229
1726940429524557300,10.742557373046875,0.13696503639221191,-0.4776960015296936,1.5248898267745972
1726940429534543600,10.752543701171875,0.04269979149103165,-0.37643328309059143,1.3929067850112915
1726940429544529400,10.762529296875,0.07033834606409073,-0.28187161684036255,1.1568516492843628
1726940429554514400,10.772514404296874,0.11122479289770126,-0.22655750811100006,0.863502025604248
1726940429564500200,10.782500244140625,0.041796181350946426,-0.24125443398952484,0.6625745296478271
1726940429574486500,10.792486572265625,-0.07859653979539871,-0.20868290960788727,0.5219308137893677
1726940429584472300,10.802472412109376,-0.18563884496688843,-0.16212178766727448,0.36235183477401733
1726940429594457300,10.812457275390624,-0.27703213691711426,-0.165686696767807,0.23176079988479614
1726940429604443600,10.822443603515625,-0.3526725769042969,-0.16843216121196747,0.16249702870845795
1726940429614429400,10.832429443359375,-0.4053104817867279,-0.18858136236667633,0.12836436927318573
1726940429624415500,10.84241552734375,-0.44314974546432495,-0.1842782348394394,0.13599592447280884
1726940429634400300,10.852400146484374,-0.4581105709075928,-0.23140738904476166,0.16765637695789337
1726940429644386600,10.862386474609375,-0.46324461698532104,-0.18071305751800537,0.2306625097990036
1726940429654372400,10.872372314453125,-0.4504433274269104,-0.08259208500385284,0.2915428876876831
1726940429664357400,10.882357421875,-0.37133386731147766,-0.0857764258980751,0.2867681086063385
1726940429674343400,10.892343505859374,-0.30937010049819946,-0.03098880872130394,0.2333051562309265
1726940429684329500,10.90232958984375,-0.2580970525741577,0.04800587520003319,0.18189017474651337
1726940429694315500,10.9123154296875,-0.2392333596944809,0.060146160423755646,0.156401589512825
1726940429704300300,10.92230029296875,-0.23590174317359924,0.018730012699961662,0.17871356010437012
1726940429714286600,10.93228662109375,-0.28556305170059204,-0.05011137202382088,0.2314814329147339
1726940429724272400,10.9422724609375,-0.3491673171520233,-0.12855318188667297,0.2643405795097351
1726940429734258400,10.952258544921875,-0.409454345703125,-0.1342126578092575,0.23414751887321472
1726940429744243500,10.962243408203125,-0.4249696731567383,-0.05149275064468384,0.12940432131290436
1726940429754229500,10.9722294921875,-0.3600929379463196,0.134137824177742,0.057858772575855255
1726940429764215600,10.982215576171875,-0.2893165051937103,0.2327411025762558,0.0507955364882946
1726940429774200300,10.992200439453125,-0.24721857905387878,0.18540474772453308,0.13246722519397736
1726940429784186400,11.002186279296875,-0.2132853865623474,0.23689669370651245,0.319981187582016
1726940429794172400,11.01217236328125,-0.1629447042942047,0.31861525774002075,0.5989001989364624
1726940429804158500,11.022158447265625,-0.16576606035232544,0.37086808681488037,0.8546714782714844
1726940429814143500,11.0321435546875,-0.1760045886039734,0.3941963016986847,1.0681254863739014
1726940429824129300,11.04212939453125,-0.1918884813785553,0.3242896497249603,1.1095753908157349
1726940429834115600,11.052115478515624,-0.2438126653432846,0.22789815068244934,1.113135576248169
1726940429844101400,11.062101318359375,-0.2772180140018463,0.15872466564178467,1.2422086000442505
1726940429854086400,11.07208642578125,-0.2166561484336853,0.07922957092523575,1.4363807439804077
1726940429864072400,11.082072509765625,-0.125411719083786,-0.07555041462182999,1.5957789421081543
1726940429874058500,11.09205859375,-0.05896424874663353,-0.2671949565410614,1.7076783180236816
1726940429884043500,11.10204345703125,-0.0645851194858551,-0.38258519768714905,1.6997652053833008
1726940429894029300,11.112029296875,-0.13628646731376648,-0.42750898003578186,1.628918170928955
1726940429904015600,11.122015625,-0.13594850897789001,-0.3283078372478485,1.4417225122451782
1726940429914001400,11.13200146484375,-0.05414765700697899,-0.2105034440755844,1.1348384618759155
1726940429923986400,11.141986328125,0.018792329356074333,-0.11094728857278824,0.7917577624320984
1726940429933972500,11.151972412109375,-0.0917496308684349,0.014334198087453842,0.5172974467277527
1726940429943958500,11.16195849609375,-0.22417770326137543,0.15927568078041077,0.31115201115608215
1726940429953944300,11.1719443359375,-0.23139727115631104,0.2515432834625244,0.1156134158372879
1726940429963929300,11.181929443359374,-0.1407019942998886,0.27525579929351807,-0.051249340176582336
1726940429973915400,11.191915283203125,-0.030131803825497627,0.2857726216316223,-0.19141922891139984
1726940429983901400,11.2019013671875,0.0036754286848008633,0.3842797577381134,-0.32876643538475037
1726940429993886500,11.211886474609376,-0.05631307512521744,0.44544750452041626,-0.47314730286598206
1726940430003872500,11.22187255859375,-0.12101936340332031,0.46792885661125183,-0.575254499912262
1726940430013858600,11.231858642578125,-0.11912745237350464,0.372094988822937,-0.6538805961608887
1726940430023844600,11.2418447265625,-0.046547260135412216,0.1898687332868576,-0.6858105659484863
1726940430033829400,11.251829345703126,0.05257799103856087,0.25319525599479675,-0.7553598284721375
1726940430043815400,11.2618154296875,0.14658810198307037,0.2541028559207916,-0.8387729525566101
1726940430053801500,11.271801513671875,0.23238584399223328,0.11569543927907944,-0.9200363755226135
1726940430063787500,11.28178759765625,0.31141433119773865,-0.17797452211380005,-0.9455713033676147
1726940430073772500,11.2917724609375,0.37102892994880676,-0.4593891501426697,-0.8892534375190735
1726940430083758300,11.30175830078125,0.41824546456336975,-0.5950977206230164,-0.8137791752815247
1726940430093744600,11.31174462890625,0.47086551785469055,-0.6162639856338501,-0.7357704043388367
1726940430103729400,11.3217294921875,0.5134220123291016,-0.7352359294891357,-0.5952045321464539
1726940430113715500,11.331715576171876,0.5556530952453613,-0.7841880321502686,-0.39911675453186035
1726940430123701200,11.341701171875,0.5563572645187378,-0.7269425988197327,-0.28391000628471375
1726940430133687600,11.3516875,0.5069835782051086,-0.5177619457244873,-0.22462885081768036
1726940430143672600,11.361672607421875,0.4402218461036682,-0.34040817618370056,-0.1904037594795227
1726940430153658400,11.371658447265625,0.35590696334838867,-0.18004433810710907,-0.2103140950202942
1726940430163644700,11.381644775390624,0.24999386072158813,-0.05332793667912483,-0.21410216391086578
1726940430173629400,11.39162939453125,0.10846415907144547,0.06924138963222504,-0.252843976020813
1726940430183615500,11.401615478515625,-0.038672562688589096,0.12044678628444672,-0.37691184878349304
1726940430193601300,11.411601318359375,-0.1319044977426529,0.1542375087738037,-0.466610848903656
1726940430203587600,11.421587646484374,-0.15664181113243103,0.1463092714548111,-0.5176261067390442
1726940430213572600,11.431572509765624,-0.1367996633052826,0.1688729077577591,-0.5418273210525513
1726940430223558400,11.441558349609375,-0.11088816821575165,0.3021353483200073,-0.6659111976623535
1726940430233544400,11.45154443359375,-0.05422994866967201,0.4818473160266876,-0.8580641150474548
1726940430243530500,11.461530517578124,-0.0005368932615965605,0.6230417490005493,-1.0090136528015137
1726940430253515500,11.471515625,0.04464336857199669,0.6648722887039185,-1.1279696226119995
1726940430263501300,11.481501220703125,0.011066232807934284,0.7246953845024109,-1.2261837720870972
1726940430273487600,11.491487548828125,-0.0582910031080246,0.7194015383720398,-1.3122496604919434
1726940430283473400,11.501473388671876,-0.11749999970197678,0.7425180673599243,-1.4380457401275635
1726940430293458400,11.51145849609375,-0.14085832238197327,0.7494468092918396,-1.55693781375885
1726940430303444500,11.521444580078125,-0.16713519394397736,0.7076311707496643,-1.6646575927734375
1726940430313430500,11.531430419921875,-0.13974884152412415,0.6504203677177429,-1.701092004776001
1726940430323415600,11.54141552734375,-0.028845762833952904,0.5013219714164734,-1.7179514169692993
1726940430333401300,11.5514013671875,0.09539256244897842,0.419870525598526,-1.754953384399414
1726940430343387400,11.561387451171875,0.27106744050979614,0.3851034641265869,-1.8180497884750366
1726940430353372700,11.57137255859375,0.35846495628356934,0.3556382656097412,-1.903210163116455
1726940430363357400,11.581357421875,0.27956506609916687,0.17522960901260376,-2.006112575531006
1726940430373343700,11.59134375,0.029142972081899643,-0.184269979596138,-2.0863449573516846
1726940430383329500,11.60132958984375,-0.2850591540336609,-0.5115000605583191,-2.1580727100372314
1726940430393315600,11.611315673828125,-0.4144171476364136,-0.732448935508728,-2.1034247875213623
1726940430403300900,11.62130078125,-0.39456647634506226,-0.8614508509635925,-1.9207026958465576
1726940430413286700,11.63128662109375,-0.3048533797264099,-0.9065839648246765,-1.6226195096969604
1726940430423272700,11.641272705078125,-0.2477959543466568,-0.9140839576721191,-1.293223261833191
1726940430433257500,11.651257568359375,-0.2575468420982361,-0.9145122170448303,-1.0134214162826538
1726940430443243800,11.661243896484375,-0.26427239179611206,-0.7586928009986877,-0.7268608212471008
1726940430453229600,11.6712294921875,-0.23656406998634338,-0.4810340106487274,-0.46054816246032715
1726940430463215600,11.681215576171875,-0.25072410702705383,-0.31091073155403137,-0.23679976165294647
1726940430473200600,11.69120068359375,-0.30943429470062256,-0.2297394573688507,-0.062196530401706696
1726940430483186700,11.701186767578125,-0.32726627588272095,-0.10675095021724701,0.12547935545444489
1726940430493172700,11.7111728515625,-0.3045601546764374,0.10845883190631866,0.31590789556503296
1726940430503158500,11.721158447265625,-0.20736676454544067,0.2818087935447693,0.40018177032470703
1726940430513143600,11.7311435546875,-0.08121789246797562,0.31322556734085083,0.4249672591686249
1726940430523129600,11.741129638671875,0.0822240337729454,0.2860724925994873,0.4899827539920807
1726940430533115600,11.75111572265625,0.22321923077106476,0.31174376606941223,0.5639768242835999
1726940430543100700,11.7611005859375,0.3439829349517822,0.38060352206230164,0.6482387185096741
1726940430553086700,11.771086669921875,0.41672611236572266,0.47366663813591003,0.7317988276481628
1726940430563072800,11.78107275390625,0.41822946071624756,0.5767797231674194,0.862915575504303
1726940430573058600,11.79105859375,0.3486487865447998,0.5636066198348999,1.050132393836975
1726940430583043600,11.801043701171874,0.2790955603122711,0.40747642517089844,1.2658257484436035
1726940430593029600,11.811029541015625,0.2794388234615326,0.2505429983139038,1.4129235744476318
1726940430603015700,11.821015625,0.33761104941368103,0.13904203474521637,1.4747188091278076
1726940430613001500,11.83100146484375,0.4055219292640686,0.007984423078596592,1.5325767993927002
1726940430622986500,11.840986572265624,0.45508548617362976,-0.04739760980010033,1.5670769214630127
1726940430632972800,11.850972900390625,0.4944866895675659,-0.10480790585279465,1.510487675666809
1726940430642958600,11.86095849609375,0.44675084948539734,-0.285273015499115,1.5156906843185425
1726940430652943600,11.870943603515625,0.39419472217559814,-0.4462672173976898,1.514057993888855
1726940430662929700,11.8809296875,0.3809420168399811,-0.5948540568351746,1.442775011062622
1726940430672915700,11.890915771484375,0.3623683452606201,-0.6817167401313782,1.2121734619140625
1726940430682901500,11.900901611328125,0.30898579955101013,-0.6775635480880737,0.9608501195907593
1726940430692886500,11.910886474609375,0.244401752948761,-0.5230027437210083,0.7799967527389526
1726940430702872800,11.920872802734374,0.19467787444591522,-0.29942160844802856,0.6450207829475403
1726940430712858600,11.930858642578125,0.17204339802265167,-0.18272188305854797,0.5143179297447205
1726940430722844700,11.9408447265625,0.17465436458587646,-0.1534087359905243,0.4515219032764435
1726940430732829700,11.95082958984375,0.13234685361385345,-0.17114990949630737,0.4559033513069153
1726940430742815700,11.960815673828124,0.05536818504333496,-0.17169132828712463,0.39929094910621643
1726940430752801500,11.970801513671875,-0.05517244338989258,-0.1435457170009613,0.2739708423614502
1726940430762786600,11.98078662109375,-0.14219042658805847,-0.10387766361236572,0.16734585165977478
1726940430772772600,11.990772705078125,-0.17405089735984802,-0.039870984852313995,0.1194680705666542
1726940430782758700,12.000758544921876,-0.1753941923379898,-0.059928048402071,0.11641635745763779
1726940430792744700,12.01074462890625,-0.15661704540252686,-0.051171306520700455,0.1778743863105774
1726940430802729700,12.020729736328125,-0.12178821861743927,-0.048106011003255844,0.21287578344345093
1726940430812715800,12.0307158203125,-0.10074711591005325,-0.05308026075363159,0.18639357388019562
1726940430822701600,12.04070166015625,-0.1283547729253769,0.026434537023305893,0.18986260890960693
1726940430832687600,12.0506875,-0.15027925372123718,0.05541079491376877,0.1545243263244629
1726940430842672600,12.060672607421875,-0.14287912845611572,-0.01948368549346924,0.1554710865020752
1726940430852658700,12.07065869140625,-0.11796125769615173,0.14529594779014587,0.32101184129714966
1726940430862644700,12.080644775390626,-0.13276363909244537,0.44021546840667725,0.5705921053886414
1726940430872629800,12.090629638671874,-0.18023023009300232,0.36641234159469604,0.7225539684295654
1726940430882615600,12.100615478515625,-0.2624148428440094,0.3304671347141266,0.7594017386436462
1726940430892601900,12.110601806640625,-0.36696043610572815,0.3684283494949341,0.8404238820075989
1726940430902587600,12.120587646484376,-0.45520055294036865,0.3826690912246704,0.9815673828125
1726940430912572700,12.13057275390625,-0.4640797972679138,0.2404317855834961,1.1163116693496704
1726940430922558500,12.140558349609375,-0.4679461717605591,-0.007270429749041796,1.2331591844558716
1726940430932544800,12.150544677734375,-0.5109096169471741,-0.17788690328598022,1.3312093019485474
1726940430942530600,12.160530517578126,-0.5837920904159546,-0.24320386350154877,1.3398456573486328
1726940430952515600,12.170515625,-0.6355745792388916,-0.2147437334060669,1.3155834674835205
1726940430962502000,12.180501953125,-0.6073165535926819,-0.1847248375415802,1.2711360454559326
1726940430972487700,12.19048779296875,-0.5629264712333679,-0.21234102547168732,1.1648386716842651
1726940430982472700,12.20047265625,-0.5896525979042053,-0.23512543737888336,1.01729154586792
1726940430992458500,12.21045849609375,-0.6990312933921814,-0.11556041985750198,0.8264121413230896
1726940431002444800,12.22044482421875,-0.8207340240478516,0.018939336761832237,0.5851995348930359
1726940431012430600,12.2304306640625,-0.8019446730613708,0.05742867290973663,0.33004555106163025
1726940431022415600,12.24041552734375,-0.6775792837142944,0.08036141842603683,0.10393305867910385
1726940431032401700,12.250401611328124,-0.5913317203521729,0.10417993366718292,-0.150088831782341
1726940431042387700,12.2603876953125,-0.6764628887176514,0.1982654184103012,-0.41208022832870483
1726940431052373800,12.270373779296875,-0.7538895010948181,0.2951892912387848,-0.5515579581260681
1726940431062358500,12.280358642578125,-0.6937295198440552,0.1719541847705841,-0.6035588383674622
1726940431072344600,12.290344482421874,-0.4236024022102356,-0.0020221380982548,-0.6538553237915039
1726940431082330600,12.30033056640625,-0.11786778271198273,-0.08078459650278091,-0.7219832539558411
1726940431092315600,12.310315673828125,0.01841922104358673,-0.06561895459890366,-0.7573281526565552
1726940431102301700,12.3203017578125,0.03159547597169876,-0.04175277426838875,-0.7761940360069275
1726940431112287700,12.330287841796874,-0.03620966896414757,-0.08488000184297562,-0.8482335805892944
1726940431122273800,12.340273681640625,-0.0765024945139885,-0.012300342321395874,-0.9802416563034058
1726940431132258600,12.350258544921875,-0.10243955254554749,-0.090035080909729,-1.0562243461608887
1726940431142244600,12.36024462890625,-0.06387298554182053,-0.33773836493492126,-1.0312122106552124
1726940431152230700,12.370230712890624,-0.009429721161723137,-0.540725827217102,-0.9837493300437927
1726940431162216700,12.380216796875,0.021203555166721344,-0.6287230849266052,-0.9196174740791321
