time,seconds_elapsed,z,y,x
1726995594217352000,0.01735205078125,-0.9218292236328125,-0.4178314208984375,-0.168914794921875
1726995594227337700,0.027337646484375,-0.943939208984375,-0.4195098876953125,-0.171661376953125
1726995594237324000,0.037323974609375,-0.9642181396484375,-0.4107666015625,-0.178558349609375
1726995594247309800,0.047309814453125,-0.969390869140625,-0.4005889892578125,-0.181976318359375
1726995594257296000,0.0572958984375,-0.961578369140625,-0.396881103515625,-0.1793365478515625
1726995594267282000,0.067281982421875,-0.94366455078125,-0.400360107421875,-0.168914794921875
1726995594277268000,0.07726806640625,-0.928619384765625,-0.4092864990234375,-0.1543426513671875
1726995594287253800,0.087253662109375,-0.9136810302734375,-0.419097900390625,-0.144989013671875
1726995594297240000,0.097239990234375,-0.9066619873046875,-0.4258575439453125,-0.1503143310546875
1726995594307225900,0.107225830078125,-0.9067230224609375,-0.437225341796875,-0.178192138671875
1726995594317212000,0.1172119140625,-0.9051361083984375,-0.452392578125,-0.204071044921875
1726995594327198000,0.127197998046875,-0.9026031494140625,-0.457672119140625,-0.2126007080078125
1726995594337184000,0.13718408203125,-0.9074249267578125,-0.46234130859375,-0.2081298828125
1726995594347169000,0.1471689453125,-0.9094696044921875,-0.4645538330078125,-0.197998046875
1726995594357154800,0.15715478515625,-0.911956787109375,-0.4630279541015625,-0.186279296875
1726995594367141000,0.16714111328125,-0.92279052734375,-0.462921142578125,-0.181976318359375
1726995594377127000,0.177126953125,-0.9357452392578125,-0.465423583984375,-0.1887664794921875
1726995594387113000,0.187113037109375,-0.944549560546875,-0.4721832275390625,-0.2011566162109375
1726995594397099000,0.19709912109375,-0.9539947509765625,-0.4780120849609375,-0.2072906494140625
1726995594407085000,0.2070849609375,-0.9579925537109375,-0.4735260009765625,-0.2057647705078125
1726995594417070800,0.21707080078125,-0.953125,-0.4607086181640625,-0.197113037109375
1726995594427057200,0.22705712890625,-0.9441375732421875,-0.459503173828125,-0.1990509033203125
1726995594437043000,0.23704296875,-0.94134521484375,-0.47076416015625,-0.2064208984375
1726995594447029000,0.247029052734375,-0.9505615234375,-0.48602294921875,-0.2163238525390625
1726995594457015000,0.25701513671875,-0.947296142578125,-0.5048065185546875,-0.2162628173828125
1726995594467001000,0.2670009765625,-0.9373779296875,-0.516265869140625,-0.198333740234375
1726995594476987000,0.27698681640625,-0.933441162109375,-0.5237274169921875,-0.17987060546875
1726995594486973000,0.286972900390625,-0.9446868896484375,-0.5246429443359375,-0.178955078125
1726995594496959000,0.296958984375,-0.9638824462890625,-0.5119171142578125,-0.1975860595703125
1726995594506944800,0.30694482421875,-0.980743408203125,-0.50445556640625,-0.228546142578125
1726995594516930800,0.316930908203125,-1.0026702880859375,-0.5130767822265625,-0.2540130615234375
1726995594526916000,0.326916015625,-1.0057525634765625,-0.5382232666015625,-0.2509307861328125
1726995594536902000,0.33690185546875,-0.9901123046875,-0.5640716552734375,-0.2100982666015625
1726995594546888000,0.346887939453125,-0.97613525390625,-0.57318115234375,-0.155487060546875
1726995594556874000,0.3568740234375,-1.0059356689453125,-0.5927276611328125,-0.116455078125
1726995594566860000,0.366860107421875,-1.079193115234375,-0.6140899658203125,-0.1228790283203125
1726995594576845800,0.376845703125,-1.150299072265625,-0.6027984619140625,-0.1902008056640625
1726995594586832000,0.386831787109375,-1.1966094970703125,-0.548919677734375,-0.279205322265625
1726995594596818000,0.39681787109375,-1.1789703369140625,-0.4629974365234375,-0.312652587890625
1726995594606804000,0.406803955078125,-1.100189208984375,-0.3824462890625,-0.2635498046875
1726995594616789800,0.416789794921875,-0.9867095947265625,-0.347625732421875,-0.194488525390625
1726995594626776000,0.426776123046875,-0.885162353515625,-0.3427276611328125,-0.1197052001953125
1726995594636761900,0.436761962890625,-0.8233642578125,-0.3572235107421875,-0.0760040283203125
1726995594646748000,0.446747802734375,-0.73388671875,-0.3343963623046875,-0.072723388671875
1726995594656734000,0.45673388671875,-0.66400146484375,-0.271026611328125,-0.0970611572265625
1726995594666720000,0.466719970703125,-0.6302490234375,-0.24627685546875,-0.1066436767578125
1726995594676705800,0.476705810546875,-0.61578369140625,-0.26068115234375,-0.1426544189453125
1726995594686692000,0.486692138671875,-0.571075439453125,-0.2684783935546875,-0.2022552490234375
1726995594696678000,0.496677978515625,-0.4891815185546875,-0.2753753662109375,-0.2105712890625
1726995594706664000,0.506663818359375,-0.433074951171875,-0.3025360107421875,-0.173065185546875
1726995594716648700,0.516648681640625,-0.421661376953125,-0.32025146484375,-0.0865478515625
1726995594726635000,0.526635009765625,-0.4303436279296875,-0.3146820068359375,0.0133209228515625
1726995594736620800,0.536620849609375,-0.4213104248046875,-0.294403076171875,0.086090087890625
1726995594746606800,0.54660693359375,-0.4135589599609375,-0.273040771484375,0.1483917236328125
1726995594756593000,0.556593017578125,-0.4468994140625,-0.2645111083984375,0.21185302734375
1726995594766579000,0.566578857421875,-0.48358154296875,-0.256256103515625,0.2613067626953125
1726995594776564700,0.576564697265625,-0.504547119140625,-0.263580322265625,0.2732391357421875
1726995594786551000,0.586551025390625,-0.5018463134765625,-0.2992095947265625,0.3113861083984375
1726995594796536800,0.596536865234375,-0.438507080078125,-0.3913116455078125,0.3621368408203125
1726995594806523000,0.60652294921875,-0.3730926513671875,-0.46441650390625,0.37469482421875
1726995594816509000,0.616509033203125,-0.3468475341796875,-0.478912353515625,0.390411376953125
1726995594826495000,0.626494873046875,-0.251251220703125,-0.3753204345703125,0.3624725341796875
1726995594836480800,0.636480712890625,-0.112762451171875,-0.370452880859375,0.36578369140625
1726995594846467000,0.646467041015625,-0.013336181640625,-0.4108428955078125,0.395538330078125
1726995594856452900,0.656452880859375,-0.044708251953125,-0.4188385009765625,0.319183349609375
1726995594866439000,0.66643896484375,-0.2229461669921875,-0.6096038818359375,0.295562744140625
1726995594876425000,0.676425048828125,-0.3594512939453125,-0.662322998046875,0.1871490478515625
1726995594886411000,0.686410888671875,-0.44140625,-0.60394287109375,-0.1141204833984375
1726995594896396800,0.696396728515625,-0.5652618408203125,-0.5811614990234375,-0.5559844970703125
1726995594906383000,0.706383056640625,-0.647674560546875,-0.7003326416015625,-0.8762969970703125
1726995594916368100,0.7163681640625,-0.584228515625,-0.8076629638671875,-0.9836578369140625
1726995594926354000,0.72635400390625,-0.43365478515625,-0.88555908203125,-0.915496826171875
1726995594936340000,0.736340087890625,-0.30621337890625,-0.9125518798828125,-0.7543182373046875
1726995594946326000,0.746325927734375,-0.2177734375,-0.746856689453125,-0.65667724609375
1726995594956312000,0.75631201171875,-0.2640380859375,-0.7989654541015625,-0.460662841796875
1726995594966297900,0.7662978515625,-0.190704345703125,-0.8342742919921875,-0.188079833984375
1726995594976284000,0.776283935546875,-0.1453094482421875,-0.7015228271484375,-0.122161865234375
1726995594986270200,0.786270263671875,-0.20648193359375,-0.739654541015625,-0.2373199462890625
1726995594996256000,0.796256103515625,-0.2315216064453125,-0.752960205078125,-0.46697998046875
1726995595006242300,0.8062421875,-0.1381988525390625,-0.7145233154296875,-0.8257598876953125
1726995595016228000,0.81622802734375,0.0132598876953125,-0.646270751953125,-1.04034423828125
1726995595026214100,0.826214111328125,0.143585205078125,-0.6879730224609375,-0.9956207275390625
1726995595036200200,0.8362001953125,0.2684478759765625,-0.6837921142578125,-0.8827056884765625
1726995595046186200,0.846186279296875,0.3683929443359375,-0.57916259765625,-0.7670135498046875
1726995595056172000,0.856172119140625,0.431640625,-0.7754669189453125,-0.68011474609375
1726995595066158000,0.866157958984375,0.5151214599609375,-0.9496002197265625,-0.719635009765625
1726995595076144000,0.87614404296875,0.634185791015625,-0.927032470703125,-0.7698516845703125
1726995595086130200,0.886130126953125,0.6632080078125,-0.8705291748046875,-0.72015380859375
1726995595096116000,0.896115966796875,0.8242034912109375,-0.674224853515625,-0.7733154296875
1726995595106101200,0.906101318359375,0.9544525146484375,-0.428253173828125,-0.61224365234375
1726995595116087300,0.91608740234375,0.904541015625,-0.3355560302734375,-0.5050201416015625
1726995595126073000,0.926072998046875,0.94329833984375,-0.268310546875,-0.7165374755859375
1726995595136059400,0.936059326171875,0.9897003173828125,-0.216278076171875,-0.828857421875
1726995595146045200,0.946045166015625,1.0213775634765625,-0.3820343017578125,-0.8467864990234375
1726995595156031200,0.95603125,0.9141082763671875,-0.3509368896484375,-0.6231536865234375
1726995595166017000,0.96601708984375,0.7817840576171875,-0.454864501953125,-0.7102508544921875
1726995595176003300,0.97600341796875,0.82568359375,-0.7874603271484375,-1.5072021484375
1726995595185989000,0.985989013671875,1.22650146484375,-0.9341278076171875,-2.187347412109375
1726995595195975200,0.99597509765625,1.4020538330078125,-0.644287109375,-2.2237396240234375
1726995595205961200,1.005961181640625,1.3948974609375,-0.5594024658203125,-1.84747314453125
1726995595215947300,1.015947265625,1.303009033203125,-0.5471038818359375,-1.271697998046875
1726995595225933000,1.02593310546875,0.92852783203125,-0.4336700439453125,-0.95684814453125
1726995595235919400,1.03591943359375,0.5244293212890625,-0.38726806640625,-0.828033447265625
1726995595245905200,1.0459052734375,0.15679931640625,-0.4567108154296875,-0.767852783203125
1726995595255891200,1.05589111328125,-0.2026824951171875,-0.415252685546875,-1.0146331787109375
1726995595265877200,1.065877197265625,-0.225860595703125,-0.4092559814453125,-1.590423583984375
1726995595275863300,1.07586328125,0.0716552734375,-0.280364990234375,-1.9112396240234375
1726995595285849000,1.08584912109375,0.2603607177734375,0.168609619140625,-1.4510345458984375
1726995595295835100,1.095835205078125,0.676116943359375,0.39471435546875,-0.808990478515625
1726995595305820200,1.105820068359375,1.2953643798828125,0.62445068359375,-0.4973297119140625
1726995595315806200,1.11580615234375,1.42022705078125,0.6552581787109375,-0.351898193359375
1726995595325792000,1.1257919921875,1.1738433837890625,0.4403228759765625,-0.3055267333984375
1726995595335778300,1.1357783203125,0.977294921875,0.4076080322265625,-0.5145416259765625
1726995595345764000,1.14576416015625,0.6544952392578125,0.593719482421875,-0.5930328369140625
1726995595355750100,1.155750244140625,0.392822265625,0.6837005615234375,-0.7024993896484375
1726995595365736200,1.165736083984375,-0.143096923828125,0.612060546875,-0.78277587890625
1726995595375722200,1.17572216796875,-0.35882568359375,0.6236114501953125,-0.5027313232421875
1726995595385708000,1.1857080078125,-0.1987457275390625,0.5237274169921875,-0.0337982177734375
1726995595395694300,1.1956943359375,-0.0568389892578125,0.3816375732421875,-0.046722412109375
1726995595405680000,1.20568017578125,-0.12548828125,0.2039642333984375,-0.2603759765625
1726995595415666200,1.215666259765625,-0.0789337158203125,0.097808837890625,-0.4393463134765625
1726995595425652200,1.22565234375,-0.203125,0.122100830078125,-0.4227752685546875
1726995595435638300,1.23563818359375,-0.0828094482421875,0.34771728515625,-0.1006622314453125
1726995595445624000,1.2456240234375,0.2706146240234375,0.45855712890625,0.4021759033203125
1726995595455610400,1.2556103515625,0.3444061279296875,0.005462646484375,0.3905792236328125
1726995595465596200,1.26559619140625,0.5095062255859375,-0.3764801025390625,-0.664031982421875
1726995595475582200,1.275582275390625,0.9351959228515625,-0.4470672607421875,-1.8260040283203125
1726995595485568300,1.285568359375,1.400604248046875,-0.719390869140625,-2.8364105224609375
1726995595495553300,1.29555322265625,1.5295257568359375,-0.93084716796875,-3.3348236083984375
1726995595505539000,1.3055390625,1.6281890869140625,-0.9644927978515625,-3.0621490478515625
1726995595515525000,1.315525146484375,1.66778564453125,-0.880950927734375,-2.253509521484375
1726995595525511200,1.32551123046875,1.8372955322265625,0.0273895263671875,-0.77056884765625
1726995595535497200,1.335497314453125,1.1810455322265625,1.368194580078125,0.5201263427734375
1726995595545483000,1.34548291015625,1.1375732421875,1.1840362548828125,-0.684906005859375
1726995595555469300,1.35546923828125,0.6064605712890625,1.1496124267578125,-0.730865478515625
1726995595565455000,1.365455078125,0.47674560546875,0.4676971435546875,-0.27880859375
1726995595575441200,1.375441162109375,0.506439208984375,0.2789764404296875,0.0134429931640625
1726995595585427200,1.38542724609375,0.394561767578125,0.5020599365234375,0.1964263916015625
1726995595595413200,1.395413330078125,0.321502685546875,0.7323760986328125,0.06353759765625
1726995595605399000,1.40539892578125,0.402191162109375,0.88604736328125,-0.3494873046875
1726995595615385000,1.415385009765625,0.4042816162109375,1.0932769775390625,-0.6795196533203125
1726995595625371100,1.42537109375,0.32452392578125,0.949493408203125,-0.730255126953125
1726995595635357200,1.435357177734375,0.3870391845703125,0.8277435302734375,-0.8855438232421875
1726995595645343000,1.445343017578125,0.455657958984375,0.6743621826171875,-1.0348052978515625
1726995595655329300,1.455329345703125,0.529327392578125,0.5362396240234375,-0.9369659423828125
1726995595665315000,1.465315185546875,0.669403076171875,0.3143768310546875,-1.1029052734375
1726995595675301000,1.475301025390625,0.8121490478515625,0.31329345703125,-1.056060791015625
1726995595685286400,1.485286376953125,0.73309326171875,0.1488037109375,-0.9152069091796875
1726995595695272200,1.495272216796875,0.7783966064453125,-0.0064697265625,-0.921478271484375
1726995595705258200,1.50525830078125,0.85980224609375,-0.037261962890625,-0.891387939453125
1726995595715244000,1.515244140625,1.0830230712890625,-0.12786865234375,-0.8443450927734375
1726995595725230300,1.525230224609375,1.2234954833984375,-0.267120361328125,-0.859344482421875
1726995595735216000,1.535216064453125,1.1422271728515625,-0.32391357421875,-0.872161865234375
1726995595745202200,1.5452021484375,1.0149688720703125,-0.22894287109375,-0.846160888671875
1726995595755188200,1.555188232421875,0.974456787109375,-0.1804656982421875,-0.68109130859375
1726995595765174300,1.56517431640625,0.6595458984375,-0.0449371337890625,-0.3880615234375
1726995595775160000,1.57516015625,0.723602294921875,-0.03106689453125,-0.4303131103515625
1726995595785146000,1.58514599609375,0.7171783447265625,-0.056182861328125,-0.6731109619140625
1726995595795132200,1.595132080078125,0.5828399658203125,0.049957275390625,-0.79541015625
1726995595805118200,1.6051181640625,0.6450347900390625,0.13238525390625,-0.7658843994140625
1726995595815104300,1.615104248046875,0.5802154541015625,0.0911865234375,-0.858428955078125
1726995595825090000,1.625090087890625,0.430572509765625,0.1985931396484375,-0.9027862548828125
1726995595835076000,1.635076171875,0.3636474609375,0.3214263916015625,-0.7534027099609375
1726995595845062100,1.645062255859375,0.389068603515625,0.317413330078125,-0.6605682373046875
1726995595855048200,1.655048095703125,0.4475555419921875,0.2957763671875,-0.68927001953125
1726995595865033200,1.665033203125,0.5471649169921875,0.2328643798828125,-0.7887115478515625
1726995595875019000,1.67501904296875,0.621307373046875,0.1852264404296875,-0.877532958984375
1726995595885005300,1.68500537109375,0.747955322265625,0.1250152587890625,-0.86212158203125
1726995595894991000,1.6949912109375,0.847137451171875,0.1131744384765625,-0.7547760009765625
1726995595904977200,1.70497705078125,0.8799285888671875,0.1514739990234375,-0.7881011962890625
1726995595914963200,1.714963134765625,0.9087982177734375,0.140869140625,-0.798675537109375
1726995595924949200,1.72494921875,0.91375732421875,0.1230010986328125,-0.790985107421875
1726995595934935000,1.73493505859375,0.8980865478515625,0.0986328125,-0.736663818359375
1726995595944921300,1.74492138671875,0.83026123046875,0.090911865234375,-0.712554931640625
1726995595954907100,1.7549072265625,0.7195892333984375,0.1209259033203125,-0.7365264892578125
1726995595964893200,1.76489306640625,0.6202392578125,0.135284423828125,-0.7141571044921875
1726995595974879200,1.774879150390625,0.5669097900390625,0.1409912109375,-0.6898956298828125
1726995595984865300,1.784865234375,0.5338592529296875,0.1458740234375,-0.6687164306640625
1726995595994851600,1.7948515625,0.5248260498046875,0.166046142578125,-0.694580078125
1726995596004837600,1.804837646484375,0.54229736328125,0.18511962890625,-0.7403717041015625
1726995596014823400,1.814823486328125,0.5836639404296875,0.19189453125,-0.7606964111328125
1726995596024809500,1.8248095703125,0.63702392578125,0.1836090087890625,-0.75738525390625
1726995596034795500,1.83479541015625,0.6744842529296875,0.1695404052734375,-0.7469940185546875
1726995596044781600,1.844781494140625,0.694732666015625,0.1641082763671875,-0.725128173828125
1726995596054767600,1.854767578125,0.706390380859375,0.164794921875,-0.701171875
1726995596064752600,1.864752685546875,0.7129669189453125,0.1666412353515625,-0.6776275634765625
1726995596074738400,1.874738525390625,0.7042694091796875,0.1629486083984375,-0.6521148681640625
1726995596084724500,1.884724365234375,0.6886138916015625,0.15362548828125,-0.636138916015625
1726995596094710500,1.89471044921875,0.6787872314453125,0.1455230712890625,-0.65411376953125
1726995596104696600,1.904696533203125,0.672149658203125,0.1469268798828125,-0.7010498046875
1726995596114682400,1.914682373046875,0.6626434326171875,0.1527252197265625,-0.755859375
1726995596124668700,1.924668701171875,0.65283203125,0.1601715087890625,-0.789337158203125
1726995596134654500,1.934654541015625,0.6310272216796875,0.1678314208984375,-0.7787017822265625
1726995596144640500,1.944640625,0.6142120361328125,0.1682586669921875,-0.7249908447265625
1726995596154626600,1.95462646484375,0.6064910888671875,0.1690216064453125,-0.6609344482421875
1726995596164612600,1.964612548828125,0.607635498046875,0.175567626953125,-0.63153076171875
1726995596174598400,1.974598388671875,0.6271820068359375,0.1887969970703125,-0.6510162353515625
1726995596184584700,1.984584716796875,0.6433258056640625,0.19415283203125,-0.6992034912109375
1726995596194570500,1.994570556640625,0.6519622802734375,0.1887969970703125,-0.739349365234375
1726995596204556500,2.004556640625,0.6581878662109375,0.18853759765625,-0.7747344970703125
1726995596214542300,2.014542236328125,0.655517578125,0.1954498291015625,-0.802947998046875
1726995596224528600,2.024528564453125,0.6396331787109375,0.2010955810546875,-0.808258056640625
1726995596234514400,2.034514404296875,0.6045074462890625,0.1942138671875,-0.793243408203125
1726995596244500500,2.04450048828125,0.57672119140625,0.1790924072265625,-0.7584075927734375
1726995596254485500,2.054485595703125,0.5562744140625,0.1607818603515625,-0.6980743408203125
1726995596264471600,2.064471435546875,0.564208984375,0.1293487548828125,-0.653350830078125
1726995596274457300,2.074457275390625,0.5871734619140625,0.1110076904296875,-0.6405181884765625
1726995596284443600,2.084443603515625,0.6153106689453125,0.1240081787109375,-0.6765899658203125
1726995596294429400,2.094429443359375,0.6565093994140625,0.14874267578125,-0.754608154296875
1726995596304415500,2.10441552734375,0.67608642578125,0.17620849609375,-0.832733154296875
1726995596314401300,2.1144013671875,0.66656494140625,0.1901702880859375,-0.8623504638671875
1726995596324387600,2.1243876953125,0.6411590576171875,0.1770782470703125,-0.849578857421875
1726995596334373400,2.134373291015625,0.5968170166015625,0.1548309326171875,-0.800445556640625
1726995596344359400,2.144359375,0.5512847900390625,0.145172119140625,-0.76165771484375
1726995596354345500,2.154345458984375,0.516265869140625,0.1468048095703125,-0.7516021728515625
1726995596364331500,2.16433154296875,0.5008544921875,0.1449737548828125,-0.7577056884765625
1726995596374317300,2.1743173828125,0.509521484375,0.14520263671875,-0.7833404541015625
1726995596384303600,2.1843037109375,0.5189208984375,0.1396026611328125,-0.815887451171875
1726995596394289400,2.194289306640625,0.5372161865234375,0.12542724609375,-0.838958740234375
1726995596404275500,2.204275390625,0.5468597412109375,0.11907958984375,-0.8716278076171875
1726995596414261500,2.214261474609375,0.5364227294921875,0.1082916259765625,-0.8863983154296875
1726995596424247600,2.22424755859375,0.500396728515625,0.104949951171875,-0.89178466796875
1726995596434233300,2.2342333984375,0.4850006103515625,0.0948486328125,-0.8966522216796875
1726995596444218400,2.24421826171875,0.4468231201171875,0.0856170654296875,-0.8837738037109375
1726995596454204700,2.25420458984375,0.440765380859375,0.064300537109375,-0.8601226806640625
1726995596464190500,2.2641904296875,0.4549713134765625,0.0494842529296875,-0.8546295166015625
1726995596474176500,2.274176513671875,0.465362548828125,0.02618408203125,-0.8491058349609375
1726995596484162600,2.28416259765625,0.46856689453125,0.0095672607421875,-0.8571929931640625
1726995596494148600,2.294148681640625,0.4778289794921875,0.00738525390625,-0.866180419921875
1726995596504134400,2.304134521484375,0.4814910888671875,0.006439208984375,-0.8765411376953125
1726995596514120700,2.31412060546875,0.47052001953125,0.00323486328125,-0.8955230712890625
1726995596524106500,2.3241064453125,0.47369384765625,-0.0025177001953125,-0.9101409912109375
1726995596534092500,2.334092529296875,0.4591827392578125,0.0023040771484375,-0.9255828857421875
1726995596544078600,2.34407861328125,0.4313812255859375,0.0063934326171875,-0.9375152587890625
1726995596554064600,2.354064697265625,0.406219482421875,0.0186920166015625,-0.962799072265625
1726995596564050400,2.364050537109375,0.3877410888671875,0.0243377685546875,-0.9810028076171875
1726995596574036500,2.374036376953125,0.3778228759765625,0.0427093505859375,-0.98052978515625
1726995596584022500,2.3840224609375,0.360260009765625,0.0615997314453125,-0.9704437255859375
1726995596594008300,2.39400830078125,0.338775634765625,0.08306884765625,-0.9655609130859375
1726995596603994600,2.40399462890625,0.3235931396484375,0.108062744140625,-0.9707183837890625
1726995596613980400,2.41398046875,0.326263427734375,0.1294708251953125,-1.0075836181640625
1726995596623966500,2.423966552734375,0.3426666259765625,0.150634765625,-1.0604400634765625
1726995596633952500,2.433952392578125,0.3622589111328125,0.15570068359375,-1.0986480712890625
1726995596643937500,2.4439375,0.376251220703125,0.1971893310546875,-1.13055419921875
1726995596653923600,2.453923583984375,0.3773193359375,0.183197021484375,-1.1446685791015625
1726995596663909400,2.463909423828125,0.3739471435546875,0.1692047119140625,-1.134246826171875
1726995596673895700,2.473895751953125,0.354034423828125,0.1568145751953125,-1.0794219970703125
1726995596683881500,2.483881591796875,0.3182220458984375,0.15179443359375,-0.97735595703125
1726995596693867500,2.493867431640625,0.294525146484375,0.142486572265625,-0.8682861328125
1726995596703853600,2.503853515625,0.2813568115234375,0.138671875,-0.7771453857421875
1726995596713839600,2.513839599609375,0.288116455078125,0.158782958984375,-0.76617431640625
1726995596723825400,2.523825439453125,0.3047943115234375,0.1780853271484375,-0.805877685546875
1726995596733811700,2.533811767578125,0.3407440185546875,0.1866302490234375,-0.8340911865234375
1726995596743797500,2.543797607421875,0.3713836669921875,0.191070556640625,-0.8468780517578125
1726995596753783600,2.553783447265625,0.43035888671875,0.2013397216796875,-0.856292724609375
1726995596763769300,2.563769287109375,0.532867431640625,0.2060546875,-0.8426971435546875
1726995596773755600,2.573755615234375,0.6417236328125,0.1996307373046875,-0.8133697509765625
1726995596783741400,2.583741455078125,0.729156494140625,0.202056884765625,-0.8053741455078125
1726995596793727500,2.5937275390625,0.7861328125,0.24017333984375,-0.8595123291015625
1726995596803713500,2.603713623046875,0.7978515625,0.2808380126953125,-0.9414215087890625
1726995596813699600,2.613699462890625,0.74493408203125,0.3210601806640625,-0.98175048828125
1726995596823685400,2.623685302734375,0.651123046875,0.3821563720703125,-0.9830780029296875
1726995596833671700,2.633671630859375,0.570892333984375,0.3901519775390625,-0.9672393798828125
1726995596843656400,2.643656494140625,0.5131988525390625,0.3742218017578125,-0.9380035400390625
1726995596853642500,2.653642578125,0.4861297607421875,0.3477783203125,-0.9040985107421875
1726995596863628300,2.663628173828125,0.4785614013671875,0.3148956298828125,-0.860015869140625
1726995596873614600,2.673614501953125,0.4844207763671875,0.2721710205078125,-0.8369903564453125
1726995596883600400,2.683600341796875,0.501373291015625,0.21795654296875,-0.841796875
1726995596893586400,2.69358642578125,0.511322021484375,0.1664276123046875,-0.8443603515625
1726995596903572500,2.703572509765625,0.5394134521484375,0.1159210205078125,-0.8479766845703125
1726995596913558500,2.71355859375,0.563751220703125,0.0667877197265625,-0.8811187744140625
1726995596923544300,2.72354443359375,0.5670318603515625,0.0623779296875,-0.9234619140625
1726995596933530600,2.733530517578125,0.5390167236328125,0.093017578125,-0.939178466796875
1726995596943516400,2.743516357421875,0.472198486328125,0.1345062255859375,-0.930389404296875
1726995596953502500,2.75350244140625,0.392730712890625,0.1894989013671875,-0.90484619140625
1726995596963488500,2.763488525390625,0.3096160888671875,0.215423583984375,-0.8509368896484375
1726995596973474600,2.773474609375,0.256256103515625,0.23828125,-0.8087921142578125
1726995596983460400,2.78346044921875,0.2195281982421875,0.284332275390625,-0.7600860595703125
1726995596993446700,2.79344677734375,0.1732177734375,0.3523712158203125,-0.7166595458984375
1726995597003432400,2.803432373046875,0.1607818603515625,0.4066009521484375,-0.6734161376953125
1726995597013418500,2.81341845703125,0.1666717529296875,0.4634246826171875,-0.6595306396484375
1726995597023404500,2.823404541015625,0.1785125732421875,0.534149169921875,-0.6657257080078125
1726995597033390600,2.833390625,0.21063232421875,0.610137939453125,-0.6903533935546875
1726995597043376400,2.84337646484375,0.2743988037109375,0.679443359375,-0.699249267578125
1726995597053361400,2.853361328125,0.3312530517578125,0.7545013427734375,-0.726043701171875
1726995597063347500,2.863347412109375,0.3590240478515625,0.804229736328125,-0.764739990234375
1726995597073333500,2.87333349609375,0.4345245361328125,0.828582763671875,-0.7611541748046875
1726995597083319600,2.883319580078125,0.521636962890625,0.7998809814453125,-0.7784271240234375
1726995597093305600,2.8933056640625,0.599456787109375,0.750091552734375,-0.780609130859375
1726995597103291400,2.90329150390625,0.6531219482421875,0.673736572265625,-0.7572784423828125
1726995597113277400,2.91327734375,0.672149658203125,0.5833282470703125,-0.71893310546875
1726995597123263500,2.923263427734375,0.65167236328125,0.50250244140625,-0.669158935546875
1726995597133249500,2.93324951171875,0.6367950439453125,0.442596435546875,-0.6199493408203125
1726995597143235300,2.9432353515625,0.6317291259765625,0.403961181640625,-0.5849609375
1726995597153221600,2.9532216796875,0.6151580810546875,0.38861083984375,-0.5676116943359375
1726995597163207400,2.96320751953125,0.5689239501953125,0.4001312255859375,-0.5684356689453125
1726995597173193500,2.973193359375,0.507354736328125,0.429779052734375,-0.6013946533203125
1726995597183179500,2.983179443359375,0.47210693359375,0.4608154296875,-0.64501953125
1726995597193165600,2.99316552734375,0.4590606689453125,0.4865570068359375,-0.7012786865234375
1726995597203151400,3.0031513671875,0.450225830078125,0.4932861328125,-0.752685546875
1726995597213137400,3.013137451171875,0.4390716552734375,0.4698486328125,-0.7734832763671875
1726995597223123500,3.02312353515625,0.430816650390625,0.446868896484375,-0.7633209228515625
1726995597233109500,3.033109619140625,0.4319915771484375,0.4276275634765625,-0.746917724609375
1726995597243095300,3.04309521484375,0.4517059326171875,0.4043121337890625,-0.7450103759765625
1726995597253081600,3.05308154296875,0.4896240234375,0.3991241455078125,-0.76861572265625
1726995597263066600,3.063066650390625,0.5348052978515625,0.396942138671875,-0.8087005615234375
1726995597273052400,3.073052490234375,0.568359375,0.403350830078125,-0.879608154296875
1726995597283038700,3.083038818359375,0.562530517578125,0.4059906005859375,-0.8849029541015625
1726995597293024500,3.0930244140625,0.5401611328125,0.3821258544921875,-0.8399658203125
1726995597303010600,3.103010498046875,0.5643310546875,0.35687255859375,-0.8155670166015625
1726995597312996400,3.112996337890625,0.6154327392578125,0.362152099609375,-0.861358642578125
1726995597322982700,3.122982666015625,0.6444854736328125,0.3754730224609375,-0.8972320556640625
1726995597332968400,3.132968505859375,0.65093994140625,0.3773956298828125,-0.8992462158203125
1726995597342954500,3.14295458984375,0.6246185302734375,0.37701416015625,-0.86480712890625
1726995597352940500,3.1529404296875,0.5798492431640625,0.3576202392578125,-0.806365966796875
1726995597362926600,3.162926513671875,0.5315093994140625,0.32647705078125,-0.767120361328125
1726995597372912400,3.172912353515625,0.4913330078125,0.2859954833984375,-0.7631378173828125
1726995597382898700,3.182898681640625,0.4505767822265625,0.2608642578125,-0.7576751708984375
1726995597392884500,3.192884521484375,0.418731689453125,0.22705078125,-0.7407073974609375
1726995597402870500,3.20287060546875,0.397186279296875,0.206756591796875,-0.7183837890625
1726995597412856600,3.212856689453125,0.4023284912109375,0.177978515625,-0.7027130126953125
1726995597422842600,3.222842529296875,0.417205810546875,0.14459228515625,-0.6749114990234375
1726995597432828400,3.232828369140625,0.4422454833984375,0.1129302978515625,-0.6599578857421875
1726995597442814500,3.242814453125,0.4664459228515625,0.0760498046875,-0.6584014892578125
1726995597452800500,3.252800537109375,0.4771881103515625,0.061126708984375,-0.67608642578125
1726995597462785500,3.26278564453125,0.4728546142578125,0.0676116943359375,-0.6943206787109375
1726995597472771300,3.272771240234375,0.47216796875,0.0675506591796875,-0.70880126953125
1726995597482757600,3.282757568359375,0.4622955322265625,0.08184814453125,-0.735687255859375
1726995597492743400,3.292743408203125,0.459075927734375,0.1118011474609375,-0.7873077392578125
1726995597502729500,3.3027294921875,0.4591217041015625,0.1364288330078125,-0.867645263671875
1726995597512715500,3.312715576171875,0.4623565673828125,0.171661376953125,-0.94970703125
1726995597522701600,3.32270166015625,0.4832916259765625,0.1964874267578125,-1.0206146240234375
1726995597532687400,3.332687255859375,0.5315093994140625,0.1890411376953125,-1.0522003173828125
1726995597542673700,3.342673583984375,0.5876007080078125,0.1685028076171875,-1.0475616455078125
1726995597552659500,3.352659423828125,0.6220550537109375,0.1484222412109375,-1.035736083984375
1726995597562645500,3.3626455078125,0.6227569580078125,0.1457977294921875,-1.0237579345703125
1726995597572631600,3.372631591796875,0.6162261962890625,0.159515380859375,-1.0298919677734375
1726995597582617600,3.38261767578125,0.60107421875,0.1756439208984375,-1.018707275390625
1726995597592603400,3.392603271484375,0.5682830810546875,0.1782684326171875,-0.9523773193359375
1726995597602589700,3.402589599609375,0.524261474609375,0.178741455078125,-0.86865234375
1726995597612575500,3.412575439453125,0.4901580810546875,0.164886474609375,-0.7880096435546875
1726995597622561500,3.4225615234375,0.4571990966796875,0.14508056640625,-0.72149658203125
1726995597632547600,3.432547607421875,0.433502197265625,0.130157470703125,-0.68402099609375
1726995597642533600,3.44253369140625,0.42718505859375,0.1209564208984375,-0.6845245361328125
1726995597652519400,3.45251953125,0.429534912109375,0.1441802978515625,-0.7484283447265625
1726995597662505500,3.46250537109375,0.4383544921875,0.1835784912109375,-0.83563232421875
1726995597672491500,3.472491455078125,0.441802978515625,0.2163238525390625,-0.8609161376953125
1726995597682476500,3.4824765625,0.4402313232421875,0.243133544921875,-0.8217620849609375
1726995597692462300,3.49246240234375,0.4613494873046875,0.2537994384765625,-0.777496337890625
1726995597702448600,3.50244873046875,0.4879608154296875,0.2564697265625,-0.760833740234375
1726995597712434400,3.512434326171875,0.5142974853515625,0.245697021484375,-0.775787353515625
1726995597722420500,3.52242041015625,0.5359954833984375,0.23004150390625,-0.820526123046875
1726995597732406500,3.532406494140625,0.5620574951171875,0.214691162109375,-0.8900299072265625
1726995597742392600,3.542392578125,0.588104248046875,0.1994781494140625,-0.9669189453125
1726995597752378400,3.55237841796875,0.599365234375,0.1832733154296875,-1.002044677734375
1726995597762364400,3.562364501953125,0.638580322265625,0.1697998046875,-1.0375213623046875
1726995597772350500,3.5723505859375,0.6177520751953125,0.1614227294921875,-1.029205322265625
1726995597782336500,3.58233642578125,0.5822296142578125,0.1536407470703125,-0.98876953125
1726995597792322300,3.592322265625,0.539031982421875,0.1571044921875,-0.9418792724609375
1726995597802308600,3.60230859375,0.5242767333984375,0.1599578857421875,-0.8462982177734375
1726995597812294400,3.61229443359375,0.5291290283203125,0.1533050537109375,-0.786468505859375
1726995597822280400,3.622280517578125,0.4802093505859375,0.170440673828125,-0.8537445068359375
1726995597832266500,3.6322666015625,0.39520263671875,0.1881866455078125,-0.9911041259765625
1726995597842252500,3.64225244140625,0.3673248291015625,0.2279510498046875,-1.108795166015625
1726995597852238300,3.65223828125,0.4035186767578125,0.2497100830078125,-1.1843109130859375
1726995597862224600,3.662224609375,0.4367523193359375,0.2810211181640625,-1.23095703125
1726995597872210400,3.67221044921875,0.409912109375,0.2845001220703125,-1.2677764892578125
1726995597882196500,3.682196533203125,0.4159698486328125,0.3139495849609375,-1.213165283203125
1726995597892181500,3.692181396484375,0.417816162109375,0.3571014404296875,-1.2505035400390625
1726995597902167600,3.70216748046875,0.3887786865234375,0.3650360107421875,-1.1341094970703125
1726995597912153600,3.712153564453125,0.350555419921875,0.3169708251953125,-0.93798828125
1726995597922139400,3.722139404296875,0.3406219482421875,0.2577362060546875,-0.784942626953125
1726995597932125700,3.732125732421875,0.4070892333984375,0.1941680908203125,-0.6443328857421875
1726995597942111500,3.742111572265625,0.475860595703125,0.113067626953125,-0.555572509765625
1726995597952097500,3.75209765625,0.49871826171875,0.0219879150390625,-0.517730712890625
1726995597962083600,3.76208349609375,0.4943695068359375,-0.0552520751953125,-0.5361328125
1726995597972069400,3.7720693359375,0.446990966796875,-0.1081390380859375,-0.5843963623046875
1726995597982055400,3.782055419921875,0.37664794921875,-0.1501617431640625,-0.6175994873046875
1726995597992040700,3.792040771484375,0.311004638671875,-0.207244873046875,-0.6303558349609375
1726995598002026800,3.80202685546875,0.24407958984375,-0.25103759765625,-0.712738037109375
1726995598012012800,3.8120126953125,0.2299957275390625,-0.282257080078125,-0.7363739013671875
1726995598021998600,3.82199853515625,0.221832275390625,-0.32000732421875,-0.756988525390625
1726995598031985000,3.83198486328125,0.1975250244140625,-0.3704681396484375,-0.7410125732421875
1726995598041970700,3.841970703125,0.18646240234375,-0.4044952392578125,-0.77606201171875
1726995598051956700,3.851956787109375,0.1652984619140625,-0.395111083984375,-0.8605804443359375
1726995598061942800,3.86194287109375,0.1216278076171875,-0.344390869140625,-0.9036407470703125
1726995598071928800,3.8719287109375,0.1186065673828125,-0.305999755859375,-0.9482421875
1726995598081914600,3.88191455078125,0.112396240234375,-0.27252197265625,-0.9657440185546875
1726995598091901000,3.89190087890625,0.11395263671875,-0.233306884765625,-0.9595794677734375
1726995598101886700,3.90188671875,0.1046905517578125,-0.1920166015625,-0.9517364501953125
1726995598111871700,3.911871826171875,0.0857086181640625,-0.16339111328125,-0.947357177734375
1726995598121857500,3.921857421875,0.1027984619140625,-0.1272430419921875,-0.9415435791015625
1726995598131843800,3.93184375,0.12982177734375,-0.0775146484375,-0.9383544921875
1726995598141829600,3.94182958984375,0.182342529296875,-0.013519287109375,-0.9296722412109375
1726995598151815700,3.951815673828125,0.262786865234375,0.0699462890625,-0.9424285888671875
1726995598161801700,3.9618017578125,0.355255126953125,0.1842803955078125,-0.9756927490234375
1726995598171787800,3.971787841796875,0.4378204345703125,0.29168701171875,-1.010589599609375
1726995598181773600,3.981773681640625,0.49371337890625,0.3858184814453125,-1.0660400390625
1726995598191760000,3.991759765625,0.533416748046875,0.443359375,-1.0853271484375
1726995598201745700,4.00174560546875,0.57513427734375,0.475860595703125,-1.05877685546875
1726995598211731700,4.011731689453125,0.599395751953125,0.479400634765625,-0.9359588623046875
1726995598221717800,4.0217177734375,0.6456146240234375,0.472930908203125,-0.83563232421875
1726995598231703800,4.031703857421875,0.653961181640625,0.4773712158203125,-0.82196044921875
1726995598241689600,4.041689697265625,0.6321563720703125,0.4884796142578125,-0.87847900390625
1726995598251676000,4.051676025390625,0.600555419921875,0.4821624755859375,-0.96575927734375
1726995598261661700,4.06166162109375,0.5642242431640625,0.4315185546875,-1.0509796142578125
1726995598271647700,4.071647705078125,0.493072509765625,0.3249969482421875,-1.0666351318359375
1726995598281633800,4.0816337890625,0.4194793701171875,0.23602294921875,-1.0188140869140625
1726995598291619800,4.091619873046875,0.366943359375,0.1617584228515625,-0.9158782958984375
1726995598301605600,4.101605712890625,0.3388214111328125,0.0927734375,-0.876983642578125
1726995598311592000,4.111592041015625,0.337158203125,0.040557861328125,-0.7935791015625
1726995598321577700,4.12157763671875,0.37554931640625,-0.01568603515625,-0.7704010009765625
1726995598331563800,4.131563720703125,0.4143218994140625,-0.0453338623046875,-0.8349761962890625
1726995598341548800,4.141548828125,0.4747314453125,-0.067779541015625,-0.8626556396484375
1726995598351534800,4.151534912109375,0.5363922119140625,-0.1197662353515625,-0.844573974609375
1726995598361520600,4.161520751953125,0.561767578125,-0.1874847412109375,-0.810760498046875
1726995598371506700,4.171506591796875,0.5738983154296875,-0.2480316162109375,-0.7957916259765625
1726995598381492700,4.18149267578125,0.591217041015625,-0.2898101806640625,-0.81591796875
1726995598391478800,4.191478759765625,0.596954345703125,-0.2975616455078125,-0.820648193359375
1726995598401464600,4.201464599609375,0.5885162353515625,-0.2764739990234375,-0.841644287109375
1726995598411451000,4.211450927734375,0.6045989990234375,-0.2760009765625,-0.9489898681640625
1726995598421436700,4.221436767578125,0.6174163818359375,-0.27191162109375,-0.9331817626953125
1726995598431422700,4.231422607421875,0.6053924560546875,-0.264373779296875,-0.83526611328125
1726995598441408500,4.241408447265625,0.5738067626953125,-0.2349090576171875,-0.7677154541015625
1726995598451394800,4.251394775390625,0.5892181396484375,-0.145050048828125,-0.751922607421875
1726995598461380600,4.261380615234375,0.55487060546875,-0.0580291748046875,-0.7353057861328125
1726995598471366700,4.27136669921875,0.527557373046875,0.024505615234375,-0.7256622314453125
1726995598481352700,4.281352783203125,0.5080108642578125,0.0984039306640625,-0.743438720703125
1726995598491338800,4.2913388671875,0.5130157470703125,0.1676788330078125,-0.796539306640625
1726995598501324500,4.301324462890625,0.5256195068359375,0.230743408203125,-0.8565521240234375
1726995598511310800,4.311310791015625,0.552581787109375,0.280548095703125,-0.846588134765625
1726995598521296600,4.321296630859375,0.57696533203125,0.323760986328125,-0.815399169921875
1726995598531282700,4.33128271484375,0.595001220703125,0.376556396484375,-0.793853759765625
1726995598541268700,4.341268798828125,0.597015380859375,0.440093994140625,-0.795654296875
1726995598551254800,4.3512548828125,0.602569580078125,0.48773193359375,-0.8080291748046875
1726995598561239800,4.36123974609375,0.6156005859375,0.51629638671875,-0.780059814453125
1726995598571225600,4.3712255859375,0.6354522705078125,0.521148681640625,-0.7349853515625
1726995598581212000,4.3812119140625,0.6453857421875,0.494476318359375,-0.701904296875
1726995598591197700,4.39119775390625,0.6390380859375,0.4505615234375,-0.6823272705078125
1726995598601183700,4.401183837890625,0.61962890625,0.379119873046875,-0.6731719970703125
1726995598611169800,4.411169677734375,0.5940399169921875,0.287689208984375,-0.672149658203125
1726995598621155800,4.42115576171875,0.5890960693359375,0.2157745361328125,-0.670989990234375
1726995598631141600,4.4311416015625,0.592071533203125,0.154022216796875,-0.7030487060546875
1726995598641128000,4.4411279296875,0.6097869873046875,0.1125335693359375,-0.762664794921875
1726995598651113700,4.45111376953125,0.62921142578125,0.0821685791015625,-0.8110198974609375
1726995598661099800,4.461099853515625,0.6522064208984375,0.042633056640625,-0.8230438232421875
1726995598671085800,4.4710859375,0.664642333984375,0.0215301513671875,-0.816375732421875
1726995598681071900,4.48107177734375,0.682464599609375,0.0183258056640625,-0.795684814453125
1726995598691057700,4.4910576171875,0.6857452392578125,0.0381622314453125,-0.770965576171875
1726995598701044000,4.5010439453125,0.6680908203125,0.078582763671875,-0.76702880859375
1726995598711029800,4.51102978515625,0.6402740478515625,0.12384033203125,-0.788665771484375
1726995598721015800,4.521015869140625,0.6180572509765625,0.157073974609375,-0.8073883056640625
1726995598731001900,4.531001953125,0.616668701171875,0.1817169189453125,-0.81988525390625
1726995598740988000,4.54098779296875,0.642669677734375,0.1895599365234375,-0.827911376953125
1726995598750973700,4.5509736328125,0.66839599609375,0.1819305419921875,-0.8272705078125
1726995598760959700,4.560959716796875,0.6690826416015625,0.1687469482421875,-0.81231689453125
1726995598770945800,4.57094580078125,0.671966552734375,0.15252685546875,-0.7926483154296875
1726995598780931600,4.580931640625,0.673248291015625,0.1358795166015625,-0.8002166748046875
1726995598790917600,4.590917724609375,0.68670654296875,0.1235198974609375,-0.8343353271484375
1726995598800903000,4.60090283203125,0.71087646484375,0.1077728271484375,-0.866455078125
1726995598810888700,4.610888671875,0.725921630859375,0.07989501953125,-0.868377685546875
1726995598820874800,4.620874755859375,0.7368316650390625,0.0360565185546875,-0.829437255859375
1726995598830860800,4.63086083984375,0.74761962890625,-0.0135040283203125,-0.7681732177734375
1726995598840846800,4.640846923828125,0.74493408203125,-0.045257568359375,-0.717254638671875
1726995598850832600,4.65083251953125,0.729583740234375,-0.0630340576171875,-0.6867523193359375
1726995598860819000,4.66081884765625,0.70416259765625,-0.0671234130859375,-0.685394287109375
1726995598870804700,4.6708046875,0.668914794921875,-0.06317138671875,-0.704376220703125
1726995598880790800,4.680790771484375,0.6332550048828125,-0.049072265625,-0.71826171875
1726995598890776600,4.690776611328125,0.59136962890625,-0.0260467529296875,-0.7335052490234375
1726995598900763000,4.700762939453125,0.55889892578125,0.0043487548828125,-0.7572021484375
1726995598910748700,4.710748779296875,0.543426513671875,0.0328521728515625,-0.782257080078125
1726995598920734700,4.720734619140625,0.5451812744140625,0.05767822265625,-0.8054962158203125
1726995598930720800,4.730720703125,0.551666259765625,0.0882110595703125,-0.83197021484375
1726995598940706800,4.740706787109375,0.558258056640625,0.1204376220703125,-0.8489837646484375
1726995598950692600,4.750692626953125,0.5666656494140625,0.1437530517578125,-0.833892822265625
1726995598960679000,4.760678955078125,0.5861053466796875,0.1618194580078125,-0.7933197021484375
1726995598970664700,4.770664794921875,0.5939178466796875,0.1840362548828125,-0.7454681396484375
1726995598980650800,4.780650634765625,0.601837158203125,0.2094268798828125,-0.7223968505859375
1726995598990636800,4.79063671875,0.6168365478515625,0.2386627197265625,-0.7160797119140625
1726995599000622800,4.800622802734375,0.6244049072265625,0.2689208984375,-0.7183837890625
1726995599010609000,4.81060888671875,0.6356201171875,0.2957916259765625,-0.724090576171875
1726995599020595000,4.820594970703125,0.656341552734375,0.314971923828125,-0.7401275634765625
1726995599030580700,4.830580810546875,0.673553466796875,0.329925537109375,-0.7476959228515625
1726995599040566800,4.84056689453125,0.67724609375,0.3375396728515625,-0.73583984375
1726995599050552800,4.850552734375,0.682037353515625,0.333251953125,-0.713531494140625
1726995599060537900,4.860537841796875,0.6908111572265625,0.3230133056640625,-0.68646240234375
1726995599070523600,4.870523681640625,0.7056732177734375,0.313201904296875,-0.67486572265625
1726995599080510000,4.880510009765625,0.7208404541015625,0.294158935546875,-0.6754302978515625
1726995599090495700,4.890495849609375,0.7220916748046875,0.2649078369140625,-0.6861572265625
1726995599100481800,4.900481689453125,0.7054595947265625,0.249603271484375,-0.7227783203125
1726995599110467800,4.9104677734375,0.6957550048828125,0.2495269775390625,-0.781951904296875
1726995599120454000,4.920453857421875,0.6943817138671875,0.248931884765625,-0.8364410400390625
1726995599130439700,4.930439697265625,0.685882568359375,0.238525390625,-0.857025146484375
1726995599140425700,4.94042578125,0.679656982421875,0.21234130859375,-0.834320068359375
1726995599150411800,4.950411865234375,0.66790771484375,0.1871337890625,-0.7837677001953125
1726995599160397800,4.960397705078125,0.6596221923828125,0.1633453369140625,-0.740020751953125
1726995599170383600,4.970383544921875,0.6615447998046875,0.1393585205078125,-0.7280731201171875
1726995599180370000,4.980369873046875,0.6683349609375,0.1144256591796875,-0.748138427734375
1726995599190355700,4.990355712890625,0.6530303955078125,0.092071533203125,-0.7671966552734375
1726995599200341800,5.000341796875,0.6276702880859375,0.0831451416015625,-0.7760772705078125
1726995599210327800,5.010327880859375,0.611419677734375,0.0738983154296875,-0.7991790771484375
1726995599220313900,5.02031396484375,0.6077117919921875,0.0731201171875,-0.8194732666015625
1726995599230299600,5.030299560546875,0.626068115234375,0.0529022216796875,-0.833343505859375
1726995599240286000,5.040285888671875,0.6533050537109375,0.007965087890625,-0.85186767578125
1726995599250271700,5.050271728515625,0.641387939453125,-0.0260467529296875,-0.8736572265625
1726995599260257800,5.0602578125,0.61395263671875,-0.0460205078125,-0.895660400390625
1726995599270243800,5.070243896484375,0.5704498291015625,-0.047515869140625,-0.90191650390625
1726995599280230000,5.08022998046875,0.52703857421875,-0.066436767578125,-0.9088897705078125
1726995599290215700,5.090215576171875,0.4736175537109375,-0.0736541748046875,-0.9212646484375
1726995599300202000,5.100201904296875,0.4290008544921875,-0.05767822265625,-0.9063568115234375
1726995599310187800,5.110187744140625,0.369293212890625,-0.0040740966796875,-0.87384033203125
1726995599320173800,5.120173828125,0.315673828125,0.089080810546875,-0.8465118408203125
1726995599330159900,5.130159912109375,0.2771759033203125,0.1762847900390625,-0.8133544921875
1726995599340146000,5.14014599609375,0.2422637939453125,0.2710418701171875,-0.807159423828125
1726995599350130700,5.150130615234375,0.2188262939453125,0.3356781005859375,-0.81524658203125
1726995599360116700,5.16011669921875,0.2145843505859375,0.3868560791015625,-0.822052001953125
1726995599370102800,5.170102783203125,0.2487945556640625,0.4144287109375,-0.84808349609375
1726995599380088800,5.1800888671875,0.2575836181640625,0.41583251953125,-0.847900390625
1726995599390074600,5.19007470703125,0.279449462890625,0.4431610107421875,-0.842254638671875
1726995599400061000,5.20006103515625,0.3079681396484375,0.4667510986328125,-0.8257598876953125
1726995599410046700,5.210046630859375,0.3654022216796875,0.475128173828125,-0.8006744384765625
1726995599420032800,5.22003271484375,0.4097747802734375,0.483062744140625,-0.7485504150390625
1726995599430018800,5.230018798828125,0.4788055419921875,0.49700927734375,-0.7134552001953125
1726995599440004900,5.2400048828125,0.53277587890625,0.506439208984375,-0.6645965576171875
1726995599449990700,5.24999072265625,0.5419921875,0.5210113525390625,-0.6122894287109375
1726995599459977000,5.25997705078125,0.5157623291015625,0.5247802734375,-0.5352325439453125
1726995599469962800,5.269962646484375,0.4938507080078125,0.5598602294921875,-0.507568359375
1726995599479948800,5.27994873046875,0.475311279296875,0.6446533203125,-0.503143310546875
1726995599489934600,5.2899345703125,0.4426422119140625,0.682647705078125,-0.500244140625
1726995599499921000,5.2999208984375,0.46173095703125,0.685394287109375,-0.4579925537109375
1726995599509906700,5.30990673828125,0.5217437744140625,0.653472900390625,-0.4191741943359375
1726995599519892700,5.319892822265625,0.5700225830078125,0.6372528076171875,-0.4595794677734375
1726995599529878800,5.329878662109375,0.6008453369140625,0.6330108642578125,-0.527587890625
1726995599539864800,5.33986474609375,0.6067047119140625,0.626190185546875,-0.6110076904296875
1726995599549850600,5.3498505859375,0.5941162109375,0.6132965087890625,-0.663055419921875
1726995599559837000,5.3598369140625,0.5676116943359375,0.597930908203125,-0.6903076171875
1726995599569822700,5.36982275390625,0.5390625,0.587188720703125,-0.7177276611328125
1726995599579808800,5.379808837890625,0.5180206298828125,0.5745849609375,-0.7448272705078125
1726995599589794800,5.389794921875,0.50140380859375,0.5638275146484375,-0.77349853515625
1726995599599780900,5.39978076171875,0.4852294921875,0.55029296875,-0.794708251953125
1726995599609766700,5.4097666015625,0.450164794921875,0.5153656005859375,-0.779205322265625
1726995599619753000,5.4197529296875,0.4622344970703125,0.4786834716796875,-0.8347625732421875
1726995599629738800,5.42973876953125,0.4349212646484375,0.449371337890625,-0.8522796630859375
1726995599639724800,5.439724853515625,0.4108428955078125,0.40032958984375,-0.8398895263671875
1726995599649710800,5.4497109375,0.3879241943359375,0.370758056640625,-0.8427734375
1726995599659697000,5.45969677734375,0.359130859375,0.357177734375,-0.85546875
1726995599669682700,5.4696826171875,0.332550048828125,0.3468780517578125,-0.8657989501953125
1726995599679669000,5.4796689453125,0.3282623291015625,0.3265533447265625,-0.8739166259765625
1726995599689654800,5.48965478515625,0.3473968505859375,0.29583740234375,-0.895538330078125
1726995599699639800,5.499639892578125,0.3697662353515625,0.2603759765625,-0.914703369140625
1726995599709625600,5.50962548828125,0.4156494140625,0.22357177734375,-0.9373779296875
1726995599719612000,5.51961181640625,0.4623565673828125,0.179840087890625,-0.946014404296875
1726995599729597700,5.52959765625,0.4967498779296875,0.1662750244140625,-0.9573974609375
1726995599739583700,5.539583740234375,0.517822265625,0.15289306640625,-0.99853515625
1726995599749569800,5.54956982421875,0.52886962890625,0.128875732421875,-1.0272216796875
1726995599759555800,5.559555908203125,0.5399932861328125,0.1031951904296875,-1.0136260986328125
1726995599769541600,5.569541748046875,0.555419921875,0.0623626708984375,-0.9897003173828125
1726995599779528000,5.57952783203125,0.5916595458984375,0.028289794921875,-0.939300537109375
1726995599789513700,5.589513671875,0.639495849609375,0.0037841796875,-0.8773956298828125
1726995599799499800,5.599499755859375,0.6666717529296875,-0.0020294189453125,-0.8342437744140625
1726995599809485800,5.60948583984375,0.64239501953125,0.0240478515625,-0.820587158203125
1726995599819472000,5.619471923828125,0.5899658203125,0.0754852294921875,-0.8213653564453125
1726995599829457700,5.629457763671875,0.543243408203125,0.1286773681640625,-0.8264923095703125
1726995599839443700,5.639443603515625,0.5057373046875,0.1802825927734375,-0.8341064453125
1726995599849429800,5.6494296875,0.4727783203125,0.2273406982421875,-0.8487701416015625
1726995599859415800,5.659415771484375,0.4514617919921875,0.2703704833984375,-0.861358642578125
1726995599869401600,5.669401611328125,0.4686737060546875,0.3155517578125,-0.856719970703125
1726995599879388000,5.679387939453125,0.5128326416015625,0.3523712158203125,-0.8697967529296875
1726995599889373700,5.689373779296875,0.55548095703125,0.3899993896484375,-0.887725830078125
1726995599899359700,5.69935986328125,0.5952911376953125,0.4161529541015625,-0.885986328125
1726995599909345800,5.709345703125,0.6142730712890625,0.4173583984375,-0.8460540771484375
1726995599919331800,5.719331787109375,0.60986328125,0.4071044921875,-0.788909912109375
1726995599929317600,5.729317626953125,0.59814453125,0.3934783935546875,-0.722900390625
1726995599939304000,5.739303955078125,0.565185546875,0.378875732421875,-0.68048095703125
1726995599949289700,5.749289794921875,0.5396270751953125,0.370635986328125,-0.64788818359375
1726995599959275800,5.75927587890625,0.5120086669921875,0.3707122802734375,-0.6342620849609375
1726995599969261800,5.76926171875,0.469635009765625,0.3954010009765625,-0.6411590576171875
1726995599979247900,5.779247802734375,0.4266815185546875,0.441070556640625,-0.6651763916015625
1726995599989234200,5.789234130859375,0.398101806640625,0.482513427734375,-0.6916351318359375
1726995599999220200,5.79922021484375,0.3740386962890625,0.515533447265625,-0.7135772705078125
1726995600009206000,5.8092060546875,0.364776611328125,0.535888671875,-0.7252960205078125
1726995600019192300,5.8191923828125,0.3974151611328125,0.546112060546875,-0.7561798095703125
1726995600029178000,5.82917822265625,0.448944091796875,0.5363006591796875,-0.7919464111328125
1726995600039164200,5.8391640625,0.5108489990234375,0.50830078125,-0.8242034912109375
1726995600049150200,5.849150146484375,0.5777740478515625,0.46917724609375,-0.84283447265625
1726995600059136300,5.85913623046875,0.6238250732421875,0.4232635498046875,-0.8618927001953125
1726995600069122000,5.8691220703125,0.6389312744140625,0.3802337646484375,-0.868896484375
1726995600079108400,5.8791083984375,0.62628173828125,0.3452606201171875,-0.8678131103515625
1726995600089093000,5.889093017578125,0.5997467041015625,0.31884765625,-0.8615875244140625
1726995600099079200,5.8990791015625,0.570526123046875,0.2999725341796875,-0.8661651611328125
1726995600109065000,5.90906494140625,0.5358123779296875,0.2990570068359375,-0.8797454833984375
1726995600119051300,5.91905126953125,0.48846435546875,0.3003692626953125,-0.8949127197265625
1726995600129037000,5.929037109375,0.4539337158203125,0.2950592041015625,-0.9090423583984375
1726995600139023000,5.939023193359375,0.4242401123046875,0.275848388671875,-0.9033050537109375
1726995600149009200,5.949009033203125,0.4071197509765625,0.24896240234375,-0.8824310302734375
1726995600158995200,5.9589951171875,0.3974151611328125,0.2205352783203125,-0.8675537109375
1726995600168981000,5.96898095703125,0.3997344970703125,0.2048187255859375,-0.86688232421875
1726995600178967300,5.97896728515625,0.41412353515625,0.2055511474609375,-0.89080810546875
1726995600188953000,5.988953125,0.4142608642578125,0.2047882080078125,-0.900177001953125
1726995600198939100,5.998939208984375,0.4074554443359375,0.1955718994140625,-0.90423583984375
1726995600208925000,6.008925048828125,0.3981475830078125,0.185638427734375,-0.8889923095703125
1726995600218911200,6.0189111328125,0.38726806640625,0.2085418701171875,-0.850982666015625
1726995600228897000,6.02889697265625,0.359832763671875,0.1925811767578125,-0.8734893798828125
1726995600238883000,6.038883056640625,0.354095458984375,0.1766510009765625,-0.8582000732421875
1726995600248869000,6.048869140625,0.3656463623046875,0.1700897216796875,-0.874176025390625
1726995600258855200,6.058855224609375,0.374969482421875,0.15411376953125,-0.89874267578125
1726995600268841000,6.068841064453125,0.3832550048828125,0.148681640625,-0.907806396484375
1726995600278827300,6.0788271484375,0.3828277587890625,0.149688720703125,-0.9164886474609375
1726995600288813000,6.08881298828125,0.3973236083984375,0.1527862548828125,-0.903045654296875
1726995600298799000,6.098799072265625,0.4081878662109375,0.163848876953125,-0.8904571533203125
1726995600308785200,6.10878515625,0.419647216796875,0.182098388671875,-0.8609161376953125
1726995600318771200,6.118771240234375,0.42425537109375,0.2043304443359375,-0.830718994140625
1726995600328757000,6.128757080078125,0.441131591796875,0.231201171875,-0.8141021728515625
1726995600338743300,6.138743408203125,0.472991943359375,0.2548828125,-0.817962646484375
1726995600348729000,6.14872900390625,0.506011962890625,0.28289794921875,-0.8494720458984375
1726995600358715100,6.158715087890625,0.5417938232421875,0.2986297607421875,-0.862518310546875
1726995600368701200,6.168701171875,0.5816497802734375,0.2966766357421875,-0.8424072265625
1726995600378687200,6.178687255859375,0.6217498779296875,0.283447265625,-0.806060791015625
1726995600388673000,6.188673095703125,0.657989501953125,0.2763214111328125,-0.7766571044921875
1726995600398659300,6.198659423828125,0.680572509765625,0.27435302734375,-0.7669677734375
1726995600408645000,6.20864501953125,0.6855926513671875,0.2684478759765625,-0.7854461669921875
1726995600418631200,6.218631103515625,0.675079345703125,0.255126953125,-0.8141021728515625
1726995600428617200,6.2286171875,0.6654815673828125,0.24407958984375,-0.841217041015625
1726995600438603300,6.238603271484375,0.6761322021484375,0.23431396484375,-0.833465576171875
1726995600448589000,6.248589111328125,0.69061279296875,0.202850341796875,-0.8114776611328125
1726995600458575000,6.2585751953125,0.6888580322265625,0.153900146484375,-0.8067474365234375
1726995600468561200,6.26856103515625,0.69683837890625,0.1183013916015625,-0.815338134765625
1726995600478547200,6.278547119140625,0.674591064453125,0.107086181640625,-0.835540771484375
1726995600488533000,6.288532958984375,0.6240997314453125,0.094207763671875,-0.8394927978515625
1726995600498519300,6.298519287109375,0.5599212646484375,0.08514404296875,-0.8336334228515625
1726995600508505000,6.308505126953125,0.4947662353515625,0.0748748779296875,-0.8124542236328125
1726995600518491100,6.3184912109375,0.4450531005859375,0.0697021484375,-0.7967376708984375
1726995600528477200,6.328477294921875,0.4295196533203125,0.0749664306640625,-0.790313720703125
1726995600538463200,6.338463134765625,0.4492034912109375,0.0791778564453125,-0.8101348876953125
1726995600548449000,6.348448974609375,0.483978271484375,0.085479736328125,-0.84515380859375
1726995600558435300,6.358435302734375,0.51568603515625,0.0919036865234375,-0.867828369140625
1726995600568420000,6.368420166015625,0.5390625,0.1030731201171875,-0.89654541015625
1726995600578406100,6.37840625,0.53375244140625,0.1289520263671875,-0.9222259521484375
1726995600588392000,6.388391845703125,0.52032470703125,0.165863037109375,-0.953704833984375
1726995600598378200,6.398378173828125,0.516693115234375,0.1657562255859375,-0.9467315673828125
1726995600608364000,6.408364013671875,0.5241851806640625,0.1868438720703125,-0.930877685546875
1726995600618350000,6.41835009765625,0.5371551513671875,0.2205810546875,-0.9401702880859375
1726995600628336000,6.428336181640625,0.5287933349609375,0.248931884765625,-0.9309539794921875
1726995600638322200,6.438322265625,0.51763916015625,0.2616119384765625,-0.91131591796875
1726995600648308000,6.448307861328125,0.511688232421875,0.25640869140625,-0.9008636474609375
1726995600658294300,6.458294189453125,0.4889984130859375,0.2595062255859375,-0.8852996826171875
1726995600668280000,6.468280029296875,0.483917236328125,0.2629852294921875,-0.8843841552734375
1726995600678266000,6.47826611328125,0.4878387451171875,0.2220458984375,-0.90936279296875
1726995600688252200,6.488252197265625,0.4715728759765625,0.21002197265625,-0.9222259521484375
1726995600698238200,6.49823828125,0.4425506591796875,0.1985931396484375,-0.91998291015625
1726995600708224000,6.50822412109375,0.4214019775390625,0.2003936767578125,-0.9048614501953125
1726995600718210300,6.518210205078125,0.396759033203125,0.2332763671875,-0.8901214599609375
1726995600728196000,6.528196044921875,0.35784912109375,0.29888916015625,-0.88427734375
1726995600738182100,6.53818212890625,0.317840576171875,0.3504638671875,-0.8773040771484375
1726995600748168200,6.548168212890625,0.3097686767578125,0.386474609375,-0.8580780029296875
1726995600758154200,6.558154296875,0.297637939453125,0.3994140625,-0.838958740234375
1726995600768140000,6.56814013671875,0.2950439453125,0.420257568359375,-0.833526611328125
1726995600778126300,6.578126220703125,0.2905731201171875,0.4366455078125,-0.825103759765625
1726995600788112100,6.588112060546875,0.2987213134765625,0.441650390625,-0.8072967529296875
1726995600798098200,6.59809814453125,0.293701171875,0.4098968505859375,-0.785736083984375
1726995600808084000,6.608083984375,0.30908203125,0.3774566650390625,-0.7338714599609375
1726995600818070300,6.6180703125,0.3203125,0.3459625244140625,-0.674407958984375
1726995600828056000,6.62805615234375,0.35400390625,0.338714599609375,-0.6244049072265625
1726995600838042000,6.6380419921875,0.34136962890625,0.363983154296875,-0.5775299072265625
1726995600848028200,6.648028076171875,0.32232666015625,0.394195556640625,-0.5351715087890625
1726995600858014200,6.65801416015625,0.3461761474609375,0.4090423583984375,-0.489593505859375
1726995600868000000,6.668,0.37835693359375,0.4095001220703125,-0.4458770751953125
1726995600877986300,6.677986328125,0.401519775390625,0.4331512451171875,-0.4180145263671875
1726995600887972000,6.68797216796875,0.42724609375,0.45989990234375,-0.406280517578125
1726995600897958100,6.697958251953125,0.45269775390625,0.468994140625,-0.4192352294921875
1726995600907944200,6.707944091796875,0.4717254638671875,0.4817047119140625,-0.4449462890625
1726995600917930200,6.71793017578125,0.4990081787109375,0.499481201171875,-0.4706268310546875
1726995600927916000,6.727916015625,0.531280517578125,0.516021728515625,-0.48236083984375
1726995600937902300,6.73790234375,0.5609588623046875,0.529510498046875,-0.5128936767578125
1726995600947888000,6.74788818359375,0.5759735107421875,0.5496978759765625,-0.5637969970703125
1726995600957874200,6.757874267578125,0.5985260009765625,0.5709228515625,-0.623779296875
1726995600967860200,6.767860107421875,0.615875244140625,0.6012420654296875,-0.6818695068359375
1726995600977846300,6.77784619140625,0.6301116943359375,0.651123046875,-0.75177001953125
1726995600987832000,6.78783203125,0.6134033203125,0.7248992919921875,-0.783477783203125
1726995600997818400,6.797818359375,0.6492919921875,0.773223876953125,-0.85150146484375
1726995601007804400,6.807804443359375,0.6909942626953125,0.811492919921875,-0.9067840576171875
1726995601017790500,6.81779052734375,0.6704254150390625,0.813079833984375,-0.9271240234375
1726995601027776500,6.827776611328125,0.6595001220703125,0.778533935546875,-0.943695068359375
1726995601037762300,6.83776220703125,0.5916290283203125,0.7210235595703125,-0.9012298583984375
1726995601047748600,6.84774853515625,0.4981689453125,0.64337158203125,-0.811676025390625
1726995601057734400,6.857734375,0.436492919921875,0.5661163330078125,-0.7531890869140625
1726995601067720400,6.867720458984375,0.4226837158203125,0.5038299560546875,-0.712738037109375
1726995601077705700,6.877705810546875,0.437957763671875,0.439208984375,-0.6818389892578125
1726995601087691500,6.88769140625,0.4869384765625,0.390716552734375,-0.6720123291015625
1726995601097677600,6.897677490234375,0.5333404541015625,0.3539886474609375,-0.6620635986328125
1726995601107663400,6.907663330078125,0.5601654052734375,0.330413818359375,-0.6609954833984375
1726995601117649700,6.917649658203125,0.57659912109375,0.3248138427734375,-0.6728515625
1726995601127635500,6.927635498046875,0.5897979736328125,0.3171844482421875,-0.6695404052734375
1726995601137621500,6.93762158203125,0.595794677734375,0.326202392578125,-0.6922454833984375
1726995601147607600,6.947607666015625,0.5994110107421875,0.347686767578125,-0.724945068359375
1726995601157593600,6.957593505859375,0.613739013671875,0.3627777099609375,-0.7801513671875
1726995601167579400,6.967579345703125,0.62347412109375,0.3651275634765625,-0.838958740234375
1726995601177565700,6.977565673828125,0.60528564453125,0.3478851318359375,-0.845977783203125
1726995601187551500,6.987551513671875,0.6057891845703125,0.3273162841796875,-0.8521575927734375
1726995601197537500,6.99753759765625,0.57940673828125,0.309844970703125,-0.8375091552734375
1726995601207523600,7.007523681640625,0.5335235595703125,0.3157196044921875,-0.8440399169921875
1726995601217509600,7.017509521484375,0.48895263671875,0.333465576171875,-0.8782501220703125
1726995601227495400,7.027495361328125,0.4590911865234375,0.356414794921875,-0.91998291015625
1726995601237481500,7.0374814453125,0.437042236328125,0.373443603515625,-0.95220947265625
1726995601247467500,7.047467529296875,0.43585205078125,0.3831787109375,-0.9726715087890625
1726995601257453600,7.05745361328125,0.433135986328125,0.3842620849609375,-0.9625091552734375
1726995601267439600,7.067439697265625,0.4268798828125,0.3748626708984375,-0.937225341796875
1726995601277425400,7.07742529296875,0.4274444580078125,0.3575897216796875,-0.8901824951171875
1726995601287411500,7.087411376953125,0.4217529296875,0.335296630859375,-0.8307037353515625
1726995601297397500,7.0973974609375,0.434600830078125,0.317413330078125,-0.7608489990234375
1726995601307383600,7.107383544921875,0.4586334228515625,0.304779052734375,-0.71331787109375
1726995601317369300,7.117369384765625,0.433135986328125,0.303009033203125,-0.734710693359375
1726995601327355400,7.12735546875,0.3908538818359375,0.3014678955078125,-0.7987518310546875
1726995601337341400,7.137341552734375,0.3574981689453125,0.3097381591796875,-0.8495635986328125
1726995601347327500,7.147327392578125,0.3569488525390625,0.3089141845703125,-0.8682861328125
1726995601357313300,7.157313232421875,0.3715057373046875,0.328765869140625,-0.8777313232421875
1726995601367299600,7.167299560546875,0.3690185546875,0.3797607421875,-0.8900909423828125
1726995601377285400,7.177285400390625,0.36602783203125,0.4206390380859375,-0.8727569580078125
1726995601387271400,7.187271484375,0.378021240234375,0.440338134765625,-0.832061767578125
1726995601397257500,7.197257568359375,0.392852783203125,0.4436187744140625,-0.8055267333984375
1726995601407243500,7.207243408203125,0.417449951171875,0.417938232421875,-0.777557373046875
1726995601417229300,7.217229248046875,0.4352569580078125,0.370452880859375,-0.7693939208984375
1726995601427215600,7.227215576171875,0.4189910888671875,0.323944091796875,-0.7447509765625
1726995601437201400,7.237201416015625,0.4123382568359375,0.2845458984375,-0.716156005859375
1726995601447187500,7.2471875,0.413421630859375,0.2613372802734375,-0.6953277587890625
1726995601457173500,7.257173583984375,0.4283447265625,0.2541656494140625,-0.6815643310546875
1726995601467159600,7.26715966796875,0.4373779296875,0.2532501220703125,-0.6934661865234375
1726995601477145300,7.277145263671875,0.4340972900390625,0.2618255615234375,-0.7365875244140625
1726995601487131600,7.287131591796875,0.436981201171875,0.2767791748046875,-0.79058837890625
1726995601497117400,7.297117431640625,0.4441375732421875,0.2875823974609375,-0.8423004150390625
1726995601507103500,7.307103515625,0.4562835693359375,0.29144287109375,-0.899139404296875
1726995601517089500,7.317089599609375,0.4615936279296875,0.2839508056640625,-0.9410858154296875
1726995601527075600,7.32707568359375,0.4433746337890625,0.2703704833984375,-0.95855712890625
1726995601537061400,7.337061279296875,0.4539337158203125,0.2554473876953125,-0.9875030517578125
1726995601547047700,7.347047607421875,0.4529876708984375,0.2339019775390625,-0.9806365966796875
1726995601557033500,7.357033447265625,0.46343994140625,0.2109375,-0.986053466796875
1726995601567019500,7.36701953125,0.4786224365234375,0.1966094970703125,-0.9967498779296875
1726995601577005300,7.37700537109375,0.487518310546875,0.1955718994140625,-0.9627227783203125
1726995601586991600,7.38699169921875,0.47161865234375,0.2076873779296875,-0.91461181640625
1726995601596977400,7.396977294921875,0.468475341796875,0.2309112548828125,-0.8647918701171875
1726995601606963500,7.40696337890625,0.47894287109375,0.2525787353515625,-0.8230438232421875
1726995601616949500,7.416949462890625,0.4932403564453125,0.274200439453125,-0.7883453369140625
1726995601626935600,7.426935546875,0.4905853271484375,0.28179931640625,-0.767181396484375
1726995601636920600,7.436920654296875,0.4920501708984375,0.29620361328125,-0.766845703125
1726995601646906600,7.44690673828125,0.49652099609375,0.3194427490234375,-0.7801666259765625
1726995601656892400,7.456892333984375,0.504302978515625,0.342254638671875,-0.7977142333984375
1726995601666878500,7.46687841796875,0.5244598388671875,0.362060546875,-0.808624267578125
1726995601676864500,7.476864501953125,0.5446014404296875,0.3778076171875,-0.8127593994140625
1726995601686850600,7.4868505859375,0.5755615234375,0.3936767578125,-0.8153839111328125
1726995601696836400,7.49683642578125,0.6121673583984375,0.3986358642578125,-0.81585693359375
1726995601706822400,7.506822509765625,0.6363067626953125,0.38623046875,-0.80035400390625
1726995601716808400,7.516808349609375,0.6405181884765625,0.3705902099609375,-0.7709503173828125
1726995601726794500,7.52679443359375,0.6497955322265625,0.362213134765625,-0.7310791015625
1726995601736780300,7.5367802734375,0.6575164794921875,0.35467529296875,-0.7017974853515625
1726995601746766600,7.5467666015625,0.6775665283203125,0.348663330078125,-0.7128448486328125
1726995601756752400,7.55675244140625,0.7011260986328125,0.3447723388671875,-0.7543792724609375
1726995601766738400,7.566738525390625,0.6947784423828125,0.3391876220703125,-0.7825164794921875
1726995601776724500,7.576724365234375,0.6698455810546875,0.3180999755859375,-0.80938720703125
1726995601786710500,7.58671044921875,0.632659912109375,0.292572021484375,-0.8210906982421875
1726995601796696300,7.5966962890625,0.5880126953125,0.2686920166015625,-0.8425445556640625
1726995601806682600,7.6066826171875,0.5438232421875,0.2499847412109375,-0.878509521484375
1726995601816668400,7.61666845703125,0.5166778564453125,0.2315521240234375,-0.914703369140625
1726995601826654500,7.626654541015625,0.4853668212890625,0.20465087890625,-0.9420013427734375
1726995601836640500,7.636640625,0.44427490234375,0.186309814453125,-0.979095458984375
1726995601846626600,7.64662646484375,0.4179534912109375,0.1672515869140625,-1.0096588134765625
1726995601856612400,7.6566123046875,0.35223388671875,0.1995849609375,-1.0224761962890625
1726995601866598700,7.6665986328125,0.2863311767578125,0.2360687255859375,-1.0263214111328125
1726995601876584400,7.67658447265625,0.2307586669921875,0.2635650634765625,-0.9971771240234375
1726995601886570500,7.686570556640625,0.2033843994140625,0.3090362548828125,-0.9738311767578125
1726995601896556500,7.696556640625,0.1784820556640625,0.3603515625,-0.94873046875
1726995601906542600,7.70654248046875,0.1480712890625,0.40301513671875,-0.911376953125
1726995601916528400,7.7165283203125,0.1283721923828125,0.4264984130859375,-0.87445068359375
1726995601926514400,7.726514404296875,0.1480255126953125,0.42266845703125,-0.826141357421875
1726995601936500500,7.73650048828125,0.1531524658203125,0.4227142333984375,-0.753662109375
1726995601946486500,7.746486572265625,0.130615234375,0.4376220703125,-0.6756591796875
1726995601956472300,7.756472412109375,0.17181396484375,0.454986572265625,-0.60064697265625
1726995601966458600,7.766458740234375,0.2587738037109375,0.4716033935546875,-0.5522613525390625
1726995601976444400,7.7764443359375,0.3301239013671875,0.477630615234375,-0.4789276123046875
1726995601986430500,7.786430419921875,0.395111083984375,0.484222412109375,-0.4484710693359375
1726995601996416300,7.796416259765625,0.4517974853515625,0.50146484375,-0.3928680419921875
1726995602006402600,7.806402587890625,0.4925689697265625,0.5365447998046875,-0.3472442626953125
1726995602016388400,7.816388427734375,0.539703369140625,0.545867919921875,-0.3296356201171875
1726995602026374400,7.82637451171875,0.573486328125,0.596954345703125,-0.321380615234375
1726995602036360200,7.836360107421875,0.5792694091796875,0.6678619384765625,-0.338226318359375
1726995602046346500,7.846346435546875,0.5950927734375,0.72772216796875,-0.3548583984375
1726995602056332300,7.856332275390625,0.6177215576171875,0.7876129150390625,-0.3890533447265625
1726995602066318300,7.866318359375,0.6444549560546875,0.8182373046875,-0.444305419921875
1726995602076304400,7.876304443359375,0.6661224365234375,0.841522216796875,-0.552398681640625
1726995602086290400,7.88629052734375,0.6701812744140625,0.8479461669921875,-0.6591796875
1726995602096276200,7.896276123046875,0.6710662841796875,0.809814453125,-0.7285614013671875
1726995602106262500,7.906262451171875,0.6475677490234375,0.757568359375,-0.7489776611328125
1726995602116248300,7.916248291015625,0.613677978515625,0.71417236328125,-0.76556396484375
1726995602126234400,7.926234375,0.5906219482421875,0.661956787109375,-0.7737579345703125
1726995602136220400,7.936220458984375,0.5636138916015625,0.6168670654296875,-0.7830963134765625
1726995602146206500,7.94620654296875,0.54437255859375,0.57769775390625,-0.79412841796875
1726995602156192300,7.956192138671875,0.5138092041015625,0.5355072021484375,-0.7912445068359375
1726995602166178600,7.966178466796875,0.51092529296875,0.4811553955078125,-0.805389404296875
1726995602176164400,7.976164306640625,0.519805908203125,0.4399261474609375,-0.811248779296875
1726995602186150400,7.986150390625,0.522247314453125,0.4018096923828125,-0.8177032470703125
1726995602196136400,7.996136474609375,0.5358428955078125,0.375823974609375,-0.8408203125
1726995602206122500,8.00612255859375,0.52911376953125,0.3469390869140625,-0.833770751953125
1726995602216108300,8.0161083984375,0.5111083984375,0.312164306640625,-0.8205718994140625
1726995602226094600,8.026094482421875,0.518096923828125,0.284454345703125,-0.8237762451171875
1726995602236080400,8.036080322265626,0.5064849853515625,0.2535247802734375,-0.8230438232421875
1726995602246066400,8.04606640625,0.4949798583984375,0.2270355224609375,-0.81500244140625
1726995602256052500,8.056052490234375,0.4835357666015625,0.206024169921875,-0.8036346435546875
1726995602266038500,8.06603857421875,0.486175537109375,0.193267822265625,-0.82147216796875
1726995602276024300,8.0760244140625,0.484619140625,0.2056884765625,-0.8468780517578125
1726995602286010400,8.08601025390625,0.490631103515625,0.23846435546875,-0.866424560546875
1726995602295996400,8.095996337890625,0.4832611083984375,0.2523651123046875,-0.8853912353515625
1726995602305982500,8.105982421875,0.45440673828125,0.2638092041015625,-0.9067840576171875
1726995602315968300,8.11596826171875,0.4431915283203125,0.264801025390625,-0.88177490234375
1726995602325954600,8.12595458984375,0.4575042724609375,0.2606048583984375,-0.8660430908203125
1726995602335940400,8.1359404296875,0.4623565673828125,0.280914306640625,-0.8914642333984375
1726995602345926400,8.145926513671874,0.4691925048828125,0.3045501708984375,-0.8975372314453125
1726995602355912400,8.155912353515625,0.479705810546875,0.329559326171875,-0.891448974609375
1726995602365898500,8.1658984375,0.4529876708984375,0.33953857421875,-0.9135589599609375
1726995602375884300,8.17588427734375,0.4108428955078125,0.346771240234375,-0.9299468994140625
1726995602385870300,8.185870361328124,0.3793487548828125,0.3572845458984375,-0.9097137451171875
1726995602395856400,8.1958564453125,0.3638153076171875,0.3655853271484375,-0.8942108154296875
1726995602405842400,8.205842529296875,0.38720703125,0.376068115234375,-0.8636322021484375
1726995602415828500,8.215828369140626,0.435699462890625,0.41259765625,-0.816192626953125
1726995602425814300,8.225814208984374,0.476043701171875,0.4391326904296875,-0.7811126708984375
1726995602435800300,8.23580029296875,0.489654541015625,0.44256591796875,-0.7534332275390625
1726995602445786400,8.245786376953125,0.4879608154296875,0.4317169189453125,-0.71868896484375
1726995602455772400,8.2557724609375,0.472900390625,0.4163970947265625,-0.6869659423828125
1726995602465758200,8.26575830078125,0.4609375,0.3858489990234375,-0.6641693115234375
1726995602475744500,8.27574462890625,0.4560089111328125,0.3445281982421875,-0.65936279296875
1726995602485730300,8.285730224609376,0.46307373046875,0.297393798828125,-0.6544952392578125
1726995602495716400,8.29571630859375,0.4732666015625,0.273284912109375,-0.6547088623046875
1726995602505702400,8.305702392578125,0.476409912109375,0.267852783203125,-0.6879425048828125
1726995602515688400,8.3156884765625,0.4632110595703125,0.2665252685546875,-0.734832763671875
1726995602525674200,8.32567431640625,0.4443817138671875,0.2732696533203125,-0.7686920166015625
1726995602535660300,8.335660400390625,0.420379638671875,0.28631591796875,-0.7988433837890625
1726995602545646300,8.345646240234375,0.4070892333984375,0.2942657470703125,-0.83917236328125
1726995602555632400,8.35563232421875,0.39581298828125,0.3015594482421875,-0.868896484375
1726995602565618200,8.3656181640625,0.3765411376953125,0.305572509765625,-0.8823699951171875
1726995602575604500,8.3756044921875,0.3488922119140625,0.3110809326171875,-0.88641357421875
1726995602585590300,8.38559033203125,0.365478515625,0.3212127685546875,-0.9197235107421875
1726995602595576300,8.395576416015626,0.3829803466796875,0.3381195068359375,-0.908203125
1726995602605562400,8.405562255859374,0.4228363037109375,0.367279052734375,-0.876495361328125
1726995602615548400,8.41554833984375,0.4653472900390625,0.386688232421875,-0.8211212158203125
1726995602625534200,8.4255341796875,0.5055084228515625,0.397064208984375,-0.7828826904296875
1726995602635520500,8.4355205078125,0.5359344482421875,0.404449462890625,-0.76092529296875
1726995602645506300,8.44550634765625,0.55242919921875,0.41607666015625,-0.76324462890625
1726995602655492400,8.455492431640625,0.571075439453125,0.4272613525390625,-0.763916015625
1726995602665478400,8.465478515625,0.599945068359375,0.443267822265625,-0.772552490234375
1726995602675464400,8.47546435546875,0.5944061279296875,0.450439453125,-0.787017822265625
1726995602685450200,8.4854501953125,0.5823211669921875,0.451141357421875,-0.7894287109375
1726995602695436500,8.4954365234375,0.5780487060546875,0.4541168212890625,-0.7813873291015625
1726995602705422300,8.50542236328125,0.5892333984375,0.457275390625,-0.7634429931640625
1726995602715408400,8.515408447265624,0.6030120849609375,0.4502105712890625,-0.74420166015625
1726995602725394400,8.52539453125,0.612640380859375,0.4460601806640625,-0.729278564453125
1726995602735380500,8.53538037109375,0.6222686767578125,0.445159912109375,-0.7225189208984375
1726995602745366300,8.5453662109375,0.624847412109375,0.455108642578125,-0.7382354736328125
1726995602755352300,8.555352294921875,0.6226654052734375,0.46630859375,-0.7678070068359375
1726995602765338400,8.56533837890625,0.6160125732421875,0.477142333984375,-0.7981414794921875
1726995602775324400,8.575324462890626,0.6176605224609375,0.45953369140625,-0.818145751953125
1726995602785310200,8.585310302734374,0.5964813232421875,0.43414306640625,-0.8208160400390625
1726995602795296500,8.595296630859375,0.5672454833984375,0.413238525390625,-0.825714111328125
1726995602805282300,8.6052822265625,0.5515899658203125,0.3916473388671875,-0.8426513671875
1726995602815268400,8.615268310546876,0.5299530029296875,0.37371826171875,-0.874298095703125
1726995602825254400,8.62525439453125,0.5266571044921875,0.3539886474609375,-0.920745849609375
1726995602835240400,8.635240478515625,0.5303955078125,0.3671722412109375,-0.979644775390625
1726995602845226200,8.645226318359375,0.49713134765625,0.383209228515625,-1.0183868408203125
1726995602855212500,8.655212646484374,0.4653167724609375,0.372711181640625,-1.024627685546875
1726995602865199400,8.665199462890625,0.404205322265625,0.4043121337890625,-1.0181884765625
1726995602875185400,8.675185302734375,0.331939697265625,0.4085540771484375,-0.9964141845703125
1726995602885171500,8.68517138671875,0.2558746337890625,0.3882598876953125,-0.97222900390625
1726995602895157200,8.6951572265625,0.1938934326171875,0.3677215576171875,-0.92041015625
1726995602905143300,8.705143310546875,0.1578521728515625,0.3587799072265625,-0.8320465087890625
1726995602915129300,8.71512939453125,0.095947265625,0.3410186767578125,-0.7262420654296875
1726995602925115400,8.725115478515624,0.0644378662109375,0.3291168212890625,-0.617584228515625
1726995602935101200,8.73510107421875,0.0736236572265625,0.3118438720703125,-0.5321044921875
1726995602945087500,8.74508740234375,0.1184844970703125,0.348480224609375,-0.4939727783203125
1726995602955073300,8.7550732421875,0.2270355224609375,0.3941192626953125,-0.452911376953125
1726995602965059300,8.765059326171874,0.307830810546875,0.4506683349609375,-0.4502410888671875
1726995602975045400,8.77504541015625,0.3692626953125,0.4821624755859375,-0.4453887939453125
1726995602985031400,8.785031494140625,0.4151458740234375,0.49420166015625,-0.4371490478515625
1726995602995017200,8.795017333984376,0.4366607666015625,0.5096435546875,-0.420684814453125
1726995603005003300,8.805003173828124,0.45892333984375,0.5267486572265625,-0.419189453125
1726995603014989300,8.8149892578125,0.472259521484375,0.550506591796875,-0.4037017822265625
1726995603024975400,8.824975341796875,0.4975738525390625,0.589385986328125,-0.4235382080078125
1726995603034961200,8.834961181640624,0.5143890380859375,0.6448211669921875,-0.4622344970703125
1726995603044947500,8.844947509765625,0.502777099609375,0.713165283203125,-0.476165771484375
1726995603054933200,8.854933349609375,0.518951416015625,0.7889862060546875,-0.4966583251953125
1726995603064919300,8.864919189453126,0.5327301025390625,0.8758697509765625,-0.5653076171875
1726995603074905300,8.8749052734375,0.548919677734375,0.949371337890625,-0.647247314453125
1726995603084891400,8.884891357421875,0.564666748046875,0.974639892578125,-0.722747802734375
1726995603094878200,8.894878173828126,0.5583953857421875,0.9421539306640625,-0.7824859619140625
1726995603104864300,8.9048642578125,0.5370025634765625,0.84625244140625,-0.8025360107421875
1726995603114850300,8.914850341796875,0.564910888671875,0.7407989501953125,-0.8287506103515625
1726995603124836000,8.924836181640625,0.5210113525390625,0.6426849365234375,-0.7779541015625
1726995603134822400,8.934822509765626,0.5267181396484375,0.551239013671875,-0.7465362548828125
1726995603144808200,8.94480810546875,0.546844482421875,0.485443115234375,-0.7394256591796875
1726995603154794200,8.954794189453125,0.544830322265625,0.4568939208984375,-0.7454376220703125
1726995603164780300,8.9647802734375,0.5729217529296875,0.4453277587890625,-0.7878570556640625
1726995603174766300,8.974766357421874,0.555145263671875,0.4434051513671875,-0.7937469482421875
1726995603184752000,8.984752197265625,0.5395965576171875,0.440948486328125,-0.804473876953125
1726995603194738400,8.994738525390625,0.5198822021484375,0.44317626953125,-0.8309326171875
1726995603204724200,9.00472412109375,0.4858551025390625,0.4411163330078125,-0.84796142578125
1726995603214710300,9.014710205078124,0.468017578125,0.4241943359375,-0.8772125244140625
1726995603224696300,9.0246962890625,0.47430419921875,0.3867034912109375,-0.902740478515625
1726995603234682400,9.034682373046875,0.442047119140625,0.3448944091796875,-0.87908935546875
1726995603244668200,9.044668212890626,0.454620361328125,0.3110809326171875,-0.8763275146484375
1726995603254655500,9.054655517578125,0.4508819580078125,0.2905426025390625,-0.8731842041015625
1726995603264641300,9.064641357421875,0.4308929443359375,0.2804107666015625,-0.8473663330078125
1726995603274627300,9.07462744140625,0.429656982421875,0.26873779296875,-0.8135986328125
1726995603284613400,9.08461328125,0.421783447265625,0.268218994140625,-0.794342041015625
1726995603294599200,9.09459912109375,0.4242706298828125,0.276519775390625,-0.8053131103515625
1726995603304585200,9.104585205078125,0.448760986328125,0.315093994140625,-0.8173065185546875
1726995603314571300,9.1145712890625,0.4509429931640625,0.35992431640625,-0.85211181640625
1726995603324557300,9.124557373046875,0.4372711181640625,0.3971710205078125,-0.856536865234375
1726995603334543000,9.134543212890625,0.4211578369140625,0.4272918701171875,-0.8306884765625
1726995603344529400,9.144529296875,0.4171142578125,0.435882568359375,-0.81561279296875
1726995603354515200,9.15451513671875,0.3990020751953125,0.442230224609375,-0.844482421875
1726995603364501200,9.164501220703125,0.3783721923828125,0.4436798095703125,-0.8696746826171875
1726995603374487300,9.1744873046875,0.3730316162109375,0.4568328857421875,-0.899444580078125
1726995603384473300,9.184473388671876,0.3863983154296875,0.4755859375,-0.8736572265625
1726995603394459100,9.194459228515624,0.396331787109375,0.4841156005859375,-0.815765380859375
1726995603404446500,9.204446533203125,0.3919677734375,0.47369384765625,-0.765838623046875
1726995603414432300,9.214432373046876,0.3831634521484375,0.449066162109375,-0.726287841796875
1726995603424418300,9.224418212890624,0.3896331787109375,0.4231719970703125,-0.709320068359375
1726995603434404400,9.234404296875,0.40472412109375,0.38958740234375,-0.6873321533203125
1726995603444390400,9.244390380859375,0.42218017578125,0.3426971435546875,-0.6927642822265625
1726995603454376200,9.254376220703126,0.4174346923828125,0.300994873046875,-0.6897430419921875
1726995603464362500,9.264362548828124,0.419403076171875,0.276275634765625,-0.7010040283203125
1726995603474348300,9.274348388671875,0.4253387451171875,0.2622833251953125,-0.71588134765625
1726995603484334300,9.284334228515625,0.423095703125,0.2631988525390625,-0.747528076171875
1726995603494320400,9.2943203125,0.425750732421875,0.278228759765625,-0.79742431640625
1726995603504306400,9.304306396484375,0.435943603515625,0.3008270263671875,-0.846527099609375
1726995603514292200,9.314292236328125,0.41802978515625,0.3199462890625,-0.8702545166015625
1726995603524278500,9.324278564453126,0.426239013671875,0.3259735107421875,-0.9272613525390625
1726995603534265300,9.334265380859375,0.4124298095703125,0.322021484375,-0.9544525146484375
1726995603544251100,9.344251220703125,0.4060821533203125,0.3217620849609375,-0.96075439453125
1726995603554237400,9.354237548828126,0.4190216064453125,0.32757568359375,-0.961395263671875
1726995603564223200,9.36422314453125,0.4214324951171875,0.339202880859375,-0.9170074462890625
1726995603574209300,9.374209228515625,0.43231201171875,0.3484039306640625,-0.8649444580078125
1726995603584195300,9.3841953125,0.4439849853515625,0.3568267822265625,-0.829681396484375
1726995603594181400,9.394181396484376,0.454620361328125,0.369598388671875,-0.8173980712890625
1726995603604167200,9.404167236328124,0.45062255859375,0.3768463134765625,-0.81488037109375
1726995603614153500,9.414153564453125,0.44659423828125,0.3835601806640625,-0.7983245849609375
1726995603624139300,9.42413916015625,0.4473724365234375,0.3956298828125,-0.7899932861328125
1726995603634125300,9.434125244140626,0.4575958251953125,0.405303955078125,-0.7814178466796875
1726995603644111400,9.444111328125,0.4741363525390625,0.4163970947265625,-0.78497314453125
1726995603654097400,9.454097412109375,0.4981536865234375,0.433013916015625,-0.7828521728515625
1726995603664084200,9.464084228515626,0.5491180419921875,0.4500579833984375,-0.781402587890625
1726995603674070300,9.4740703125,0.60662841796875,0.473785400390625,-0.783294677734375
1726995603684056300,9.484056396484375,0.64898681640625,0.483489990234375,-0.7615509033203125
1726995603694042000,9.4940419921875,0.6601715087890625,0.4766693115234375,-0.7339324951171875
1726995603704028400,9.5040283203125,0.639678955078125,0.4653778076171875,-0.7100372314453125
1726995603714014200,9.51401416015625,0.621978759765625,0.4525909423828125,-0.697052001953125
1726995603724000300,9.524000244140625,0.61773681640625,0.44049072265625,-0.7080078125
1726995603733986300,9.533986328125,0.6265411376953125,0.4261474609375,-0.7454376220703125
1726995603743972400,9.543972412109374,0.6369476318359375,0.405609130859375,-0.77593994140625
1726995603753958100,9.553958251953125,0.630767822265625,0.3841400146484375,-0.800933837890625
1726995603763944400,9.5639443359375,0.5967254638671875,0.37738037109375,-0.842559814453125
1726995603773931300,9.57393115234375,0.553802490234375,0.37103271484375,-0.895172119140625
1726995603783917300,9.583917236328125,0.52410888671875,0.352935791015625,-0.95465087890625
1726995603793903400,9.5939033203125,0.4813079833984375,0.33770751953125,-0.9878387451171875
1726995603803889200,9.60388916015625,0.414306640625,0.33319091796875,-1.0142974853515625
1726995603813875200,9.613875244140624,0.3504180908203125,0.3267059326171875,-1.043212890625
1726995603823861200,9.623861328125,0.2730255126953125,0.3311614990234375,-1.0249176025390625
1726995603833847300,9.633847412109375,0.2023468017578125,0.34967041015625,-0.9616241455078125
1726995603843833000,9.6438330078125,0.1486968994140625,0.386505126953125,-0.8791046142578125
1726995603853819400,9.6538193359375,0.0994873046875,0.444580078125,-0.837249755859375
1726995603863805200,9.66380517578125,0.072723388671875,0.4742889404296875,-0.784759521484375
1726995603873791200,9.673791259765625,0.0593414306640625,0.4687042236328125,-0.7173919677734375
1726995603883777300,9.68377734375,0.047027587890625,0.4717559814453125,-0.643280029296875
1726995603893764400,9.693764404296875,0.0595550537109375,0.4907989501953125,-0.5757293701171875
1726995603903750100,9.703750244140625,0.1255340576171875,0.517913818359375,-0.5073089599609375
1726995603913736400,9.713736328125,0.217132568359375,0.53594970703125,-0.434600830078125
1726995603923722200,9.72372216796875,0.3284759521484375,0.562408447265625,-0.3714141845703125
1726995603933708300,9.733708251953125,0.413909912109375,0.5871124267578125,-0.3627471923828125
1726995603943694300,9.7436943359375,0.4646759033203125,0.6180419921875,-0.310272216796875
1726995603953680400,9.753680419921874,0.51458740234375,0.6497802734375,-0.3198394775390625
1726995603963666200,9.763666259765625,0.5527191162109375,0.6976776123046875,-0.3367919921875
1726995603973652500,9.773652587890625,0.5869140625,0.7460174560546875,-0.361480712890625
1726995603983638300,9.78363818359375,0.6266632080078125,0.7903900146484375,-0.4539031982421875
1726995603993623800,9.793623779296874,0.6293487548828125,0.833282470703125,-0.5233917236328125
1726995604003609900,9.80360986328125,0.631195068359375,0.842742919921875,-0.57794189453125
1726995604013596700,9.8135966796875,0.6127166748046875,0.829010009765625,-0.657196044921875
1726995604023582700,9.823582763671874,0.563812255859375,0.807037353515625,-0.717071533203125
1726995604033568800,9.83356884765625,0.524993896484375,0.7594757080078125,-0.73199462890625
1726995604043554800,9.843554931640625,0.5006561279296875,0.7027587890625,-0.743988037109375
1726995604053540600,9.85354052734375,0.488555908203125,0.6661529541015625,-0.7754058837890625
1726995604063527000,9.86352685546875,0.5065460205078125,0.6290435791015625,-0.7992401123046875
1726995604073512700,9.8735126953125,0.519256591796875,0.5787353515625,-0.78875732421875
1726995604083498800,9.883498779296875,0.51849365234375,0.51800537109375,-0.7596282958984375
1726995604093484800,9.89348486328125,0.51947021484375,0.4725189208984375,-0.743896484375
1726995604103470800,9.903470947265625,0.52490234375,0.4557342529296875,-0.7788543701171875
1726995604113456600,9.91345654296875,0.5211944580078125,0.458343505859375,-0.8278045654296875
1726995604123443000,9.92344287109375,0.5036773681640625,0.4534912109375,-0.8522796630859375
1726995604133428700,9.9334287109375,0.44927978515625,0.4388275146484375,-0.8402099609375
1726995604143415800,9.943415771484375,0.46380615234375,0.4073028564453125,-0.8496551513671875
1726995604153401900,9.95340185546875,0.4290618896484375,0.37908935546875,-0.81646728515625
1726995604163387600,9.9633876953125,0.4139251708984375,0.3659515380859375,-0.8162078857421875
1726995604173373700,9.973373779296875,0.42034912109375,0.3516998291015625,-0.8177642822265625
1726995604183359700,9.98335986328125,0.42926025390625,0.3501129150390625,-0.8155975341796875
1726995604193345800,9.993345703125,0.440216064453125,0.3597564697265625,-0.8189697265625
1726995604203331600,10.00333154296875,0.459197998046875,0.3773345947265625,-0.828887939453125
1726995604213318000,10.01331787109375,0.459564208984375,0.3958892822265625,-0.845703125
1726995604223303700,10.0233037109375,0.443603515625,0.4203643798828125,-0.86627197265625
1726995604233289700,10.033289794921876,0.414642333984375,0.4351806640625,-0.8753204345703125
1726995604243275800,10.04327587890625,0.4288330078125,0.450927734375,-0.847381591796875
1726995604253261800,10.05326171875,0.4316253662109375,0.471343994140625,-0.807708740234375
1726995604263248600,10.06324853515625,0.4325408935546875,0.4814910888671875,-0.7982025146484375
1726995604273235000,10.07323486328125,0.3989105224609375,0.5180206298828125,-0.808563232421875
1726995604283220700,10.083220703125,0.35955810546875,0.5366058349609375,-0.8428955078125
1726995604293206800,10.093206787109375,0.332550048828125,0.5406036376953125,-0.8372650146484375
1726995604303192800,10.10319287109375,0.3096160888671875,0.5368499755859375,-0.79229736328125
1726995604313179000,10.113178955078125,0.2967529296875,0.5298919677734375,-0.7332000732421875
1726995604323164700,10.12316455078125,0.30328369140625,0.517364501953125,-0.684173583984375
1726995604333151000,10.13315087890625,0.3496246337890625,0.49725341796875,-0.6849822998046875
1726995604343136800,10.14313671875,0.3859405517578125,0.4810791015625,-0.7022247314453125
1726995604353122800,10.153122802734375,0.4029541015625,0.4376678466796875,-0.680084228515625
1726995604363108900,10.16310888671875,0.397613525390625,0.37811279296875,-0.6382598876953125
1726995604373095000,10.173094970703126,0.39276123046875,0.3450775146484375,-0.619842529296875
1726995604383080700,10.183080810546874,0.4322509765625,0.3373565673828125,-0.6627960205078125
1726995604393067800,10.19306787109375,0.47332763671875,0.349456787109375,-0.7385711669921875
1726995604403053800,10.2030537109375,0.4866485595703125,0.3666839599609375,-0.7971649169921875
1726995604413039600,10.21303955078125,0.46429443359375,0.3758697509765625,-0.8239593505859375
1726995604423026000,10.22302587890625,0.438995361328125,0.37957763671875,-0.8434600830078125
1726995604433011700,10.23301171875,0.3865203857421875,0.3820343017578125,-0.8466949462890625
1726995604442997800,10.242997802734376,0.4194488525390625,0.38232421875,-0.912353515625
1726995604452983800,10.25298388671875,0.39166259765625,0.38824462890625,-0.946624755859375
1726995604462969900,10.262969970703125,0.3401336669921875,0.3803253173828125,-0.9275054931640625
1726995604472955600,10.27295556640625,0.330657958984375,0.361846923828125,-0.8852386474609375
1726995604482942000,10.28294189453125,0.33978271484375,0.3637847900390625,-0.843658447265625
1726995604492927700,10.292927734375,0.3721923828125,0.3928070068359375,-0.826202392578125
1726995604502913800,10.302913818359375,0.398712158203125,0.412750244140625,-0.8142852783203125
1726995604512899800,10.31289990234375,0.4178619384765625,0.42694091796875,-0.79522705078125
1726995604522886000,10.322885986328124,0.433746337890625,0.4300384521484375,-0.7718048095703125
1726995604532872700,10.332872802734375,0.4539031982421875,0.4318695068359375,-0.7542266845703125
1726995604542858800,10.342858642578125,0.4758453369140625,0.4441070556640625,-0.763214111328125
1726995604552844800,10.3528447265625,0.4997100830078125,0.4760284423828125,-0.796417236328125
1726995604562830600,10.36283056640625,0.521484375,0.509979248046875,-0.8320770263671875
1726995604572817000,10.37281689453125,0.536285400390625,0.5276641845703125,-0.8311309814453125
1726995604582802700,10.382802734375,0.55975341796875,0.51971435546875,-0.7767791748046875
1726995604592788700,10.392788818359374,0.5659027099609375,0.4989166259765625,-0.7171630859375
1726995604602774800,10.40277490234375,0.5755462646484375,0.4830474853515625,-0.69537353515625
1726995604612760800,10.4127607421875,0.5872955322265625,0.490020751953125,-0.722137451171875
1726995604622746600,10.42274658203125,0.614349365234375,0.5049285888671875,-0.78369140625
1726995604632733000,10.43273291015625,0.6347808837890625,0.511627197265625,-0.837432861328125
1726995604642718700,10.44271875,0.6334228515625,0.5068206787109375,-0.8630218505859375
1726995604652704800,10.452704833984376,0.63897705078125,0.4923858642578125,-0.8962554931640625
1726995604662691800,10.46269189453125,0.6041107177734375,0.472747802734375,-0.910919189453125
1726995604672677600,10.472677734375,0.5592041015625,0.4559783935546875,-0.937103271484375
1726995604682663700,10.48266357421875,0.50494384765625,0.4713134765625,-0.9793243408203125
1726995604692649700,10.492649658203124,0.4263916015625,0.48675537109375,-1.0059661865234375
1726995604702635800,10.5026357421875,0.359588623046875,0.478973388671875,-1.02618408203125
1726995604712621600,10.51262158203125,0.284820556640625,0.4901123046875,-1.0223846435546875
1726995604722607900,10.52260791015625,0.2269439697265625,0.4774322509765625,-0.9848785400390625
1726995604732593700,10.53259375,0.1697998046875,0.450531005859375,-0.932098388671875
1726995604742579700,10.542579833984375,0.1160888671875,0.4208831787109375,-0.8585205078125
1726995604752565800,10.552565673828125,0.079010009765625,0.3857421875,-0.7639923095703125
1726995604762551800,10.5625517578125,0.0466766357421875,0.373321533203125,-0.662445068359375
1726995604772537600,10.57253759765625,0.0440216064453125,0.3649444580078125,-0.5653533935546875
1726995604782524000,10.58252392578125,0.03607177734375,0.3807220458984375,-0.4754638671875
1726995604792509700,10.592509765625,0.065673828125,0.39361572265625,-0.4159698486328125
1726995604802495700,10.602495849609374,0.160400390625,0.4176483154296875,-0.38336181640625
1726995604812482800,10.61248291015625,0.2757110595703125,0.4516143798828125,-0.36407470703125
1726995604822468900,10.62246875,0.36834716796875,0.4566192626953125,-0.3323516845703125
1726995604832454700,10.63245458984375,0.4298858642578125,0.4748382568359375,-0.331512451171875
1726995604842441000,10.64244091796875,0.4647979736328125,0.4900360107421875,-0.350616455078125
1726995604852426800,10.6524267578125,0.4529876708984375,0.5413970947265625,-0.36602783203125
1726995604862412800,10.662412841796876,0.4405670166015625,0.602813720703125,-0.4052734375
1726995604872398800,10.67239892578125,0.45306396484375,0.67144775390625,-0.4479522705078125
1726995604882385000,10.682385009765625,0.468963623046875,0.7734832763671875,-0.4804840087890625
1726995604892370700,10.69237060546875,0.48828125,0.893798828125,-0.5671539306640625
1726995604902356700,10.702356689453126,0.5123138427734375,1.011962890625,-0.6708221435546875
1726995604912342800,10.7123427734375,0.50592041015625,1.0771331787109375,-0.7593841552734375
1726995604922328800,10.722328857421875,0.4740447998046875,1.0555877685546875,-0.809906005859375
1726995604932315000,10.73231494140625,0.46728515625,0.9624481201171875,-0.8283233642578125
1726995604942300700,10.74230078125,0.489654541015625,0.84356689453125,-0.86212158203125
1726995604952288000,10.7522880859375,0.483306884765625,0.735565185546875,-0.84185791015625
1726995604962273800,10.762273681640625,0.486297607421875,0.6575927734375,-0.8070526123046875
1726995604972259800,10.772259765625,0.490386962890625,0.601043701171875,-0.777618408203125
1726995604982245600,10.78224560546875,0.488861083984375,0.56024169921875,-0.7542572021484375
1726995604992232000,10.79223193359375,0.4875640869140625,0.52484130859375,-0.746612548828125
1726995605002218500,10.802218505859376,0.4835052490234375,0.4918060302734375,-0.7510833740234375
1726995605012204300,10.812204345703124,0.46624755859375,0.461761474609375,-0.779144287109375
1726995605022190300,10.8221904296875,0.4491119384765625,0.43084716796875,-0.7963714599609375
1726995605032176400,10.83217626953125,0.44427490234375,0.400634765625,-0.8037567138671875
1726995605042162400,10.842162353515626,0.4531097412109375,0.3827667236328125,-0.8086700439453125
1726995605052148200,10.852148193359374,0.4660186767578125,0.3829803466796875,-0.8230438232421875
1726995605062134500,10.862134521484375,0.48382568359375,0.3914337158203125,-0.8428192138671875
1726995605072120300,10.872120361328125,0.478973388671875,0.4038238525390625,-0.842681884765625
1726995605082106400,10.8821064453125,0.5099029541015625,0.406890869140625,-0.8690948486328125
1726995605092092400,10.892092529296875,0.4956817626953125,0.4019622802734375,-0.8543701171875
1726995605102078500,10.902078369140625,0.48345947265625,0.405426025390625,-0.85467529296875
1726995605112065300,10.912065185546876,0.4753265380859375,0.41943359375,-0.872772216796875
1726995605122051600,10.922051513671875,0.4290313720703125,0.445343017578125,-0.906982421875
1726995605132037400,10.932037353515625,0.384185791015625,0.468414306640625,-0.8896331787109375
1726995605142023400,10.9420234375,0.3285064697265625,0.4737701416015625,-0.8471832275390625
1726995605152009500,10.952009521484374,0.2558135986328125,0.4873046875,-0.8337860107421875
1726995605161995500,10.96199560546875,0.1954803466796875,0.5037384033203125,-0.824127197265625
1726995605171981300,10.971981201171875,0.17095947265625,0.5235443115234375,-0.82415771484375
1726995605181967600,10.981967529296876,0.184539794921875,0.543243408203125,-0.7986602783203125
1726995605191953400,10.991953369140624,0.2168426513671875,0.5480804443359375,-0.746429443359375
1726995605201939500,11.001939453125,0.26519775390625,0.5326080322265625,-0.706634521484375
1726995605211925500,11.011925537109375,0.307952880859375,0.510345458984375,-0.6831207275390625
1726995605221911600,11.02191162109375,0.3394622802734375,0.475250244140625,-0.670501708984375
1726995605231897300,11.0318974609375,0.358245849609375,0.4295806884765625,-0.667236328125
1726995605241883400,11.04188330078125,0.363250732421875,0.40045166015625,-0.6778411865234375
1726995605251869400,11.051869384765626,0.355255126953125,0.414154052734375,-0.732147216796875
1726995605261856300,11.061856201171874,0.357635498046875,0.429229736328125,-0.777069091796875
1726995605271842600,11.071842529296875,0.373504638671875,0.440338134765625,-0.7787322998046875
1726995605281828400,11.081828369140625,0.3726959228515625,0.4410400390625,-0.779876708984375
1726995605291814400,11.091814453125,0.363616943359375,0.430816650390625,-0.803497314453125
1726995605301800400,11.101800537109375,0.3633270263671875,0.41680908203125,-0.84228515625
1726995605311786500,11.111786376953125,0.350830078125,0.41717529296875,-0.905517578125
1726995605321772300,11.121772216796876,0.3033447265625,0.4249267578125,-0.9426727294921875
1726995605331758600,11.131758544921874,0.3553009033203125,0.4269256591796875,-1.0180206298828125
1726995605341744400,11.141744384765625,0.33367919921875,0.403961181640625,-0.916168212890625
1726995605351730400,11.15173046875,0.34222412109375,0.380584716796875,-0.8389739990234375
1726995605361716500,11.161716552734376,0.36968994140625,0.38055419921875,-0.815155029296875
1726995605371702500,11.17170263671875,0.4035797119140625,0.4149627685546875,-0.820709228515625
1726995605381688300,11.181688232421875,0.443084716796875,0.444000244140625,-0.816925048828125
1726995605391674600,11.191674560546875,0.4686431884765625,0.4620208740234375,-0.7943267822265625
1726995605401660400,11.201660400390624,0.459228515625,0.4792022705078125,-0.7707061767578125
1726995605411646500,11.211646484375,0.4451904296875,0.4861602783203125,-0.757110595703125
1726995605421632500,11.221632568359375,0.44482421875,0.4976959228515625,-0.7519989013671875
1726995605431619300,11.231619384765626,0.4645843505859375,0.513946533203125,-0.754730224609375
1726995605441605400,11.24160546875,0.49725341796875,0.533355712890625,-0.7614898681640625
1726995605451591400,11.25159130859375,0.5311431884765625,0.5506744384765625,-0.766204833984375
1726995605461577500,11.261577392578126,0.557098388671875,0.5587615966796875,-0.7600860595703125
1726995605471563300,11.271563232421874,0.5665740966796875,0.5621337890625,-0.7483673095703125
1726995605481549600,11.281549560546875,0.55963134765625,0.554931640625,-0.7355194091796875
1726995605491535400,11.291535400390625,0.554473876953125,0.54144287109375,-0.7432098388671875
1726995605501521400,11.301521484375,0.5714111328125,0.52044677734375,-0.7957000732421875
1726995605511507500,11.311507568359374,0.5854034423828125,0.522003173828125,-0.8692474365234375
1726995605521493500,11.321493408203125,0.5987548828125,0.5237274169921875,-0.9512481689453125
1726995605531479300,11.331479248046875,0.619110107421875,0.4879913330078125,-1.01904296875
1726995605541465600,11.341465576171874,0.5956573486328125,0.4142303466796875,-1.042388916015625
1726995605551451400,11.351451416015625,0.5075225830078125,0.3618011474609375,-1.0986480712890625
1726995605561437400,11.3614375,0.411865234375,0.3235626220703125,-1.1422882080078125
1726995605571423500,11.371423583984376,0.30548095703125,0.309722900390625,-1.119781494140625
1726995605581409500,11.381409423828124,0.1922760009765625,0.360107421875,-1.0323486328125
1726995605591396400,11.391396240234375,0.0941619873046875,0.4073486328125,-0.97052001953125
1726995605601382400,11.40138232421875,0.03802490234375,0.4094696044921875,-0.8647003173828125
1726995605611368400,11.411368408203124,-0.02294921875,0.3885650634765625,-0.73565673828125
1726995605621354200,11.421354248046875,-0.052490234375,0.3899688720703125,-0.64532470703125
1726995605631340500,11.431340576171875,-0.0096893310546875,0.4103546142578125,-0.5572357177734375
1726995605641326300,11.441326416015626,0.0059814453125,0.461273193359375,-0.4693756103515625
1726995605651312400,11.4513125,0.023040771484375,0.5138702392578125,-0.4028167724609375
1726995605661298400,11.46129833984375,0.1142730712890625,0.5512542724609375,-0.3652801513671875
1726995605671284500,11.471284423828125,0.19879150390625,0.583221435546875,-0.3891754150390625
1726995605681270300,11.481270263671876,0.247711181640625,0.620269775390625,-0.3645782470703125
1726995605691256600,11.491256591796875,0.3243865966796875,0.651519775390625,-0.3188629150390625
1726995605701242400,11.501242431640625,0.4072418212890625,0.65673828125,-0.330963134765625
1726995605711228400,11.511228515625,0.447265625,0.668121337890625,-0.298492431640625
1726995605721214500,11.52121435546875,0.48760986328125,0.6803741455078125,-0.31060791015625
1726995605731200500,11.531200439453125,0.5048065185546875,0.7153778076171875,-0.3308563232421875
1726995605741186300,11.541186279296875,0.514068603515625,0.79327392578125,-0.3858795166015625
1726995605751172400,11.55117236328125,0.51788330078125,0.852935791015625,-0.453033447265625
1726995605761159400,11.561159423828125,0.5255126953125,0.88177490234375,-0.543914794921875
1726995605771145200,11.571145263671875,0.5318145751953125,0.916229248046875,-0.6424713134765625
1726995605781131500,11.581131591796876,0.507568359375,0.9079742431640625,-0.719757080078125
1726995605791117300,11.591117431640624,0.47662353515625,0.87152099609375,-0.769134521484375
1726995605801103400,11.601103271484375,0.4455108642578125,0.8198089599609375,-0.8020477294921875
1726995605811089400,11.61108935546875,0.40655517578125,0.7550048828125,-0.7996826171875
1726995605821075500,11.621075439453126,0.4322967529296875,0.6740570068359375,-0.8055877685546875
1726995605831061200,11.631061279296874,0.4677886962890625,0.6123504638671875,-0.797821044921875
1726995605841047600,11.641047607421875,0.4715576171875,0.5606231689453125,-0.763885498046875
1726995605851033300,11.651033447265625,0.474456787109375,0.521209716796875,-0.77105712890625
1726995605861019400,11.661019287109376,0.473236083984375,0.505584716796875,-0.8045806884765625
1726995605871005400,11.67100537109375,0.457550048828125,0.4932403564453125,-0.8382720947265625
1726995605880991500,11.680991455078125,0.4649810791015625,0.4841766357421875,-0.88916015625
1726995605890977300,11.690977294921876,0.4683837890625,0.4711456298828125,-0.9095306396484375
1726995605900963300,11.70096337890625,0.441009521484375,0.4419708251953125,-0.91204833984375
1726995605910949400,11.710949462890625,0.420928955078125,0.410552978515625,-0.893280029296875
1726995605920935400,11.720935302734375,0.4017333984375,0.38555908203125,-0.8810882568359375
1726995605930921200,11.730921142578126,0.38482666015625,0.372222900390625,-0.8705596923828125
1726995605940908500,11.740908447265625,0.3788909912109375,0.3665771484375,-0.8492584228515625
1726995605950894300,11.750894287109375,0.356292724609375,0.374603271484375,-0.8428955078125
1726995605960880600,11.760880615234376,0.3412322998046875,0.3945770263671875,-0.859649658203125
1726995605970866400,11.770866455078124,0.349945068359375,0.4223175048828125,-0.8692626953125
1726995605980852500,11.7808525390625,0.3653717041015625,0.4612884521484375,-0.8875732421875
1726995605990838500,11.790838623046875,0.374420166015625,0.5087890625,-0.8847808837890625
1726995606000824300,11.80082421875,0.3188323974609375,0.5098114013671875,-0.867767333984375
1726995606010810000,11.81081005859375,0.269805908203125,0.497528076171875,-0.8316802978515625
1726995606020796200,11.820796142578125,0.1961822509765625,0.4647674560546875,-0.814178466796875
1726995606030782200,11.8307822265625,0.13751220703125,0.45562744140625,-0.831695556640625
1726995606040768300,11.840768310546874,0.138031005859375,0.4720916748046875,-0.8243865966796875
1726995606050754000,11.850754150390625,0.207366943359375,0.5027618408203125,-0.782196044921875
1726995606060740400,11.860740234375,0.2705841064453125,0.5491485595703125,-0.73260498046875
1726995606070726100,11.87072607421875,0.2962188720703125,0.56591796875,-0.68829345703125
1726995606080712200,11.880712158203124,0.304473876953125,0.5598907470703125,-0.668792724609375
1726995606090698200,11.8906982421875,0.30615234375,0.5551910400390625,-0.6912689208984375
1726995606100684300,11.900684326171875,0.328155517578125,0.518035888671875,-0.71319580078125
1726995606110670000,11.910670166015626,0.353607177734375,0.4777374267578125,-0.7005462646484375
1726995606120657200,11.9206572265625,0.35968017578125,0.4449005126953125,-0.69659423828125
1726995606130643200,11.930643310546875,0.3649444580078125,0.4198150634765625,-0.714080810546875
1726995606140629000,11.94062890625,0.3574676513671875,0.408294677734375,-0.74951171875
1726995606150615300,11.950615234375,0.360382080078125,0.40216064453125,-0.800628662109375
1726995606160601000,11.96060107421875,0.3534088134765625,0.4026031494140625,-0.8608245849609375
1726995606170587100,11.970587158203125,0.3460693359375,0.391998291015625,-0.8970489501953125
1726995606180573200,11.9805732421875,0.3129730224609375,0.3836822509765625,-0.8853607177734375
1726995606190559200,11.990559326171875,0.36822509765625,0.3795318603515625,-0.9019775390625
1726995606200545000,12.000544921875,0.4084625244140625,0.379119873046875,-0.92205810546875
1726995606210531300,12.01053125,0.4019622802734375,0.3878326416015625,-0.934661865234375
1726995606220517000,12.02051708984375,0.4155731201171875,0.41229248046875,-0.9604339599609375
1726995606230503200,12.030503173828125,0.38916015625,0.4206695556640625,-0.9407806396484375
1726995606240489200,12.0404892578125,0.3575897216796875,0.4066314697265625,-0.882537841796875
1726995606250475300,12.050475341796876,0.3425140380859375,0.3860015869140625,-0.80694580078125
1726995606260461000,12.0604609375,0.35919189453125,0.3839111328125,-0.7561187744140625
1726995606270447000,12.070447021484375,0.4080963134765625,0.4129638671875,-0.7639312744140625
1726995606280434200,12.08043408203125,0.4417724609375,0.46697998046875,-0.7992706298828125
1726995606290420000,12.090419921875,0.465484619140625,0.521270751953125,-0.837615966796875
1726995606300406300,12.10040625,0.477508544921875,0.56378173828125,-0.86181640625
1726995606310392000,12.11039208984375,0.480682373046875,0.5853271484375,-0.8680877685546875
1726995606320378000,12.120378173828126,0.476104736328125,0.5863189697265625,-0.85552978515625
1726995606330364200,12.1303642578125,0.4754486083984375,0.5818939208984375,-0.8518218994140625
1726995606340350200,12.14035009765625,0.4856109619140625,0.5639495849609375,-0.8485260009765625
1726995606350336000,12.1503359375,0.4994049072265625,0.5484466552734375,-0.8442230224609375
1726995606360322300,12.160322265625,0.5001068115234375,0.5313568115234375,-0.8796844482421875
1726995606370308000,12.17030810546875,0.5060577392578125,0.50115966796875,-0.9217681884765625
1726995606380294100,12.180294189453125,0.4941864013671875,0.4664306640625,-0.964447021484375
1726995606390280200,12.1902802734375,0.4713287353515625,0.4563751220703125,-1.0164794921875
1726995606400266200,12.200266357421874,0.4148406982421875,0.4704742431640625,-1.0642547607421875
1726995606410252000,12.210251953125,0.348052978515625,0.4583740234375,-1.104278564453125
1726995606420238000,12.220238037109375,0.2558135986328125,0.4837799072265625,-1.083770751953125
1726995606430224100,12.23022412109375,0.190948486328125,0.4943695068359375,-1.0415496826171875
1726995606440211000,12.2402109375,0.138275146484375,0.4832000732421875,-0.9611968994140625
1726995606450197200,12.250197265625,0.106658935546875,0.4491729736328125,-0.8306884765625
1726995606460183000,12.26018310546875,0.044158935546875,0.425140380859375,-0.7103118896484375
1726995606470169000,12.270169189453124,0.0220489501953125,0.4117431640625,-0.6101226806640625
1726995606480155100,12.280155029296875,0.02532958984375,0.4097442626953125,-0.49078369140625
1726995606490141200,12.29014111328125,-0.001312255859375,0.4027099609375,-0.3927459716796875
1726995606500127000,12.300126953125,0.0211944580078125,0.4331817626953125,-0.3141021728515625
1726995606510113300,12.31011328125,0.0926513671875,0.497161865234375,-0.2532806396484375
1726995606520099000,12.32009912109375,0.181793212890625,0.537109375,-0.2239990234375
1726995606530085000,12.330085205078126,0.2671356201171875,0.5550079345703125,-0.2091064453125
1726995606540071000,12.34007080078125,0.347686767578125,0.5817718505859375,-0.213958740234375
1726995606550057200,12.35005712890625,0.4311065673828125,0.6010284423828125,-0.2364654541015625
1726995606560043000,12.36004296875,0.4668426513671875,0.6284027099609375,-0.271881103515625
1726995606570029000,12.370029052734376,0.4705352783203125,0.6689300537109375,-0.310333251953125
1726995606580015000,12.38001513671875,0.4979248046875,0.7350311279296875,-0.33526611328125
1726995606590001200,12.390001220703125,0.5076141357421875,0.8148345947265625,-0.38104248046875
1726995606599987000,12.399987060546875,0.4969940185546875,0.91265869140625,-0.4596710205078125
1726995606609974300,12.409974365234374,0.4721832275390625,1.024139404296875,-0.57098388671875
1726995606619960000,12.4199599609375,0.440185546875,1.0941619873046875,-0.6758880615234375
1726995606629946000,12.429946044921875,0.4112548828125,1.0982208251953125,-0.7490386962890625
1726995606639932200,12.43993212890625,0.4096832275390625,1.0599212646484375,-0.8162384033203125
1726995606649918000,12.44991796875,0.393096923828125,0.998016357421875,-0.860992431640625
1726995606659904300,12.459904296875,0.380645751953125,0.8990478515625,-0.860931396484375
1726995606669890000,12.46989013671875,0.3968658447265625,0.77325439453125,-0.8260498046875
1726995606679876000,12.4798759765625,0.4139862060546875,0.6610870361328125,-0.79803466796875
1726995606689862000,12.48986181640625,0.4113311767578125,0.5795440673828125,-0.79388427734375
1726995606699848200,12.49984814453125,0.4104461669921875,0.526580810546875,-0.8037872314453125
1726995606709834000,12.509833984375,0.3999176025390625,0.4976043701171875,-0.8448638916015625
1726995606719820000,12.519820068359374,0.405853271484375,0.4793701171875,-0.869232177734375
1726995606729806000,12.52980615234375,0.38885498046875,0.453277587890625,-0.8647308349609375
1726995606739792100,12.539792236328125,0.3721771240234375,0.411102294921875,-0.8504486083984375
1726995606749778000,12.54977783203125,0.3685455322265625,0.3778228759765625,-0.8509521484375
1726995606759765200,12.55976513671875,0.36328125,0.365570068359375,-0.877899169921875
1726995606769751000,12.5697509765625,0.3624267578125,0.3683013916015625,-0.9066925048828125
1726995606779737300,12.5797373046875,0.3613739013671875,0.369384765625,-0.94384765625
1726995606789723100,12.58972314453125,0.3655548095703125,0.3611907958984375,-0.9397430419921875
1726995606799709200,12.599709228515625,0.34942626953125,0.3393402099609375,-0.8925933837890625
1726995606809695200,12.6096953125,0.3333892822265625,0.3319549560546875,-0.8603668212890625
1726995606819681300,12.619681396484374,0.33843994140625,0.3614501953125,-0.8729400634765625
1726995606829667000,12.6296669921875,0.2982177734375,0.38665771484375,-0.8787384033203125
1726995606839653000,12.639653076171875,0.2822723388671875,0.40185546875,-0.86993408203125
1726995606849639200,12.64963916015625,0.2486724853515625,0.45062255859375,-0.8663482666015625
1726995606859625200,12.659625244140624,0.210174560546875,0.4756622314453125,-0.878173828125
1726995606869611000,12.669611083984375,0.1836700439453125,0.5095367431640625,-0.88818359375
1726995606879597300,12.679597412109375,0.1726837158203125,0.527008056640625,-0.89276123046875
1726995606889583000,12.6895830078125,0.1927947998046875,0.519439697265625,-0.884429931640625
1726995606899569200,12.699569091796874,0.233367919921875,0.517608642578125,-0.8486328125
1726995606909555200,12.70955517578125,0.289642333984375,0.50286865234375,-0.7758636474609375
1726995606919542000,12.7195419921875,0.3372039794921875,0.476959228515625,-0.7093048095703125
1726995606929528300,12.7295283203125,0.360382080078125,0.444610595703125,-0.691558837890625
1726995606939514000,12.73951416015625,0.3608551025390625,0.40069580078125,-0.703399658203125
1726995606949500200,12.749500244140625,0.3435516357421875,0.37451171875,-0.7324371337890625
1726995606959486200,12.759486328125,0.3409423828125,0.3677520751953125,-0.7624053955078125
1726995606969472300,12.76947216796875,0.3285675048828125,0.3746490478515625,-0.7776641845703125
1726995606979458000,12.7794580078125,0.30255126953125,0.3877410888671875,-0.7917022705078125
1726995606989444000,12.789444091796875,0.282562255859375,0.4051513671875,-0.810272216796875
1726995606999430100,12.79943017578125,0.2676849365234375,0.41839599609375,-0.8305511474609375
1726995607009416400,12.80941650390625,0.2646942138671875,0.4448089599609375,-0.846282958984375
1726995607019402200,12.81940234375,0.2847442626953125,0.472381591796875,-0.8326568603515625
1726995607029388300,12.82938818359375,0.309051513671875,0.4880218505859375,-0.8075408935546875
1726995607039374300,12.839374267578124,0.3274688720703125,0.5044708251953125,-0.7993621826171875
1726995607049360400,12.8493603515625,0.351715087890625,0.5269012451171875,-0.81396484375
1726995607059346200,12.85934619140625,0.3676910400390625,0.5454254150390625,-0.831573486328125
1726995607069332500,12.86933251953125,0.3772430419921875,0.5657958984375,-0.8429107666015625
1726995607079319300,12.8793193359375,0.3982696533203125,0.5791778564453125,-0.837310791015625
1726995607089305000,12.88930517578125,0.42291259765625,0.579254150390625,-0.8129425048828125
1726995607099291400,12.89929150390625,0.427093505859375,0.56842041015625,-0.7830810546875
1726995607109277200,12.909277099609374,0.4207305908203125,0.5597686767578125,-0.7722015380859375
1726995607119263200,12.91926318359375,0.4360809326171875,0.5587005615234375,-0.7726593017578125
1726995607129249300,12.929249267578125,0.45880126953125,0.5568084716796875,-0.7673492431640625
1726995607139235300,12.9392353515625,0.47357177734375,0.55035400390625,-0.740875244140625
1726995607149221000,12.94922119140625,0.492828369140625,0.541107177734375,-0.7274932861328125
