time,seconds_elapsed,z,y,x
1726995594233579000,0.0335791015625,-0.11434083431959152,-0.4445285201072693,0.341311514377594
1726995594243564800,0.043564697265625,-0.14458943903446198,-0.40690067410469055,0.41634058952331543
1726995594253551000,0.053551025390625,-0.16964100301265717,-0.35312825441360474,0.4777165949344635
1726995594263537000,0.063536865234375,-0.18300683796405792,-0.3189915120601654,0.517844021320343
1726995594273523000,0.07352294921875,-0.17881183326244354,-0.30124953389167786,0.5416691899299622
1726995594283509000,0.083509033203125,-0.16564013063907623,-0.2961193025112152,0.5438297986984253
1726995594293495000,0.0934951171875,-0.13789212703704834,-0.281270831823349,0.5329523682594299
1726995594303480800,0.103480712890625,-0.11090727895498276,-0.2611244022846222,0.4994350075721741
1726995594313467100,0.113467041015625,-0.1066369041800499,-0.2484743893146515,0.4428902566432953
1726995594323453000,0.123452880859375,-0.12183332443237305,-0.21516697108745575,0.3713122010231018
1726995594333438000,0.13343798828125,-0.14107225835323334,-0.14587445557117462,0.3067614436149597
1726995594343423700,0.143423828125,-0.14260442554950714,-0.06852583587169647,0.257924884557724
1726995594353410000,0.15341015625,-0.12161019444465637,0.0016942615620791912,0.2224627435207367
1726995594363395800,0.163395751953125,-0.08566581457853317,0.06947735697031021,0.19930130243301392
1726995594373382000,0.1733818359375,-0.05353904142975807,0.13029517233371735,0.19906428456306458
1726995594383368000,0.183367919921875,-0.043648652732372284,0.165242999792099,0.21193674206733704
1726995594393354000,0.19335400390625,-0.05847606807947159,0.17549189925193787,0.23710282146930695
1726995594403339800,0.20333984375,-0.0812528133392334,0.19293613731861115,0.2884816825389862
1726995594413326000,0.213326171875,-0.0791180208325386,0.20130832493305206,0.3409014940261841
1726995594423312000,0.223311767578125,-0.05532010272145271,0.1891433447599411,0.37598946690559387
1726995594433298000,0.2332978515625,-0.04188339039683342,0.18520718812942505,0.3906640112400055
1726995594443284000,0.243283935546875,-0.06739818304777145,0.21015511453151703,0.4045006334781647
1726995594453270000,0.25327001953125,-0.12912707030773163,0.2090030312538147,0.4057752192020416
1726995594463255800,0.263255859375,-0.2077006846666336,0.1550927460193634,0.3931725025177002
1726995594473241900,0.273241943359375,-0.2669432461261749,0.05323774740099907,0.3845880627632141
1726995594483228000,0.283227783203125,-0.29839634895324707,-0.032288163900375366,0.39076781272888184
1726995594493214000,0.2932138671875,-0.3253835141658783,-0.0629643127322197,0.4236791431903839
1726995594503199700,0.30319970703125,-0.3651121258735657,-0.00864863395690918,0.4678952693939209
1726995594513186000,0.31318603515625,-0.429423451423645,0.10912646353244781,0.509723424911499
1726995594523171000,0.323171142578125,-0.5316153168678284,0.15922632813453674,0.5429058074951172
1726995594533156900,0.333156982421875,-0.6618338227272034,0.10709760338068008,0.573403000831604
1726995594543143000,0.343142822265625,-0.7687153220176697,-0.09444860368967056,0.5990727543830872
1726995594553129000,0.35312890625,-0.8428987264633179,-0.3052724003791809,0.6420229077339172
1726995594563115000,0.363114990234375,-0.9145918488502502,-0.4660310745239258,0.7374679446220398
1726995594573100800,0.373100830078125,-1.039476752281189,-0.5141477584838867,0.8731216788291931
1726995594583086800,0.3830869140625,-1.2164745330810547,-0.45205363631248474,1.0222203731536865
1726995594593073000,0.393072998046875,-1.3664629459381104,-0.2559453547000885,1.1402690410614014
1726995594603058700,0.40305859375,-1.4201195240020752,0.004607168957591057,1.1705306768417358
1726995594613045000,0.413044921875,-1.3764979839324951,0.19442184269428253,1.147518277168274
1726995594623030800,0.42303076171875,-1.2929152250289917,0.22545471787452698,1.1076756715774536
1726995594633016800,0.433016845703125,-1.231628179550171,0.24451708793640137,1.0781790018081665
1726995594643003000,0.4430029296875,-1.1539138555526733,0.21606327593326569,1.0679432153701782
1726995594652989000,0.452989013671875,-1.0565541982650757,0.1401948630809784,1.026261329650879
1726995594662974700,0.462974609375,-0.9748781323432922,0.16844555735588074,0.9900943636894226
1726995594672961000,0.4729609375,-0.8463020324707031,0.36131274700164795,0.9529922604560852
1726995594682946800,0.48294677734375,-0.7621241211891174,0.7690761685371399,0.8876243829727173
1726995594692932900,0.492932861328125,-0.7773550152778625,1.1008058786392212,0.7765458226203918
1726995594702919000,0.5029189453125,-0.8823382258415222,1.2308138608932495,0.6856727600097656
1726995594712905000,0.512905029296875,-1.0130528211593628,1.0257073640823364,0.7171353697776794
1726995594722890000,0.522889892578125,-1.1167618036270142,0.5246976017951965,0.8797751665115356
1726995594732875800,0.532875732421875,-1.142719030380249,-0.07099159061908722,1.1457101106643677
1726995594742862000,0.542862060546875,-1.0731457471847534,-0.7375335693359375,1.45802903175354
1726995594752848000,0.552847900390625,-0.9456190466880798,-1.3328584432601929,1.8111876249313354
1726995594762834000,0.562833984375,-0.6996251344680786,-1.6954187154769897,2.168121576309204
1726995594772820000,0.572820068359375,-0.33411556482315063,-1.7786052227020264,2.520707607269287
1726995594782806000,0.582805908203125,0.06172572448849678,-1.6781407594680786,2.849850654602051
1726995594792791800,0.592791748046875,0.430813193321228,-1.670649528503418,3.0266432762145996
1726995594802778000,0.602778076171875,0.7826904058456421,-1.6879197359085083,3.09734845161438
1726995594812764000,0.612763916015625,1.095078945159912,-1.461410403251648,3.102921724319458
1726995594822750000,0.62275,1.4077931642532349,-1.4863030910491943,2.911752939224243
1726995594832736000,0.632736083984375,1.6930360794067383,-1.8075034618377686,2.6578433513641357
1726995594842722000,0.64272216796875,2.081606149673462,-2.523041009902954,2.2888498306274414
1726995594852707800,0.652707763671875,2.4772491455078125,-3.0947277545928955,2.0233848094940186
1726995594862694100,0.662694091796875,2.9045193195343018,-3.092688798904419,1.844346523284912
1726995594872680000,0.672679931640625,3.382462501525879,-2.639404058456421,1.7515007257461548
1726995594882666000,0.682666015625,3.7048590183258057,-2.278632640838623,1.7242906093597412
1726995594892652000,0.692652099609375,3.541116714477539,-1.9320546388626099,1.8640111684799194
1726995594902638000,0.70263818359375,3.0436630249023438,-1.588288426399231,2.019984245300293
1726995594912623900,0.712623779296875,2.4987025260925293,-1.2576855421066284,2.0560505390167236
1726995594922609000,0.72260888671875,2.002488136291504,-0.9595787525177002,1.9194437265396118
1726995594932595000,0.732594970703125,1.6655473709106445,-0.7272666692733765,1.6879268884658813
1726995594942581000,0.7425810546875,1.4804929494857788,-1.0774022340774536,1.4750932455062866
1726995594952566800,0.75256689453125,1.4561386108398438,-1.163090467453003,1.6266928911209106
1726995594962553000,0.762552978515625,1.8432908058166504,-1.525912880897522,1.8084402084350586
1726995594972539000,0.772538818359375,2.417999267578125,-2.0653817653656006,2.101264715194702
1726995594982525000,0.78252490234375,2.9814324378967285,-2.5082778930664062,2.5881686210632324
1726995594992511200,0.79251123046875,3.438690185546875,-2.8732285499572754,3.1748275756835938
1726995595002497300,0.802497314453125,3.4612984657287598,-2.923431158065796,3.663966178894043
1726995595012483000,0.812483154296875,3.2042438983917236,-2.694758653640747,3.9770565032958984
1726995595022469400,0.822469482421875,2.957108974456787,-2.179715394973755,4.019511699676514
1726995595032455200,0.832455078125,2.829315185546875,-2.272057056427002,3.9318008422851562
1726995595042441200,0.842441162109375,2.7552390098571777,-2.7397513389587402,3.813812255859375
1726995595052427000,0.852427001953125,2.937432289123535,-2.7609176635742188,3.6547045707702637
1726995595062413300,0.862413330078125,3.1666152477264404,-2.066843032836914,3.4489176273345947
1726995595072399000,0.872399169921875,3.458425283432007,-2.1407251358032227,3.395022392272949
1726995595082385200,0.88238525390625,3.7306435108184814,-2.3965389728546143,3.367553472518921
1726995595092371200,0.89237109375,4.032918453216553,-2.6290886402130127,3.3349664211273193
1726995595102356200,0.902356201171875,4.382542610168457,-2.624127149581909,3.1023526191711426
1726995595112342000,0.912342041015625,4.846856594085693,-2.3962666988372803,2.8934953212738037
1726995595122328300,0.922328369140625,5.098235130310059,-2.049882650375366,2.577796220779419
1726995595132314000,0.932314208984375,5.154564380645752,-1.7416495084762573,2.1048760414123535
1726995595142300200,0.942300048828125,5.1838812828063965,-1.8915398120880127,1.7274582386016846
1726995595152286000,0.952285888671875,5.473639011383057,-1.8733536005020142,1.3920533657073975
1726995595162272300,0.962272216796875,5.895890235900879,-1.7392386198043823,1.0770516395568848
1726995595172258000,0.972258056640625,5.580423831939697,-1.664799451828003,0.9599332809448242
1726995595182244000,0.982244140625,4.419256210327148,-1.2183222770690918,0.5682089924812317
1726995595192230100,0.992230224609375,3.0887610912323,-0.16850793361663818,-0.1856597363948822
1726995595202216200,1.00221630859375,2.111618995666504,0.7894195318222046,-1.0383951663970947
1726995595212202000,1.012201904296875,1.766798973083496,0.9442197680473328,-1.9661664962768555
1726995595222188300,1.022188232421875,1.796023964881897,0.5220043063163757,-2.6281514167785645
1726995595232174000,1.032174072265625,2.062967300415039,-0.1269659847021103,-2.8618323802948
1726995595242160000,1.04216015625,2.4269514083862305,-0.9991291165351868,-2.538602113723755
1726995595252146200,1.052146240234375,2.5464072227478027,-1.8110936880111694,-1.8349577188491821
1726995595262132200,1.06213232421875,1.991023063659668,-1.5254408121109009,-0.7137041687965393
1726995595272118000,1.072117919921875,0.660694420337677,-0.6882851123809814,0.199789360165596
1726995595282104300,1.082104248046875,-0.4727354645729065,-0.7038812041282654,1.0488287210464478
1726995595292090000,1.092090087890625,-0.5166056752204895,-1.1905618906021118,1.5038084983825684
1726995595302075100,1.1020751953125,-0.10804305970668793,-1.4220807552337646,1.1971169710159302
1726995595312061200,1.112061279296875,0.3689972758293152,-1.899865984916687,0.6870441436767578
1726995595322047200,1.122047119140625,0.7633489966392517,-2.6335718631744385,0.5513363480567932
1726995595332033300,1.132033203125,0.7003937363624573,-2.9330804347991943,0.39534807205200195
1726995595342019000,1.14201904296875,0.5268786549568176,-2.5070841312408447,0.22335286438465118
1726995595352005000,1.152005126953125,0.19832555949687958,-1.8506065607070923,-0.058181606233119965
1726995595361991200,1.1619912109375,-0.016969913616776466,-1.5000495910644531,0.15357504785060883
1726995595371977200,1.171977294921875,0.2066970020532608,-0.9379584789276123,0.2574697434902191
1726995595381963300,1.18196337890625,1.0356781482696533,-0.40845367312431335,0.13391974568367004
1726995595391949000,1.191948974609375,1.6846345663070679,-0.5863616466522217,0.269492506980896
1726995595401935000,1.20193505859375,1.843999981880188,-1.2070013284683228,0.6923171877861023
1726995595411921200,1.211921142578125,1.698455810546875,-2.077117919921875,1.1864105463027954
1726995595421907200,1.2219072265625,1.685442566871643,-2.520007848739624,1.8287897109985352
1726995595431893000,1.23189306640625,1.9603668451309204,-2.8497345447540283,2.4258580207824707
1726995595441879300,1.24187939453125,2.554352283477783,-2.5795507431030273,2.5229732990264893
1726995595451865000,1.251864990234375,3.620361804962158,-1.8811261653900146,2.429675817489624
1726995595461851100,1.26185107421875,4.430648326873779,-1.4275668859481812,2.5745110511779785
1726995595471837200,1.271837158203125,4.104106903076172,-0.8881672024726868,2.6089518070220947
1726995595481823200,1.2818232421875,2.647928237915039,-0.3975038230419159,2.463857412338257
1726995595491808300,1.291808349609375,0.5919861197471619,-0.08541678637266159,2.4010848999023438
1726995595501794000,1.3017939453125,-1.6003810167312622,-0.15223455429077148,2.22912335395813
1726995595511780400,1.3117802734375,-3.568915605545044,-0.37852761149406433,1.443670392036438
1726995595521766100,1.32176611328125,-3.8310673236846924,-0.7089970707893372,-0.3396686911582947
1726995595531752200,1.331752197265625,-2.6942036151885986,0.2637040913105011,-1.7061434984207153
1726995595541738200,1.34173828125,-3.209306478500366,0.6963026523590088,-2.9219260215759277
1726995595551724300,1.351724365234375,-3.530998706817627,1.401676058769226,-3.1720833778381348
1726995595561710000,1.3617099609375,-4.029751777648926,2.2900021076202393,-3.0353682041168213
1726995595571696400,1.3716962890625,-4.252549171447754,2.3647541999816895,-2.464121103286743
1726995595581682200,1.38168212890625,-3.8727056980133057,1.8034539222717285,-1.7226921319961548
1726995595591668200,1.391668212890625,-3.04620623588562,1.7434968948364258,-1.2161543369293213
1726995595601654000,1.401654052734375,-2.3110451698303223,2.1652591228485107,-1.2089070081710815
1726995595611640300,1.411640380859375,-1.8900834321975708,2.572446346282959,-1.2647866010665894
1726995595621626000,1.421626220703125,-1.4217404127120972,1.9458329677581787,-0.6843374371528625
1726995595631612200,1.431612060546875,-0.942987859249115,0.6842789649963379,0.32375186681747437
1726995595641598200,1.44159814453125,-1.063920259475708,-0.36493512988090515,1.0534560680389404
1726995595651584300,1.451584228515625,-0.45094260573387146,-0.9039397239685059,1.3347582817077637
1726995595661570000,1.461570068359375,-0.3223817050457001,-0.5723821520805359,1.1672831773757935
1726995595671556400,1.471556396484375,0.3864356577396393,-0.24175012111663818,1.1838748455047607
1726995595681542100,1.481542236328125,1.1270910501480103,-0.24114990234375,1.4280685186386108
1726995595691527200,1.491527099609375,1.4085335731506348,-0.27925705909729004,1.4563599824905396
1726995595701513000,1.501512939453125,1.651916265487671,-0.5786231160163879,1.5312938690185547
1726995595711499300,1.511499267578125,1.8678642511367798,-1.1071481704711914,1.3269327878952026
1726995595721485000,1.521485107421875,2.0043888092041016,-1.8471506834030151,0.9196410179138184
1726995595731471000,1.53147119140625,2.107379913330078,-2.23374342918396,0.5227745771408081
1726995595741457200,1.54145703125,2.1493194103240967,-2.2347588539123535,0.4840807616710663
1726995595751443200,1.551443115234375,2.1320672035217285,-2.1194908618927,0.22396795451641083
1726995595761429000,1.561428955078125,2.2256245613098145,-0.9985150098800659,0.002147667109966278
1726995595771415300,1.571415283203125,2.256368398666382,-0.4075600802898407,-0.4618074893951416
1726995595781401000,1.581401123046875,1.9296201467514038,-0.17804676294326782,-0.622437596321106
1726995595791387100,1.59138720703125,1.3173871040344238,0.4192667007446289,-0.6200093030929565
1726995595801373200,1.601373291015625,0.8140786290168762,0.6828648447990417,-0.5964747667312622
1726995595811359200,1.611359130859375,0.26150065660476685,0.803661584854126,-0.514365017414093
1726995595821345000,1.621344970703125,-0.3298876881599426,0.972385585308075,-0.28023794293403625
1726995595831331300,1.631331298828125,-0.6428623795509338,0.9208342432975769,0.09088259935379028
1726995595841317000,1.641317138671875,-0.8011584877967834,0.673244833946228,0.30556368827819824
1726995595851303200,1.65130322265625,-0.8943212032318115,0.5193175673484802,0.3876662850379944
1726995595861289200,1.661289306640625,-0.9999755620956421,0.5344247221946716,0.4008985459804535
1726995595871274200,1.671274169921875,-1.0910166501998901,0.6654141545295715,0.415313184261322
1726995595881260000,1.681260009765625,-1.0477125644683838,0.7312831282615662,0.3350335955619812
1726995595891246000,1.69124609375,-0.7982101440429688,0.6475397944450378,0.23314104974269867
1726995595901232000,1.701232177734375,-0.5720545053482056,0.590440571308136,0.12448873370885849
1726995595911218200,1.71121826171875,-0.39771568775177,0.41419127583503723,0.042854323983192444
1726995595921204000,1.721203857421875,-0.24170000851154327,0.12532992660999298,-0.012381207197904587
1726995595931190300,1.731190185546875,-0.06013474240899086,-0.08182511478662491,-0.056532423943281174
1726995595941176000,1.741176025390625,0.06180311366915703,-0.0859486535191536,-0.08625371754169464
1726995595951162000,1.751162109375,0.0879143476486206,-0.057010211050510406,-0.072141632437706
1726995595961148200,1.761148193359375,0.10998326539993286,-0.04801057651638985,-0.036529067903757095
1726995595971134200,1.77113427734375,0.13695204257965088,0.0052278777584433556,-0.012889515608549118
1726995595981120000,1.7811201171875,0.1723535805940628,0.06468840688467026,0.004270398989319801
1726995595991106600,1.7911064453125,0.16074138879776,0.09778644144535065,0.01881765015423298
1726995596001092400,1.80109228515625,0.10126424580812454,0.07608260959386826,0.05243423581123352
1726995596011078700,1.81107861328125,0.028461942449212074,0.0659032091498375,0.10721811652183533
1726995596021064400,1.821064453125,-0.018423069268465042,0.07723705470561981,0.14707104861736298
1726995596031050500,1.831050537109375,-0.030605167150497437,0.07622291892766953,0.15777775645256042
1726995596041036500,1.84103662109375,-0.010082751512527466,0.06903605163097382,0.15046030282974243
1726995596051022600,1.851022705078125,0.036127883940935135,0.08397745341062546,0.12976033985614777
1726995596061007600,1.861007568359375,0.09277350455522537,0.11856671422719955,0.09941501170396805
1726995596070993400,1.870993408203125,0.15479931235313416,0.14956830441951752,0.07637733966112137
1726995596080979700,1.880979736328125,0.1920607089996338,0.193979874253273,0.06951240450143814
1726995596090965500,1.890965576171875,0.1768260896205902,0.24138547480106354,0.06316129863262177
1726995596100951600,1.90095166015625,0.09292267262935638,0.27568912506103516,0.06829799711704254
1726995596110937600,1.9109375,-0.03623557463288307,0.33428239822387695,0.07202642410993576
1726995596120923400,1.92092333984375,-0.1669721007347107,0.3863619863986969,0.05864623188972473
1726995596130909400,1.930909423828125,-0.2547863721847534,0.4232185184955597,0.04460737854242325
1726995596140895500,1.9408955078125,-0.25811126828193665,0.4199628531932831,0.039309483021497726
1726995596150881500,1.950881591796875,-0.17550639808177948,0.41491401195526123,0.04205173999071121
1726995596160867300,1.960867431640625,-0.044369086623191833,0.4057392477989197,0.06545113027095795
1726995596170853600,1.970853515625,0.07099958509206772,0.40394508838653564,0.08758838474750519
1726995596180839400,1.98083935546875,0.12841089069843292,0.4095374047756195,0.10521352291107178
1726995596190825500,1.990825439453125,0.1360192745923996,0.4308256208896637,0.10498928278684616
1726995596200811300,2.000811279296875,0.09655128419399261,0.4473671317100525,0.08500219136476517
1726995596210797600,2.010797607421875,0.026446497067809105,0.4956427812576294,0.050572581589221954
1726995596220783400,2.020783447265625,-0.042450912296772,0.560474693775177,0.018608005717396736
1726995596230769400,2.030769287109375,-0.09257692843675613,0.5946292281150818,-0.015633320435881615
1726995596240755500,2.04075537109375,-0.12290079891681671,0.6322139501571655,-0.057134732604026794
1726995596250740500,2.050740478515625,-0.11827915161848068,0.7199909687042236,-0.07945921272039413
1726995596260726500,2.0607265625,-0.08844305574893951,0.7718233466148376,-0.08702322095632553
1726995596270712600,2.070712646484375,-0.04012586176395416,0.7852762937545776,-0.08671802282333374
1726995596280698600,2.08069873046875,0.005648323334753513,0.7713779211044312,-0.06943073868751526
1726995596290684400,2.090684326171875,0.03194703906774521,0.7192071080207825,-0.05788620561361313
1726995596300670500,2.10067041015625,0.048736751079559326,0.6425364017486572,-0.05483602359890938
1726995596310656500,2.110656494140625,0.07997855544090271,0.5470826029777527,-0.05569782108068466
1726995596320642600,2.120642578125,0.12448529154062271,0.4850388765335083,-0.08284009248018265
1726995596330628400,2.13062841796875,0.18031659722328186,0.46854883432388306,-0.12548822164535522
1726995596340614700,2.14061474609375,0.20365101099014282,0.49252215027809143,-0.16430573165416718
1726995596350600400,2.150600341796875,0.2014022320508957,0.5653875470161438,-0.17969587445259094
1726995596360586500,2.16058642578125,0.17935891449451447,0.6633512377738953,-0.17473581433296204
1726995596370572500,2.170572509765625,0.12688559293746948,0.7475178241729736,-0.17244017124176025
1726995596380558600,2.18055859375,0.05980007350444794,0.8106501698493958,-0.16942328214645386
1726995596390544400,2.19054443359375,-0.025368617847561836,0.8454794883728027,-0.1804402470588684
1726995596400530700,2.20053076171875,-0.12194273620843887,0.8925154209136963,-0.22127120196819305
1726995596410516500,2.2105166015625,-0.21939924359321594,0.9123637080192566,-0.2523566782474518
1726995596420502500,2.22050244140625,-0.2993517220020294,0.9560623168945312,-0.256817489862442
1726995596430488600,2.230488525390625,-0.3858850300312042,0.9632177352905273,-0.26206526160240173
1726995596440474600,2.240474609375,-0.4458999037742615,0.9767641425132751,-0.2403719425201416
1726995596450459400,2.25045947265625,-0.4781089723110199,0.9895763397216797,-0.21437975764274597
1726995596460445400,2.260445556640625,-0.4900674819946289,0.9750500321388245,-0.22304576635360718
1726995596470431500,2.270431396484375,-0.4760691225528717,0.9360334277153015,-0.24819239974021912
1726995596480417500,2.28041748046875,-0.4664327800273895,0.8450566530227661,-0.2401430606842041
1726995596490403300,2.2904033203125,-0.42233508825302124,0.7634190917015076,-0.22770264744758606
1726995596500389600,2.3003896484375,-0.3279927670955658,0.7067765593528748,-0.21108375489711761
1726995596510375400,2.31037548828125,-0.2157309353351593,0.6560449600219727,-0.16308720409870148
1726995596520361500,2.320361572265625,-0.08749786764383316,0.5765437483787537,-0.13497114181518555
1726995596530347500,2.330347412109375,0.07616323232650757,0.49375802278518677,-0.10603003203868866
1726995596540333600,2.34033349609375,0.2598094940185547,0.37052077054977417,-0.05325097590684891
1726995596550319400,2.3503193359375,0.4096442759037018,0.2269897162914276,0.026028135791420937
1726995596560305700,2.3603056640625,0.4851853549480438,0.06823275983333588,0.10539311915636063
1726995596570291500,2.37029150390625,0.5005688667297363,-0.046433642506599426,0.16680774092674255
1726995596580277500,2.380277587890625,0.48922890424728394,-0.14103534817695618,0.22236646711826324
1726995596590263600,2.390263671875,0.44991666078567505,-0.1952458620071411,0.28255975246429443
1726995596600249600,2.40024951171875,0.3997741937637329,-0.22323696315288544,0.3507170081138611
1726995596610235400,2.4102353515625,0.3337951898574829,-0.2507378160953522,0.4059531092643738
1726995596620221700,2.4202216796875,0.26785364747047424,-0.2790280282497406,0.4436277449131012
1726995596630207500,2.43020751953125,0.17253220081329346,-0.31907159090042114,0.4639788269996643
1726995596640193500,2.440193603515625,0.1464667171239853,-0.3090006113052368,0.446606308221817
1726995596650178600,2.450178466796875,0.1388508826494217,-0.3377733826637268,0.4196588397026062
1726995596660164600,2.46016455078125,0.10490003973245621,-0.3695492148399353,0.38464418053627014
1726995596670150400,2.470150390625,0.097246915102005,-0.36756542325019836,0.3618142604827881
1726995596680136400,2.480136474609375,0.1748969554901123,-0.3127129077911377,0.3657315969467163
1726995596690122500,2.49012255859375,0.3027830123901367,-0.21682152152061462,0.37642765045166016
1726995596700108500,2.500108642578125,0.4667808413505554,-0.10399769246578217,0.39243045449256897
1726995596710094300,2.51009423828125,0.5633720755577087,-0.011160162277519703,0.3936895728111267
1726995596720080600,2.52008056640625,0.5695350170135498,0.03430180624127388,0.40564143657684326
1726995596730066400,2.53006640625,0.5421510934829712,0.01422796305269003,0.454382061958313
1726995596740052500,2.540052490234375,0.5035330057144165,-0.10111475735902786,0.5538660287857056
1726995596750038300,2.550038330078125,0.4527758061885834,-0.29963237047195435,0.6329736113548279
1726995596760024600,2.560024658203125,0.3957168459892273,-0.47770991921424866,0.6515491008758545
1726995596770010400,2.57001025390625,0.36402708292007446,-0.5562739968299866,0.5847759246826172
1726995596779996400,2.579996337890625,0.3675583302974701,-0.5909174084663391,0.45553821325302124
1726995596789982500,2.589982421875,0.38033032417297363,-0.6134293675422668,0.31996601819992065
1726995596799968500,2.599968505859375,0.4036473333835602,-0.5463704466819763,0.22465135157108307
1726995596809954300,2.609954345703125,0.4544602036476135,-0.33952778577804565,0.1997252255678177
1726995596819940600,2.619940673828125,0.5995661020278931,-0.06439711898565292,0.22768425941467285
1726995596829926400,2.629926513671875,0.7202975749969482,0.13007064163684845,0.25033819675445557
1726995596839911400,2.639911376953125,0.7745460271835327,0.21601615846157074,0.29022276401519775
1726995596849897500,2.6498974609375,0.7530285120010376,0.25943687558174133,0.3492887318134308
1726995596859883500,2.659883544921875,0.7031733989715576,0.34894996881484985,0.4067270755767822
1726995596869869600,2.66986962890625,0.6835736036300659,0.4718942642211914,0.4307253658771515
1726995596879855400,2.67985546875,0.6664364337921143,0.4875945448875427,0.4744125306606293
1726995596889841700,2.689841552734375,0.6845704317092896,0.44306862354278564,0.5856077671051025
1726995596899827500,2.699827392578125,0.8203262090682983,0.4858241081237793,0.648650586605072
1726995596909813500,2.7098134765625,1.008696436882019,0.5953540802001953,0.6856802701950073
1726995596919799600,2.719799560546875,1.2183334827423096,0.7115731239318848,0.6592142581939697
1726995596929785600,2.72978564453125,1.3718290328979492,0.6957377195358276,0.6115759015083313
1726995596939771400,2.739771484375,1.3674696683883667,0.4475932717323303,0.6206851005554199
1726995596949757700,2.7497578125,1.2149649858474731,0.09677081555128098,0.6896702647209167
1726995596959743500,2.759743408203125,0.9401923418045044,-0.3195202052593231,0.7849912047386169
1726995596969729500,2.7697294921875,0.5773872137069702,-0.7327042818069458,0.8589045405387878
1726995596979715600,2.779715576171875,0.18107163906097412,-1.060947299003601,0.919670581817627
1726995596989701600,2.78970166015625,-0.1884443461894989,-1.2457597255706787,1.0255423784255981
1726995596999687400,2.7996875,-0.46276792883872986,-1.2370796203613281,1.1247014999389648
1726995597009673500,2.809673583984375,-0.661461591720581,-1.1083327531814575,1.1994104385375977
1726995597019659500,2.819659423828125,-0.7698104977607727,-0.9642791748046875,1.1957448720932007
1726995597029645600,2.8296455078125,-0.8038336634635925,-0.8761759400367737,1.1584209203720093
1726995597039631600,2.839631591796875,-0.7618669867515564,-0.783920168876648,1.0728614330291748
1726995597049616600,2.84961669921875,-0.6456892490386963,-0.6787876486778259,0.9734171628952026
1726995597059602400,2.8596025390625,-0.4893263280391693,-0.6081246137619019,0.9115784168243408
1726995597069588500,2.86958837890625,-0.25724488496780396,-0.6803228855133057,0.778944730758667
1726995597079574500,2.879574462890625,-0.0987238809466362,-0.856261670589447,0.5932043790817261
1726995597089560600,2.889560546875,-0.043680597096681595,-1.0029957294464111,0.427905410528183
1726995597099546400,2.89954638671875,-0.08125375211238861,-1.0231114625930786,0.2886064052581787
1726995597109532700,2.90953271484375,-0.16557767987251282,-0.9380303025245667,0.1475187987089157
1726995597119518500,2.9195185546875,-0.2806858718395233,-0.8386121988296509,0.05822930857539177
1726995597129504500,2.92950439453125,-0.3796055316925049,-0.7100875377655029,0.0006738705560564995
1726995597139490600,2.939490478515625,-0.4451296627521515,-0.5396060347557068,-0.058656033128499985
1726995597149476600,2.9494765625,-0.48378464579582214,-0.3471015989780426,-0.10059096664190292
1726995597159462400,2.95946240234375,-0.46731895208358765,-0.1394912451505661,-0.11049027740955353
1726995597169448700,2.96944873046875,-0.44236937165260315,0.026757655665278435,-0.09851910173892975
1726995597179434500,2.9794345703125,-0.42392614483833313,0.09915599226951599,-0.1175176277756691
1726995597189420500,2.989420654296875,-0.426734983921051,0.09672931581735611,-0.1732996702194214
1726995597199406300,2.99940625,-0.4523623287677765,0.08201292157173157,-0.2533789277076721
1726995597209392600,3.009392578125,-0.4890100955963135,0.0596008263528347,-0.3265940248966217
1726995597219378400,3.01937841796875,-0.49146199226379395,0.044145673513412476,-0.4036664068698883
1726995597229364500,3.029364501953125,-0.4517790377140045,0.04022204130887985,-0.46527570486068726
1726995597239350500,3.0393505859375,-0.39419540762901306,0.06435034424066544,-0.5210738778114319
1726995597249336600,3.049336669921875,-0.34078463912010193,0.084509938955307,-0.584065318107605
1726995597259321300,3.0593212890625,-0.3155154883861542,0.08757435530424118,-0.6420996189117432
1726995597269307600,3.0693076171875,-0.3329296410083771,0.0443832091987133,-0.6804994344711304
1726995597279293400,3.07929345703125,-0.3509522080421448,0.02373235672712326,-0.6925186514854431
1726995597289279500,3.089279541015625,-0.3012661635875702,-0.015968717634677887,-0.6766259670257568
1726995597299265300,3.099265380859375,-0.2674241364002228,-0.09266231209039688,-0.6332874894142151
1726995597309251600,3.10925146484375,-0.33738404512405396,-0.1377783864736557,-0.5676341652870178
1726995597319237400,3.1192373046875,-0.39740845561027527,-0.14758189022541046,-0.4547268748283386
1726995597329223400,3.129223388671875,-0.357788622379303,-0.10614656656980515,-0.34134384989738464
1726995597339209500,3.13920947265625,-0.24726387858390808,-0.018494591116905212,-0.35465773940086365
1726995597349195500,3.149195556640625,-0.1438799649477005,0.046296920627355576,-0.4671187698841095
1726995597359181300,3.159181396484375,-0.12172252684831619,0.19237366318702698,-0.5702844858169556
1726995597369167600,3.169167724609375,-0.17578336596488953,0.32645902037620544,-0.6408076882362366
1726995597379153400,3.1791533203125,-0.2833332121372223,0.39574918150901794,-0.6551468968391418
1726995597389139500,3.189139404296875,-0.39956048130989075,0.43827933073043823,-0.6220555305480957
1726995597399125500,3.19912548828125,-0.49443188309669495,0.4466114342212677,-0.5532185435295105
1726995597409111600,3.209111572265625,-0.5801592469215393,0.4433538615703583,-0.48398515582084656
1726995597419097300,3.219097412109375,-0.6260737180709839,0.45227545499801636,-0.40746867656707764
1726995597429083600,3.229083740234375,-0.6455174088478088,0.46239838004112244,-0.36345353722572327
1726995597439069400,3.2390693359375,-0.6514097452163696,0.43250197172164917,-0.3527381122112274
1726995597449055500,3.249055419921875,-0.6550140380859375,0.36107465624809265,-0.34105294942855835
1726995597459041500,3.25904150390625,-0.6253926157951355,0.30817002058029175,-0.3123794496059418
1726995597469026600,3.269026611328125,-0.5661348700523376,0.27384987473487854,-0.2774009704589844
1726995597479012600,3.2790126953125,-0.4747004508972168,0.25693801045417786,-0.21951079368591309
1726995597488998400,3.288998291015625,-0.3615643084049225,0.2333109974861145,-0.13256630301475525
1726995597498984400,3.298984375,-0.2761269807815552,0.15476703643798828,-0.014050250872969627
1726995597508970500,3.308970458984375,-0.21201086044311523,0.03577833250164986,0.1355602890253067
1726995597518956500,3.31895654296875,-0.18286941945552826,-0.10749945789575577,0.30370578169822693
1726995597528942600,3.328942626953125,-0.1934743970632553,-0.19560295343399048,0.44672712683677673
1726995597538928400,3.338928466796875,-0.23415641486644745,-0.19214218854904175,0.5263301134109497
1726995597548914400,3.34891455078125,-0.30200016498565674,-0.1322692632675171,0.5381425619125366
1726995597558900500,3.358900390625,-0.3524988293647766,-0.01832093857228756,0.5209779143333435
1726995597568886500,3.368886474609375,-0.3906534016132355,0.09419947862625122,0.489499568939209
1726995597578872300,3.378872314453125,-0.3929254114627838,0.11844752728939056,0.4408777952194214
1726995597588858600,3.388858642578125,-0.31715208292007446,0.0592007078230381,0.402617484331131
1726995597598844400,3.398844482421875,-0.2067612260580063,-0.00997560378164053,0.4000963270664215
1726995597608830500,3.40883056640625,-0.09512656927108765,-0.08606158941984177,0.4132288992404938
1726995597618816500,3.41881640625,-0.011733410879969597,-0.1464117467403412,0.4452528655529022
1726995597628802600,3.428802490234375,0.012729055248200893,-0.17543061077594757,0.47915706038475037
1726995597638788400,3.438788330078125,-0.027613405138254166,-0.17479166388511658,0.4969165027141571
1726995597648774400,3.4487744140625,-0.13678383827209473,-0.15532875061035156,0.5045565962791443
1726995597658760400,3.458760498046875,-0.27708205580711365,-0.10761205852031708,0.5145167708396912
1726995597668746500,3.46874658203125,-0.36141982674598694,-0.05474990978837013,0.5225816369056702
1726995597678731500,3.4787314453125,-0.3247949182987213,-0.04514641314744949,0.5300539135932922
1726995597688717600,3.488717529296875,-0.22039823234081268,-0.09226865321397781,0.5055029988288879
1726995597698703600,3.49870361328125,-0.10065890103578568,-0.1627911776304245,0.44832736253738403
1726995597708689400,3.508689453125,-0.0194692425429821,-0.23894400894641876,0.3672463595867157
1726995597718675700,3.51867578125,-0.017359869554638863,-0.28628894686698914,0.30066558718681335
1726995597728661500,3.52866162109375,-0.09574868530035019,-0.24261285364627838,0.2554033100605011
1726995597738647600,3.5386474609375,-0.24862855672836304,-0.10376431792974472,0.22512778639793396
1726995597748633300,3.54863330078125,-0.41095808148384094,0.12666648626327515,0.21209241449832916
1726995597758619600,3.55861962890625,-0.5678601861000061,0.2809954881668091,0.15597936511039734
1726995597768605400,3.56860546875,-0.6580838561058044,0.36036887764930725,0.10296088457107544
1726995597778591500,3.578591552734375,-0.6724516749382019,0.4284033179283142,0.08566047996282578
1726995597788577500,3.58857763671875,-0.6365285515785217,0.5385404825210571,0.12037185579538345
1726995597798563600,3.5985634765625,-0.5652601718902588,0.5940616726875305,0.15975862741470337
1726995597808549400,3.60854931640625,-0.49832242727279663,0.6599647998809814,0.16076502203941345
1726995597818535700,3.61853564453125,-0.5578683614730835,0.8930222392082214,0.21899032592773438
1726995597828521500,3.628521484375,-0.7890365719795227,1.3040223121643066,0.3716927766799927
1726995597838507500,3.638507568359375,-1.1305371522903442,1.7151368856430054,0.5389710664749146
1726995597848493600,3.64849365234375,-1.542779564857483,2.002516031265259,0.625229001045227
1726995597858479600,3.658479736328125,-1.9462733268737793,2.2794501781463623,0.6681452989578247
1726995597868465400,3.66846533203125,-2.3468918800354004,2.4071896076202393,0.7199409008026123
1726995597878451700,3.67845166015625,-2.689526319503784,2.2362663745880127,0.7109229564666748
1726995597888437500,3.6884375,-3.0449695587158203,1.8299164772033691,0.6642997860908508
1726995597898422500,3.698422607421875,-3.2300069332122803,1.3092819452285767,0.5954017043113708
1726995597908408300,3.708408203125,-3.146397829055786,0.7422142028808594,0.49742427468299866
1726995597918394600,3.71839453125,-2.8571701049804688,0.23102831840515137,0.37588557600975037
1726995597928380400,3.72838037109375,-2.390514612197876,-0.26465409994125366,0.19690892100334167
1726995597938366500,3.738366455078125,-1.8549119234085083,-0.5943790674209595,-0.05826844647526741
1726995597948352500,3.7483525390625,-1.3877679109573364,-0.5919374823570251,-0.32827678322792053
1726995597958338600,3.758338623046875,-1.0110288858413696,-0.3213564455509186,-0.6189631819725037
1726995597968324400,3.768324462890625,-0.7410847544670105,-0.022071748971939087,-0.8466437458992004
1726995597978310700,3.778310546875,-0.5512476563453674,0.16647771000862122,-0.9893328547477722
1726995597988295700,3.788295654296875,-0.37922391295433044,0.2619169056415558,-1.0222535133361816
1726995597998281700,3.79828173828125,-0.2705051004886627,0.2372494488954544,-0.9194260835647583
1726995598008267500,3.808267578125,-0.14473463594913483,0.1678892821073532,-0.7760921120643616
1726995598018253800,3.81825390625,0.008119906298816204,0.16023921966552734,-0.5947611927986145
1726995598028239600,3.828239501953125,0.23975472152233124,0.23211288452148438,-0.4025629758834839
1726995598038225700,3.8382255859375,0.502295970916748,0.269349068403244,-0.21250730752944946
1726995598048211700,3.848211669921875,0.7465727925300598,0.17214234173297882,-0.019957033917307854
1726995598058197800,3.85819775390625,0.9770557880401611,-0.00703257042914629,0.18514950573444366
1726995598068183600,3.86818359375,1.2076115608215332,-0.29345688223838806,0.3360021412372589
1726995598078169900,3.878169921875,1.405885100364685,-0.6848331093788147,0.4724633991718292
1726995598088155600,3.88815576171875,1.5555180311203003,-1.0980521440505981,0.590199887752533
1726995598098141700,3.8981416015625,1.6346714496612549,-1.4173129796981812,0.7377313375473022
1726995598108127700,3.908127685546875,1.6304359436035156,-1.6187347173690796,0.9042716026306152
1726995598118112800,3.91811279296875,1.55854332447052,-1.7716095447540283,1.042026162147522
1726995598128098800,3.928098876953125,1.4439349174499512,-1.879844069480896,1.1561384201049805
1726995598138084600,3.938084716796875,1.3297077417373657,-1.9310023784637451,1.2318414449691772
1726995598148071000,3.94807080078125,1.2043713331222534,-1.9176697731018066,1.2554447650909424
1726995598158056700,3.958056640625,1.0715088844299316,-1.7902910709381104,1.2348002195358276
1726995598168042800,3.968042724609375,0.9374762177467346,-1.621687650680542,1.1816892623901367
1726995598178028800,3.97802880859375,0.8059394359588623,-1.458540916442871,1.1037259101867676
1726995598188014800,3.988014892578125,0.7085428833961487,-1.3393772840499878,1.0052374601364136
1726995598198000600,3.998000732421875,0.6593382954597473,-1.2656522989273071,0.8648165464401245
1726995598207987000,4.007987060546875,0.7102445960044861,-1.2144498825073242,0.6918178796768188
1726995598217972700,4.01797265625,0.7626274824142456,-1.1378710269927979,0.436877578496933
1726995598227958800,4.027958740234375,0.7369940280914307,-0.9474172592163086,0.19036342203617096
1726995598237944800,4.03794482421875,0.5979442596435547,-0.7258352041244507,-0.013662692159414291
1726995598247931000,4.047930908203125,0.3805898427963257,-0.588782787322998,-0.18418677151203156
1726995598257916700,4.057916748046875,0.1476321965456009,-0.4624771773815155,-0.34063711762428284
1726995598267903000,4.067903076171875,-0.023767247796058655,-0.3588349521160126,-0.4400177597999573
1726995598277888800,4.077888671875,-0.12080130726099014,-0.33930504322052,-0.4908525049686432
1726995598287874800,4.087874755859375,-0.10624659806489944,-0.37283262610435486,-0.528643012046814
1726995598297860900,4.09786083984375,-0.07869307696819305,-0.5260241627693176,-0.5521553754806519
1726995598307847000,4.107846923828125,0.010249575600028038,-0.6946374177932739,-0.5758486986160278
1726995598317832700,4.117832763671875,0.09732455015182495,-0.766435980796814,-0.6495752334594727
1726995598327818800,4.12781884765625,0.09569203108549118,-0.7857980132102966,-0.6843814253807068
1726995598337803800,4.1378037109375,0.05206526443362236,-0.751583456993103,-0.7146537899971008
1726995598347789800,4.147789794921875,0.019732093438506126,-0.6612032651901245,-0.7273889780044556
1726995598357775600,4.157775634765625,0.04190880060195923,-0.6079443693161011,-0.6471238136291504
1726995598367762000,4.167761962890625,0.09021454304456711,-0.6048601865768433,-0.4797593355178833
1726995598377747700,4.177747802734375,0.12155449390411377,-0.5929572582244873,-0.26360493898391724
1726995598387733800,4.187733642578125,0.1024327278137207,-0.4983852207660675,-0.03846849873661995
1726995598397719800,4.1977197265625,-0.002450104570016265,-0.4356895983219147,0.19025646150112152
1726995598407705900,4.207705810546875,-0.2314840853214264,-0.3973539173603058,0.42313098907470703
1726995598417691600,4.217691650390625,-0.39408645033836365,-0.3244924247264862,0.6484353542327881
1726995598427678000,4.227677978515625,-0.4331883192062378,-0.26038026809692383,0.8340368866920471
1726995598437663700,4.237663818359375,-0.4226967990398407,-0.18732649087905884,1.104488730430603
1726995598447649800,4.24764990234375,-0.42177268862724304,0.04730065539479256,1.2030384540557861
1726995598457635600,4.257635498046875,-0.4491862952709198,0.25515836477279663,1.2834233045578003
1726995598467622000,4.267621826171875,-0.481334924697876,0.41675257682800293,1.3078922033309937
1726995598477607700,4.277607666015625,-0.5031091570854187,0.4837208092212677,1.2899750471115112
1726995598487593700,4.28759375,-0.5262136459350586,0.4698079228401184,1.2150081396102905
1726995598497579800,4.297579833984375,-0.5386312007904053,0.4253353774547577,1.1055485010147095
1726995598507565800,4.30756591796875,-0.49237391352653503,0.38517171144485474,0.9425066113471985
1726995598517551600,4.317551513671875,-0.39168745279312134,0.35940325260162354,0.7452632188796997
1726995598527538000,4.327537841796875,-0.2471632957458496,0.3092176020145416,0.5255463123321533
1726995598537523700,4.337523681640625,-0.08505699783563614,0.24960169196128845,0.3278534412384033
1726995598547509800,4.347509765625,0.039132602512836456,0.16168302297592163,0.16764619946479797
1726995598557494500,4.35749462890625,0.14550818502902985,0.03636683523654938,0.03333034738898277
1726995598567480800,4.367480712890625,0.24090634286403656,-0.12212587147951126,-0.08912952244281769
1726995598577466600,4.377466552734375,0.3025892376899719,-0.265207976102829,-0.193011075258255
1726995598587452700,4.38745263671875,0.33463504910469055,-0.2750329077243805,-0.26611191034317017
1726995598597438700,4.397438720703125,0.31915679574012756,-0.1516491323709488,-0.32045623660087585
1726995598607424800,4.4074248046875,0.25034764409065247,0.022857431322336197,-0.38470497727394104
1726995598617410600,4.41741064453125,0.17318855226039886,0.16607429087162018,-0.45825761556625366
1726995598627396900,4.42739697265625,0.10037827491760254,0.2739299237728119,-0.5168138742446899
1726995598637382700,4.437382568359375,0.031221259385347366,0.3195739984512329,-0.5504472851753235
1726995598647368700,4.44736865234375,-0.011251633986830711,0.32224541902542114,-0.5229917168617249
1726995598657354800,4.457354736328125,-0.004628688562661409,0.28864142298698425,-0.43818095326423645
1726995598667340800,4.4673408203125,0.06524999439716339,0.2258150577545166,-0.310970276594162
1726995598677326600,4.47732666015625,0.17897149920463562,0.16288642585277557,-0.2005028873682022
1726995598687313000,4.48731298828125,0.31185096502304077,0.09509191662073135,-0.1323789656162262
1726995598697298700,4.497298583984375,0.41807499527931213,0.04849155247211456,-0.09530860930681229
1726995598707284700,4.50728466796875,0.4795503318309784,0.010939382016658783,-0.04370773583650589
1726995598717270800,4.517270751953125,0.5111414194107056,-0.013667025603353977,0.02245132252573967
1726995598727256800,4.5272568359375,0.5206566452980042,-0.021629344671964645,0.09427278488874435
1726995598737242600,4.53724267578125,0.5152527093887329,-0.014644378796219826,0.12493209540843964
1726995598747229000,4.54722900390625,0.49758851528167725,-0.026189448311924934,0.10897284001111984
1726995598757214700,4.557214599609375,0.4895666241645813,-0.047664083540439606,0.07836959511041641
1726995598767200800,4.56720068359375,0.464114785194397,-0.08222845196723938,0.0393846370279789
1726995598777186800,4.577186767578125,0.38543030619621277,-0.1505788415670395,-0.005164798349142075
1726995598787172900,4.5871728515625,0.2473088949918747,-0.23344655334949493,-0.030143653973937035
1726995598797158700,4.59715869140625,0.08957225829362869,-0.32023879885673523,-0.022899996489286423
1726995598807143700,4.607143798828125,-0.05661903694272041,-0.3933771848678589,0.023239800706505775
1726995598817129700,4.617129638671875,-0.15997132658958435,-0.47208186984062195,0.08921383321285248
1726995598827115800,4.62711572265625,-0.2079218029975891,-0.5539308786392212,0.15307962894439697
1726995598837101800,4.637101806640625,-0.21644321084022522,-0.6214412450790405,0.22895033657550812
1726995598847087900,4.647087890625,-0.198545441031456,-0.6444402933120728,0.30899935960769653
1726995598857073700,4.65707373046875,-0.18327726423740387,-0.6243329048156738,0.40124112367630005
1726995598867059700,4.667059814453125,-0.19271232187747955,-0.5808501243591309,0.5165637731552124
1726995598877045800,4.677045654296875,-0.23025144636631012,-0.5441299676895142,0.6371906399726868
1726995598887031800,4.68703173828125,-0.2920181453227997,-0.5050123929977417,0.7473672032356262
1726995598897017600,4.697017578125,-0.3736302852630615,-0.49223244190216064,0.8319583535194397
1726995598907003600,4.707003662109375,-0.469417005777359,-0.47670888900756836,0.8872993588447571
1726995598916989700,4.71698974609375,-0.5769644379615784,-0.4428054690361023,0.9290009140968323
1726995598926975700,4.726975830078125,-0.6918697357177734,-0.40227243304252625,0.973475456237793
1726995598936961500,4.73696142578125,-0.8115967512130737,-0.37049400806427,1.0209591388702393
1726995598946947800,4.74694775390625,-0.8887498378753662,-0.333474725484848,1.067736268043518
1726995598956933600,4.75693359375,-0.9153021574020386,-0.3275965750217438,1.0885149240493774
1726995598966919700,4.766919677734375,-0.8746857643127441,-0.3349466323852539,1.0918859243392944
1726995598976905700,4.77690576171875,-0.8052321672439575,-0.3317612409591675,1.0784127712249756
1726995598986891800,4.786891845703125,-0.7224555611610413,-0.31927767395973206,1.0409817695617676
1726995598996877800,4.7968779296875,-0.6335660815238953,-0.29170405864715576,0.9946359992027283
1726995599006864000,4.80686376953125,-0.549301266670227,-0.2590632736682892,0.929732620716095
1726995599016849700,4.816849609375,-0.48392194509506226,-0.23256973922252655,0.8175656199455261
1726995599026835700,4.826835693359375,-0.43698906898498535,-0.21640647947788239,0.6724699139595032
1726995599036821800,4.83682177734375,-0.3964061737060547,-0.18373845517635345,0.5222964882850647
1726995599046807800,4.846807861328125,-0.3605264723300934,-0.14096249639987946,0.3616708517074585
1726995599056793600,4.856793701171875,-0.3280853033065796,-0.10138751566410065,0.1937715858221054
1726995599066779000,4.86677880859375,-0.29824990034103394,-0.04178224131464958,0.017293760553002357
1726995599076765000,4.876764892578125,-0.24779954552650452,0.061159662902355194,-0.14721278846263885
1726995599086750700,4.886750732421875,-0.17941009998321533,0.17162412405014038,-0.29139554500579834
1726995599096737000,4.896737060546875,-0.11656873673200607,0.22643128037452698,-0.3804507553577423
1726995599106722800,4.906722900390625,-0.07217810302972794,0.24595117568969727,-0.41257354617118835
1726995599116708900,4.916708984375,-0.04181826114654541,0.24521738290786743,-0.3869483768939972
1726995599126694700,4.926694580078125,-0.015189046040177345,0.23209625482559204,-0.31316789984703064
1726995599136681000,4.936680908203125,0.029668515548110008,0.20441070199012756,-0.22964778542518616
1726995599146666800,4.946666748046875,0.09334921836853027,0.20629143714904785,-0.14690975844860077
1726995599156652800,4.95665283203125,0.15098345279693604,0.24793663620948792,-0.08768961578607559
1726995599166638800,4.966638916015625,0.18279358744621277,0.29962432384490967,-0.07982263714075089
1726995599176625000,4.976625,0.17069725692272186,0.3862974941730499,-0.11199773848056793
1726995599186610700,4.986610595703125,0.13508759438991547,0.5384148955345154,-0.12572526931762695
1726995599196596700,4.9965966796875,0.11328329890966415,0.6868639588356018,-0.09727437794208527
1726995599206582800,5.006582763671875,0.12112018465995789,0.7892297506332397,-0.008771941065788269
1726995599216568800,5.01656884765625,0.15174581110477448,0.8434616327285767,0.11960142105817795
1726995599226555000,5.026554931640625,0.19868269562721252,0.8812241554260254,0.22849594056606293
1726995599236540700,5.036540771484375,0.25028523802757263,0.8731245994567871,0.2619132101535797
1726995599246526700,5.046526611328125,0.2592483460903168,0.9248762130737305,0.2451118528842926
1726995599256512800,5.0565126953125,0.26832789182662964,1.061317801475525,0.15873676538467407
1726995599266498800,5.066498779296875,0.2950234115123749,1.1970988512039185,0.07940039783716202
1726995599276484600,5.076484619140625,0.3631865382194519,1.237957239151001,0.012466688640415668
1726995599286471000,5.086470947265625,0.44290798902511597,1.2220522165298462,-0.005376224406063557
1726995599296456700,5.096456787109375,0.584059476852417,1.1909629106521606,0.005089579150080681
1726995599306442800,5.10644287109375,0.7904747128486633,1.125231385231018,0.06337685137987137
1726995599316428800,5.1164287109375,1.0513970851898193,0.9461116194725037,0.1504553258419037
1726995599326414800,5.126414794921875,1.3076754808425903,0.7108093500137329,0.232622891664505
1726995599336400600,5.136400634765625,1.5275274515151978,0.44927775859832764,0.36437392234802246
1726995599346385700,5.1463857421875,1.6650142669677734,0.27256157994270325,0.5347206592559814
1726995599356372700,5.156372802734375,1.7343448400497437,0.17676354944705963,0.6783513426780701
1726995599366357800,5.166357666015625,1.74894380569458,0.03622613847255707,0.6975697875022888
1726995599376343800,5.17634375,1.6678870916366577,-0.20414035022258759,0.7107411026954651
1726995599386329900,5.186329833984375,1.516247034072876,-0.47351136803627014,0.7210369110107422
1726995599396316000,5.19631591796875,1.3361533880233765,-0.7049303650856018,0.7376231551170349
1726995599406301700,5.2063017578125,1.1122459173202515,-0.9069982767105103,0.6968022584915161
1726995599416288000,5.2162880859375,0.8788536787033081,-1.0142747163772583,0.6988753080368042
1726995599426273800,5.226273681640625,0.6296944618225098,-0.9821157455444336,0.7235750555992126
1726995599436259800,5.236259765625,0.36543312668800354,-0.8029605746269226,0.7567151188850403
1726995599446246000,5.246245849609375,0.12572705745697021,-0.5389859080314636,0.7941338419914246
1726995599456232000,5.25623193359375,0.00865783542394638,-0.2702554762363434,0.8011840581893921
1726995599466217700,5.2662177734375,-0.11860371381044388,-0.10311230272054672,0.8234691023826599
1726995599476203800,5.276203857421875,-0.29013893008232117,0.03846210986375809,0.8419793844223022
1726995599486189800,5.28618994140625,-0.48056721687316895,0.10227038711309433,0.83608078956604
1726995599496175900,5.29617578125,-0.5996822714805603,0.15467798709869385,0.7193714380264282
1726995599506161700,5.30616162109375,-0.6168580651283264,0.3344653248786926,0.48459991812705994
1726995599516148000,5.31614794921875,-0.5666905641555786,0.5445747375488281,0.21986953914165497
1726995599526133800,5.3261337890625,-0.4914596676826477,0.7178535461425781,-0.032473765313625336
1726995599536119800,5.336119873046875,-0.43475979566574097,0.8038370609283447,-0.2641642987728119
1726995599546105900,5.34610595703125,-0.39768728613853455,0.8396259546279907,-0.4637322723865509
1726995599556092000,5.356091796875,-0.38164347410202026,0.8370922803878784,-0.6257469058036804
1726995599566077700,5.36607763671875,-0.37993133068084717,0.8204376697540283,-0.7304456233978271
1726995599576063700,5.376063720703125,-0.40012991428375244,0.8235636353492737,-0.8070411086082458
1726995599586049800,5.3860498046875,-0.4278888404369354,0.8194013833999634,-0.8527873158454895
1726995599596035800,5.396035888671875,-0.4622719883918762,0.7859714031219482,-0.8962934613227844
1726995599606022000,5.40602197265625,-0.4699472188949585,0.7963089942932129,-0.9143382906913757
1726995599616007700,5.416007568359375,-0.5455203652381897,0.7283549904823303,-0.9779724478721619
1726995599625993700,5.42599365234375,-0.6177244782447815,0.6784971356391907,-1.0330629348754883
1726995599635979800,5.435979736328125,-0.6672636866569519,0.6708510518074036,-1.074853777885437
1726995599645965800,5.4459658203125,-0.6752672791481018,0.6780838966369629,-1.0894804000854492
1726995599655951600,5.45595166015625,-0.6644527912139893,0.6363303065299988,-1.0610487461090088
1726995599665938000,5.46593798828125,-0.6417674422264099,0.5169210433959961,-1.0187928676605225
1726995599675923700,5.475923828125,-0.6152423620223999,0.34067705273628235,-0.9624801278114319
1726995599685909800,5.48590966796875,-0.6151171922683716,0.18270979821681976,-0.9063082337379456
1726995599695894800,5.495894775390625,-0.637054979801178,0.08200135827064514,-0.8266198635101318
1726995599705880800,5.505880859375,-0.6643757820129395,-0.010911276564002037,-0.7677956819534302
1726995599715867000,5.515866943359375,-0.6751431226730347,-0.06674443930387497,-0.7489194869995117
1726995599725852700,5.525852783203125,-0.6944230794906616,-0.09747305512428284,-0.7587377429008484
1726995599735839000,5.5358388671875,-0.7412236332893372,-0.08843296021223068,-0.765474796295166
1726995599745824800,5.54582470703125,-0.7772210240364075,-0.0964440107345581,-0.7180632948875427
1726995599755810800,5.555810791015625,-0.7618914246559143,-0.12259626388549805,-0.6067790985107422
1726995599765796900,5.565796875,-0.6969050168991089,-0.1205698624253273,-0.4489743113517761
1726995599775783000,5.575782958984375,-0.569004476070404,-0.15706217288970947,-0.3043234944343567
1726995599785768700,5.585768798828125,-0.38698437809944153,-0.20357002317905426,-0.2323334515094757
1726995599795755000,5.595755126953125,-0.1686999350786209,-0.28279241919517517,-0.24226568639278412
1726995599805740800,5.60574072265625,0.05723492056131363,-0.398466557264328,-0.2976336181163788
1726995599815726800,5.615726806640625,0.2620585560798645,-0.5241436958312988,-0.3414697051048279
1726995599825712600,5.625712646484375,0.42919883131980896,-0.6444788575172424,-0.3714848458766937
1726995599835699000,5.635698974609375,0.5663699507713318,-0.7391548752784729,-0.3966604471206665
1726995599845684700,5.645684814453125,0.6504078507423401,-0.7888057827949524,-0.39209046959877014
1726995599855670800,5.6556708984375,0.6897109150886536,-0.7367839813232422,-0.3687707185745239
1726995599865656800,5.66565673828125,0.7039740085601807,-0.6305265426635742,-0.35889706015586853
1726995599875643000,5.675642822265625,0.7212026119232178,-0.5317736864089966,-0.4208626449108124
1726995599885628700,5.685628662109375,0.7180206775665283,-0.42625555396080017,-0.5108569860458374
1726995599895615000,5.695614990234375,0.707611083984375,-0.3011200428009033,-0.6294373869895935
1726995599905600800,5.705600830078125,0.7183727025985718,-0.1874116063117981,-0.7592265605926514
1726995599915586800,5.7155869140625,0.7432270646095276,-0.11206250637769699,-0.8780127763748169
1726995599925572900,5.72557275390625,0.7820248007774353,-0.09680844843387604,-0.9886436462402344
1726995599935559000,5.735558837890625,0.7624542713165283,-0.14146867394447327,-1.015754222869873
1726995599945544700,5.745544677734375,0.725784420967102,-0.21028155088424683,-1.014929175376892
1726995599955531000,5.755531005859375,0.6981423497200012,-0.24529533088207245,-1.0465481281280518
1726995599965516800,5.765516845703125,0.6583248972892761,-0.24848046898841858,-1.0693408250808716
1726995599975502800,5.7755029296875,0.6325894594192505,-0.18202191591262817,-1.0533126592636108
1726995599985489000,5.785489013671875,0.6154810190200806,-0.03979313001036644,-1.0288193225860596
1726995599995475000,5.795474853515625,0.5828911662101746,0.12523463368415833,-0.9809508919715881
1726995600005461200,5.805461181640625,0.5466415286064148,0.2841728925704956,-0.911018967628479
1726995600015447000,5.815447021484375,0.4869290590286255,0.41364580392837524,-0.8572096824645996
1726995600025433000,5.82543310546875,0.42502546310424805,0.4881932735443115,-0.8477975130081177
1726995600035419100,5.835419189453125,0.3915853202342987,0.5538384318351746,-0.8645285367965698
1726995600045405200,5.8454052734375,0.38283097743988037,0.5875684022903442,-0.9372575879096985
1726995600055391000,5.855390869140625,0.3616616427898407,0.5896307229995728,-1.0419294834136963
1726995600065377300,5.865377197265625,0.334137886762619,0.5745944976806641,-1.1311160326004028
1726995600075363000,5.875363037109375,0.3071199953556061,0.5754072070121765,-1.2014713287353516
1726995600085349000,5.88534912109375,0.2788252532482147,0.5576804280281067,-1.2521041631698608
1726995600095334100,5.895334228515625,0.26060447096824646,0.5336874723434448,-1.2719696760177612
1726995600105320200,5.9053203125,0.23311719298362732,0.5314789414405823,-1.257852554321289
1726995600115306200,5.91530615234375,0.21019966900348663,0.5413938760757446,-1.1954097747802734
1726995600125292000,5.9252919921875,0.19495654106140137,0.5599324107170105,-1.1270278692245483
1726995600135278300,5.9352783203125,0.17466479539871216,0.5629426836967468,-1.0462257862091064
1726995600145264000,5.94526416015625,0.17320139706134796,0.530056357383728,-0.9716252684593201
1726995600155250200,5.955250244140625,0.1806410700082779,0.4803175628185272,-0.9049333333969116
1726995600165236200,5.965236328125,0.19312676787376404,0.40716612339019775,-0.8445861339569092
1726995600175222300,5.97522216796875,0.18369585275650024,0.2850554585456848,-0.8223230242729187
1726995600185208000,5.9852080078125,0.17239713668823242,0.1600988656282425,-0.8142280578613281
1726995600195194400,5.9951943359375,0.17653225362300873,0.12126357853412628,-0.7812702059745789
1726995600205180200,6.00518017578125,0.20103946328163147,0.1189146637916565,-0.7403523325920105
1726995600215166200,6.015166259765625,0.22574518620967865,0.10975105315446854,-0.7158554196357727
1726995600225152000,6.025152099609375,0.24280379712581635,0.16477330029010773,-0.6610131859779358
1726995600235138300,6.03513818359375,0.2930857241153717,0.14139783382415771,-0.6006011366844177
1726995600245124000,6.0451240234375,0.3037530183792114,0.13159073889255524,-0.5576803088188171
1726995600255110100,6.055110107421875,0.2683461904525757,0.13364887237548828,-0.5261805653572083
1726995600265096200,6.06509619140625,0.19546985626220703,0.15578027069568634,-0.46799951791763306
1726995600275082000,6.07508203125,0.09727035462856293,0.13165020942687988,-0.3917827308177948
1726995600285068000,6.085068115234375,0.01712491177022457,0.05654960125684738,-0.3176696300506592
1726995600295054000,6.09505419921875,-0.03000585176050663,-0.01783972792327404,-0.24613432586193085
1726995600305040100,6.1050400390625,-0.031061261892318726,-0.06866642087697983,-0.18721161782741547
1726995600315026000,6.11502587890625,0.0065538156777620316,-0.1274646818637848,-0.1445714235305786
1726995600325012200,6.12501220703125,0.07861069589853287,-0.19154858589172363,-0.121866375207901
1726995600334998000,6.134998046875,0.16027280688285828,-0.22295983135700226,-0.1135297566652298
1726995600344984000,6.144984130859375,0.21462632715702057,-0.23574966192245483,-0.11576122045516968
1726995600354970000,6.15497021484375,0.24764776229858398,-0.2350427359342575,-0.14167699217796326
1726995600364956200,6.1649560546875,0.2713485658168793,-0.21364423632621765,-0.20308895409107208
1726995600374942000,6.17494189453125,0.28470760583877563,-0.15608996152877808,-0.2883801758289337
1726995600384928300,6.18492822265625,0.2881090044975281,-0.08007083088159561,-0.38338232040405273
1726995600394914000,6.1949140625,0.2585580348968506,-0.01918761618435383,-0.4816429913043976
1726995600404900000,6.204900146484375,0.20399707555770874,0.042398784309625626,-0.5528295636177063
1726995600414886100,6.21488623046875,0.12917746603488922,0.10653982311487198,-0.5755196213722229
1726995600424872200,6.2248720703125,0.06548290699720383,0.14681881666183472,-0.54899001121521
1726995600434858000,6.23485791015625,0.06908255815505981,0.17620396614074707,-0.511465847492218
1726995600444844300,6.24484423828125,0.1502746194601059,0.18828806281089783,-0.46418166160583496
1726995600454830000,6.254830078125,0.2836206257343292,0.23722617328166962,-0.4144750237464905
1726995600464816000,6.264816162109375,0.4139266908168793,0.22935892641544342,-0.39245226979255676
1726995600474802000,6.274802001953125,0.48241689801216125,0.1769481599330902,-0.3777264654636383
1726995600484788200,6.284788330078125,0.5103103518486023,0.13430722057819366,-0.3821300268173218
1726995600494774000,6.29477392578125,0.5063462257385254,0.14825615286827087,-0.38582703471183777
1726995600504760000,6.304760009765625,0.4838252067565918,0.16042520105838776,-0.371244877576828
1726995600514746000,6.31474609375,0.4538281261920929,0.1698591262102127,-0.33018359541893005
1726995600524732200,6.324732177734375,0.4149790108203888,0.14369943737983704,-0.2862473130226135
1726995600534718000,6.334718017578125,0.37433794140815735,0.11164075881242752,-0.24411070346832275
1726995600544704300,6.344704345703125,0.34312382340431213,0.09520000219345093,-0.19099955260753632
1726995600554690000,6.35468994140625,0.35236960649490356,0.07196920365095139,-0.11935722082853317
1726995600564675000,6.364675048828125,0.4078219532966614,0.030497660860419273,-0.035501204431056976
1726995600574661000,6.3746611328125,0.47913575172424316,-0.026411406695842743,0.06750954687595367
1726995600584647200,6.384647216796875,0.5725690126419067,-0.10269179195165634,0.16632162034511566
1726995600594633200,6.39463330078125,0.6699527502059937,-0.0977698266506195,0.2587311267852783
1726995600604619000,6.404618896484375,0.7768725752830505,-0.07707280665636063,0.34264200925827026
1726995600614605300,6.414605224609375,0.872117817401886,-0.09121925383806229,0.42357492446899414
1726995600624591000,6.424591064453125,0.9550859928131104,-0.10992929339408875,0.5197246074676514
1726995600634577200,6.4345771484375,1.0270781517028809,-0.10253287106752396,0.6105367541313171
1726995600644563200,6.444563232421875,1.1047545671463013,-0.051317621022462845,0.6691327095031738
1726995600654549200,6.45454931640625,1.1946033239364624,0.03231499344110489,0.7018711566925049
1726995600664535000,6.46453515625,1.2842577695846558,0.09517757594585419,0.6615418195724487
1726995600674521000,6.47452099609375,1.291366457939148,0.14596416056156158,0.5491465926170349
1726995600684507100,6.484507080078125,1.287838339805603,0.15842588245868683,0.39748117327690125
1726995600694493000,6.494492919921875,1.2580927610397339,0.15044307708740234,0.28729695081710815
1726995600704479200,6.504479248046875,1.2455031871795654,0.08989903330802917,0.2077225297689438
1726995600714465000,6.514465087890625,1.2920129299163818,0.0015605182852596045,0.15186023712158203
1726995600724451000,6.524451171875,1.4176394939422607,-0.06273884326219559,0.09585077315568924
1726995600734437000,6.53443701171875,1.5612331628799438,-0.1463722586631775,0.12021154165267944
1726995600744423200,6.544423095703125,1.674952507019043,-0.30838245153427124,0.1559397131204605
1726995600754409000,6.554408935546875,1.7344380617141724,-0.5861419439315796,0.22042851150035858
1726995600764395300,6.564395263671875,1.7454863786697388,-0.889467179775238,0.3370075821876526
1726995600774381000,6.574381103515625,1.7020677328109741,-1.1215410232543945,0.48760873079299927
1726995600784367000,6.5843671875,1.5961061716079712,-1.2908387184143066,0.5799972414970398
1726995600794353200,6.594353271484375,1.3790267705917358,-1.4311978816986084,0.696013331413269
1726995600804339200,6.604339111328125,1.1103811264038086,-1.5676168203353882,0.8479527831077576
1726995600814325000,6.614324951171875,0.8449792265892029,-1.5538673400878906,0.9758508205413818
1726995600824311000,6.62431103515625,0.5934181213378906,-1.4808529615402222,1.0505002737045288
1726995600834297000,6.634297119140625,0.32343435287475586,-1.4227662086486816,1.103389024734497
1726995600844283100,6.644283203125,0.06387469172477722,-1.3185263872146606,1.2383514642715454
1726995600854269000,6.65426904296875,-0.14944227039813995,-1.171638011932373,1.375312328338623
1726995600864255200,6.664255126953125,-0.3214510679244995,-1.024053692817688,1.4525690078735352
1726995600874241000,6.674240966796875,-0.4494987428188324,-0.8378136157989502,1.4916702508926392
1726995600884227000,6.68422705078125,-0.546848475933075,-0.6655113697052002,1.4963129758834839
1726995600894213000,6.694213134765625,-0.6500251293182373,-0.47615846991539,1.4999123811721802
1726995600904199200,6.70419921875,-0.7907614707946777,-0.30554330348968506,1.5072935819625854
1726995600914185000,6.71418505859375,-0.9302196502685547,-0.1238667368888855,1.473564624786377
1726995600924171300,6.724171142578125,-1.0478688478469849,0.059727855026721954,1.4233078956604004
1726995600934157000,6.734156982421875,-1.1480743885040283,0.18332110345363617,1.3619189262390137
1726995600944143000,6.74414306640625,-1.2494326829910278,0.26570361852645874,1.284303069114685
1726995600954129200,6.754129150390625,-1.3322734832763672,0.33453088998794556,1.1761844158172607
1726995600964115200,6.764115234375,-1.3939461708068848,0.3806363344192505,1.0597038269042969
1726995600974101000,6.77410107421875,-1.4434081315994263,0.40282508730888367,0.9008801579475403
1726995600984087300,6.78408740234375,-1.4053244590759277,0.4629720449447632,0.7412212491035461
1726995600994073300,6.7940732421875,-1.3358359336853027,0.4274923801422119,0.5107609033584595
1726995601004059600,6.8040595703125,-1.1923813819885254,0.346266508102417,0.1830277442932129
1726995601014045400,6.81404541015625,-1.0124781131744385,0.23085932433605194,-0.172524094581604
1726995601024031500,6.824031494140625,-0.8562877774238586,0.0983353778719902,-0.5414915084838867
1726995601034017500,6.834017578125,-0.6944712996482849,0.06717384606599808,-0.8306074738502502
1726995601044003600,6.844003662109375,-0.544205904006958,0.14469313621520996,-0.9639080166816711
1726995601053989400,6.8539892578125,-0.45643800497055054,0.260896772146225,-0.9716196060180664
1726995601063975700,6.8639755859375,-0.41589564085006714,0.32802921533584595,-0.9140830636024475
1726995601073961500,6.87396142578125,-0.42328858375549316,0.34597906470298767,-0.8047070503234863
1726995601083947500,6.883947509765625,-0.4612008035182953,0.34508398175239563,-0.7074806690216064
1726995601093932300,6.893932373046875,-0.48561057448387146,0.31539303064346313,-0.6461468935012817
1726995601103918600,6.903918701171875,-0.47296643257141113,0.28520527482032776,-0.6304656863212585
1726995601113904400,6.913904296875,-0.42351338267326355,0.27152755856513977,-0.6459258794784546
1726995601123890400,6.923890380859375,-0.3404776155948639,0.27829572558403015,-0.6669470071792603
1726995601133876500,6.93387646484375,-0.2346745729446411,0.3009848892688751,-0.6835770010948181
1726995601143862500,6.943862548828125,-0.14312174916267395,0.34992820024490356,-0.6953207850456238
1726995601153848300,6.953848388671875,-0.11021684110164642,0.31735867261886597,-0.7263245582580566
1726995601163834600,6.963834716796875,-0.11473675817251205,0.21296809613704681,-0.7782402038574219
1726995601173820400,6.9738203125,-0.09198591858148575,0.06891953945159912,-0.7932077050209045
1726995601183806500,6.983806396484375,-0.053769562393426895,-0.06697570532560349,-0.7983260154724121
1726995601193792500,6.99379248046875,0.007823297753930092,-0.1471802443265915,-0.765850305557251
1726995601203778600,7.003778564453125,0.07046190649271011,-0.2064952403306961,-0.6788864135742188
1726995601213764400,7.013764404296875,0.08402767777442932,-0.20717255771160126,-0.5273939371109009
1726995601223750700,7.023750732421875,0.06313810497522354,-0.15321505069732666,-0.33798301219940186
1726995601233736400,7.033736328125,0.01911589875817299,-0.09530667215585709,-0.15055839717388153
1726995601243722500,7.043722412109375,-0.0430808961391449,-0.07951971888542175,-0.01629752665758133
1726995601253708500,7.05370849609375,-0.10082121193408966,-0.11248510330915451,0.07301978021860123
1726995601263694600,7.063694580078125,-0.1418868899345398,-0.15541419386863708,0.12980689108371735
1726995601273680400,7.073680419921875,-0.16815504431724548,-0.17959560453891754,0.14782339334487915
1726995601283666700,7.083666748046875,-0.154758021235466,-0.19270741939544678,0.14019343256950378
1726995601293652500,7.093652587890625,-0.10166501998901367,-0.19384537637233734,0.08396180719137192
1726995601303638500,7.103638427734375,-0.03748416528105736,-0.1755148321390152,-0.007549470756202936
1726995601313624600,7.11362451171875,-0.02362939342856407,-0.07932761311531067,-0.05199648067355156
1726995601323610600,7.123610595703125,-0.09723223745822906,0.08147724717855453,-0.04145089536905289
1726995601333596400,7.133596435546875,-0.23183482885360718,0.2705174684524536,0.012984203174710274
1726995601343582500,7.14358251953125,-0.373964786529541,0.4620080888271332,0.06264043599367142
1726995601353568500,7.153568603515625,-0.4915660321712494,0.5534467697143555,0.08698265254497528
1726995601363554600,7.163554443359375,-0.5989307761192322,0.5898383855819702,0.11214073747396469
1726995601373540400,7.173540283203125,-0.6673043370246887,0.5356578826904297,0.12883751094341278
1726995601383526700,7.183526611328125,-0.6792020201683044,0.4142630100250244,0.09669528156518936
1726995601393512400,7.193512451171875,-0.6650914549827576,0.32384493947029114,0.029140260070562363
1726995601403498500,7.20349853515625,-0.6360765695571899,0.2603253424167633,-0.06279898434877396
1726995601413484500,7.213484619140625,-0.6068706512451172,0.2929666340351105,-0.16872051358222961
1726995601423470600,7.223470703125,-0.5675309896469116,0.3448604345321655,-0.2598094344139099
1726995601433456400,7.233456298828125,-0.507219672203064,0.3598312735557556,-0.32905063033103943
1726995601443442700,7.243442626953125,-0.4058501422405243,0.3435404300689697,-0.36808323860168457
1726995601453428500,7.253428466796875,-0.26958686113357544,0.3286667764186859,-0.37914520502090454
1726995601463414500,7.26341455078125,-0.13463862240314484,0.31390488147735596,-0.36099228262901306
1726995601473400600,7.273400634765625,-0.026181235909461975,0.2759430706501007,-0.301335871219635
1726995601483386600,7.28338671875,0.0771414265036583,0.20026510953903198,-0.22980576753616333
1726995601493372400,7.293372314453125,0.1688394993543625,0.07745876908302307,-0.16638420522212982
1726995601503358700,7.303358642578125,0.23002029955387115,-0.07141859084367752,-0.10612539201974869
1726995601513344500,7.313344482421875,0.27321740984916687,-0.1533130407333374,-0.050059620290994644
1726995601523330600,7.32333056640625,0.30370819568634033,-0.2370670586824417,0.032615818083286285
1726995601533316600,7.333316650390625,0.3041324317455292,-0.35643255710601807,0.06526444852352142
1726995601543302700,7.343302734375,0.29248324036598206,-0.48727819323539734,0.06880193203687668
1726995601553288400,7.353288330078125,0.24925509095191956,-0.5842303037643433,0.051380716264247894
1726995601563274500,7.3632744140625,0.17154166102409363,-0.6360461115837097,0.03246987611055374
1726995601573260500,7.373260498046875,0.09943027049303055,-0.5818874835968018,0.016299940645694733
1726995601583246600,7.38324658203125,0.04649701714515686,-0.5044888257980347,0.08276152610778809
1726995601593232400,7.393232421875,0.029909005388617516,-0.4791724979877472,0.1906331330537796
1726995601603218400,7.403218505859375,0.02078528143465519,-0.47460225224494934,0.2951022684574127
1726995601613204500,7.41320458984375,0.016674885526299477,-0.4464030861854553,0.39036470651626587
1726995601623190500,7.4231904296875,0.027734462171792984,-0.43208086490631104,0.46533507108688354
1726995601633175600,7.433175537109375,0.049047261476516724,-0.43262624740600586,0.5070563554763794
1726995601643161600,7.44316162109375,0.06129194423556328,-0.44102853536605835,0.5173768997192383
1726995601653147400,7.4531474609375,0.057327255606651306,-0.4399215281009674,0.5121601223945618
1726995601663133700,7.4631337890625,0.046973150223493576,-0.4141775667667389,0.4892427921295166
1726995601673119500,7.473119384765625,0.029533004388213158,-0.37201109528541565,0.45917102694511414
1726995601683105500,7.48310546875,0.01555540319532156,-0.32622256875038147,0.432842493057251
1726995601693091300,7.49309130859375,-0.002435159869492054,-0.2588825225830078,0.38626861572265625
1726995601703077600,7.50307763671875,-0.002458595670759678,-0.15397685766220093,0.32463589310646057
1726995601713063400,7.5130634765625,0.027745917439460754,-0.05346240848302841,0.25592073798179626
1726995601723049500,7.523049560546875,0.10051891952753067,-0.00020637764828279614,0.16989849507808685
1726995601733035500,7.533035400390625,0.20769943296909332,0.053576111793518066,0.07486292719841003
1726995601743021600,7.543021484375,0.31394439935684204,0.052360910922288895,-0.048611339181661606
1726995601753007400,7.55300732421875,0.40133294463157654,0.0050949715077877045,-0.17759890854358673
1726995601762993700,7.56299365234375,0.48067304491996765,-0.010446970351040363,-0.2939939796924591
1726995601772979500,7.5729794921875,0.5410085320472717,0.0012453212402760983,-0.37927383184432983
1726995601782965500,7.582965576171875,0.5885497331619263,0.036443788558244705,-0.42811834812164307
1726995601792951600,7.59295166015625,0.6202634572982788,0.11460824310779572,-0.43450483679771423
1726995601802937600,7.6029375,0.6476998925209045,0.2656041383743286,-0.40102967619895935
1726995601812923400,7.61292333984375,0.700698971748352,0.39886170625686646,-0.3507124185562134
1726995601822909700,7.62290966796875,0.7879188656806946,0.5308256149291992,-0.2695765495300293
1726995601832895500,7.6328955078125,0.944861888885498,0.6535508036613464,-0.15502193570137024
1726995601842881500,7.642881591796875,1.1094391345977783,0.678013265132904,0.020851360633969307
1726995601852867600,7.65286767578125,1.3109210729599,0.7015677094459534,0.22520071268081665
1726995601862853600,7.662853515625,1.4710723161697388,0.6050768494606018,0.4378133714199066
1726995601872839400,7.67283935546875,1.5581486225128174,0.3732106387615204,0.6468508839607239
1726995601882825700,7.68282568359375,1.5801007747650146,0.10124196112155914,0.7812790274620056
1726995601892811500,7.6928115234375,1.540563702583313,-0.16372190415859222,0.8208056688308716
1726995601902797600,7.702797607421875,1.4625346660614014,-0.460880845785141,0.7856263518333435
1726995601912783400,7.712783447265625,1.3213682174682617,-0.7828325033187866,0.7452373504638672
1726995601922769700,7.722769775390625,1.0883121490478516,-1.0101382732391357,0.7110010981559753
1726995601932755500,7.73275537109375,0.8304409384727478,-1.270936369895935,0.7113938927650452
1726995601942741500,7.742741455078125,0.5893462896347046,-1.5671757459640503,0.7762274742126465
1726995601952727600,7.7527275390625,0.3425063490867615,-1.7230585813522339,0.9226915240287781
1726995601962713600,7.762713623046875,0.06332319229841232,-1.6141371726989746,1.090396761894226
1726995601972699400,7.772699462890625,-0.18293127417564392,-1.4196358919143677,1.2478913068771362
1726995601982685400,7.782685546875,-0.42866888642311096,-1.196187138557434,1.3449333906173706
1726995601992671500,7.79267138671875,-0.6222077012062073,-1.0520341396331787,1.398331642150879
1726995602002657500,7.802657470703125,-0.7549641132354736,-0.8860803246498108,1.4067565202713013
1726995602012643300,7.812643310546875,-0.8491019010543823,-0.6296457648277283,1.3404228687286377
1726995602022629400,7.82262939453125,-0.8994092345237732,-0.318830668926239,1.1960276365280151
1726995602032615400,7.832615478515625,-0.9024759531021118,-0.06581218540668488,0.9757596254348755
1726995602042601500,7.8426015625,-0.8375664949417114,0.11601833254098892,0.7065023183822632
1726995602052587300,7.852587158203125,-0.7234213948249817,0.2751050591468811,0.4023648500442505
1726995602062573300,7.8625732421875,-0.596757173538208,0.3686043918132782,0.05874622240662575
1726995602072559400,7.872559326171875,-0.5533109307289124,0.40284252166748047,-0.25873830914497375
1726995602082545400,7.88254541015625,-0.595329999923706,0.42448416352272034,-0.510787844657898
1726995602092531500,7.892531494140625,-0.655555009841919,0.47065964341163635,-0.7419834733009338
1726995602102517200,7.902517333984375,-0.6814025640487671,0.5116811394691467,-0.9304119348526001
1726995602112503300,7.91250341796875,-0.6645034551620483,0.534734308719635,-1.048980474472046
1726995602122489300,7.9224892578125,-0.6134770512580872,0.5657702684402466,-1.1307700872421265
1726995602132475400,7.932475341796875,-0.56411212682724,0.5638744831085205,-1.1769845485687256
1726995602142461200,7.942461181640625,-0.5429636836051941,0.5229379534721375,-1.1984232664108276
1726995602152447500,7.952447509765625,-0.5324023365974426,0.47583168745040894,-1.1666250228881836
1726995602162433300,7.962433349609375,-0.5387030839920044,0.3982119858264923,-1.1135876178741455
1726995602172419300,7.97241943359375,-0.5405725836753845,0.3220948874950409,-1.0703085660934448
1726995602182405400,7.9824052734375,-0.5405097007751465,0.2441800981760025,-1.0240163803100586
1726995602192391400,7.992391357421875,-0.5350091457366943,0.1642656773328781,-0.9805903434753418
1726995602202377200,8.002377197265625,-0.485866904258728,0.07454352080821991,-0.9253159165382385
1726995602212363500,8.012363525390626,-0.4027194082736969,0.06533803790807724,-0.8492917418479919
1726995602222349300,8.022349365234374,-0.3179587125778198,0.01311876904219389,-0.7921216487884521
1726995602232335400,8.03233544921875,-0.23848854005336761,-0.04699915647506714,-0.7437980771064758
1726995602242321400,8.0423212890625,-0.16829587519168854,-0.11722910404205322,-0.6977852582931519
1726995602252307500,8.052307373046874,-0.11439583450555801,-0.2054608017206192,-0.6280660629272461
1726995602262293200,8.062293212890625,-0.09624985605478287,-0.27105578780174255,-0.5658314824104309
1726995602272279300,8.072279296875,-0.12068180739879608,-0.2761487364768982,-0.4871869683265686
1726995602282265300,8.082265380859376,-0.17224299907684326,-0.1869240552186966,-0.40131866931915283
1726995602292251400,8.09225146484375,-0.23324556648731232,-0.04953319579362869,-0.3070847690105438
1726995602302237200,8.1022373046875,-0.25950515270233154,0.03889653459191322,-0.17078393697738647
1726995602312223500,8.112223388671875,-0.22399242222309113,0.06583312153816223,-0.07578485459089279
1726995602322209300,8.122209228515626,-0.1730370968580246,0.031137460842728615,-0.02055462636053562
1726995602332195300,8.1321953125,-0.1821250170469284,0.03265586867928505,0.026709916070103645
1726995602342181400,8.142181396484375,-0.2070585936307907,0.027679219841957092,0.06021194905042648
1726995602352167400,8.15216748046875,-0.22647255659103394,-0.014802204445004463,0.07216408103704453
1726995602362153200,8.1621533203125,-0.264945387840271,-0.015490098856389523,0.13090701401233673
1726995602372139500,8.172139404296875,-0.3283989429473877,0.025143465027213097,0.2328321486711502
1726995602382125300,8.182125244140625,-0.39923688769340515,0.09535477310419083,0.36115869879722595
1726995602392111400,8.192111328125,-0.4808042347431183,0.1615603268146515,0.4977976083755493
1726995602402097400,8.202097412109374,-0.5389277338981628,0.2004462033510208,0.581577718257904
1726995602412083500,8.21208349609375,-0.5684759020805359,0.21073859930038452,0.585382342338562
1726995602422069200,8.2220693359375,-0.5744951367378235,0.15258660912513733,0.5223865509033203
1726995602432055600,8.2320556640625,-0.5621121525764465,0.0866456851363182,0.42861878871917725
1726995602442041300,8.242041259765625,-0.5154043436050415,0.07588997483253479,0.33309096097946167
1726995602452027400,8.25202734375,-0.44799888134002686,0.08838868141174316,0.2596930265426636
1726995602462013400,8.262013427734376,-0.37466394901275635,0.11489592492580414,0.17182442545890808
1726995602471999500,8.27199951171875,-0.29509246349334717,0.12015526741743088,0.06247076392173767
1726995602481985300,8.2819853515625,-0.17406778037548065,0.14966441690921783,-0.053111493587493896
1726995602491971600,8.2919716796875,-0.00780844409018755,0.19773603975772858,-0.13168998062610626
1726995602501957400,8.301957275390626,0.14969195425510406,0.20178164541721344,-0.17525610327720642
1726995602511943400,8.311943359375,0.2752157151699066,0.1630602926015854,-0.16904394328594208
1726995602521929200,8.32192919921875,0.38196852803230286,0.09572304785251617,-0.14250873029232025
1726995602531915500,8.33191552734375,0.46881967782974243,-0.020595747977495193,-0.10697566717863083
1726995602541901300,8.3419013671875,0.520330011844635,-0.15055535733699799,-0.08320269733667374
1726995602551887400,8.351887451171875,0.5390023589134216,-0.2674580216407776,-0.07109664380550385
1726995602561873400,8.361873291015625,0.5354869961738586,-0.369833379983902,-0.06696341931819916
1726995602571859500,8.371859375,0.5134963989257812,-0.4376662075519562,-0.03179093822836876
1726995602581845200,8.38184521484375,0.41726526618003845,-0.4542806148529053,-0.001351805403828621
1726995602591831600,8.39183154296875,0.31628113985061646,-0.38380011916160583,0.04031193628907204
1726995602601817300,8.4018173828125,0.23940710723400116,-0.30263498425483704,0.10034171491861343
1726995602611803400,8.411803466796876,0.22483521699905396,-0.2271450310945511,0.15585516393184662
1726995602621789400,8.42178955078125,0.2428341805934906,-0.17009612917900085,0.1874096393585205
1726995602631775500,8.431775390625,0.2809768319129944,-0.13827404379844666,0.20634795725345612
1726995602641761300,8.44176123046875,0.3096175193786621,-0.10541488230228424,0.21847200393676758
1726995602651747600,8.45174755859375,0.3337869644165039,-0.09354057908058167,0.21052663028240204
1726995602661733400,8.4617333984375,0.35254228115081787,-0.10283847153186798,0.17604614794254303
1726995602671719400,8.471719482421875,0.3424929678440094,-0.02885543182492256,0.14602012932300568
1726995602681705500,8.48170556640625,0.305154412984848,0.0472332127392292,0.12447488307952881
1726995602691691500,8.49169140625,0.264889657497406,0.11853279918432236,0.1043139100074768
1726995602701677300,8.50167724609375,0.24518892168998718,0.19740258157253265,0.08104320615530014
1726995602711663400,8.511663330078125,0.24521620571613312,0.26096850633621216,0.04795180261135101
1726995602721649400,8.5216494140625,0.27186912298202515,0.31033605337142944,0.010242239572107792
1726995602731635500,8.531635498046874,0.31996384263038635,0.344428688287735,-0.025459343567490578
1726995602741621500,8.54162158203125,0.38218167424201965,0.37252077460289,-0.036519985646009445
1726995602751607300,8.551607177734375,0.4438656270503998,0.39516985416412354,-0.039408229291439056
1726995602761593300,8.56159326171875,0.5078381896018982,0.40100938081741333,-0.030454417690634727
1726995602771579400,8.571579345703125,0.5545610785484314,0.376162052154541,-0.029990900307893753
1726995602781565400,8.5815654296875,0.6200940608978271,0.3513472378253937,-0.02637113258242607
1726995602791551200,8.59155126953125,0.6889391541481018,0.3633887469768524,-0.007803948130458593
1726995602801537300,8.601537353515624,0.7419038414955139,0.3839512765407562,0.021731840446591377
1726995602811523300,8.6115234375,0.8178207278251648,0.47017478942871094,0.07774243503808975
1726995602821509400,8.62150927734375,0.9103522896766663,0.598458468914032,0.16105888783931732
1726995602831495200,8.6314951171875,1.0838478803634644,0.7439438104629517,0.24396543204784393
1726995602841481500,8.6414814453125,1.3014813661575317,0.8213946223258972,0.35591569542884827
1726995602851467300,8.65146728515625,1.5172491073608398,0.7400033473968506,0.3834531605243683
1726995602861454600,8.66145458984375,1.7121284008026123,0.5383631587028503,0.36019015312194824
1726995602871440400,8.6714404296875,1.8153902292251587,0.2591317594051361,0.32251861691474915
1726995602881426400,8.681426513671875,1.781826376914978,0.021416936069726944,0.25657156109809875
1726995602891412500,8.69141259765625,1.639266848564148,-0.2099597454071045,0.1988210678100586
1726995602901398500,8.7013984375,1.464354395866394,-0.494186669588089,0.07100424915552139
1726995602911384300,8.71138427734375,1.2425037622451782,-0.8584375977516174,0.00440738070756197
1726995602921370400,8.721370361328125,1.0227402448654175,-1.1938955783843994,0.023966701701283455
1726995602931356400,8.7313564453125,0.7684710621833801,-1.5294996500015259,0.10894536972045898
1726995602941342500,8.741342529296874,0.4946485757827759,-1.7179875373840332,0.28656303882598877
1726995602951328300,8.751328369140625,0.24611352384090424,-1.7170500755310059,0.5327337980270386
1726995602961314600,8.761314453125,-0.003789525479078293,-1.5509653091430664,0.8212361931800842
1726995602971300400,8.77130029296875,-0.2472567856311798,-1.22567880153656,1.0632004737854004
1726995602981286400,8.781286376953124,-0.4710555076599121,-0.8607085347175598,1.234628677368164
1726995602991272400,8.7912724609375,-0.6566705107688904,-0.6242411732673645,1.3495973348617554
1726995603001258500,8.801258544921875,-0.8382951617240906,-0.43945881724357605,1.3962098360061646
1726995603011244300,8.811244384765626,-1.01804780960083,-0.27088814973831177,1.3906446695327759
1726995603021230300,8.821230224609375,-1.203355073928833,-0.08700085431337357,1.3293546438217163
1726995603031216400,8.83121630859375,-1.400564432144165,0.1264900416135788,1.2179582118988037
1726995603041202400,8.841202392578126,-1.4998654127120972,0.30116328597068787,1.0341737270355225
1726995603051188200,8.851188232421874,-1.4844858646392822,0.4488675594329834,0.7125816941261292
1726995603061174300,8.86117431640625,-1.3906714916229248,0.49745985865592957,0.33065032958984375
1726995603071160300,8.871160400390625,-1.2942214012145996,0.4815330505371094,-0.05751311779022217
1726995603081146400,8.881146484375,-1.1702829599380493,0.45135942101478577,-0.42778119444847107
1726995603091133400,8.891133544921875,-1.0265322923660278,0.39871329069137573,-0.7327980399131775
1726995603101119200,8.901119140625,-0.8842334151268005,0.42430946230888367,-0.9224907755851746
1726995603111105300,8.911105224609376,-0.802276074886322,0.3618876338005066,-1.0985554456710815
1726995603121091300,8.92109130859375,-0.7007331848144531,0.31203803420066833,-1.192756175994873
1726995603131077400,8.931077392578125,-0.645965039730072,0.24522867798805237,-1.21891188621521
1726995603141063200,8.941063232421875,-0.6135050654411316,0.19695168733596802,-1.2104566097259521
1726995603151049500,8.951049560546876,-0.5859219431877136,0.17915111780166626,-1.1646314859390259
1726995603161035300,8.96103515625,-0.5903555750846863,0.05910727381706238,-1.1231982707977295
1726995603171021300,8.971021240234375,-0.5600731372833252,0.011852959170937538,-1.064086675643921
1726995603181007400,8.98100732421875,-0.500093400478363,-0.009338079951703548,-0.9978240728378296
1726995603190993400,8.990993408203124,-0.40909838676452637,-0.02212955243885517,-0.9056851267814636
1726995603200979200,9.000979248046875,-0.3037887215614319,0.030180789530277252,-0.7760533690452576
1726995603210965500,9.010965576171875,-0.22133894264698029,0.05193187668919563,-0.641230046749115
1726995603220951300,9.020951416015626,-0.1667715609073639,0.02055797353386879,-0.5711340308189392
1726995603230937300,9.030937255859374,-0.1368599236011505,-0.006938355043530464,-0.4967094361782074
1726995603240923400,9.04092333984375,-0.11721990257501602,-0.036793988198041916,-0.43573158979415894
1726995603250909400,9.050909423828125,-0.1215459331870079,-0.06881022453308105,-0.3669116795063019
1726995603260896300,9.060896240234374,-0.11892911046743393,-0.06874977052211761,-0.2762496769428253
1726995603270882300,9.07088232421875,-0.1245313286781311,-0.03694472834467888,-0.1875157505273819
1726995603280868400,9.080868408203125,-0.13920775055885315,0.012881416827440262,-0.1032717153429985
1726995603290854100,9.090854248046876,-0.18690291047096252,0.08446957916021347,-0.03869703784584999
1726995603300840400,9.10084033203125,-0.262624591588974,0.14174406230449677,-0.01017005555331707
1726995603310826200,9.110826171875,-0.33040884137153625,0.19181229174137115,0.030919380486011505
1726995603320812300,9.120812255859375,-0.3360755145549774,0.15342415869235992,0.08047601580619812
1726995603330798300,9.13079833984375,-0.28067296743392944,0.08030306547880173,0.10996244102716446
1726995603340784400,9.140784423828125,-0.2388933002948761,0.05220058932900429,0.12010082602500916
1726995603350770200,9.150770263671875,-0.2510349154472351,0.09635314345359802,0.13752853870391846
1726995603360756500,9.160756591796876,-0.3054440915584564,0.18401561677455902,0.17179331183433533
1726995603370742300,9.1707421875,-0.4037170708179474,0.27971282601356506,0.2173091173171997
1726995603380728300,9.180728271484375,-0.4740855097770691,0.3412978947162628,0.2456779032945633
1726995603390714400,9.19071435546875,-0.5013188719749451,0.38212496042251587,0.26034584641456604
1726995603400700400,9.200700439453126,-0.5021886229515076,0.41391485929489136,0.25600144267082214
1726995603410687200,9.210687255859375,-0.4892309010028839,0.400496244430542,0.24050171673297882
1726995603420673300,9.22067333984375,-0.4713863730430603,0.33070066571235657,0.18835996091365814
1726995603430659300,9.230659423828126,-0.42055657505989075,0.23940537869930267,0.09145480394363403
1726995603440645000,9.24064501953125,-0.33892616629600525,0.19712530076503754,-0.029769890010356903
1726995603450631400,9.25063134765625,-0.22447405755519867,0.18495571613311768,-0.11828181892633438
1726995603460617200,9.2606171875,-0.1142016127705574,0.1617763638496399,-0.18961112201213837
1726995603470603300,9.270603271484376,-0.005969391204416752,0.13144773244857788,-0.21425224840641022
1726995603480589300,9.28058935546875,0.09518944472074509,0.0883500725030899,-0.17831501364707947
1726995603490575400,9.290575439453125,0.17218664288520813,0.007080781739205122,-0.10460904985666275
1726995603500561200,9.30056103515625,0.22905604541301727,-0.10360018908977509,-0.021856114268302917
1726995603510547500,9.31054736328125,0.2886354625225067,-0.14834396541118622,0.08140671253204346
1726995603520533200,9.320533203125,0.28809458017349243,-0.24844926595687866,0.14577504992485046
1726995603530519300,9.330519287109375,0.26435303688049316,-0.3248859941959381,0.19396698474884033
1726995603540506400,9.34050634765625,0.21916747093200684,-0.38045603036880493,0.23411521315574646
1726995603550492200,9.3504921875,0.17335942387580872,-0.41195961833000183,0.2590419054031372
1726995603560478200,9.360478271484375,0.1660626232624054,-0.4235007166862488,0.29671230912208557
1726995603570464300,9.37046435546875,0.17534831166267395,-0.4364258348941803,0.3496873676776886
1726995603580450300,9.3804501953125,0.16861876845359802,-0.4747351408004761,0.39034000039100647
1726995603590436000,9.39043603515625,0.13999691605567932,-0.5195947289466858,0.4225817620754242
1726995603600422400,9.40042236328125,0.10402800887823105,-0.5202991366386414,0.4607640206813812
1726995603610408200,9.410408203125,0.07929127663373947,-0.5242757797241211,0.4929920732975006
1726995603620394200,9.420394287109374,0.06418023258447647,-0.5138455033302307,0.5221286416053772
1726995603630380300,9.43038037109375,0.0462520606815815,-0.482138991355896,0.5390236973762512
1726995603640366300,9.440366455078125,0.008392827585339546,-0.4309900403022766,0.5481074452400208
1726995603650352000,9.45035205078125,-0.0249111857265234,-0.3673069477081299,0.5440229177474976
1726995603660339500,9.46033935546875,-0.033380571752786636,-0.3180057108402252,0.5047276616096497
1726995603670325200,9.4703251953125,0.003610840067267418,-0.2526780962944031,0.4242019057273865
1726995603680311300,9.480311279296876,0.08346492797136307,-0.14251749217510223,0.29946208000183105
1726995603690297300,9.49029736328125,0.1953531950712204,-0.017731349915266037,0.16318051517009735
1726995603700283400,9.500283447265625,0.2991238236427307,0.08328501135110855,0.062119416892528534
1726995603710269200,9.510269287109375,0.3763478100299835,0.18613573908805847,-0.010893585160374641
1726995603720255500,9.52025537109375,0.4209006428718567,0.29244592785835266,-0.07297559827566147
1726995603730241300,9.5302412109375,0.4503346085548401,0.32083895802497864,-0.1325145959854126
1726995603740227300,9.540227294921875,0.48455703258514404,0.33347833156585693,-0.17273180186748505
1726995603750213400,9.55021337890625,0.5339053273200989,0.3778822720050812,-0.19700489938259125
1726995603760199400,9.560199462890624,0.59823077917099,0.47009822726249695,-0.19203197956085205
1726995603770185200,9.570185302734375,0.6830908060073853,0.564055860042572,-0.1522310972213745
1726995603780172300,9.58017236328125,0.810125470161438,0.6108114123344421,-0.09619899839162827
1726995603790158300,9.590158447265624,0.9959388971328735,0.6431570649147034,0.00875701755285263
1726995603800144100,9.60014404296875,1.193610429763794,0.6910138130187988,0.15915797650814056
1726995603810130400,9.61013037109375,1.3648818731307983,0.761670708656311,0.3137473464012146
1726995603820116200,9.6201162109375,1.4941599369049072,0.7294911742210388,0.4247702658176422
1726995603830102300,9.630102294921874,1.5340745449066162,0.534471333026886,0.48681896924972534
1726995603840088300,9.64008837890625,1.528236985206604,0.1088489517569542,0.4642412066459656
1726995603850074400,9.650074462890625,1.4489575624465942,-0.41878849267959595,0.47417089343070984
1726995603860060200,9.66006005859375,1.3211668729782104,-0.8271104693412781,0.5281334519386292
1726995603870046500,9.67004638671875,1.1220824718475342,-1.0892022848129272,0.5887803435325623
1726995603880032300,9.6800322265625,0.8833072185516357,-1.2636185884475708,0.6102906465530396
1726995603890018300,9.690018310546876,0.5996130108833313,-1.4062135219573975,0.6887747049331665
1726995603900004400,9.70000439453125,0.28085264563560486,-1.4347485303878784,0.8160862922668457
1726995603909991200,9.7099912109375,-0.01705007068812847,-1.3422337770462036,0.9482566118240356
1726995603919977200,9.719977294921875,-0.28313130140304565,-1.087209701538086,1.0197895765304565
1726995603929963300,9.72996337890625,-0.5665941834449768,-0.7650907635688782,1.0361992120742798
1726995603939949300,9.73994921875,-0.7607082724571228,-0.5083639025688171,1.0342646837234497
1726995603949935000,9.74993505859375,-0.8949635624885559,-0.23036639392375946,0.9926266670227051
1726995603959921400,9.75992138671875,-0.9714013934135437,-0.05168293043971062,0.9100468158721924
1726995603969907200,9.7699072265625,-0.9734241962432861,0.16922627389431,0.6665576696395874
1726995603979893200,9.779893310546875,-0.9151049852371216,0.4039019048213959,0.3328537344932556
1726995603989879300,9.78987939453125,-0.8269935846328735,0.5673449039459229,-0.04013848304748535
1726995603999864800,9.79986474609375,-0.7224847674369812,0.6402148008346558,-0.4442204535007477
1726995604009850600,9.8098505859375,-0.6629068851470947,0.6438614726066589,-0.8299527764320374
1726995604019838000,9.819837890625,-0.6313457489013672,0.6413120627403259,-1.1005321741104126
1726995604029823700,9.82982373046875,-0.5800724029541016,0.6632319688796997,-1.2881587743759155
1726995604039809800,9.839809814453124,-0.5162686705589294,0.6168413162231445,-1.3962138891220093
1726995604049795800,9.8497958984375,-0.4819119870662689,0.5101960897445679,-1.424687147140503
1726995604059782000,9.859781982421875,-0.47005772590637207,0.41997674107551575,-1.4124584197998047
1726995604069767700,9.869767578125,-0.44903555512428284,0.31835103034973145,-1.3479281663894653
1726995604079754000,9.87975390625,-0.3696259558200836,0.22337393462657928,-1.2479461431503296
1726995604089739800,9.88973974609375,-0.2686225473880768,0.16204480826854706,-1.1388038396835327
1726995604099725800,9.899725830078125,-0.20464785397052765,0.13153722882270813,-1.0316829681396484
1726995604109712000,9.9097119140625,-0.17621108889579773,0.11962251365184784,-0.9315524101257324
1726995604119698000,9.919697998046875,-0.16868500411510468,0.10342836380004883,-0.8368663787841797
1726995604129683700,9.92968359375,-0.13189859688282013,0.11256832629442215,-0.6942099928855896
1726995604139670800,9.9396708984375,-0.11134352535009384,0.045863598585128784,-0.6201229691505432
1726995604149656800,9.94965673828125,-0.07319622486829758,-0.010038018226623535,-0.5608721375465393
1726995604159642600,9.959642578125,-0.05363903567194939,-0.05715759098529816,-0.4961768090724945
1726995604169629000,9.96962890625,-0.06278655678033829,-0.08239610493183136,-0.4344257414340973
1726995604179614700,9.97961474609375,-0.0767550989985466,-0.11174839735031128,-0.3757152855396271
1726995604189600800,9.989600830078125,-0.0900595635175705,-0.11552289873361588,-0.29325026273727417
1726995604199586800,9.9995869140625,-0.08855141699314117,-0.08842337131500244,-0.19997066259384155
1726995604209572900,10.00957275390625,-0.08147138357162476,-0.014095872640609741,-0.11806762218475342
1726995604219558700,10.01955859375,-0.0887463390827179,0.06101858615875244,-0.056234609335660934
1726995604229545000,10.029544921875,-0.13790056109428406,0.13816450536251068,-0.0010614525526762009
1726995604239530800,10.03953076171875,-0.21024133265018463,0.24851737916469574,0.007546150125563145
1726995604249516800,10.049516845703126,-0.26861557364463806,0.30106818675994873,0.04239531233906746
1726995604259502800,10.0595029296875,-0.2776743173599243,0.2880224287509918,0.07588855922222137
1726995604269489700,10.06948974609375,-0.29100650548934937,0.29102087020874023,0.1377515345811844
1726995604279475700,10.079475830078126,-0.3290415108203888,0.307138592004776,0.21396881341934204
1726995604289461800,10.089461669921874,-0.38724225759506226,0.35809871554374695,0.2940319776535034
1726995604299447800,10.09944775390625,-0.44328874349594116,0.3761320412158966,0.3513277471065521
1726995604309433600,10.10943359375,-0.4772680103778839,0.3546651005744934,0.3799828290939331
1726995604319420000,10.119419921875,-0.49814480543136597,0.2859265208244324,0.3531573414802551
1726995604329405700,10.12940576171875,-0.5148077607154846,0.1952512264251709,0.2151726931333542
1726995604339391700,10.139391845703125,-0.5008160471916199,0.12968580424785614,0.04040968045592308
1726995604349377800,10.149377685546876,-0.408224493265152,0.1645660102367401,-0.11455553770065308
1726995604359363800,10.15936376953125,-0.24793896079063416,0.23623698949813843,-0.20579250156879425
1726995604369349600,10.169349609375,-0.09155389666557312,0.2687901556491852,-0.24934861063957214
1726995604379336000,10.1793359375,0.012586886994540691,0.2982556223869324,-0.2811028063297272
1726995604389321700,10.18932177734375,0.07254981994628906,0.32995790243148804,-0.2928374707698822
1726995604399308800,10.199308837890625,0.11430365592241287,0.31736433506011963,-0.27079451084136963
1726995604409294800,10.209294921875,0.17167726159095764,0.24354763329029083,-0.21391764283180237
1726995604419280600,10.21928076171875,0.24262094497680664,0.1151081845164299,-0.15916012227535248
1726995604429266700,10.2292666015625,0.3359236419200897,0.03948106989264488,-0.07182377576828003
1726995604439252700,10.239252685546875,0.34690117835998535,-0.11547175794839859,-0.07166185975074768
1726995604449238800,10.24923876953125,0.33168548345565796,-0.2494324892759323,-0.08339467644691467
1726995604459224600,10.259224609375,0.30808109045028687,-0.34321147203445435,-0.059476301074028015
1726995604469211000,10.2692109375,0.30399996042251587,-0.37296268343925476,-0.02990194968879223
1726995604479196700,10.27919677734375,0.3008153438568115,-0.39969709515571594,-0.005106586962938309
1726995604489182700,10.2891826171875,0.27589255571365356,-0.4211278259754181,0.018945345655083656
1726995604499168800,10.299168701171874,0.24956350028514862,-0.3949068784713745,0.046915724873542786
1726995604509154800,10.30915478515625,0.2498479038476944,-0.3284223973751068,0.08570248633623123
1726995604519140600,10.319140625,0.27451303601264954,-0.2493019998073578,0.13461144268512726
1726995604529128000,10.3291279296875,0.29547834396362305,-0.17890800535678864,0.1812756508588791
1726995604539113700,10.33911376953125,0.2867248058319092,-0.11808911710977554,0.22143691778182983
1726995604549099800,10.349099853515625,0.26012536883354187,-0.03763715550303459,0.2560546398162842
1726995604559085800,10.3590859375,0.22347363829612732,0.05798603966832161,0.2693006694316864
1726995604569071900,10.36907177734375,0.2224111557006836,0.13652187585830688,0.254363477230072
1726995604579057700,10.3790576171875,0.29061684012413025,0.2155463844537735,0.21728083491325378
1726995604589044000,10.3890439453125,0.3939267098903656,0.2522367238998413,0.1769144982099533
1726995604599029800,10.39902978515625,0.4791891276836395,0.2821253836154938,0.13518010079860687
1726995604609015800,10.409015869140624,0.523282527923584,0.3207404315471649,0.11682171374559402
1726995604619001900,10.419001953125,0.5454407930374146,0.31390276551246643,0.10529501736164093
1726995604628988000,10.42898779296875,0.5563846826553345,0.3034980595111847,0.10597283393144608
1726995604638973700,10.4389736328125,0.5978232026100159,0.30857643485069275,0.15299654006958008
1726995604648960000,10.4489599609375,0.6451305150985718,0.3057292699813843,0.17827214300632477
1726995604658945800,10.45894580078125,0.7564921975135803,0.3929528295993805,0.22227609157562256
1726995604668932600,10.4689326171875,0.9253929853439331,0.4709155857563019,0.2968648076057434
1726995604678919000,10.4789189453125,1.144336223602295,0.5583274364471436,0.38458800315856934
1726995604688904700,10.48890478515625,1.3978209495544434,0.6593680381774902,0.49290478229522705
1726995604698890800,10.498890869140626,1.6156635284423828,0.6856076121330261,0.5249497890472412
1726995604708876800,10.508876708984374,1.7865779399871826,0.6590678691864014,0.5202319622039795
1726995604718862800,10.51886279296875,1.8717551231384277,0.5568291544914246,0.44231849908828735
1726995604728848600,10.5288486328125,1.8200459480285645,0.32423344254493713,0.3086646795272827
1726995604738835000,10.5388349609375,1.682848334312439,0.01942427270114422,0.10467585921287537
1726995604748820700,10.54882080078125,1.4918326139450073,-0.4554799199104309,-0.061987873166799545
1726995604758806800,10.558806884765625,1.2621443271636963,-0.9426423907279968,-0.12116410583257675
1726995604768792800,10.568792724609375,1.0155978202819824,-1.3850510120391846,-0.08230484277009964
1726995604778779000,10.57877880859375,0.7415580153465271,-1.6476930379867554,0.07916288077831268
1726995604788764700,10.5887646484375,0.44449594616889954,-1.714538335800171,0.33883804082870483
1726995604798751000,10.5987509765625,0.13408879935741425,-1.5422896146774292,0.6087630391120911
1726995604808737800,10.60873779296875,-0.16854824125766754,-1.3112672567367554,0.845989465713501
1726995604818723600,10.6187236328125,-0.4546223282814026,-1.0988080501556396,1.038845181465149
1726995604828710000,10.6287099609375,-0.7322943210601807,-0.8137710094451904,1.168877363204956
1726995604838695700,10.63869580078125,-1.0098985433578491,-0.5344261527061462,1.2510802745819092
1726995604848681700,10.648681640625,-1.2784481048583984,-0.3075823485851288,1.2795381546020508
1726995604858667800,10.658667724609375,-1.5143146514892578,-0.0553026981651783,1.2323371171951294
1726995604868653800,10.66865380859375,-1.688755989074707,0.13036464154720306,1.111161470413208
1726995604878639600,10.6786396484375,-1.7573422193527222,0.2726227045059204,0.8846124410629272
1726995604888626000,10.6886259765625,-1.718055009841919,0.43789130449295044,0.542543888092041
1726995604898611700,10.69861181640625,-1.5710489749908447,0.5264353156089783,0.08385677635669708
1726995604908597800,10.70859765625,-1.3907465934753418,0.5163392424583435,-0.4036658704280853
1726995604918583800,10.718583740234376,-1.1270276308059692,0.5228482484817505,-0.797346830368042
1726995604928569900,10.72856982421875,-0.8688626885414124,0.5604475736618042,-1.0642046928405762
1726995604938555600,10.7385556640625,-0.7367352843284607,0.47658732533454895,-1.2125192880630493
1726995604948542000,10.7485419921875,-0.6801615357398987,0.35526856780052185,-1.207565426826477
1726995604958528800,10.75852880859375,-0.6315093040466309,0.2261904925107956,-1.1197130680084229
1726995604968514600,10.7685146484375,-0.5639159083366394,0.08877138048410416,-0.9940129518508911
1726995604978500900,10.7785009765625,-0.469230979681015,0.00043087126687169075,-0.8633731603622437
1726995604988486700,10.788486572265626,-0.3678269386291504,0.0002044999855570495,-0.7509247064590454
1726995604998473500,10.798473388671875,-0.2750261425971985,0.04408886656165123,-0.6466630101203918
1726995605008459300,10.808459228515625,-0.22573897242546082,0.09697099775075912,-0.5359448790550232
1726995605018445600,10.818445556640626,-0.2079482525587082,0.1182113066315651,-0.45713186264038086
1726995605028431400,10.828431396484374,-0.21491478383541107,0.12583807110786438,-0.4000289738178253
1726995605038417400,10.83841748046875,-0.23299391567707062,0.13542811572551727,-0.35869431495666504
1726995605048403500,10.848403564453125,-0.24063599109649658,0.17620696127414703,-0.33175793290138245
1726995605058389500,10.858389404296876,-0.24831043183803558,0.23497441411018372,-0.3092899024486542
1726995605068375300,10.868375244140625,-0.2080187201499939,0.2985469698905945,-0.27116841077804565
1726995605078361600,10.878361572265625,-0.17916151881217957,0.2539163827896118,-0.271851509809494
1726995605088347400,10.888347412109376,-0.12855800986289978,0.24841353297233582,-0.2770117223262787
1726995605098333400,10.89833349609375,-0.10943678766489029,0.2380751371383667,-0.29587915539741516
1726995605108320500,10.908320556640625,-0.13579365611076355,0.2413095384836197,-0.3149469196796417
1726995605118306300,10.918306396484375,-0.21866802871227264,0.3277472257614136,-0.28930413722991943
1726995605128292400,10.928292236328126,-0.2863360047340393,0.3895277678966522,-0.24822036921977997
1726995605138278400,10.9382783203125,-0.3059648275375366,0.40794646739959717,-0.19157573580741882
1726995605148264400,10.948264404296875,-0.31437715888023376,0.4017745852470398,-0.10659711807966232
1726995605158250200,10.958250244140626,-0.33568617701530457,0.3846195638179779,-0.0011750890407711267
1726995605168236500,10.968236572265624,-0.3843168318271637,0.3615981340408325,0.10035207122564316
1726995605178222300,10.978222412109375,-0.42764461040496826,0.31318214535713196,0.17078281939029694
1726995605188208400,10.98820849609375,-0.4338582456111908,0.16307438910007477,0.1898629516363144
1726995605198194400,10.9981943359375,-0.4080841839313507,0.011790861375629902,0.1385853886604309
1726995605208180500,11.008180419921874,-0.359581857919693,-0.09897398948669434,0.058301184326410294
1726995605218166300,11.018166259765625,-0.2823491394519806,-0.0963212177157402,-0.023084217682480812
1726995605228152600,11.028152587890625,-0.17907178401947021,0.007020614109933376,-0.10524316132068634
1726995605238138400,11.038138427734374,-0.06226448342204094,0.13586461544036865,-0.1719854474067688
1726995605248124400,11.04812451171875,0.028361910954117775,0.17319387197494507,-0.18904532492160797
1726995605258110500,11.0581103515625,0.09747546166181564,0.17984671890735626,-0.1958899199962616
1726995605268097300,11.06809716796875,0.1644885092973709,0.14757214486598969,-0.18476223945617676
1726995605278083300,11.078083251953124,0.23149417340755463,0.09736942499876022,-0.15494681894779205
1726995605288069400,11.0880693359375,0.2746356129646301,0.008472821675240993,-0.12221747636795044
1726995605298055400,11.098055419921875,0.2774391174316406,-0.11263708770275116,-0.09918326139450073
1726995605308041200,11.108041259765624,0.22872857749462128,-0.22749468684196472,-0.07376489788293839
1726995605318027500,11.118027587890625,0.19643428921699524,-0.20675478875637054,0.025981396436691284
1726995605328013300,11.128013427734375,0.10997822880744934,-0.3234102725982666,0.01042926125228405
1726995605337999400,11.137999267578126,0.1390325129032135,-0.4301404356956482,-0.013029991649091244
1726995605347985400,11.1479853515625,0.21341614425182343,-0.47181254625320435,-0.0318705178797245
1726995605357971500,11.157971435546875,0.24887852370738983,-0.4577212333679199,-0.0496620312333107
1726995605367957200,11.167957275390625,0.22408074140548706,-0.4490808844566345,-0.039840634912252426
1726995605377943600,11.177943603515626,0.21210555732250214,-0.408734530210495,-0.012985051609575748
1726995605387929300,11.187929443359375,0.25107088685035706,-0.30610108375549316,0.03183698654174805
1726995605397915400,11.197915283203125,0.2994413673877716,-0.21682099997997284,0.09301165491342545
1726995605407901400,11.2079013671875,0.3341197967529297,-0.14673246443271637,0.14839382469654083
1726995605417887500,11.217887451171874,0.34873151779174805,-0.08261339366436005,0.18062260746955872
1726995605427874300,11.227874267578125,0.33012619614601135,-0.03776361048221588,0.17992262542247772
1726995605437860600,11.237860595703125,0.3117365539073944,0.019757740199565887,0.14836736023426056
1726995605447846400,11.247846435546874,0.3068632483482361,0.05930085480213165,0.08891316503286362
1726995605457832400,11.25783251953125,0.33520567417144775,0.09742667526006699,0.021267274394631386
1726995605467818500,11.267818603515625,0.39400961995124817,0.16505923867225647,-0.029527822509407997
1726995605477804500,11.277804443359376,0.48365694284439087,0.2455197274684906,-0.04629668593406677
1726995605487790300,11.287790283203124,0.5800142288208008,0.32147204875946045,-0.03644736856222153
1726995605497776400,11.2977763671875,0.6291120052337646,0.3653380572795868,-0.016870470717549324
1726995605507762400,11.307762451171875,0.6516204476356506,0.38458922505378723,0.026293622329831123
1726995605517748500,11.31774853515625,0.6814185380935669,0.4576604962348938,0.04847189784049988
1726995605527734500,11.327734619140625,0.7349175214767456,0.5140033960342407,0.04451849311590195
1726995605537720300,11.33772021484375,0.8513453006744385,0.5295240879058838,0.07485908269882202
1726995605547706400,11.347706298828125,1.0108716487884521,0.6486961841583252,0.15868063271045685
1726995605557692400,11.3576923828125,1.1571143865585327,0.7828976511955261,0.24426370859146118
1726995605567678500,11.367678466796875,1.292661428451538,0.8486034274101257,0.31953781843185425
1726995605577664300,11.377664306640625,1.4720346927642822,0.6714015007019043,0.4456416964530945
1726995605587651600,11.387651611328126,1.601088285446167,0.5117191672325134,0.5366969108581543
1726995605597637400,11.397637451171875,1.6234066486358643,0.24177506566047668,0.4734788239002228
1726995605607623400,11.40762353515625,1.5671108961105347,-0.18206247687339783,0.3946206867694855
1726995605617609500,11.417609375,1.4481266736984253,-0.6377053260803223,0.3449133336544037
1726995605627595500,11.427595458984374,1.2600713968276978,-1.1830302476882935,0.2831552028656006
1726995605637581300,11.437581298828125,1.0212342739105225,-1.730504035949707,0.32309383153915405
1726995605647567600,11.447567626953125,0.7622366547584534,-2.0607712268829346,0.5436504483222961
1726995605657553400,11.457553466796876,0.4587494730949402,-1.9164173603057861,0.7516036629676819
1726995605667539500,11.46753955078125,0.06613970547914505,-1.46132493019104,0.90251624584198
1726995605677525500,11.477525390625,-0.2833607494831085,-1.1631194353103638,1.0668660402297974
1726995605687511600,11.487511474609375,-0.5594203472137451,-1.0266302824020386,1.1845558881759644
1726995605697497300,11.497497314453126,-0.8355720639228821,-0.7959524989128113,1.205354928970337
1726995605707483600,11.507483642578125,-0.9800992608070374,-0.578324556350708,1.1181796789169312
1726995605717469400,11.517469482421875,-1.0971490144729614,-0.3306165337562561,0.9606014490127563
1726995605727455500,11.52745556640625,-1.1498584747314453,-0.006844056770205498,0.7263550162315369
1726995605737441300,11.537441162109374,-1.1754924058914185,0.27303099632263184,0.4555203318595886
1726995605747427600,11.547427490234375,-1.1715337038040161,0.5015349984169006,0.15195374190807343
1726995605757413400,11.557413330078125,-1.1747968196868896,0.6592164635658264,-0.219956174492836
1726995605767399400,11.5673994140625,-1.1744999885559082,0.7337030172348022,-0.6028152108192444
1726995605777386500,11.577386474609375,-1.1231526136398315,0.7672247886657715,-0.928168535232544
1726995605787372300,11.587372314453125,-1.0340802669525146,0.7433156967163086,-1.200504183769226
1726995605797358600,11.597358642578126,-0.9341800808906555,0.7050405144691467,-1.379959225654602
1726995605807344400,11.607344482421874,-0.8115220069885254,0.6559619307518005,-1.423626184463501
1726995605817330400,11.617330322265625,-0.7144055962562561,0.5661468505859375,-1.4122899770736694
1726995605827316500,11.62731640625,-0.6186981201171875,0.5046088695526123,-1.3770424127578735
1726995605837302500,11.637302490234376,-0.5095553994178772,0.460578054189682,-1.29796302318573
1726995605847288300,11.647288330078124,-0.4018549621105194,0.4151220917701721,-1.159256935119629
1726995605857274600,11.657274658203125,-0.3228245973587036,0.4149119555950165,-0.9969692826271057
1726995605867260400,11.667260498046875,-0.2784454822540283,0.4519405663013458,-0.8327239751815796
1726995605877246500,11.67724658203125,-0.2812593877315521,0.464225172996521,-0.7099077701568604
1726995605887232300,11.687232177734375,-0.2771476209163666,0.42027050256729126,-0.6262357234954834
1726995605897218600,11.697218505859375,-0.24894794821739197,0.33183813095092773,-0.5616050362586975
1726995605907204400,11.707204345703126,-0.2041109800338745,0.2540881931781769,-0.5066582560539246
1726995605917190400,11.7171904296875,-0.1564134955406189,0.21711207926273346,-0.4513801038265228
1726995605927176400,11.727176513671875,-0.11495954543352127,0.19862467050552368,-0.4185422658920288
1726995605937162500,11.73716259765625,-0.09084834903478622,0.16502569615840912,-0.41056209802627563
1726995605947149600,11.747149658203124,-0.08808904886245728,0.1274642050266266,-0.3866160213947296
1726995605957135400,11.75713525390625,-0.11663041263818741,0.10788305103778839,-0.3372471332550049
1726995605967121400,11.767121337890625,-0.12933287024497986,0.13031087815761566,-0.2932373285293579
1726995605977107500,11.777107421875,-0.13986380398273468,0.1801881492137909,-0.2694622278213501
1726995605987093500,11.787093505859374,-0.15946225821971893,0.3005529046058655,-0.26341161131858826
1726995605997079000,11.7970791015625,-0.1445070058107376,0.32051515579223633,-0.2079118937253952
1726995606007065000,11.807065185546875,-0.12932689487934113,0.25935831665992737,-0.1485665738582611
1726995606017051100,11.817051025390626,-0.1569334864616394,0.22615723311901093,-0.05671148747205734
1726995606027037200,11.827037109375,-0.24550890922546387,0.20752441883087158,0.09538324922323227
1726995606037023000,11.83702294921875,-0.3496350347995758,0.18333306908607483,0.23248755931854248
1726995606047009300,11.84700927734375,-0.38111743330955505,0.15545353293418884,0.297385036945343
1726995606056995000,11.8569951171875,-0.3415021300315857,0.14328740537166595,0.299770712852478
1726995606066981000,11.866981201171875,-0.2460346221923828,0.14444398880004883,0.27034759521484375
1726995606076967200,11.87696728515625,-0.12469860911369324,0.15477785468101501,0.215131476521492
1726995606086953200,11.886953125,-0.06610869616270065,0.13002699613571167,0.13215073943138123
1726995606096939000,11.89693896484375,-0.036943353712558746,0.09973247349262238,0.0035797106102108955
1726995606106925000,11.906925048828125,-0.008561012335121632,0.10148454457521439,-0.11846603453159332
1726995606116912000,11.916912109375,0.01826127991080284,0.07041104882955551,-0.19959710538387299
1726995606126898200,11.926898193359374,0.027910655364394188,0.030420202761888504,-0.2362549602985382
1726995606136884200,11.93688427734375,0.010911698453128338,-0.02160331793129444,-0.2193862348794937
1726995606146870000,11.9468701171875,-0.01568732038140297,-0.09926479309797287,-0.18033084273338318
1726995606156856000,11.95685595703125,-0.03475288674235344,-0.16210713982582092,-0.11944777518510818
1726995606166842000,11.966842041015624,-0.027041181921958923,-0.2047680765390396,-0.033938199281692505
1726995606176828200,11.976828125,0.05579644441604614,-0.16296391189098358,0.10114186257123947
1726995606186814000,11.98681396484375,0.11014195531606674,-0.25756925344467163,0.16327162086963654
1726995606196800300,11.99680029296875,0.16699911653995514,-0.36492180824279785,0.15514126420021057
1726995606206786000,12.0067861328125,0.21252578496932983,-0.4123116731643677,0.15636269748210907
1726995606216772000,12.016772216796875,0.2341189682483673,-0.4145127832889557,0.15710492432117462
1726995606226758100,12.026758056640626,0.2439083307981491,-0.40284785628318787,0.15388768911361694
1726995606236744200,12.036744140625,0.2460138201713562,-0.37513473629951477,0.18092650175094604
1726995606246730000,12.04672998046875,0.24774077534675598,-0.34736812114715576,0.2175651639699936
1726995606256716000,12.056716064453125,0.25057253241539,-0.3275219798088074,0.24839231371879578
1726995606266702000,12.0667021484375,0.24930408596992493,-0.28121787309646606,0.2709432542324066
1726995606276689200,12.076689208984375,0.27132999897003174,-0.1983828991651535,0.31212905049324036
1726995606286675200,12.08667529296875,0.3272777199745178,-0.09442611783742905,0.34695935249328613
1726995606296661200,12.0966611328125,0.40119507908821106,-0.0011587593471631408,0.3650933504104614
1726995606306647000,12.10664697265625,0.47205713391304016,0.0775592178106308,0.3721178472042084
1726995606316633300,12.11663330078125,0.5312541127204895,0.14166364073753357,0.3870656490325928
1726995606326619100,12.126619140625,0.5748674869537354,0.1729576736688614,0.4001312553882599
1726995606336605200,12.136605224609376,0.6163483262062073,0.15183667838573456,0.41921815276145935
1726995606346591200,12.14659130859375,0.6907621622085571,0.12218715995550156,0.4203466773033142
1726995606356577300,12.156577392578125,0.7709851264953613,0.1866215318441391,0.4183935225009918
1726995606366563000,12.16656298828125,0.8418391346931458,0.22518277168273926,0.42166146636009216
1726995606376549000,12.176549072265624,0.9307979941368103,0.27578631043434143,0.44425493478775024
1726995606386535200,12.18653515625,1.0794956684112549,0.3353031277656555,0.5126365423202515
1726995606396521200,12.196521240234375,1.2921935319900513,0.40690913796424866,0.6168710589408875
1726995606406507000,12.206507080078126,1.4861088991165161,0.5056682229042053,0.6998788714408875
1726995606416493000,12.2164931640625,1.6796549558639526,0.5937346816062927,0.7553120255470276
1726995606426479000,12.22647900390625,1.8173236846923828,0.5174961090087891,0.7132702469825745
1726995606436466200,12.236466064453126,1.8968603610992432,0.3617999851703644,0.5567807555198669
1726995606446452200,12.2464521484375,1.8742029666900635,-0.05104510486125946,0.2665952146053314
1726995606456438000,12.25643798828125,1.7460854053497314,-0.6534822583198547,0.06603603065013885
1726995606466424300,12.26642431640625,1.4895436763763428,-1.2633442878723145,-0.013462552800774574
1726995606476410000,12.27641015625,1.2030621767044067,-1.8217095136642456,-0.01156558282673359
1726995606486396200,12.286396240234374,0.8658308982849121,-2.155909776687622,0.18769274652004242
1726995606496382200,12.29638232421875,0.4950760006904602,-2.1974880695343018,0.4816993474960327
1726995606506368300,12.3063681640625,0.13998089730739594,-1.9610793590545654,0.7655438780784607
1726995606516354000,12.31635400390625,-0.19633959233760834,-1.5677611827850342,1.0120559930801392
1726995606526340400,12.32634033203125,-0.4796397089958191,-1.2687933444976807,1.1967390775680542
1726995606536326100,12.336326171875,-0.7229461669921875,-0.9983604550361633,1.2990425825119019
1726995606546312200,12.346312255859376,-0.9886746406555176,-0.689028263092041,1.3169668912887573
1726995606556298000,12.356298095703124,-1.2166043519973755,-0.3618258535861969,1.2243399620056152
1726995606566284300,12.3662841796875,-1.4101910591125488,-0.05839116498827934,1.0969078540802002
1726995606576270000,12.37627001953125,-1.5311998128890991,0.17620164155960083,0.8591222763061523
1726995606586256100,12.386256103515626,-1.5843040943145752,0.3877069354057312,0.5023937821388245
1726995606596243200,12.3962431640625,-1.5883598327636719,0.5438176989555359,0.10515694320201874
1726995606606229000,12.40622900390625,-1.560964584350586,0.6693066954612732,-0.3529817461967468
1726995606616215300,12.41621533203125,-1.523133635520935,0.7579795718193054,-0.8179582357406616
