time,seconds_elapsed,z,y,x
1726995594217352000,0.01735205078125,-0.061098773032426834,-0.40120840072631836,0.2130132019519806
1726995594227337700,0.027337646484375,-0.09369213879108429,-0.4487554132938385,0.2858634293079376
1726995594237324000,0.037323974609375,-0.12521198391914368,-0.4339618384838104,0.36843767762184143
1726995594247309800,0.047309814453125,-0.15488864481449127,-0.3849189281463623,0.43729105591773987
1726995594257296000,0.0572958984375,-0.17678436636924744,-0.3376145362854004,0.4932733476161957
1726995594267282000,0.067281982421875,-0.18168218433856964,-0.31095361709594727,0.5260222554206848
1726995594277268000,0.07726806640625,-0.17543892562389374,-0.29561513662338257,0.5432412028312683
1726995594287253800,0.087253662109375,-0.15616749227046967,-0.2914656698703766,0.5389300584793091
1726995594297240000,0.097239990234375,-0.12474299967288971,-0.26936623454093933,0.5204722285270691
1726995594307225900,0.107225830078125,-0.10507262498140335,-0.2563217878341675,0.47366076707839966
1726995594317212000,0.1172119140625,-0.10929346829652786,-0.2385888695716858,0.4122043251991272
1726995594327198000,0.127197998046875,-0.12949727475643158,-0.19064344465732574,0.3410441279411316
1726995594337184000,0.13718408203125,-0.14356648921966553,-0.11557479947805405,0.2827022671699524
1726995594347169000,0.1471689453125,-0.13580043613910675,-0.04147766903042793,0.23795850574970245
1726995594357154800,0.15715478515625,-0.1085006445646286,0.02840101532638073,0.20940542221069336
1726995594367141000,0.16714111328125,-0.07402389496564865,0.09582293033599854,0.1942317932844162
1726995594377127000,0.177126953125,-0.04578852653503418,0.14768347144126892,0.20076106488704681
1726995594387113000,0.187113037109375,-0.04502313584089279,0.1721230298280716,0.21501190960407257
1726995594397099000,0.19709912109375,-0.0677524134516716,0.1805708408355713,0.2508769631385803
1726995594407085000,0.2070849609375,-0.08515457808971405,0.19894719123840332,0.3056057095527649
1726995594417070800,0.21707080078125,-0.0698413997888565,0.19966650009155273,0.35340067744255066
1726995594427057200,0.22705712890625,-0.04597628116607666,0.18242627382278442,0.3780064284801483
1726995594437043000,0.23704296875,-0.044870536774396896,0.1969759166240692,0.39428311586380005
1726995594447029000,0.247029052734375,-0.08560438454151154,0.2126169204711914,0.40256714820861816
1726995594457015000,0.25701513671875,-0.1574958860874176,0.19804491102695465,0.4007178544998169
1726995594467001000,0.2670009765625,-0.23290488123893738,0.11997673660516739,0.3853452801704407
1726995594476987000,0.27698681640625,-0.28075069189071655,0.017666878178715706,0.3814946413040161
1726995594486973000,0.286972900390625,-0.30651891231536865,-0.051476508378982544,0.39678463339805603
1726995594496959000,0.296958984375,-0.3379990756511688,-0.05254656448960304,0.4374234080314636
1726995594506944800,0.30694482421875,-0.3861764669418335,0.0388089157640934,0.4815024435520172
1726995594516930800,0.316930908203125,-0.46127521991729736,0.13925322890281677,0.518696129322052
1726995594526916000,0.326916015625,-0.5819571614265442,0.15628574788570404,0.5498450398445129
1726995594536902000,0.33690185546875,-0.7049733400344849,0.04657735675573349,0.5810239911079407
1726995594546888000,0.346887939453125,-0.8003435730934143,-0.17676039040088654,0.608269989490509
1726995594556874000,0.3568740234375,-0.8660136461257935,-0.3766266405582428,0.668192982673645
1726995594566860000,0.366860107421875,-0.9525397419929504,-0.4962654113769531,0.7812851667404175
1726995594576845800,0.376845703125,-1.1033388376235962,-0.5047720670700073,0.9256309270858765
1726995594586832000,0.386831787109375,-1.2788587808609009,-0.3918207585811615,1.07279634475708
1726995594596818000,0.39681787109375,-1.4013843536376953,-0.16042296588420868,1.158259391784668
1726995594606804000,0.406803955078125,-1.41225004196167,0.09333926439285278,1.1625031232833862
1726995594616789800,0.416789794921875,-1.3402355909347534,0.198918417096138,1.1272326707839966
1726995594626776000,0.426776123046875,-1.2717357873916626,0.24249014258384705,1.0918723344802856
1726995594636761900,0.436761962890625,-1.2029565572738647,0.23575499653816223,1.0665078163146973
1726995594646748000,0.446747802734375,-1.1156197786331177,0.19330048561096191,1.0542093515396118
1726995594656734000,0.45673388671875,-1.0309019088745117,0.1365399956703186,1.012874722480774
1726995594666720000,0.466719970703125,-0.9285569190979004,0.2141977846622467,0.9728085398674011
1726995594676705800,0.476705810546875,-0.8070043921470642,0.5015584230422974,0.9312688112258911
1726995594686692000,0.486692138671875,-0.7541912198066711,0.9167236685752869,0.846844494342804
1726995594696678000,0.496677978515625,-0.8097985982894897,1.1792831420898438,0.7290714979171753
1726995594706664000,0.506663818359375,-0.9295305609703064,1.202185034751892,0.6799598932266235
1726995594716648700,0.516648681640625,-1.0584810972213745,0.8608462810516357,0.7565662264823914
1726995594726635000,0.526635009765625,-1.136517882347107,0.30333805084228516,0.9680281281471252
1726995594736620800,0.536620849609375,-1.1237099170684814,-0.304923951625824,1.2553986310958862
1726995594746606800,0.54660693359375,-1.0336055755615234,-0.985220193862915,1.5824623107910156
1726995594756593000,0.556593017578125,-0.8684917092323303,-1.495608925819397,1.9452722072601318
1726995594766579000,0.566578857421875,-0.5741003155708313,-1.7602453231811523,2.29406476020813
1726995594776564700,0.576564697265625,-0.18223318457603455,-1.741823673248291,2.6555113792419434
1726995594786551000,0.586551025390625,0.20378082990646362,-1.658282995223999,2.9311530590057373
1726995594796536800,0.596536865234375,0.5661718249320984,-1.6900739669799805,3.056757688522339
1726995594806523000,0.60652294921875,0.9035738110542297,-1.6318756341934204,3.1090848445892334
1726995594816509000,0.616509033203125,1.2166295051574707,-1.4048606157302856,3.0543947219848633
1726995594826495000,0.626494873046875,1.5122381448745728,-1.5809195041656494,2.8128063678741455
1726995594836480800,0.636480712890625,1.8188321590423584,-1.9896057844161987,2.540316343307495
1726995594846467000,0.646467041015625,2.2354507446289062,-2.846580743789673,2.1485350131988525
1726995594856452900,0.656452880859375,2.6279852390289307,-3.1352593898773193,1.9559885263442993
1726995594866439000,0.66643896484375,3.0841188430786133,-2.9714200496673584,1.7893257141113281
1726995594876425000,0.676425048828125,3.540191650390625,-2.462726354598999,1.7301231622695923
1726995594886411000,0.686410888671875,3.7043018341064453,-2.15887451171875,1.755428433418274
1726995594896396800,0.696396728515625,3.375325918197632,-1.8053816556930542,1.9276162385940552
1726995594906383000,0.706383056640625,2.8371896743774414,-1.4544334411621094,2.0475082397460938
1726995594916368100,0.7163681640625,2.3035449981689453,-1.1466397047042847,2.0195183753967285
1726995594926354000,0.72635400390625,1.8506479263305664,-0.8518499135971069,1.8345509767532349
1726995594936340000,0.736340087890625,1.596795916557312,-0.7605889439582825,1.5857590436935425
1726995594946326000,0.746325927734375,1.4180930852890015,-1.1021510362625122,1.5261061191558838
1726995594956312000,0.75631201171875,1.5605990886688232,-1.2625290155410767,1.6740877628326416
1726995594966297900,0.7662978515625,2.0551013946533203,-1.7233760356903076,1.8956308364868164
1726995594976284000,0.776283935546875,2.632652759552002,-2.248063325881958,2.2556777000427246
1726995594986270200,0.786270263671875,3.1844024658203125,-2.6471335887908936,2.809913158416748
1726995594996256000,0.796256103515625,3.499289035797119,-2.9217748641967773,3.3603603839874268
1726995595006242300,0.8062421875,3.3817150592803955,-2.883690595626831,3.810875654220581
1726995595016228000,0.81622802734375,3.0997490882873535,-2.511439561843872,4.010672569274902
1726995595026214100,0.826214111328125,2.8880438804626465,-2.06868839263916,3.989313840866089
1726995595036200200,0.8362001953125,2.7727811336517334,-2.5048444271087646,3.8706090450286865
1726995595046186200,0.846186279296875,2.801241636276245,-2.8032479286193848,3.760336399078369
1726995595056172000,0.856172119140625,3.0316083431243896,-2.5945088863372803,3.5727016925811768
1726995595066158000,0.866157958984375,3.2630815505981445,-1.9174525737762451,3.453070640563965
1726995595076144000,0.87614404296875,3.5647084712982178,-2.3105762004852295,3.3526337146759033
1726995595086130200,0.886130126953125,3.8450276851654053,-2.472985029220581,3.3710100650787354
1726995595096116000,0.896115966796875,4.149087429046631,-2.671921491622925,3.2409732341766357
1726995595106101200,0.906101318359375,4.570315361022949,-2.5138585567474365,3.003451347351074
1726995595116087300,0.91608740234375,4.961684703826904,-2.250818967819214,2.777808904647827
1726995595126073000,0.926072998046875,5.156614780426025,-1.8496801853179932,2.373847007751465
1726995595136059400,0.936059326171875,5.136075973510742,-1.8218873739242554,1.9553903341293335
1726995595146045200,0.946045166015625,5.275888919830322,-1.8703992366790771,1.5844372510910034
1726995595156031200,0.95603125,5.642683506011963,-1.840002179145813,1.243125557899475
1726995595166017000,0.96601708984375,5.910871982574463,-1.6628572940826416,1.065690517425537
1726995595176003300,0.97600341796875,5.2001447677612305,-1.6129714250564575,0.8435786366462708
1726995595185989000,0.985989013671875,3.9044077396392822,-0.8653651475906372,0.31665918231010437
1726995595195975200,0.99597509765625,2.6636931896209717,0.24129384756088257,-0.5062943696975708
1726995595205961200,1.005961181640625,1.9052472114562988,0.9499894976615906,-1.394960880279541
1726995595215947300,1.015947265625,1.7504353523254395,0.821814775466919,-2.2630648612976074
1726995595225933000,1.02593310546875,1.8739795684814453,0.3090795576572418,-2.7730958461761475
1726995595235919400,1.03591943359375,2.199014902114868,-0.45093467831611633,-2.806107521057129
1726995595245905200,1.0459052734375,2.5161919593811035,-1.3012969493865967,-2.3414011001586914
1726995595255891200,1.05589111328125,2.454167366027832,-1.8605929613113403,-1.4636139869689941
1726995595265877200,1.065877197265625,1.5536786317825317,-1.192169427871704,-0.3177036643028259
1726995595275863300,1.07586328125,0.12586870789527893,-0.5956862568855286,0.5222283005714417
1726995595285849000,1.08584912109375,-0.5938593745231628,-0.8933488726615906,1.2924113273620605
1726995595295835100,1.095835205078125,-0.3825812041759491,-1.3171336650848389,1.4862779378890991
1726995595305820200,1.105820068359375,0.06529724597930908,-1.5376620292663574,0.9794038534164429
1726995595315806200,1.11580615234375,0.5481424927711487,-2.218730926513672,0.6135513186454773
1726995595325792000,1.1257919921875,0.801112949848175,-2.8307433128356934,0.4894639849662781
1726995595335778300,1.1357783203125,0.6379604935646057,-2.843780994415283,0.34796303510665894
1726995595345764000,1.14576416015625,0.4082396924495697,-2.2578415870666504,0.08246824145317078
1726995595355750100,1.155750244140625,0.08684541285037994,-1.6734598875045776,0.009876599535346031
1726995595365736200,1.165736083984375,0.0021081583108752966,-1.3527100086212158,0.20423276722431183
1726995595375722200,1.17572216796875,0.4701816141605377,-0.6346397995948792,0.21253356337547302
1726995595385708000,1.1857080078125,1.3518149852752686,-0.44272148609161377,0.12477468699216843
1726995595395694300,1.1956943359375,1.7850258350372314,-0.7485067248344421,0.4282275140285492
1726995595405680000,1.20568017578125,1.8086293935775757,-1.572652816772461,0.8482357263565063
1726995595415666200,1.215666259765625,1.6590052843093872,-2.2765650749206543,1.4104300737380981
1726995595425652200,1.22565234375,1.7709025144577026,-2.6291322708129883,2.063664674758911
1726995595435638300,1.23563818359375,2.143360137939453,-2.8244874477386475,2.4801175594329834
1726995595445624000,1.2456240234375,2.8998069763183594,-2.2027883529663086,2.485713243484497
1726995595455610400,1.2556103515625,4.024851322174072,-1.7212995290756226,2.452444076538086
1726995595465596200,1.26559619140625,4.4690117835998535,-1.212517499923706,2.663710832595825
1726995595475582200,1.275582275390625,3.6632802486419678,-0.7252117991447449,2.519533157348633
1726995595485568300,1.285568359375,1.9644440412521362,-0.15695153176784515,2.410350799560547
1726995595495553300,1.29555322265625,-0.20732522010803223,-0.19726113975048065,2.3815739154815674
1726995595505539000,1.3055390625,-2.449739933013916,-0.16255056858062744,2.049269914627075
1726995595515525000,1.315525146484375,-3.9544224739074707,-0.59698086977005,0.8134026527404785
1726995595525511200,1.32551123046875,-3.348081111907959,-0.38433170318603516,-0.8978866338729858
1726995595535497200,1.335497314453125,-2.7932043075561523,0.4350214898586273,-2.2392349243164062
1726995595545483000,1.34548291015625,-3.319073438644409,0.8637001514434814,-3.1144659519195557
1726995595555469300,1.35546923828125,-3.7061550617218018,1.8020812273025513,-3.1658811569213867
1726995595565455000,1.365455078125,-4.1945295333862305,2.422410011291504,-2.88041090965271
1726995595575441200,1.375441162109375,-4.140789985656738,2.195580244064331,-2.1724648475646973
1726995595585427200,1.38542724609375,-3.6171343326568604,1.6835063695907593,-1.4869825839996338
1726995595595413200,1.395413330078125,-2.7020370960235596,1.8549646139144897,-1.1721134185791016
1726995595605399000,1.40539892578125,-2.092571258544922,2.3782408237457275,-1.2793852090835571
1726995595615385000,1.415385009765625,-1.7734684944152832,2.4557271003723145,-1.1107802391052246
1726995595625371100,1.42537109375,-1.2254184484481812,1.5257699489593506,-0.3143896162509918
1726995595635357200,1.435357177734375,-0.9006909132003784,0.227086141705513,0.6764048337936401
1726995595645343000,1.445343017578125,-0.8062858581542969,-0.7064434289932251,1.1911959648132324
1726995595655329300,1.455329345703125,-0.3870454430580139,-0.8540531396865845,1.2696466445922852
1726995595665315000,1.465315185546875,-0.11521660536527634,-0.45516592264175415,1.1670435667037964
1726995595675301000,1.475301025390625,0.7092043161392212,-0.17450948059558868,1.3298462629318237
1726995595685286400,1.485286376953125,1.2525203227996826,-0.2384336143732071,1.3530749082565308
1726995595695272200,1.495272216796875,1.49373459815979,-0.37596243619918823,1.5132746696472168
1726995595705258200,1.50525830078125,1.7277915477752686,-0.7399595975875854,1.4711956977844238
1726995595715244000,1.515244140625,1.9349082708358765,-1.3765392303466797,1.1905584335327148
1726995595725230300,1.525230224609375,2.032958984375,-2.0829904079437256,0.6922394633293152
1726995595735216000,1.535216064453125,2.138357400894165,-2.2397654056549072,0.49240437150001526
1726995595745202200,1.5452021484375,2.123366594314575,-2.239871025085449,0.39832019805908203
1726995595755188200,1.555188232421875,2.1646900177001953,-1.8206026554107666,0.13192607462406158
1726995595765174300,1.56517431640625,2.24531626701355,-0.6729522943496704,-0.18531686067581177
1726995595775160000,1.57516015625,2.191396951675415,-0.333763062953949,-0.557468056678772
1726995595785146000,1.58514599609375,1.7159215211868286,0.004769188817590475,-0.6236526966094971
1726995595795132200,1.595132080078125,1.1038932800292969,0.5920348167419434,-0.6181058287620544
1726995595805118200,1.6051181640625,0.6342059969902039,0.7186002135276794,-0.5641027688980103
1726995595815104300,1.615104248046875,0.019883427768945694,0.8637201189994812,-0.463619589805603
1726995595825090000,1.625090087890625,-0.4753561317920685,0.9964120984077454,-0.13381558656692505
1726995595835076000,1.635076171875,-0.7194651961326599,0.8327571749687195,0.18299990892410278
1726995595845062100,1.645062255859375,-0.8311275839805603,0.5831608772277832,0.35044002532958984
1726995595855048200,1.655048095703125,-0.9289761185646057,0.5318923592567444,0.39882275462150574
1726995595865033200,1.665033203125,-1.0322649478912354,0.557239830493927,0.396562784910202
1726995595875019000,1.67501904296875,-1.1102486848831177,0.7235976457595825,0.39647650718688965
1726995595885005300,1.68500537109375,-0.9555259346961975,0.6968579292297363,0.2928329408168793
1726995595894991000,1.6949912109375,-0.7113668322563171,0.6322930455207825,0.1876702904701233
1726995595904977200,1.70497705078125,-0.501133918762207,0.537151038646698,0.08427812904119492
1726995595914963200,1.714963134765625,-0.34067341685295105,0.31719207763671875,0.018792862072587013
1726995595924949200,1.72494921875,-0.17328843474388123,0.02491626888513565,-0.03214408829808235
1726995595934935000,1.73493505859375,-0.0024618261959403753,-0.10071675479412079,-0.0749426856637001
1726995595944921300,1.74492138671875,0.08258675783872604,-0.07178311049938202,-0.0886041671037674
1726995595954907100,1.7549072265625,0.09603545069694519,-0.05055079236626625,-0.06203993409872055
1726995595964893200,1.76489306640625,0.11715192347764969,-0.032579246908426285,-0.03237578272819519
1726995595974879200,1.774879150390625,0.15337331593036652,0.027347734197974205,-0.0078544607385993
1726995595984865300,1.784865234375,0.1742255985736847,0.08359050005674362,0.005369998048990965
1726995595994851600,1.7948515625,0.14376088976860046,0.09719526022672653,0.024839302524924278
1726995596004837600,1.804837646484375,0.07256128638982773,0.06730873137712479,0.07045206427574158
1726995596014823400,1.814823486328125,0.006392385344952345,0.0715186595916748,0.12208489328622818
1726995596024809500,1.8248095703125,-0.028499018400907516,0.08007912337779999,0.1505943089723587
1726995596034795500,1.83479541015625,-0.025499500334262848,0.07232799381017685,0.15328170359134674
1726995596044781600,1.844781494140625,0.003070092061534524,0.07324465364217758,0.13968226313591003
1726995596054767600,1.854767578125,0.055504269897937775,0.09771937131881714,0.1170046478509903
1726995596064752600,1.864752685546875,0.11792290955781937,0.1316208839416504,0.08302085101604462
1726995596074738400,1.874738525390625,0.17663095891475677,0.1670268028974533,0.06867200136184692
1726995596084724500,1.884724365234375,0.1941511034965515,0.2134733945131302,0.06204180046916008
1726995596094710500,1.89471044921875,0.15269020199775696,0.25365597009658813,0.060436446219682693
1726995596104696600,1.904696533203125,0.04809562489390373,0.29487344622612,0.06579285860061646
1726995596114682400,1.914682373046875,-0.08491489291191101,0.3564388155937195,0.06702297925949097
1726995596124668700,1.924668701171875,-0.2080884873867035,0.40445879101753235,0.04903252422809601
1726995596134654500,1.934654541015625,-0.26689907908439636,0.4266783595085144,0.03942197561264038
1726995596144640500,1.944640625,-0.23688365519046783,0.4187234938144684,0.03551378473639488
1726995596154626600,1.95462646484375,-0.1290637105703354,0.4123774468898773,0.04477918893098831
1726995596164612600,1.964612548828125,0.003425357863306999,0.40432456135749817,0.07039240747690201
1726995596174598400,1.974598388671875,0.10091489553451538,0.4046982228755951,0.09185376018285751
1726995596184584700,1.984584716796875,0.1358281373977661,0.41822442412376404,0.10530351847410202
1726995596194570500,1.994570556640625,0.12746208906173706,0.43543297052383423,0.09670203924179077
1726995596204556500,2.004556640625,0.07368434220552444,0.4623439311981201,0.07199563086032867
1726995596214542300,2.014542236328125,-0.00221947836689651,0.524882435798645,0.033969152718782425
1726995596224528600,2.024528564453125,-0.06251397728919983,0.5755916833877563,0.003433613572269678
1726995596234514400,2.034514404296875,-0.10685614496469498,0.6055247783660889,-0.03636573255062103
1726995596244500500,2.04450048828125,-0.12292006611824036,0.6655290126800537,-0.07139934599399567
1726995596254485500,2.054485595703125,-0.11055101454257965,0.7487125992774963,-0.08750215172767639
1726995596264471600,2.064471435546875,-0.06900463253259659,0.7779240012168884,-0.09270570427179337
1726995596274457300,2.074457275390625,-0.02046426199376583,0.7838274240493774,-0.08339555561542511
1726995596284443600,2.084443603515625,0.018393654376268387,0.7582792043685913,-0.06637156754732132
1726995596294429400,2.094429443359375,0.038001976907253265,0.6911931037902832,-0.055870987474918365
1726995596304415500,2.10441552734375,0.0580609068274498,0.6086034178733826,-0.0552976094186306
1726995596314401300,2.1144013671875,0.09627034515142441,0.5197798013687134,-0.06363916397094727
1726995596324387600,2.1243876953125,0.1473926454782486,0.47825977206230164,-0.10219880938529968
1726995596334373400,2.134373291015625,0.19693490862846375,0.4720591604709625,-0.14680488407611847
1726995596344359400,2.144359375,0.20685118436813354,0.5172263383865356,-0.176055446267128
1726995596354345500,2.154345458984375,0.19615992903709412,0.6013298034667969,-0.18312481045722961
1726995596364331500,2.16433154296875,0.1643332839012146,0.7007381319999695,-0.17750288546085358
1726995596374317300,2.1743173828125,0.1053067147731781,0.7704402208328247,-0.17165537178516388
1726995596384303600,2.1843037109375,0.030727019533514977,0.8344735503196716,-0.176351860165596
1726995596394289400,2.194289306640625,-0.06118639186024666,0.8663920760154724,-0.19400808215141296
1726995596404275500,2.204275390625,-0.15963466465473175,0.90355384349823,-0.23872868716716766
1726995596414261500,2.214261474609375,-0.24609152972698212,0.9437909722328186,-0.25213876366615295
1726995596424247600,2.22424755859375,-0.3340349793434143,0.9570460915565491,-0.2686176002025604
1726995596434233300,2.2342333984375,-0.41049379110336304,0.9703179597854614,-0.25985395908355713
1726995596444218400,2.24421826171875,-0.4586069881916046,0.9844529628753662,-0.23610574007034302
1726995596454204700,2.25420458984375,-0.4870716631412506,0.9855901002883911,-0.2180524319410324
1726995596464190500,2.2641904296875,-0.4859376847743988,0.9662968516349792,-0.2379441261291504
1726995596474176500,2.274176513671875,-0.47303253412246704,0.9079376459121704,-0.24927587807178497
1726995596484162600,2.28416259765625,-0.45540881156921387,0.8093743324279785,-0.23931485414505005
1726995596494148600,2.294148681640625,-0.39017653465270996,0.7396543622016907,-0.22797563672065735
1726995596504134400,2.304134521484375,-0.28677716851234436,0.6978778839111328,-0.19660307466983795
1726995596514120700,2.31412060546875,-0.1721653789281845,0.6274311542510986,-0.15209153294563293
1726995596524106500,2.3241064453125,-0.02779700979590416,0.5530272126197815,-0.12746314704418182
1726995596534092500,2.334092529296875,0.1411810964345932,0.4472659230232239,-0.09106359630823135
1726995596544078600,2.34407861328125,0.32278499007225037,0.32363906502723694,-0.030070018023252487
1726995596554064600,2.354064697265625,0.44699427485466003,0.16458602249622345,0.05320116877555847
1726995596564050400,2.364050537109375,0.49568989872932434,0.02388083189725876,0.12618057429790497
1726995596574036500,2.374036376953125,0.4994204640388489,-0.08557082712650299,0.1840212345123291
1726995596584022500,2.3840224609375,0.4757694602012634,-0.16432395577430725,0.23989808559417725
1726995596594008300,2.39400830078125,0.4331841766834259,-0.21028107404708862,0.30368319153785706
1726995596603994600,2.40399462890625,0.3755757510662079,-0.2317514717578888,0.3686504662036896
1726995596613980400,2.41398046875,0.3120090365409851,-0.25830450654029846,0.4193408191204071
1726995596623966500,2.423966552734375,0.23159834742546082,-0.3015907406806946,0.4534305930137634
1726995596633952500,2.433952392578125,0.15411819517612457,-0.31158772110939026,0.458015501499176
1726995596643937500,2.4439375,0.1474704146385193,-0.3140764534473419,0.43285849690437317
1726995596653923600,2.453923583984375,0.12543195486068726,-0.35038065910339355,0.4040795564651489
1726995596663909400,2.463909423828125,0.09643066674470901,-0.37585246562957764,0.37100788950920105
1726995596673895700,2.473895751953125,0.11623872816562653,-0.35085442662239075,0.35755655169487
1726995596683881500,2.483881591796875,0.21642950177192688,-0.28160902857780457,0.3637438714504242
1726995596693867500,2.493867431640625,0.3635323941707611,-0.1761726289987564,0.38079580664634705
1726995596703853600,2.503853515625,0.5135408043861389,-0.06130011007189751,0.39110732078552246
1726995596713839600,2.513839599609375,0.5757865905761719,0.012226572260260582,0.39404451847076416
1726995596723825400,2.523825439453125,0.5623565316200256,0.03561365231871605,0.41480863094329834
1726995596733811700,2.533811767578125,0.5288249850273132,-0.015212775208055973,0.4850122332572937
1726995596743797500,2.543797607421875,0.4865398108959198,-0.17144525051116943,0.5847002267837524
1726995596753783600,2.553783447265625,0.4311383366584778,-0.3715125620365143,0.6463289260864258
1726995596763769300,2.563769287109375,0.3801737129688263,-0.516972541809082,0.631055474281311
1726995596773755600,2.573755615234375,0.36617398262023926,-0.5693995356559753,0.5360948443412781
1726995596783741400,2.583741455078125,0.37460821866989136,-0.6034595370292664,0.3996131718158722
1726995596793727500,2.5937275390625,0.3845974802970886,-0.6046462059020996,0.2725050151348114
1726995596803713500,2.603713623046875,0.41628003120422363,-0.4756264388561249,0.20732735097408295
1726995596813699600,2.613699462890625,0.4993080794811249,-0.23820245265960693,0.20165428519248962
1726995596823685400,2.623685302734375,0.6529029607772827,0.023959927260875702,0.23653610050678253
1726995596833671700,2.633671630859375,0.753451943397522,0.17334462702274323,0.2579119801521301
1726995596843656400,2.643656494140625,0.7759018540382385,0.2298893928527832,0.30729177594184875
1726995596853642500,2.653642578125,0.7337437272071838,0.2885436415672302,0.3679729700088501
1726995596863628300,2.663628173828125,0.6947092413902283,0.3937408924102783,0.4152938723564148
1726995596873614600,2.673614501953125,0.6751619577407837,0.5023366212844849,0.4319218397140503
1726995596883600400,2.683600341796875,0.6643282175064087,0.4637785851955414,0.5106262564659119
1726995596893586400,2.69358642578125,0.7207672595977783,0.4488246738910675,0.6141476035118103
1726995596903572500,2.703572509765625,0.8908231258392334,0.519290030002594,0.6534484028816223
1726995596913558500,2.71355859375,1.0838767290115356,0.6525160074234009,0.6794477701187134
1726995596923544300,2.72354443359375,1.2883139848709106,0.7327176332473755,0.6379511952400208
1726995596933530600,2.733530517578125,1.3899564743041992,0.6235213875770569,0.6019359230995178
1726995596943516400,2.743516357421875,1.326229214668274,0.3292556703090668,0.6384212374687195
1726995596953502500,2.75350244140625,1.1254103183746338,-0.05077449604868889,0.7200785279273987
1726995596963488500,2.763488525390625,0.8162644505500793,-0.47997671365737915,0.8104326725006104
1726995596973474600,2.773474609375,0.428352952003479,-0.867469072341919,0.8823058009147644
1726995596983460400,2.78346044921875,0.031157387420535088,-1.1478967666625977,0.9490960240364075
1726995596993446700,2.79344677734375,-0.29831957817077637,-1.2652366161346436,1.0641368627548218
1726995597003432400,2.803432373046875,-0.5469219088554382,-1.196813702583313,1.1535365581512451
1726995597013418500,2.81341845703125,-0.7162976264953613,-1.0469352006912231,1.202871561050415
1726995597023404500,2.823404541015625,-0.7869888544082642,-0.9243344664573669,1.1823489665985107
1726995597033390600,2.833390625,-0.8014940619468689,-0.8514381647109985,1.1264371871948242
1726995597043376400,2.84337646484375,-0.7199709415435791,-0.745524525642395,1.0314878225326538
1726995597053361400,2.853361328125,-0.594897449016571,-0.6288471817970276,0.9496821761131287
1726995597063347500,2.863347412109375,-0.40311896800994873,-0.6250377893447876,0.8631158471107483
1726995597073333500,2.87333349609375,-0.1827399879693985,-0.7367302179336548,0.7110496163368225
1726995597083319600,2.883319580078125,-0.06609140336513519,-0.9215991497039795,0.5230094194412231
1726995597093305600,2.8933056640625,-0.04867326468229294,-1.027524471282959,0.3726731836795807
1726995597103291400,2.90329150390625,-0.11236675828695297,-0.9981748461723328,0.2290920466184616
1726995597113277400,2.91327734375,-0.20716756582260132,-0.9005916118621826,0.10372719168663025
1726995597123263500,2.923263427734375,-0.32300788164138794,-0.7935013771057129,0.03425810486078262
1726995597133249500,2.93324951171875,-0.40463244915008545,-0.6483737230300903,-0.02406805194914341
1726995597143235300,2.9432353515625,-0.46386006474494934,-0.4657176434993744,-0.08295293897390366
1726995597153221600,2.9532216796875,-0.48282790184020996,-0.2706011235713959,-0.10961517691612244
1726995597163207400,2.96320751953125,-0.45560693740844727,-0.06637316197156906,-0.1107984185218811
1726995597173193500,2.973193359375,-0.4337490499019623,0.06587115675210953,-0.10429311543703079
1726995597183179500,2.983179443359375,-0.4211203455924988,0.10301665961742401,-0.13740073144435883
1726995597193165600,2.99316552734375,-0.4330742061138153,0.09061671793460846,-0.20399920642375946
1726995597203151400,3.0031513671875,-0.4645298719406128,0.07811158150434494,-0.2840791344642639
1726995597213137400,3.013137451171875,-0.49554184079170227,0.05415964126586914,-0.360137403011322
1726995597223123500,3.02312353515625,-0.4839581549167633,0.04146594926714897,-0.4319378137588501
1726995597233109500,3.033109619140625,-0.4293351173400879,0.048041559755802155,-0.48774996399879456
1726995597243095300,3.04309521484375,-0.37300339341163635,0.07520686835050583,-0.5475184917449951
1726995597253081600,3.05308154296875,-0.32547158002853394,0.08988221734762192,-0.6068283915519714
1726995597263066600,3.063066650390625,-0.3230140209197998,0.08063705265522003,-0.6644243597984314
1726995597273052400,3.073052490234375,-0.34993642568588257,0.03900865092873573,-0.6910468935966492
1726995597283038700,3.083038818359375,-0.3393746018409729,0.00920068845152855,-0.6925097703933716
1726995597293024500,3.0930244140625,-0.27880340814590454,-0.041858501732349396,-0.6657646894454956
1726995597303010600,3.103010498046875,-0.28311213850975037,-0.1133209690451622,-0.6184544563293457
1726995597312996400,3.112996337890625,-0.3705005645751953,-0.14232279360294342,-0.5340178608894348
1726995597322982700,3.122982666015625,-0.39448606967926025,-0.14225994050502777,-0.4081403613090515
1726995597332968400,3.132968505859375,-0.32188910245895386,-0.07210535556077957,-0.3325273394584656
1726995597342954500,3.14295458984375,-0.1986217498779297,0.0016812535468488932,-0.3904194235801697
1726995597352940500,3.1529404296875,-0.13188932836055756,0.09730950742959976,-0.5207942128181458
1726995597362926600,3.162926513671875,-0.13652348518371582,0.2415260672569275,-0.6079384088516235
1726995597372912400,3.172912353515625,-0.2075321525335312,0.3532547354698181,-0.6525223851203918
1726995597382898700,3.182898681640625,-0.33038005232810974,0.420320063829422,-0.6496565937995911
1726995597392884500,3.192884521484375,-0.4369871914386749,0.4442344307899475,-0.6022158265113831
1726995597402870500,3.20287060546875,-0.5270528793334961,0.4442054033279419,-0.5343558192253113
1726995597412856600,3.212856689453125,-0.6041064262390137,0.442143052816391,-0.4579313397407532
1726995597422842600,3.222842529296875,-0.6316706538200378,0.4545328915119171,-0.39142635464668274
1726995597432828400,3.232828369140625,-0.6491082310676575,0.45824241638183594,-0.3567940890789032
1726995597442814500,3.242814453125,-0.6478115320205688,0.41495057940483093,-0.353525310754776
1726995597452800500,3.252800537109375,-0.6490818858146667,0.33887019753456116,-0.33417344093322754
1726995597462785500,3.26278564453125,-0.6057794094085693,0.2976870834827423,-0.3046365976333618
1726995597472771300,3.272771240234375,-0.5355685949325562,0.2667853534221649,-0.2627362906932831
1726995597482757600,3.282757568359375,-0.43079879879951477,0.25385650992393494,-0.1936778575181961
1726995597492743400,3.292743408203125,-0.32247525453567505,0.20833376049995422,-0.09581440687179565
1726995597502729500,3.3027294921875,-0.250043660402298,0.11823742836713791,0.03491590544581413
1726995597512715500,3.312715576171875,-0.19542968273162842,-0.014592258259654045,0.1945210099220276
1726995597522701600,3.32270166015625,-0.1837405413389206,-0.15356266498565674,0.3598436713218689
1726995597532687400,3.332687255859375,-0.20548205077648163,-0.20003242790699005,0.48164573311805725
1726995597542673700,3.342673583984375,-0.2605956494808197,-0.17456647753715515,0.5325337052345276
1726995597552659500,3.352659423828125,-0.32250988483428955,-0.0970517173409462,0.5311722755432129
1726995597562645500,3.3626455078125,-0.3679697513580322,0.030941404402256012,0.5089649558067322
1726995597572631600,3.372631591796875,-0.39923155307769775,0.11608133465051651,0.4705936014652252
1726995597582617600,3.38261767578125,-0.37306439876556396,0.10561724007129669,0.4201759696006775
1726995597592603400,3.392603271484375,-0.2786595821380615,0.034621626138687134,0.3940652906894684
1726995597602589700,3.402589599609375,-0.16321049630641937,-0.038427017629146576,0.4024406671524048
1726995597612575500,3.412575439453125,-0.05579216033220291,-0.1120583638548851,0.41956743597984314
1726995597622561500,3.4225615234375,0.006757771130651236,-0.1585632711648941,0.4564988315105438
1726995597632547600,3.432547607421875,0.004686630796641111,-0.17628182470798492,0.48575925827026367
1726995597642533600,3.44253369140625,-0.059577576816082,-0.1655450165271759,0.4966545104980469
1726995597652519400,3.45251953125,-0.1883203685283661,-0.13952353596687317,0.5064876675605774
1726995597662505500,3.46250537109375,-0.3199971914291382,-0.08371061086654663,0.5145240426063538
1726995597672491500,3.472491455078125,-0.36067643761634827,-0.044730719178915024,0.5258252024650574
1726995597682476500,3.4824765625,-0.29095780849456787,-0.05806250497698784,0.5210338830947876
1726995597692462300,3.49246240234375,-0.17515237629413605,-0.11799534410238266,0.4860854744911194
1726995597702448600,3.50244873046875,-0.06397125869989395,-0.1909973919391632,0.4149167537689209
1726995597712434400,3.512434326171875,-0.007782555650919676,-0.26087686419487,0.33644673228263855
1726995597722420500,3.52242041015625,-0.037335921078920364,-0.2834461033344269,0.2786785066127777
1726995597732406500,3.532406494140625,-0.14460937678813934,-0.19569706916809082,0.23999261856079102
1726995597742392600,3.542392578125,-0.3123307228088379,-0.024644359946250916,0.21390962600708008
1726995597752378400,3.55237841796875,-0.4717550277709961,0.19306373596191406,0.18849508464336395
1726995597762364400,3.562364501953125,-0.6112418174743652,0.32143768668174744,0.12922722101211548
1726995597772350500,3.5723505859375,-0.6698132157325745,0.3845657706260681,0.08867260813713074
1726995597782336500,3.58233642578125,-0.6630935668945312,0.4687994420528412,0.08729788661003113
1726995597792322300,3.592322265625,-0.6132269501686096,0.564558207988739,0.1393725425004959
1726995597802308600,3.60230859375,-0.5315884947776794,0.6132937669754028,0.1554524451494217
1726995597812294400,3.61229443359375,-0.5056591629981995,0.7227813601493835,0.16539216041564941
1726995597822280400,3.622280517578125,-0.6250697374343872,1.0368391275405884,0.2690112292766571
1726995597832266500,3.6322666015625,-0.907218337059021,1.4689756631851196,0.43060943484306335
1726995597842252500,3.64225244140625,-1.2811863422393799,1.8299267292022705,0.5826663374900818
1726995597852238300,3.65223828125,-1.6860342025756836,2.118220329284668,0.6387062072753906
1726995597862224600,3.662224609375,-2.1028313636779785,2.3577561378479004,0.686045229434967
1726995597872210400,3.67221044921875,-2.473632574081421,2.3681488037109375,0.7201871871948242
1726995597882196500,3.682196533203125,-2.8188893795013428,2.106827735900879,0.6948133707046509
1726995597892181500,3.692181396484375,-3.1536037921905518,1.6527892351150513,0.6400294899940491
1726995597902167600,3.70216748046875,-3.224027395248413,1.0783575773239136,0.5575388669967651
1726995597912153600,3.712153564453125,-3.065936803817749,0.554326593875885,0.45297226309776306
1726995597922139400,3.722139404296875,-2.703232526779175,0.03870505094528198,0.3179345726966858
1726995597932125700,3.732125732421875,-2.1879725456237793,-0.42012351751327515,0.1052558496594429
1726995597942111500,3.742111572265625,-1.6795097589492798,-0.6317260265350342,-0.15750254690647125
1726995597952097500,3.75209765625,-1.2342790365219116,-0.5069982409477234,-0.4439007341861725
1726995597962083600,3.76208349609375,-0.8945739269256592,-0.199009507894516,-0.7182388305664062
1726995597972069400,3.7720693359375,-0.6630155444145203,0.06344528496265411,-0.915129542350769
1726995597982055400,3.782055419921875,-0.47735804319381714,0.2165251076221466,-1.0228855609893799
1726995597992040700,3.792040771484375,-0.3363577723503113,0.2595823109149933,-1.000992774963379
1726995598002026800,3.80202685546875,-0.223908469080925,0.21080730855464935,-0.8686150312423706
1726995598012012800,3.8120126953125,-0.09086758643388748,0.15351179242134094,-0.7176318764686584
1726995598021998600,3.82199853515625,0.08517268300056458,0.18308806419372559,-0.525939404964447
1726995598031985000,3.83198486328125,0.34474512934684753,0.25885871052742004,-0.33401021361351013
1726995598041970700,3.841970703125,0.5928172469139099,0.24286749958992004,-0.14893914759159088
1726995598051956700,3.851956787109375,0.8343585133552551,0.11580383032560349,0.05549654737114906
1726995598061942800,3.86194287109375,1.0638494491577148,-0.1004059687256813,0.2443000227212906
1726995598071928800,3.8719287109375,1.2853169441223145,-0.428505539894104,0.3865154981613159
1726995598081914600,3.88191455078125,1.4702417850494385,-0.8447674512863159,0.5158851742744446
1726995598091901000,3.89190087890625,1.5920389890670776,-1.2318742275238037,0.6328208446502686
1726995598101886700,3.90188671875,1.6432311534881592,-1.4989668130874634,0.8004927039146423
1726995598111871700,3.911871826171875,1.609925389289856,-1.677189588546753,0.9570418000221252
1726995598121857500,3.921857421875,1.516538381576538,-1.8194005489349365,1.0860050916671753
1726995598131843800,3.93184375,1.3987499475479126,-1.9040679931640625,1.1871684789657593
1726995598141829600,3.94182958984375,1.2838807106018066,-1.9459787607192993,1.243364691734314
1726995598151815700,3.951815673828125,1.1551549434661865,-1.8786619901657104,1.2500276565551758
1726995598161801700,3.9618017578125,1.0208882093429565,-1.73135507106781,1.213413953781128
1726995598171787800,3.971787841796875,0.8897959589958191,-1.5554744005203247,1.153099775314331
1726995598181773600,3.981773681640625,0.7646974325180054,-1.4061405658721924,1.0645309686660767
1726995598191760000,3.991759765625,0.6828762888908386,-1.3071316480636597,0.9518715739250183
1726995598201745700,4.00174560546875,0.6674100160598755,-1.2443034648895264,0.8000271916389465
1726995598211731700,4.011731689453125,0.7358452677726746,-1.1908338069915771,0.5978399515151978
1726995598221717800,4.0217177734375,0.7650787830352783,-1.0835260152816772,0.33555030822753906
1726995598231703800,4.031703857421875,0.6936301589012146,-0.8590885996818542,0.10733471065759659
1726995598241689600,4.041689697265625,0.5227361917495728,-0.6683918833732605,-0.08217982202768326
1726995598251676000,4.051676025390625,0.2933298945426941,-0.5433967113494873,-0.2477477490901947
1726995598261661700,4.06166162109375,0.07804952561855316,-0.40675443410873413,-0.38804545998573303
1726995598271647700,4.071647705078125,-0.07252053916454315,-0.3438465893268585,-0.46439510583877563
1726995598281633800,4.0816337890625,-0.12774518132209778,-0.3449360728263855,-0.5087737441062927
1726995598291619800,4.091619873046875,-0.09442983567714691,-0.4130709171295166,-0.5458816885948181
1726995598301605600,4.101605712890625,-0.05866650864481926,-0.6012352705001831,-0.5592827200889587
1726995598311592000,4.111592041015625,0.050339870154857635,-0.7271097898483276,-0.611870288848877
1726995598321577700,4.12157763671875,0.113551065325737,-0.7789024114608765,-0.6657737493515015
1726995598331563800,4.131563720703125,0.07658319175243378,-0.7787207961082458,-0.6974472403526306
1726995598341548800,4.141548828125,0.035233087837696075,-0.7162832617759705,-0.7316172122955322
1726995598351534800,4.151534912109375,0.024229438975453377,-0.6322221755981445,-0.7150768637657166
1726995598361520600,4.161520751953125,0.0582667700946331,-0.604826807975769,-0.5960812568664551
1726995598371506700,4.171506591796875,0.1034395694732666,-0.6083844900131226,-0.40706950426101685
1726995598381492700,4.18149267578125,0.12346521019935608,-0.5579924583435059,-0.18372216820716858
1726995598391478800,4.191478759765625,0.07700024545192719,-0.47175154089927673,0.04757710546255112
1726995598401464600,4.201464599609375,-0.08409304171800613,-0.4263302683830261,0.26754674315452576
1726995598411451000,4.211450927734375,-0.3187739849090576,-0.37108752131462097,0.5093740224838257
1726995598421436700,4.221436767578125,-0.41388317942619324,-0.3063764274120331,0.6951926350593567
1726995598431422700,4.231422607421875,-0.4360992908477783,-0.2535787522792816,0.9509391784667969
1726995598441408500,4.241408447265625,-0.41620227694511414,-0.10028612613677979,1.1424281597137451
1726995598451394800,4.251394775390625,-0.43102994561195374,0.1296575963497162,1.234397530555725
1726995598461380600,4.261380615234375,-0.456448495388031,0.32349762320518494,1.2971762418746948
1726995598471366700,4.27136669921875,-0.4903068542480469,0.45350995659828186,1.3050881624221802
1726995598481352700,4.281352783203125,-0.5100622177124023,0.48349103331565857,1.2646105289459229
1726995598491338800,4.2913388671875,-0.5328921675682068,0.4546383321285248,1.1744366884231567
1726995598501324500,4.301324462890625,-0.525856077671051,0.4095046818256378,1.0473424196243286
1726995598511310800,4.311310791015625,-0.4643077552318573,0.377547025680542,0.8698105216026306
1726995598521296600,4.321296630859375,-0.34423941373825073,0.3423658609390259,0.6609984636306763
1726995598531282700,4.33128271484375,-0.18584230542182922,0.28373318910598755,0.4459843933582306
1726995598541268700,4.341268798828125,-0.0315435454249382,0.2239857017993927,0.25741368532180786
1726995598551254800,4.3512548828125,0.0788561999797821,0.11969257891178131,0.11215183883905411
1726995598561239800,4.36123974609375,0.18493975698947906,-0.018191520124673843,-0.019510583952069283
1726995598571225600,4.3712255859375,0.26709190011024475,-0.18483589589595795,-0.13269279897212982
1726995598581212000,4.3812119140625,0.3217620551586151,-0.285684198141098,-0.22808855772018433
1726995598591197700,4.39119775390625,0.335706889629364,-0.23679816722869873,-0.2864812910556793
1726995598601183700,4.401183837890625,0.295392245054245,-0.08326053619384766,-0.34593796730041504
1726995598611169800,4.411169677734375,0.22099895775318146,0.07962292432785034,-0.4165745973587036
1726995598621155800,4.42115576171875,0.1439763456583023,0.21164913475513458,-0.48902347683906555
1726995598631141600,4.4311416015625,0.07518982887268066,0.2970127761363983,-0.5391724109649658
1726995598641128000,4.4411279296875,0.01188355777412653,0.32658398151397705,-0.5516700744628906
1726995598651113700,4.45111376953125,-0.013937919400632381,0.31551480293273926,-0.5010266304016113
1726995598661099800,4.461099853515625,0.013086240738630295,0.27123284339904785,-0.39586183428764343
1726995598671085800,4.4710859375,0.10349363833665848,0.20031338930130005,-0.26791614294052124
1726995598681071900,4.48107177734375,0.23119141161441803,0.13973473012447357,-0.172689750790596
1726995598691057700,4.4910576171875,0.3559754192829132,0.07402629405260086,-0.12196265906095505
1726995598701044000,4.5010439453125,0.4480137228965759,0.039392679929733276,-0.08193162083625793
1726995598711029800,4.51102978515625,0.49463582038879395,0.0017190704820677638,-0.024719461798667908
1726995598721015800,4.521015869140625,0.517039954662323,-0.021384384483098984,0.04850868135690689
1726995598731001900,4.531001953125,0.5227140784263611,-0.019472500309348106,0.11079948395490646
1726995598740988000,4.54098779296875,0.5090198516845703,-0.012899553403258324,0.12066569924354553
1726995598750973700,4.5509736328125,0.49512290954589844,-0.03314783424139023,0.09266255795955658
1726995598760959700,4.560959716796875,0.4844244718551636,-0.05573037266731262,0.06114724278450012
1726995598770945800,4.57094580078125,0.4418240189552307,-0.10653895884752274,0.017900703474879265
1726995598780931600,4.580931640625,0.34127530455589294,-0.17850103974342346,-0.020851485431194305
1726995598790917600,4.590917724609375,0.1858534961938858,-0.26608654856681824,-0.03617185354232788
1726995598800903000,4.60090283203125,0.033611755818128586,-0.348557710647583,-0.012842029333114624
1726995598810888700,4.610888671875,-0.10439884662628174,-0.41958847641944885,0.044252946972846985
1726995598820874800,4.620874755859375,-0.18518289923667908,-0.5020087957382202,0.10955844819545746
1726995598830860800,4.63086083984375,-0.2168164700269699,-0.5823560953140259,0.17715640366077423
1726995598840846800,4.640846923828125,-0.21090717613697052,-0.6367892622947693,0.2531752586364746
1726995598850832600,4.65083251953125,-0.19073480367660522,-0.6387922167778015,0.33939245343208313
1726995598860819000,4.66081884765625,-0.18354958295822144,-0.6085482835769653,0.4382956027984619
1726995598870804700,4.6708046875,-0.20345538854599,-0.5664977431297302,0.5604113936424255
1726995598880790800,4.680790771484375,-0.25008973479270935,-0.5251045227050781,0.6759859323501587
1726995598890776600,4.690776611328125,-0.3197955787181854,-0.5001776218414307,0.777732789516449
1726995598900763000,4.700762939453125,-0.4102035164833069,-0.4881422519683838,0.8499614596366882
1726995598910748700,4.710748779296875,-0.508155345916748,-0.46537941694259644,0.9011460542678833
1726995598920734700,4.720734619140625,-0.6197812557220459,-0.42878010869026184,0.9434093832969666
1726995598930720800,4.730720703125,-0.7386679649353027,-0.3891834318637848,0.9864588379859924
1726995598940706800,4.740706787109375,-0.8474498391151428,-0.3548230826854706,1.0378386974334717
1726995598950692600,4.750692626953125,-0.9068627953529358,-0.3277198076248169,1.0767812728881836
1726995598960679000,4.760678955078125,-0.9039759635925293,-0.3284021019935608,1.0895823240280151
1726995598970664700,4.770664794921875,-0.8512110114097595,-0.3358781337738037,1.0864453315734863
1726995598980650800,4.780650634765625,-0.7746136784553528,-0.32652297616004944,1.064955711364746
1726995598990636800,4.79063671875,-0.6874127388000488,-0.3092513382434845,1.0207033157348633
1726995599000622800,4.800622802734375,-0.6001995205879211,-0.2788878381252289,0.9694502949714661
1726995599010609000,4.81060888671875,-0.5224738717079163,-0.24349308013916016,0.8898752927780151
1726995599020595000,4.820594970703125,-0.46407365798950195,-0.22617188096046448,0.7619322538375854
1726995599030580700,4.830580810546875,-0.4201091229915619,-0.203270822763443,0.6129574179649353
1726995599040566800,4.84056689453125,-0.38248878717422485,-0.1685706377029419,0.4585593044757843
1726995599050552800,4.850552734375,-0.3485089838504791,-0.12494406849145889,0.29615628719329834
1726995599060537900,4.860537841796875,-0.3131331503391266,-0.08517348021268845,0.12372593581676483
1726995599070523600,4.870523681640625,-0.2818761467933655,-0.007533816155046225,-0.04929377883672714
1726995599080510000,4.880510009765625,-0.22221682965755463,0.1059378832578659,-0.2107897251844406
1726995599090495700,4.890495849609375,-0.15321218967437744,0.19913627207279205,-0.3365577757358551
1726995599100481800,4.900481689453125,-0.09722455590963364,0.23961977660655975,-0.4037078022956848
1726995599110467800,4.9104677734375,-0.05850671976804733,0.2468755692243576,-0.41299980878829956
1726995599120454000,4.920453857421875,-0.03044126182794571,0.2428635060787201,-0.3655529320240021
1726995599130439700,4.930439697265625,-0.000904409505892545,0.22354893386363983,-0.2835177183151245
1726995599140425700,4.94042578125,0.05042322725057602,0.20003774762153625,-0.2015000879764557
1726995599150411800,4.950411865234375,0.11731810122728348,0.22077925503253937,-0.12260101735591888
1726995599160397800,4.960397705078125,0.16791044175624847,0.26821547746658325,-0.08273855596780777
1726995599170383600,4.970383544921875,0.18371284008026123,0.32424411177635193,-0.09286868572235107
1726995599180370000,4.980369873046875,0.15803436934947968,0.44007033109664917,-0.12355682253837585
1726995599190355700,4.990355712890625,0.12350143492221832,0.5982248187065125,-0.12344736605882645
1726995599200341800,5.000341796875,0.11277554929256439,0.7345616221427917,-0.07276927679777145
1726995599210327800,5.010327880859375,0.13056306540966034,0.8131818771362305,0.03333159163594246
1726995599220313900,5.02031396484375,0.17021460831165314,0.8595549464225769,0.1645822823047638
1726995599230299600,5.030299560546875,0.21701140701770782,0.8859961628913879,0.245559424161911
1726995599240286000,5.040285888671875,0.2595013380050659,0.8772361874580383,0.2585364878177643
1726995599250271700,5.050271728515625,0.26162680983543396,0.9688324332237244,0.21254394948482513
1726995599260257800,5.0602578125,0.27379825711250305,1.1173009872436523,0.12488600611686707
1726995599270243800,5.070243896484375,0.31456831097602844,1.227672815322876,0.04428863525390625
1726995599280230000,5.08022998046875,0.39193928241729736,1.2340617179870605,-0.0007211840129457414
1726995599290215700,5.090215576171875,0.48875635862350464,1.2067360877990723,-0.010085657238960266
1726995599300202000,5.100201904296875,0.6557570695877075,1.1798315048217773,0.018455173820257187
1726995599310187800,5.110187744140625,0.8861700296401978,1.0723040103912354,0.08929179608821869
1726995599320173800,5.120173828125,1.144074559211731,0.8710270524024963,0.19235612452030182
1726995599330159900,5.130159912109375,1.397895097732544,0.6188080906867981,0.2665291726589203
1726995599340146000,5.14014599609375,1.5904523134231567,0.36530953645706177,0.419313907623291
1726995599350130700,5.150130615234375,1.6999106407165527,0.22580090165138245,0.5858267545700073
1726995599360116700,5.16011669921875,1.7452656030654907,0.14008253812789917,0.7056740522384644
1726995599370102800,5.170102783203125,1.7254458665847778,-0.0353153795003891,0.698607325553894
1726995599380088800,5.1800888671875,1.6142079830169678,-0.3050653636455536,0.7165948748588562
1726995599390074600,5.19007470703125,1.454904556274414,-0.5622942447662354,0.7267998456954956
1726995599400061000,5.20006103515625,1.2531778812408447,-0.7821664214134216,0.7254562377929688
1726995599410046700,5.210046630859375,1.0249862670898438,-0.9565211534500122,0.688286542892456
1726995599420032800,5.22003271484375,0.788785457611084,-1.0243521928787231,0.7035200595855713
1726995599430018800,5.230018798828125,0.527435302734375,-0.9280050992965698,0.7329956889152527
1726995599440004900,5.2400048828125,0.27013081312179565,-0.7109130024909973,0.7648308277130127
1726995599449990700,5.24999072265625,0.058159444481134415,-0.43670356273651123,0.7969525456428528
1726995599459977000,5.25997705078125,-0.03332813084125519,-0.20570681989192963,0.8001863956451416
1726995599469962800,5.269962646484375,-0.17691326141357422,-0.04008643329143524,0.8306676149368286
1726995599479948800,5.27994873046875,-0.3620956242084503,0.07011144608259201,0.8430963158607483
1726995599489934600,5.2899345703125,-0.5293930172920227,0.11639238893985748,0.8011630177497864
1726995599499921000,5.2999208984375,-0.6165281534194946,0.20858170092105865,0.6403405666351318
1726995599509906700,5.30990673828125,-0.6097105145454407,0.41545552015304565,0.38161501288414
1726995599519892700,5.319892822265625,-0.5359060168266296,0.6152754426002502,0.11665604263544083
1726995599529878800,5.329878662109375,-0.46668675541877747,0.7634720802307129,-0.12686021625995636
1726995599539864800,5.33986474609375,-0.4196438789367676,0.8228446245193481,-0.3465837836265564
1726995599549850600,5.3498505859375,-0.3894532322883606,0.8423519730567932,-0.5319379568099976
1726995599559837000,5.3598369140625,-0.38034653663635254,0.8350269794464111,-0.6720513701438904
1726995599569822700,5.36982275390625,-0.38581666350364685,0.8154863119125366,-0.7670084834098816
1726995599579808800,5.379808837890625,-0.40809640288352966,0.827057957649231,-0.8306519389152527
1726995599589794800,5.389794921875,-0.43964260816574097,0.806128203868866,-0.8710361123085022
1726995599599780900,5.39978076171875,-0.4547182321548462,0.8003661632537842,-0.902953565120697
1726995599609766700,5.4097666015625,-0.49271833896636963,0.7694649696350098,-0.9384170174598694
1726995599619753000,5.4197529296875,-0.5758768916130066,0.7120219469070435,-1.0062434673309326
1726995599629738800,5.42973876953125,-0.6420274376869202,0.6698771715164185,-1.0535744428634644
1726995599639724800,5.439724853515625,-0.6700947284698486,0.6755324006080627,-1.0906246900558472
1726995599649710800,5.4497109375,-0.6780538558959961,0.6723189949989319,-1.085269808769226
1726995599659697000,5.45969677734375,-0.6555346846580505,0.6018840074539185,-1.0486524105072021
1726995599669682700,5.4696826171875,-0.6300210952758789,0.4539563059806824,-1.003248691558838
1726995599679669000,5.4796689453125,-0.6109387278556824,0.2783413529396057,-0.9468855857849121
1726995599689654800,5.48965478515625,-0.6218630075454712,0.14155234396457672,-0.8790490031242371
1726995599699639800,5.499639892578125,-0.6476091146469116,0.04879230633378029,-0.802909255027771
1726995599709625600,5.50962548828125,-0.6654541492462158,-0.04013277217745781,-0.7636010050773621
1726995599719612000,5.51961181640625,-0.6785220503807068,-0.07671768218278885,-0.7577028870582581
1726995599729597700,5.52959765625,-0.7095901966094971,-0.09839261323213577,-0.7635520100593567
1726995599739583700,5.539583740234375,-0.7566179037094116,-0.08411061763763428,-0.7603215575218201
1726995599749569800,5.54956982421875,-0.775649905204773,-0.1070990189909935,-0.6896955966949463
1726995599759555800,5.559555908203125,-0.7426410913467407,-0.1211133748292923,-0.5510926842689514
1726995599769541600,5.569541748046875,-0.6579198241233826,-0.12613317370414734,-0.39498433470726013
1726995599779528000,5.57952783203125,-0.509583592414856,-0.17687517404556274,-0.2711995542049408
1726995599789513700,5.589513671875,-0.3077700734138489,-0.22535881400108337,-0.23052029311656952
1726995599799499800,5.599499755859375,-0.08213934302330017,-0.3229682147502899,-0.26452380418777466
1726995599809485800,5.60948583984375,0.1385115385055542,-0.4435257613658905,-0.31997427344322205
1726995599819472000,5.619471923828125,0.3315254747867584,-0.5720968246459961,-0.35754695534706116
1726995599829457700,5.629457763671875,0.48444870114326477,-0.6833250522613525,-0.3860132098197937
1726995599839443700,5.639443603515625,0.6053852438926697,-0.7662804126739502,-0.40512165427207947
1726995599849429800,5.6494296875,0.6684214472770691,-0.7766621708869934,-0.387706995010376
1726995599859415800,5.659415771484375,0.6908138394355774,-0.6998539566993713,-0.3632751405239105
1726995599869401600,5.669401611328125,0.717954695224762,-0.5905336141586304,-0.3754838705062866
1726995599879388000,5.679387939453125,0.718474805355072,-0.49731016159057617,-0.455180823802948
1726995599889373700,5.689373779296875,0.712364137172699,-0.3797856867313385,-0.553735077381134
1726995599899359700,5.69935986328125,0.709219753742218,-0.253886342048645,-0.6812150478363037
1726995599909345800,5.709345703125,0.7302749752998352,-0.15169072151184082,-0.8124566674232483
1726995599919331800,5.719331787109375,0.75590580701828,-0.09620243310928345,-0.9246479272842407
1726995599929317600,5.729317626953125,0.7882490754127502,-0.10838612914085388,-1.016298770904541
1726995599939304000,5.739303955078125,0.7489908933639526,-0.17032726109027863,-1.0198063850402832
1726995599949289700,5.749289794921875,0.7150262594223022,-0.2306971251964569,-1.0326329469680786
1726995599959275800,5.75927587890625,0.684028685092926,-0.2542538642883301,-1.0660442113876343
1726995599969261800,5.76926171875,0.6495457887649536,-0.23150832951068878,-1.0700839757919312
1726995599979247900,5.779247802734375,0.6270703077316284,-0.13468217849731445,-1.0497525930404663
1726995599989234200,5.789234130859375,0.6039255857467651,0.024509869515895844,-1.0179115533828735
1726995599999220200,5.79922021484375,0.5712613463401794,0.18987859785556793,-0.9607164263725281
1726995600009206000,5.8092060546875,0.528024435043335,0.3365551233291626,-0.8898555636405945
1726995600019192300,5.8191923828125,0.4612475037574768,0.45053601264953613,-0.8550879955291748
1726995600029178000,5.82917822265625,0.40762636065483093,0.5117985606193542,-0.8524291515350342
1726995600039164200,5.8391640625,0.3878667652606964,0.5736622214317322,-0.8886640667915344
1726995600049150200,5.849150146484375,0.37882000207901,0.5920476317405701,-0.9786597490310669
1726995600059136300,5.85913623046875,0.35279160737991333,0.5839835405349731,-1.0819275379180908
1726995600069122000,5.8691220703125,0.3241727352142334,0.575695276260376,-1.1618647575378418
1726995600079108400,5.8791083984375,0.3007547855377197,0.5733250379562378,-1.2260046005249023
1726995600089093000,5.889093017578125,0.267530232667923,0.547896146774292,-1.2662338018417358
1726995600099079200,5.8990791015625,0.2497594952583313,0.5305411219596863,-1.2773202657699585
1726995600109065000,5.90906494140625,0.22190868854522705,0.5355305075645447,-1.240981936454773
1726995600119051300,5.91905126953125,0.20682188868522644,0.5492567420005798,-1.171804428100586
1726995600129037000,5.929037109375,0.18724951148033142,0.5630585551261902,-1.1036733388900757
1726995600139023000,5.939023193359375,0.17527727782726288,0.5546272397041321,-1.0169986486434937
1726995600149009200,5.949009033203125,0.17234887182712555,0.512040376663208,-0.9499729871749878
1726995600158995200,5.9589951171875,0.18580955266952515,0.45745864510536194,-0.8822333812713623
1726995600168981000,5.96898095703125,0.18991321325302124,0.36945101618766785,-0.8330804705619812
1726995600178967300,5.97896728515625,0.1793428659439087,0.2365875095129013,-0.8255903124809265
1726995600188953000,5.988953125,0.1711653620004654,0.13729128241539001,-0.8080224990844727
1726995600198939100,5.998939208984375,0.18403081595897675,0.11456945538520813,-0.7673627138137817
1726995600208925000,6.008925048828125,0.21660926938056946,0.141065776348114,-0.7357698678970337
1726995600218911200,6.0189111328125,0.22193185985088348,0.13129623234272003,-0.7150182723999023
1726995600228897000,6.02889697265625,0.2621791660785675,0.15639600157737732,-0.6367501020431519
1726995600238883000,6.038883056640625,0.3064640462398529,0.1352478414773941,-0.5868552327156067
1726995600248869000,6.048869140625,0.29447558522224426,0.13347098231315613,-0.5508841872215271
1726995600258855200,6.058855224609375,0.24709473550319672,0.14198696613311768,-0.5116145610809326
1726995600268841000,6.068841064453125,0.16107596457004547,0.1585150808095932,-0.4433899521827698
1726995600278827300,6.0788271484375,0.06367937475442886,0.10797413438558578,-0.36662593483924866
1726995600288813000,6.08881298828125,-0.005618204362690449,0.025243571028113365,-0.2925468981266022
1726995600298799000,6.098799072265625,-0.03365569934248924,-0.03520885482430458,-0.2234426736831665
1726995600308785200,6.10878515625,-0.020734572783112526,-0.09008355438709259,-0.17296218872070312
1726995600318771200,6.118771240234375,0.030004771426320076,-0.14769092202186584,-0.13936747610569
1726995600328757000,6.128757080078125,0.11191455274820328,-0.20999397337436676,-0.11873623728752136
1726995600338743300,6.138743408203125,0.18227659165859222,-0.2255987673997879,-0.11812024563550949
1726995600348729000,6.14872900390625,0.22908271849155426,-0.24030527472496033,-0.12672652304172516
1726995600358715100,6.158715087890625,0.2577439248561859,-0.22538012266159058,-0.1624903827905655
1726995600368701200,6.168701171875,0.27723294496536255,-0.19582515954971313,-0.23750603199005127
1726995600378687200,6.178687255859375,0.28656306862831116,-0.1252966672182083,-0.3281097114086151
1726995600388673000,6.188673095703125,0.27982020378112793,-0.05489440634846687,-0.42317575216293335
1726995600398659300,6.198659423828125,0.2405683994293213,0.003001915058121085,-0.5172873735427856
1726995600408645000,6.20864501953125,0.17563360929489136,0.06912900507450104,-0.5692035555839539
1726995600418631200,6.218631103515625,0.10146963596343994,0.12336161732673645,-0.5736944079399109
1726995600428617200,6.2286171875,0.05766382813453674,0.16195933520793915,-0.5393732190132141
1726995600438603300,6.238603271484375,0.09023908525705338,0.18350164592266083,-0.49971261620521545
1726995600448589000,6.248589111328125,0.19673490524291992,0.20086678862571716,-0.44568106532096863
1726995600458575000,6.2585751953125,0.33589065074920654,0.24483798444271088,-0.40732941031455994
1726995600468561200,6.26856103515625,0.44433483481407166,0.2195424735546112,-0.3892612159252167
1726995600478547200,6.278547119140625,0.4984228312969208,0.14957964420318604,-0.3807114064693451
1726995600488533000,6.288532958984375,0.5109149217605591,0.13857679069042206,-0.3878777027130127
1726995600498519300,6.298519287109375,0.49973151087760925,0.15014423429965973,-0.38581082224845886
1726995600508505000,6.308505126953125,0.47230175137519836,0.16684730350971222,-0.3617374300956726
1726995600518491100,6.3184912109375,0.4389781653881073,0.1644480675458908,-0.3158831298351288
1726995600528477200,6.328477294921875,0.4016779363155365,0.12990286946296692,-0.2733955979347229
1726995600538463200,6.338463134765625,0.35763856768608093,0.10508700460195541,-0.22927233576774597
1726995600548449000,6.348448974609375,0.34286174178123474,0.090473972260952,-0.16623744368553162
1726995600558435300,6.358435302734375,0.36891570687294006,0.05742920562624931,-0.09347961843013763
1726995600568420000,6.368420166015625,0.4276741147041321,0.010553042404353619,-0.0009326389990746975
1726995600578406100,6.37840625,0.5122054815292358,-0.057807374745607376,0.09832657128572464
1726995600588392000,6.388391845703125,0.6084747910499573,-0.11343201994895935,0.20165961980819702
1726995600598378200,6.398378173828125,0.7074090838432312,-0.08036407828330994,0.28669753670692444
1726995600608364000,6.408364013671875,0.8143531084060669,-0.07813981175422668,0.3680685758590698
1726995600618350000,6.41835009765625,0.9049354791641235,-0.09973405301570892,0.456226110458374
1726995600628336000,6.428336181640625,0.9844239354133606,-0.10908281058073044,0.5496863126754761
1726995600638322200,6.438322265625,1.0585466623306274,-0.09135174751281738,0.6316978335380554
1726995600648308000,6.448307861328125,1.1369314193725586,-0.023137543350458145,0.6826360821723938
1726995600658294300,6.458294189453125,1.2346537113189697,0.06277736276388168,0.6957127451896667
1726995600668280000,6.468280029296875,1.2981452941894531,0.11297634989023209,0.6276444792747498
1726995600678266000,6.47826611328125,1.295162558555603,0.153076633810997,0.48626285791397095
1726995600688252200,6.488252197265625,1.2760059833526611,0.1639987975358963,0.34511372447013855
1726995600698238200,6.49823828125,1.2482795715332031,0.13472585380077362,0.2538740932941437
1726995600708224000,6.50822412109375,1.2550625801086426,0.06351585686206818,0.18036365509033203
1726995600718210300,6.518210205078125,1.3328005075454712,-0.024173246696591377,0.1213996633887291
1726995600728196000,6.528196044921875,1.4733344316482544,-0.08793970942497253,0.09612999111413956
1726995600738182100,6.53818212890625,1.6112393140792847,-0.19576629996299744,0.13139797747135162
1726995600748168200,6.548168212890625,1.6981817483901978,-0.39932581782341003,0.16664783656597137
1726995600758154200,6.558154296875,1.747246503829956,-0.7034841179847717,0.25727173686027527
1726995600768140000,6.56814013671875,1.734473705291748,-0.9805780649185181,0.39402133226394653
1726995600778126300,6.578126220703125,1.6703095436096191,-1.1960400342941284,0.5169661641120911
1726995600788112100,6.588112060546875,1.5265380144119263,-1.3491789102554321,0.6127970814704895
1726995600798098200,6.59809814453125,1.2790720462799072,-1.4783364534378052,0.7475322484970093
1726995600808084000,6.608083984375,1.0064966678619385,-1.5897891521453857,0.9022307395935059
1726995600818070300,6.6180703125,0.7463878989219666,-1.5189000368118286,1.0135953426361084
1726995600828056000,6.62805615234375,0.49269384145736694,-1.461843729019165,1.0585674047470093
1726995600838042000,6.6380419921875,0.22665071487426758,-1.3905091285705566,1.1424229145050049
1726995600848028200,6.648028076171875,-0.01733105257153511,-1.2634379863739014,1.2944000959396362
1726995600858014200,6.65801416015625,-0.21844232082366943,-1.1197644472122192,1.4034233093261719
1726995600868000000,6.668,-0.3744063675403595,-0.953539252281189,1.4669146537780762
1726995600877986300,6.677986328125,-0.48918938636779785,-0.7744797468185425,1.4924898147583008
1726995600887972000,6.68797216796875,-0.5804663300514221,-0.5944985151290894,1.492264986038208
1726995600897958100,6.697958251953125,-0.6967908143997192,-0.4077201187610626,1.5024585723876953
1726995600907944200,6.707944091796875,-0.8451368808746338,-0.2397627979516983,1.4971439838409424
1726995600917930200,6.71793017578125,-0.9752359986305237,-0.05116092041134834,1.4512557983398438
1726995600927916000,6.727916015625,-1.086990237236023,0.11390499770641327,1.3967946767807007
1726995600937902300,6.73790234375,-1.1852712631225586,0.21685189008712769,1.333342432975769
1726995600947888000,6.74788818359375,-1.2837600708007812,0.2935757040977478,1.2432399988174438
1726995600957874200,6.757874267578125,-1.3568848371505737,0.3563125729560852,1.1275296211242676
1726995600967860200,6.767860107421875,-1.4121345281600952,0.39152809977531433,1.0027555227279663
1726995600977846300,6.77784619140625,-1.448483943939209,0.41098326444625854,0.8308588266372681
1726995600987832000,6.78783203125,-1.383699655532837,0.47095179557800293,0.667525053024292
1726995600997818400,6.797818359375,-1.2918202877044678,0.40251922607421875,0.39229559898376465
1726995601007804400,6.807804443359375,-1.1217838525772095,0.316694051027298,0.04880189523100853
1726995601017790500,6.81779052734375,-0.9515817761421204,0.17198428511619568,-0.3154114782810211
1726995601027776500,6.827776611328125,-0.7996540665626526,0.07515360414981842,-0.6715565323829651
1726995601037762300,6.83776220703125,-0.6310455799102783,0.08676818758249283,-0.9030241370201111
1726995601047748600,6.84774853515625,-0.5033597946166992,0.1922791600227356,-0.9829892516136169
1726995601057734400,6.857734375,-0.43416211009025574,0.2938055098056793,-0.959365963935852
1726995601067720400,6.867720458984375,-0.4131638705730438,0.3398158848285675,-0.8795973658561707
1726995601077705700,6.877705810546875,-0.43547797203063965,0.349338561296463,-0.766000509262085
1726995601087691500,6.88769140625,-0.4745689034461975,0.33770614862442017,-0.6827503442764282
1726995601097677600,6.897677490234375,-0.48447534441947937,0.30453699827194214,-0.6392063498497009
1726995601107663400,6.907663330078125,-0.45878008008003235,0.27939942479133606,-0.6351122260093689
1726995601117649700,6.917649658203125,-0.3960503935813904,0.27056384086608887,-0.657142162322998
1726995601127635500,6.927635498046875,-0.2999472916126251,0.28722459077835083,-0.6754255890846252
1726995601137621500,6.93762158203125,-0.19689974188804626,0.32298123836517334,-0.6919622421264648
1726995601147607600,6.947607666015625,-0.12601038813591003,0.3518528342247009,-0.7036497592926025
1726995601157593600,6.957593505859375,-0.10832887142896652,0.2824878990650177,-0.7517158389091492
1726995601167579400,6.967579345703125,-0.10902262479066849,0.1606820821762085,-0.792453408241272
1726995601177565700,6.977565673828125,-0.07896699011325836,0.0111059146001935,-0.8013536930084229
1726995601187551500,6.987551513671875,-0.03268657252192497,-0.09853136539459229,-0.7942704558372498
1726995601197537500,6.99753759765625,0.03297872096300125,-0.17251211404800415,-0.7457665801048279
1726995601207523600,7.007523681640625,0.08259181678295135,-0.21707558631896973,-0.6342480778694153
1726995601217509600,7.017509521484375,0.08069990575313568,-0.19275453686714172,-0.46038225293159485
1726995601227495400,7.027495361328125,0.049966227263212204,-0.12451636046171188,-0.26958167552948
1726995601237481500,7.0374814453125,-0.0070919981226325035,-0.08295826613903046,-0.0962919145822525
1726995601247467500,7.047467529296875,-0.06488578766584396,-0.08779536932706833,0.0192506592720747
1726995601257453600,7.05745361328125,-0.11860360950231552,-0.1280711442232132,0.0934537872672081
1726995601267439600,7.067439697265625,-0.15441301465034485,-0.1666473001241684,0.13772110641002655
1726995601277425400,7.07742529296875,-0.16863082349300385,-0.18432483077049255,0.14544108510017395
1726995601287411500,7.087411376953125,-0.1403789520263672,-0.1928597390651703,0.1227693259716034
1726995601297397500,7.0973974609375,-0.07575148344039917,-0.19562409818172455,0.04598666727542877
1726995601307383600,7.107383544921875,-0.020424848422408104,-0.14773060381412506,-0.03201013058423996
1726995601317369300,7.117369384765625,-0.0406627394258976,-0.02376445196568966,-0.058157313615083694
1726995601327355400,7.12735546875,-0.14366741478443146,0.1506611406803131,-0.0287094097584486
1726995601337341400,7.137341552734375,-0.28958946466445923,0.3496605455875397,0.029709959402680397
1726995601347327500,7.147327392578125,-0.41878101229667664,0.504941463470459,0.07144568860530853
1726995601357313300,7.157313232421875,-0.5350695252418518,0.574651837348938,0.08908433467149734
1726995601367299600,7.167299560546875,-0.6285834908485413,0.5838173627853394,0.11790533363819122
1726995601377285400,7.177285400390625,-0.6788890361785889,0.4948563277721405,0.12103987485170364
1726995601387271400,7.187271484375,-0.6794922351837158,0.37907034158706665,0.07163956761360168
1726995601397257500,7.197257568359375,-0.6567370891571045,0.2953379154205322,-0.005368932615965605
1726995601407243500,7.207243408203125,-0.621279776096344,0.262412965297699,-0.10557782649993896
1726995601417229300,7.217229248046875,-0.5961520671844482,0.31704798340797424,-0.2071651667356491
1726995601427215600,7.227215576171875,-0.547450602054596,0.3571600019931793,-0.2929706275463104
1726995601437201400,7.237201416015625,-0.47652819752693176,0.35490190982818604,-0.3497638702392578
1726995601447187500,7.2471875,-0.35542839765548706,0.34023186564445496,-0.3807649314403534
1726995601457173500,7.257173583984375,-0.21663297712802887,0.32402122020721436,-0.3814789056777954
1726995601467159600,7.26715966796875,-0.0897141769528389,0.30302777886390686,-0.346125990152359
1726995601477145300,7.277145263671875,0.01504339836537838,0.25403067469596863,-0.27555593848228455
1726995601487131600,7.287131591796875,0.11399713903665543,0.16275030374526978,-0.2104528397321701
1726995601497117400,7.297117431640625,0.1979714035987854,0.018037589266896248,-0.14539074897766113
1726995601507103500,7.307103515625,0.24340945482254028,-0.11322056502103806,-0.09139276295900345
1726995601517089500,7.317089599609375,0.2974223494529724,-0.1531088650226593,-0.009517339058220387
1726995601527075600,7.32707568359375,0.3040805160999298,-0.2816956043243408,0.04302017018198967
1726995601537061400,7.337061279296875,0.3038419187068939,-0.408670574426651,0.0688304603099823
1726995601547047700,7.347047607421875,0.28139305114746094,-0.5220592021942139,0.05987025797367096
1726995601557033500,7.357033447265625,0.22175022959709167,-0.6139603853225708,0.04176262766122818
1726995601567019500,7.36701953125,0.143698051571846,-0.6271044015884399,0.017103353515267372
1726995601577005300,7.37700537109375,0.07434294372797012,-0.5515187978744507,0.027905667200684547
1726995601586991600,7.38699169921875,0.03839532658457756,-0.4881132245063782,0.11968085914850235
1726995601596977400,7.396977294921875,0.026928553357720375,-0.48116663098335266,0.22695298492908478
1726995601606963500,7.40696337890625,0.019537482410669327,-0.464145302772522,0.3285669684410095
1726995601616949500,7.416949462890625,0.01918780989944935,-0.43390563130378723,0.41653677821159363
1726995601626935600,7.426935546875,0.03882436081767082,-0.4288110136985779,0.4817439913749695
1726995601636920600,7.436920654296875,0.056014534085989,-0.4354446828365326,0.5109493136405945
1726995601646906600,7.44690673828125,0.06142181530594826,-0.442667692899704,0.5163477659225464
1726995601656892400,7.456892333984375,0.05501744523644447,-0.4300405979156494,0.5019193291664124
1726995601666878500,7.46687841796875,0.040351685136556625,-0.3994464576244354,0.47367727756500244
1726995601676864500,7.476864501953125,0.02484569512307644,-0.3557565212249756,0.4462965130805969
1726995601686850600,7.4868505859375,0.010428672656416893,-0.3023390769958496,0.41401129961013794
1726995601696836400,7.49683642578125,-0.003919107839465141,-0.2198980152606964,0.3606082499027252
1726995601706822400,7.506822509765625,0.0024977787397801876,-0.10546810179948807,0.2952241897583008
1726995601716808400,7.516808349609375,0.05052788928151131,-0.02857252210378647,0.22310444712638855
1726995601726794500,7.52679443359375,0.1388676017522812,0.02580869384109974,0.1310964971780777
1726995601736780300,7.5367802734375,0.24825774133205414,0.06484397500753403,0.02870221808552742
1726995601746766600,7.5467666015625,0.3485089838504791,0.036483973264694214,-0.09906506538391113
1726995601756752400,7.55675244140625,0.43415704369544983,-0.005848567932844162,-0.22788962721824646
1726995601766738400,7.566738525390625,0.5054064393043518,-0.007934888824820518,-0.3332996666431427
1726995601776724500,7.576724365234375,0.5616587996482849,0.013461479917168617,-0.4052993059158325
1726995601786710500,7.58671044921875,0.6038142442703247,0.05267120152711868,-0.43900266289711
1726995601796696300,7.5966962890625,0.6285973787307739,0.17550604045391083,-0.42974817752838135
1726995601806682600,7.6066826171875,0.668414294719696,0.3186064660549164,-0.38359132409095764
1726995601816668400,7.61666845703125,0.7312808632850647,0.43660926818847656,-0.33142319321632385
1726995601826654500,7.626654541015625,0.83811354637146,0.5930944681167603,-0.23269502818584442
1726995601836640500,7.636640625,1.0028228759765625,0.6688012480735779,-0.09725704789161682
1726995601846626600,7.64662646484375,1.18764066696167,0.6827982664108276,0.08425336331129074
1726995601856612400,7.6566123046875,1.373687744140625,0.6785672903060913,0.29558849334716797
1726995601866598700,7.6665986328125,1.5162962675094604,0.5389548540115356,0.515407145023346
1726995601876584400,7.67658447265625,1.577355980873108,0.2581407427787781,0.7110661268234253
1726995601886570500,7.686570556640625,1.5732871294021606,0.010786601342260838,0.7983691096305847
1726995601896556500,7.696556640625,1.5215816497802734,-0.27177852392196655,0.811732292175293
1726995601906542600,7.70654248046875,1.4129297733306885,-0.5894917845726013,0.7664798498153687
1726995601916528400,7.7165283203125,1.24189293384552,-0.8761181831359863,0.7221035957336426
1726995601926514400,7.726514404296875,0.9898450374603271,-1.0927187204360962,0.6983191967010498
1726995601936500500,7.73650048828125,0.7435244917869568,-1.3829089403152466,0.7186681032180786
1726995601946486500,7.746486572265625,0.49762335419654846,-1.657741904258728,0.8232659101486206
1726995601956472300,7.756472412109375,0.24199451506137848,-1.7045857906341553,0.9810741543769836
1726995601966458600,7.766458740234375,-0.02532719448208809,-1.542474627494812,1.148413896560669
1726995601976444400,7.7764443359375,-0.27208396792411804,-1.333953619003296,1.2821674346923828
1726995601986430500,7.786430419921875,-0.511133074760437,-1.1318684816360474,1.367323398590088
1726995601996416300,7.796416259765625,-0.6748543381690979,-0.9967221021652222,1.4048064947128296
1726995602006402600,7.806402587890625,-0.7957407832145691,-0.8020586371421814,1.3858730792999268
1726995602016388400,7.816388427734375,-0.8741826415061951,-0.5056261420249939,1.290293574333191
1726995602026374400,7.82637451171875,-0.906481146812439,-0.2168598771095276,1.1163909435272217
1726995602036360200,7.836360107421875,-0.8853777647018433,0.010430004447698593,0.8780394196510315
1726995602046346500,7.846346435546875,-0.8027260303497314,0.18001291155815125,0.5941267609596252
1726995602056332300,7.856332275390625,-0.6718156933784485,0.3211796283721924,0.2735615074634552
1726995602066318300,7.866318359375,-0.5682671666145325,0.3872869908809662,-0.07070612907409668
1726995602076304400,7.876304443359375,-0.5592406392097473,0.411617636680603,-0.36066871881484985
1726995602086290400,7.88629052734375,-0.6189063787460327,0.43876802921295166,-0.6020309925079346
1726995602096276200,7.896276123046875,-0.6700611710548401,0.491678386926651,-0.8280438780784607
1726995602106262500,7.906262451171875,-0.6809753179550171,0.524142861366272,-0.9846372008323669
1726995602116248300,7.916248291015625,-0.6472517251968384,0.5489078760147095,-1.0856679677963257
1726995602126234400,7.926234375,-0.5929703712463379,0.5724003911018372,-1.1552592515945435
1726995602136220400,7.936220458984375,-0.5473682880401611,0.5546078085899353,-1.194154977798462
1726995602146206500,7.94620654296875,-0.5414760112762451,0.4993123412132263,-1.1981207132339478
1726995602156192300,7.956192138671875,-0.5304404497146606,0.45496830344200134,-1.1473259925842285
1726995602166178600,7.966178466796875,-0.5434014797210693,0.36831969022750854,-1.1002514362335205
1726995602176164400,7.976164306640625,-0.5369817018508911,0.2939645051956177,-1.0591069459915161
1726995602186150400,7.986150390625,-0.542819082736969,0.2188708335161209,-1.009662389755249
1726995602196136400,7.996136474609375,-0.5190482139587402,0.12679043412208557,-0.9659162759780884
1726995602206122500,8.00612255859375,-0.4529179334640503,0.06318695843219757,-0.9014163613319397
1726995602216108300,8.0161083984375,-0.3703972399234772,0.05468934401869774,-0.8291616439819336
1726995602226094600,8.026094482421875,-0.28326019644737244,-0.012921124696731567,-0.7763378024101257
1726995602236080400,8.036080322265626,-0.21024085581302643,-0.06810182332992554,-0.7306193113327026
1726995602246066400,8.04606640625,-0.14883315563201904,-0.15081295371055603,-0.676345705986023
1726995602256052500,8.056052490234375,-0.10197164118289948,-0.23274536430835724,-0.6079405546188354
1726995602266038500,8.06603857421875,-0.09984776377677917,-0.2843281328678131,-0.5427298545837402
1726995602276024300,8.0760244140625,-0.1380731761455536,-0.24906335771083832,-0.46013110876083374
1726995602286010400,8.08601025390625,-0.18733899295330048,-0.1377141922712326,-0.3686493933200836
1726995602295996400,8.095996337890625,-0.25402188301086426,-0.0012090750969946384,-0.2625325620174408
1726995602305982500,8.105982421875,-0.25221627950668335,0.05721775069832802,-0.13121235370635986
1726995602315968300,8.11596826171875,-0.20412729680538177,0.05805424973368645,-0.053405169397592545
1726995602325954600,8.12595458984375,-0.16502730548381805,0.02160595916211605,-0.006377205718308687
1726995602335940400,8.1359404296875,-0.19223761558532715,0.037691451609134674,0.03875138983130455
1726995602345926400,8.145926513671874,-0.21572643518447876,0.020080501213669777,0.06465595960617065
1726995602355912400,8.155912353515625,-0.23530332744121552,-0.0270121768116951,0.0830211192369461
1726995602365898500,8.1658984375,-0.2841227948665619,-0.005733519326895475,0.16447868943214417
1726995602375884300,8.17588427734375,-0.3541452884674072,0.051350273191928864,0.2713595926761627
1726995602385870300,8.185870361328124,-0.42672842741012573,0.124639131128788,0.4093877673149109
1726995602395856400,8.1958564453125,-0.5055941939353943,0.18039295077323914,0.5359451770782471
1726995602405842400,8.205842529296875,-0.553275465965271,0.21722686290740967,0.5885575413703918
1726995602415828500,8.215828369140626,-0.5704658627510071,0.1908612996339798,0.5640556216239929
1726995602425814300,8.225814208984374,-0.5721679329872131,0.13018836081027985,0.48631051182746887
1726995602435800300,8.23580029296875,-0.5493859052658081,0.0755661278963089,0.38658738136291504
1726995602445786400,8.245786376953125,-0.4899907410144806,0.0847415179014206,0.3007614314556122
1726995602455772400,8.2557724609375,-0.41957756876945496,0.09748207777738571,0.22385253012180328
1726995602465758200,8.26575830078125,-0.3482874035835266,0.12036369740962982,0.13000167906284332
1726995602475744500,8.27574462890625,-0.2524101436138153,0.12572117149829865,0.012431635521352291
1726995602485730300,8.285730224609376,-0.11588931828737259,0.17024949193000793,-0.08663955330848694
1726995602495716400,8.29571630859375,0.055815327912569046,0.20854069292545319,-0.16039259731769562
1726995602505702400,8.305702392578125,0.19835489988327026,0.18889722228050232,-0.18100173771381378
1726995602515688400,8.3156884765625,0.31647247076034546,0.14306634664535522,-0.1644509881734848
1726995602525674200,8.32567431640625,0.418602854013443,0.059187423437833786,-0.13281503319740295
1726995602535660300,8.335660400390625,0.4905686378479004,-0.0727626234292984,-0.09863469749689102
1726995602545646300,8.345646240234375,0.5296193957328796,-0.19351726770401,-0.07893742620944977
1726995602555632400,8.35563232421875,0.5368471741676331,-0.30777671933174133,-0.07508276402950287
1726995602565618200,8.3656181640625,0.5377113819122314,-0.3915749490261078,-0.055919989943504333
1726995602575604500,8.3756044921875,0.48051202297210693,-0.4561004340648651,-0.02857385389506817
1726995602585590300,8.38559033203125,0.38126134872436523,-0.436612993478775,0.010217217728495598
1726995602595576300,8.395576416015626,0.2806846499443054,-0.35289281606674194,0.05706115439534187
1726995602605562400,8.405562255859374,0.22845980525016785,-0.27028581500053406,0.11845873296260834
1726995602615548400,8.41554833984375,0.22685419023036957,-0.2009488195180893,0.16847608983516693
1726995602625534200,8.4255341796875,0.25400617718696594,-0.1503913700580597,0.1942128837108612
1726995602635520500,8.4355205078125,0.29148536920547485,-0.12975746393203735,0.20612174272537231
1726995602645506300,8.44550634765625,0.3187079429626465,-0.0943286344408989,0.21700741350650787
1726995602655492400,8.455492431640625,0.34328997135162354,-0.10146643966436386,0.19653941690921783
1726995602665478400,8.465478515625,0.3536006808280945,-0.08092494308948517,0.16087570786476135
1726995602675464400,8.47546435546875,0.33085647225379944,0.0024322650860995054,0.1333404779434204
1726995602685450200,8.4854501953125,0.2905479371547699,0.0740574523806572,0.11266449838876724
1726995602695436500,8.4954365234375,0.2563447058200836,0.15124863386154175,0.09383808076381683
1726995602705422300,8.50542236328125,0.24154870212078094,0.22515030205249786,0.06643947958946228
1726995602715408400,8.515408447265624,0.25143277645111084,0.279740571975708,0.03190333768725395
1726995602725394400,8.52539453125,0.2867952883243561,0.326331228017807,-0.009118929505348206
1726995602735380500,8.53538037109375,0.3438548445701599,0.3556095063686371,-0.03375423327088356
1726995602745366300,8.5453662109375,0.4025948643684387,0.3827441930770874,-0.04283614829182625
1726995602755352300,8.555352294921875,0.47410818934440613,0.401571661233902,-0.04020680859684944
1726995602765338400,8.56533837890625,0.5230754613876343,0.39109480381011963,-0.031499069184064865
1726995602775324400,8.575324462890626,0.5775943398475647,0.36476677656173706,-0.033180322498083115
1726995602785310200,8.585310302734374,0.6454327702522278,0.35448163747787476,-0.025020398199558258
1726995602795296500,8.595296630859375,0.7086865901947021,0.37439438700675964,-0.0006945523782633245
1726995602805282300,8.6052822265625,0.7708703279495239,0.4053688049316406,0.034984081983566284
1726995602815268400,8.615268310546876,0.8528009057044983,0.5081391334533691,0.10312824696302414
1726995602825254400,8.62525439453125,0.9648315906524658,0.659833550453186,0.1897134780883789
1726995602835240400,8.635240478515625,1.1656924486160278,0.7872288227081299,0.28090783953666687
1726995602845226200,8.645226318359375,1.3797930479049683,0.8201001882553101,0.3804541230201721
1726995602855212500,8.655212646484374,1.5989866256713867,0.6820496916770935,0.3651513457298279
1726995602865199400,8.665199462890625,1.765128254890442,0.4337969720363617,0.3533466160297394
1726995602875185400,8.675185302734375,1.8203622102737427,0.16981646418571472,0.29433175921440125
1726995602885171500,8.68517138671875,1.7357629537582397,-0.06313423067331314,0.2358865588903427
1726995602895157200,8.6951572265625,1.5802608728408813,-0.30233296751976013,0.14765895903110504
1726995602905143300,8.705143310546875,1.3809353113174438,-0.6264175772666931,0.03743445873260498
1726995602915129300,8.71512939453125,1.1617296934127808,-0.9899174571037292,-0.0001603222917765379
1726995602925115400,8.725115478515624,0.9465372562408447,-1.3235844373703003,0.045156560838222504
1726995602935101200,8.73510107421875,0.6675631403923035,-1.6104938983917236,0.15771372616291046
1726995602945087500,8.74508740234375,0.4054196774959564,-1.755203127861023,0.3650597333908081
1726995602955073300,8.7550732421875,0.15116235613822937,-1.6690890789031982,0.6383234858512878
1726995602965059300,8.765059326171874,-0.09345697611570358,-1.4422836303710938,0.9169961214065552
1726995602975045400,8.77504541015625,-0.33619424700737,-1.0818274021148682,1.1284058094024658
1726995602985031400,8.785031494140625,-0.5418885350227356,-0.7558562159538269,1.2826592922210693
1726995602995017200,8.795017333984376,-0.7215539216995239,-0.5504032373428345,1.368079662322998
1726995603005003300,8.805003173828124,-0.9035162925720215,-0.37374135851860046,1.3980178833007812
1726995603014989300,8.8149892578125,-1.0856112241744995,-0.20648446679115295,1.3733959197998047
1726995603024975400,8.824975341796875,-1.27902352809906,-0.005425924435257912,1.2870277166366577
1726995603034961200,8.834961181640624,-1.4564909934997559,0.19375695288181305,1.1614149808883667
1726995603044947500,8.844947509765625,-1.5063587427139282,0.37022864818573,0.9200542569160461
1726995603054933200,8.854933349609375,-1.449061632156372,0.4730498492717743,0.5658090710639954
1726995603064919300,8.864919189453126,-1.358585238456726,0.5053499937057495,0.18251441419124603
1726995603074905300,8.8749052734375,-1.2494393587112427,0.46511203050613403,-0.19986943900585175
1726995603084891400,8.884891357421875,-1.118165135383606,0.43228989839553833,-0.5601964592933655
1726995603094878200,8.894878173828126,-0.9584327936172485,0.41758978366851807,-0.8115648031234741
1726995603104864300,8.9048642578125,-0.8556832671165466,0.40374985337257385,-0.9996997714042664
1726995603114850300,8.914850341796875,-0.7632707357406616,0.3417791724205017,-1.1455696821212769
1726995603124836000,8.924836181640625,-0.6771161556243896,0.2914597988128662,-1.2177764177322388
1726995603134822400,8.934822509765626,-0.6305023431777954,0.22580888867378235,-1.2213826179504395
1726995603144808200,8.94480810546875,-0.6023247241973877,0.1783263236284256,-1.200859546661377
1726995603154794200,8.954794189453125,-0.5887879133224487,0.13866360485553741,-1.155509114265442
1726995603164780300,8.9647802734375,-0.5825992226600647,0.034881819039583206,-1.1060818433761597
1726995603174766300,8.974766357421874,-0.5402704477310181,0.005909554194658995,-1.0444982051849365
1726995603184752000,8.984752197265625,-0.46829476952552795,-0.01480637677013874,-0.9671647548675537
1726995603194738400,8.994738525390625,-0.3742654621601105,-0.015798671171069145,-0.8722608685493469
1726995603204724200,9.00472412109375,-0.26227396726608276,0.06428951025009155,-0.7158520817756653
1726995603214710300,9.014710205078124,-0.20249877870082855,0.03705469146370888,-0.6159734129905701
1726995603224696300,9.0246962890625,-0.1510917842388153,0.013220730237662792,-0.5484886765480042
1726995603234682400,9.034682373046875,-0.1274450421333313,-0.01612943410873413,-0.4758078157901764
1726995603244668200,9.044668212890626,-0.11663366854190826,-0.04505003243684769,-0.4158094525337219
1726995603254655500,9.054655517578125,-0.11960842460393906,-0.07046830654144287,-0.33700358867645264
1726995603264641300,9.064641357421875,-0.11924969404935837,-0.06081541255116463,-0.24494875967502594
1726995603274627300,9.07462744140625,-0.12620240449905396,-0.019061041995882988,-0.15875528752803802
1726995603284613400,9.08461328125,-0.15450648963451385,0.042699526995420456,-0.07419939339160919
1726995603294599200,9.09459912109375,-0.21404224634170532,0.10663190484046936,-0.033313214778900146
1726995603304585200,9.104585205078125,-0.29082784056663513,0.16654397547245026,-0.000898550555575639
1726995603314571300,9.1145712890625,-0.3408409357070923,0.1933729201555252,0.04867805540561676
1726995603324557300,9.124557373046875,-0.3194618821144104,0.121265709400177,0.09072776883840561
1726995603334543000,9.134543212890625,-0.25975432991981506,0.06535370647907257,0.11167806386947632
1726995603344529400,9.144529296875,-0.23565460741519928,0.06119704619050026,0.12127609550952911
1726995603354515200,9.15451513671875,-0.2633594572544098,0.12533554434776306,0.14346341788768768
1726995603364501200,9.164501220703125,-0.3402707576751709,0.22484110295772552,0.18549315631389618
1726995603374487300,9.1744873046875,-0.4368108808994293,0.30431169271469116,0.22912345826625824
1726995603384473300,9.184473388671876,-0.4864058494567871,0.36237606406211853,0.24933259189128876
1726995603394459100,9.194459228515624,-0.5025427341461182,0.39401760697364807,0.25432416796684265
1726995603404446500,9.204446533203125,-0.49272340536117554,0.4163532853126526,0.253408282995224
1726995603414432300,9.214432373046876,-0.48908793926239014,0.38036492466926575,0.2223166972398758
1726995603424418300,9.224418212890624,-0.4525320529937744,0.29474109411239624,0.15443937480449677
1726995603434404400,9.234404296875,-0.39457154273986816,0.21578449010849,0.043233223259449005
1726995603444390400,9.244390380859375,-0.29785752296447754,0.19269807636737823,-0.06964831799268723
1726995603454376200,9.254376220703126,-0.1791766732931137,0.17674334347248077,-0.15130110085010529
1726995603464362500,9.264362548828124,-0.07310696691274643,0.15213413536548615,-0.20940116047859192
1726995603474348300,9.274348388671875,0.03371242433786392,0.11880574375391006,-0.21058546006679535
1726995603484334300,9.284334228515625,0.1310940980911255,0.06350946426391602,-0.15670731663703918
1726995603494320400,9.2943203125,0.19669388234615326,-0.03171558678150177,-0.07532031834125519
1726995603504306400,9.304306396484375,0.2456427812576294,-0.13688194751739502,0.00038535939529538155
1726995603514292200,9.314292236328125,0.29239457845687866,-0.189539834856987,0.10705747455358505
1726995603524278500,9.324278564453126,0.2809334099292755,-0.27784547209739685,0.16092364490032196
1726995603534265300,9.334265380859375,0.25022822618484497,-0.3485023081302643,0.20728154480457306
1726995603544251100,9.344251220703125,0.19842679798603058,-0.3956144452095032,0.24035188555717468
1726995603554237400,9.354237548828126,0.16719165444374084,-0.41476336121559143,0.268050879240036
1726995603564223200,9.36422314453125,0.1696995496749878,-0.428280770778656,0.3132663071155548
1726995603574209300,9.374209228515625,0.1748780757188797,-0.44385066628456116,0.36323386430740356
1726995603584195300,9.3841953125,0.1604543924331665,-0.49739620089530945,0.39757239818573
1726995603594181400,9.394181396484376,0.12630946934223175,-0.5230259299278259,0.43264755606651306
1726995603604167200,9.404167236328124,0.09377123415470123,-0.5183454155921936,0.46935123205184937
1726995603614153500,9.414153564453125,0.07580821216106415,-0.523851215839386,0.4988633394241333
1726995603624139300,9.42413916015625,0.060258012264966965,-0.5040866136550903,0.5244997143745422
1726995603634125300,9.434125244140626,0.03377500921487808,-0.463401734828949,0.5377159118652344
1726995603644111400,9.444111328125,-0.007616906892508268,-0.4031469225883484,0.5458326935768127
1726995603654097400,9.454097412109375,-0.031004255637526512,-0.3469401001930237,0.5326167941093445
1726995603664084200,9.464084228515626,-0.02353728376328945,-0.29905620217323303,0.474045068025589
1726995603674070300,9.4740703125,0.02835174649953842,-0.2157096564769745,0.3782263994216919
1726995603684056300,9.484056396484375,0.12383192777633667,-0.09355951100587845,0.24378763139247894
1726995603694042000,9.4940419921875,0.23563195765018463,0.025827068835496902,0.11749093979597092
1726995603704028400,9.5040283203125,0.33180856704711914,0.11676789820194244,0.026973560452461243
1726995603714014200,9.51401416015625,0.39885976910591125,0.23201486468315125,-0.03879746422171593
1726995603724000300,9.524000244140625,0.43186405301094055,0.3130665719509125,-0.10163234919309616
1726995603733986300,9.533986328125,0.46213459968566895,0.32256072759628296,-0.15556642413139343
1726995603743972400,9.543972412109374,0.5016772150993347,0.3493523895740509,-0.18952439725399017
1726995603753958100,9.553958251953125,0.5593322515487671,0.40304598212242126,-0.19903559982776642
1726995603763944400,9.5639443359375,0.6267427206039429,0.5114701986312866,-0.18207472562789917
1726995603773931300,9.57393115234375,0.7205946445465088,0.581900417804718,-0.13827265799045563
1726995603783917300,9.583917236328125,0.8737205862998962,0.6232803463935852,-0.06630764901638031
1726995603793903400,9.5939033203125,1.0725692510604858,0.6570385694503784,0.06072193756699562
1726995603803889200,9.60388916015625,1.2658063173294067,0.7284113168716431,0.21452055871486664
1726995603813875200,9.613875244140624,1.422847032546997,0.7642388343811035,0.359132319688797
1726995603823861200,9.623861328125,1.5189241170883179,0.6788491010665894,0.44774341583251953
1726995603833847300,9.633847412109375,1.5381031036376953,0.4025226831436157,0.47488662600517273
1726995603843833000,9.6438330078125,1.5070295333862305,-0.08743983507156372,0.45573076605796814
1726995603853819400,9.6538193359375,1.403195858001709,-0.5928558707237244,0.4959857761859894
1726995603863805200,9.66380517578125,1.2441366910934448,-0.9430255889892578,0.5449727773666382
1726995603873791200,9.673791259765625,1.0397779941558838,-1.1445214748382568,0.5976266860961914
1726995603883777300,9.68377734375,0.7834036946296692,-1.3219611644744873,0.6278338432312012
1726995603893764400,9.693764404296875,0.4819464087486267,-1.4313369989395142,0.7281391024589539
1726995603903750100,9.703750244140625,0.16546592116355896,-1.415897250175476,0.8666120767593384
1726995603913736400,9.713736328125,-0.11771491169929504,-1.262434482574463,0.9792861342430115
1726995603923722200,9.72372216796875,-0.39325353503227234,-0.9615920782089233,1.0235310792922974
1726995603933708300,9.733708251953125,-0.657365620136261,-0.6604844331741333,1.0401159524917603
1726995603943694300,9.7436943359375,-0.8186323046684265,-0.4132418930530548,1.01165771484375
1726995603953680400,9.753680419921874,-0.9335317015647888,-0.1504177302122116,0.9731826782226562
1726995603963666200,9.763666259765625,-0.9749563932418823,0.019335880875587463,0.8337401151657104
1726995603973652500,9.773652587890625,-0.9562087655067444,0.26760533452033997,0.5391710996627808
1726995603983638300,9.78363818359375,-0.8875471353530884,0.4748493432998657,0.1923428177833557
1726995603993623800,9.793623779296874,-0.7883859872817993,0.610296905040741,-0.1892825812101364
1726995604003609900,9.80360986328125,-0.6920178532600403,0.6484131217002869,-0.5998740792274475
1726995604013596700,9.8135966796875,-0.6495031714439392,0.6395623683929443,-0.9494523406028748
1726995604023582700,9.823582763671874,-0.6148357391357422,0.6461734175682068,-1.1804198026657104
1726995604033568800,9.83356884765625,-0.5536410808563232,0.6542595624923706,-1.345054268836975
1726995604043554800,9.843554931640625,-0.5003690719604492,0.5829779505729675,-1.415579080581665
1726995604053540600,9.85354052734375,-0.47399285435676575,0.47091397643089294,-1.4282021522521973
1726995604063527000,9.86352685546875,-0.4674593508243561,0.3903871774673462,-1.4001449346542358
1726995604073512700,9.8735126953125,-0.42235442996025085,0.2774878144264221,-1.3163951635360718
1726995604083498800,9.883498779296875,-0.3284873366355896,0.19673143327236176,-1.2095869779586792
1726995604093484800,9.89348486328125,-0.24023950099945068,0.14991146326065063,-1.1010631322860718
1726995604103470800,9.903470947265625,-0.1891278475522995,0.12750975787639618,-0.996438205242157
1726995604113456600,9.91345654296875,-0.1715102344751358,0.11469728499650955,-0.9006687998771667
1726995604123443000,9.92344287109375,-0.15015354752540588,0.1227211281657219,-0.7836524844169617
1726995604133428700,9.9334287109375,-0.1300613284111023,0.08190951496362686,-0.6660329103469849
1726995604143415800,9.943415771484375,-0.09448122978210449,0.026514431461691856,-0.5987681150436401
1726995604153401900,9.95340185546875,-0.060873471200466156,-0.03050997294485569,-0.5418416857719421
1726995604163387600,9.9633876953125,-0.05341422185301781,-0.06549166142940521,-0.47792714834213257
1726995604173373700,9.973373779296875,-0.06481015682220459,-0.0926700159907341,-0.4176957607269287
1726995604183359700,9.98335986328125,-0.08353004604578018,-0.1174592524766922,-0.34991511702537537
1726995604193345800,9.993345703125,-0.09014853835105896,-0.11009960621595383,-0.26262548565864563
1726995604203331600,10.00333154296875,-0.0889812707901001,-0.06252915412187576,-0.16833974421024323
1726995604213318000,10.01331787109375,-0.08053132891654968,0.016918528825044632,-0.09746290743350983
1726995604223303700,10.0233037109375,-0.10021714866161346,0.08195851743221283,-0.040414534509181976
1726995604233289700,10.033289794921876,-0.1643974632024765,0.17683416604995728,0.015847938135266304
1726995604243275800,10.04327587890625,-0.2358463555574417,0.2841068208217621,0.012002333998680115
1726995604253261800,10.05326171875,-0.27850887179374695,0.29656270146369934,0.04941415414214134
1726995604263248600,10.06324853515625,-0.2800622880458832,0.2897079885005951,0.09246015548706055
1726995604273235000,10.07323486328125,-0.30569547414779663,0.29550701379776,0.16459479928016663
1726995604283220700,10.083220703125,-0.3486059308052063,0.32560020685195923,0.23677578568458557
1726995604293206800,10.093206787109375,-0.41038966178894043,0.3718949854373932,0.3171316087245941
1726995604303192800,10.10319287109375,-0.4592980742454529,0.3724111318588257,0.3615105450153351
1726995604313179000,10.113178955078125,-0.48556244373321533,0.3335803747177124,0.3776508867740631
1726995604323164700,10.12316455078125,-0.5050948858261108,0.25475239753723145,0.3104926347732544
1726995604333151000,10.13315087890625,-0.517867386341095,0.1644778996706009,0.14414972066879272
1726995604343136800,10.14313671875,-0.47540462017059326,0.12994974851608276,-0.02394820936024189
1726995604353122800,10.153122802734375,-0.35062700510025024,0.19585978984832764,-0.1609763652086258
1726995604363108900,10.16310888671875,-0.18603459000587463,0.25082528591156006,-0.22990776598453522
1726995604373095000,10.173094970703126,-0.04519437626004219,0.2809682786464691,-0.2637762427330017
1726995604383080700,10.183080810546874,0.03804511949419975,0.3115685284137726,-0.2932630479335785
1726995604393067800,10.19306787109375,0.08982975780963898,0.33445975184440613,-0.29340073466300964
1726995604403053800,10.2030537109375,0.13059742748737335,0.29737842082977295,-0.2546005845069885
1726995604413039600,10.21303955078125,0.19841961562633514,0.2008500099182129,-0.19534073770046234
1726995604423026000,10.22302587890625,0.2733716070652008,0.06445968151092529,-0.14196725189685822
1726995604433011700,10.23301171875,0.34929728507995605,-0.02172446995973587,-0.06199519336223602
1726995604442997800,10.242997802734376,0.34110406041145325,-0.16767261922359467,-0.0849284753203392
1726995604452983800,10.25298388671875,0.32086271047592163,-0.2910193204879761,-0.08077207952737808
1726995604462969900,10.262969970703125,0.3041319251060486,-0.3604782819747925,-0.05080538988113403
1726995604472955600,10.27295556640625,0.3049018383026123,-0.37947729229927063,-0.02564011514186859
1726995604482942000,10.28294189453125,0.2952617406845093,-0.4099792540073395,0.0030184267088770866
1726995604492927700,10.292927734375,0.26489344239234924,-0.418796181678772,0.02352822944521904
1726995604502913800,10.302913818359375,0.24624839425086975,-0.37318769097328186,0.05740496888756752
1726995604512899800,10.31289990234375,0.25684884190559387,-0.2982463538646698,0.09915987402200699
1726995604522886000,10.322885986328124,0.2861129939556122,-0.22098883986473083,0.1499045491218567
1726995604532872700,10.332872802734375,0.2958601415157318,-0.1557786762714386,0.19298437237739563
1726995604542858800,10.342858642578125,0.27954643964767456,-0.09089048951864243,0.23034079372882843
1726995604552844800,10.3528447265625,0.24779514968395233,0.0000697748182574287,0.261582612991333
1726995604562830600,10.36283056640625,0.2148667573928833,0.08744542300701141,0.2650090157985687
1726995604572817000,10.37281689453125,0.24080541729927063,0.17038185894489288,0.23662185668945312
1726995604582802700,10.382802734375,0.327374130487442,0.23699256777763367,0.19934053719043732
1726995604592788700,10.392788818359374,0.43040889501571655,0.26259645819664,0.1576889604330063
1726995604602774800,10.40277490234375,0.5019629597663879,0.2971224784851074,0.12233949452638626
1726995604612760800,10.4127607421875,0.5323861241340637,0.326887309551239,0.11135128885507584
1726995604622746600,10.42274658203125,0.5506862998008728,0.3120412528514862,0.09966001659631729
1726995604632733000,10.43273291015625,0.5649893283843994,0.29891666769981384,0.11181281507015228
1726995604642718700,10.44271875,0.6102221012115479,0.2974700331687927,0.1607968658208847
1726995604652704800,10.452704833984376,0.6838398575782776,0.3342069983482361,0.18834993243217468
1726995604662691800,10.46269189453125,0.8127070069313049,0.4289303123950958,0.24638314545154572
1726995604672677600,10.472677734375,0.9977242946624756,0.5016247630119324,0.32344597578048706
1726995604682663700,10.48266357421875,1.2411470413208008,0.5988082885742188,0.42538750171661377
1726995604692649700,10.492649658203124,1.4854081869125366,0.6825188994407654,0.5072054266929626
1726995604702635800,10.5026357421875,1.685699224472046,0.6759699583053589,0.5257106423377991
1726995604712621600,10.51262158203125,1.8317517042160034,0.6419203281402588,0.49627581238746643
1726995604722607900,10.52260791015625,1.869581937789917,0.48308277130126953,0.39554014801979065
1726995604732593700,10.53259375,1.772594928741455,0.22171428799629211,0.23493927717208862
1726995604742579700,10.542579833984375,1.6173473596572876,-0.1398380547761917,0.0237633865326643
1726995604752565800,10.552565673828125,1.4096859693527222,-0.6332962512969971,-0.09524662047624588
1726995604762551800,10.5625517578125,1.172255277633667,-1.1202213764190674,-0.1276857852935791
1726995604772537600,10.57253759765625,0.9137598872184753,-1.5023688077926636,-0.037939127534627914
1726995604782524000,10.58252392578125,0.6300703287124634,-1.7093720436096191,0.16489307582378387
1726995604792509700,10.592509765625,0.3269498944282532,-1.6650484800338745,0.441621333360672
1726995604802495700,10.602495849609374,0.021749503910541534,-1.4521788358688354,0.698834240436554
1726995604812482800,10.61248291015625,-0.27852484583854675,-1.2298065423965454,0.9205714464187622
1726995604822468900,10.62246875,-0.5583705902099609,-0.9968459606170654,1.0919862985610962
1726995604832454700,10.63245458984375,-0.8374629616737366,-0.700556755065918,1.1974430084228516
1726995604842441000,10.64244091796875,-1.1154428720474243,-0.4479879140853882,1.2676974534988403
1726995604852426800,10.6524267578125,-1.3746094703674316,-0.21603696048259735,1.2660731077194214
1726995604862412800,10.662412841796876,-1.591187596321106,0.028730714693665504,1.1907296180725098
1726995604872398800,10.67239892578125,-1.7266924381256104,0.18098309636116028,1.0397942066192627
1726995604882385000,10.682385009765625,-1.7568639516830444,0.3416244387626648,0.7667192816734314
1726995604892370700,10.69237060546875,-1.671735405921936,0.4862567186355591,0.38188159465789795
1726995604902356700,10.702356689453126,-1.50188148021698,0.5275607705116272,-0.11138883978128433
1726995604912342800,10.7123427734375,-1.3038439750671387,0.5018386244773865,-0.5685859322547913
1726995604922328800,10.722328857421875,-1.0179890394210815,0.5595996379852295,-0.9151902198791504
1726995604932315000,10.73231494140625,-0.807696521282196,0.5337302088737488,-1.1416441202163696
1726995604942300700,10.74230078125,-0.7103803753852844,0.43318551778793335,-1.2282788753509521
1726995604952288000,10.7522880859375,-0.6640456318855286,0.31065934896469116,-1.1843702793121338
1726995604962273800,10.762273681640625,-0.6092087626457214,0.16775357723236084,-1.0779746770858765
1726995604972259800,10.772259765625,-0.5297139286994934,0.04610917344689369,-0.9464171528816223
1726995604982245600,10.78224560546875,-0.4303460419178009,-0.01239088922739029,-0.825103759765625
1726995604992232000,10.79223193359375,-0.32812008261680603,0.01392833236604929,-0.7147285342216492
1726995605002218500,10.802218505859376,-0.25085753202438354,0.07126219570636749,-0.6093797087669373
1726995605012204300,10.812204345703124,-0.21303556859493256,0.10844365507364273,-0.507036566734314
1726995605022190300,10.8221904296875,-0.20741523802280426,0.12255121767520905,-0.4371624290943146
1726995605032176400,10.83217626953125,-0.22282828390598297,0.12951591610908508,-0.3869711458683014
1726995605042162400,10.842162353515626,-0.23779498040676117,0.14526131749153137,-0.34983256459236145
1726995605052148200,10.852148193359374,-0.24445848166942596,0.20119409263134003,-0.32640528678894043
1726995605062134500,10.862134521484375,-0.23485378921031952,0.26136237382888794,-0.2995645999908447
1726995605072120300,10.872120361328125,-0.20297148823738098,0.27755650877952576,-0.2723572254180908
1726995605082106400,10.8821064453125,-0.16275349259376526,0.2544373571872711,-0.275333046913147
1726995605092092400,10.892092529296875,-0.11652874201536179,0.24715998768806458,-0.28779637813568115
1726995605102078500,10.902078369140625,-0.11310684680938721,0.23254376649856567,-0.30341818928718567
1726995605112065300,10.912065185546876,-0.16375510394573212,0.26504310965538025,-0.3190368413925171
1726995605122051600,10.922051513671875,-0.2488582879304886,0.35670697689056396,-0.2763519585132599
1726995605132037400,10.932037353515625,-0.2963760197162628,0.401049941778183,-0.23712652921676636
1726995605142023400,10.9420234375,-0.30719244480133057,0.40702661871910095,-0.16380837559700012
1726995605152009500,10.952009521484374,-0.31809887290000916,0.3965281844139099,-0.0736212208867073
1726995605161995500,10.96199560546875,-0.3513724207878113,0.3800591826438904,0.03629302605986595
1726995605171981300,10.971981201171875,-0.40358662605285645,0.3489622473716736,0.12808552384376526
1726995605181967600,10.981967529296876,-0.43489181995391846,0.2679654061794281,0.18158496916294098
1726995605191953400,10.991953369140624,-0.42768076062202454,0.10225872695446014,0.17145776748657227
1726995605201939500,11.001939453125,-0.39181119203567505,-0.03939827159047127,0.10302651673555374
1726995605211925500,11.011925537109375,-0.33415108919143677,-0.11472312361001968,0.027401797473430634
1726995605221911600,11.02191162109375,-0.24824044108390808,-0.0622846782207489,-0.0600002184510231
1726995605231897300,11.0318974609375,-0.1352691352367401,0.058945342898368835,-0.14105166494846344
1726995605241883400,11.04188330078125,-0.021792912855744362,0.15835848450660706,-0.18622633814811707
1726995605251869400,11.051869384765626,0.05619429796934128,0.17999427020549774,-0.19563980400562286
1726995605261856300,11.061856201171874,0.1233842521905899,0.1730514019727707,-0.20068304240703583
1726995605271842600,11.071842529296875,0.1908796727657318,0.1302778422832489,-0.1792011857032776
1726995605281828400,11.081828369140625,0.2503634989261627,0.06936602294445038,-0.14548182487487793
1726995605291814400,11.091814453125,0.2825435400009155,-0.03537849709391594,-0.11609011888504028
1726995605301800400,11.101800537109375,0.2664455473423004,-0.15904290974140167,-0.09417150914669037
1726995605311786500,11.111786376953125,0.23343218863010406,-0.19164107739925385,-0.032524388283491135
1726995605321772300,11.121772216796876,0.1556665599346161,-0.24911421537399292,0.02220410481095314
1726995605331758600,11.131758544921874,0.1094101145863533,-0.36780890822410583,-0.0020530307665467262
1726995605341744400,11.141744384765625,0.16661028563976288,-0.4503147006034851,-0.02521214634180069
1726995605351730400,11.15173046875,0.2360583394765854,-0.47065165638923645,-0.04164278507232666
1726995605361716500,11.161716552734376,0.24580390751361847,-0.4514228403568268,-0.054495733231306076
1726995605371702500,11.17170263671875,0.21360336244106293,-0.4418881833553314,-0.03374171629548073
1726995605381688300,11.181688232421875,0.22317636013031006,-0.3740454912185669,-0.0017715347930788994
1726995605391674600,11.191674560546875,0.2689387798309326,-0.26969113945961,0.050518833100795746
1726995605401660400,11.201660400390624,0.3153265118598938,-0.18923144042491913,0.11263520270586014
1726995605411646500,11.211646484375,0.343478798866272,-0.11846911907196045,0.15890495479106903
1726995605421632500,11.221632568359375,0.3445105254650116,-0.06395847350358963,0.17791034281253815
1726995605431619300,11.231619384765626,0.32478874921798706,-0.01486469991505146,0.1682470589876175
1726995605441605400,11.24160546875,0.3063831031322479,0.036439232528209686,0.1256873607635498
1726995605451591400,11.25159130859375,0.3148103952407837,0.0720028206706047,0.05886145308613777
1726995605461577500,11.261577392578126,0.3517681658267975,0.11879988759756088,-0.004250671248883009
1726995605471563300,11.271563232421874,0.4270536005496979,0.1968182623386383,-0.04361432418227196
1726995605481549600,11.281549560546875,0.5193419456481934,0.2757972180843353,-0.04688761383295059
1726995605491535400,11.291535400390625,0.6049959063529968,0.3429347276687622,-0.03356355428695679
1726995605501521400,11.301521484375,0.639061689376831,0.37207263708114624,-0.009126919321715832
1726995605511507500,11.311507568359374,0.6638799905776978,0.40273573994636536,0.04038523882627487
1726995605521493500,11.321493408203125,0.6976019740104675,0.4866599142551422,0.03948322683572769
1726995605531479300,11.331479248046875,0.7752192616462708,0.5004604458808899,0.048715874552726746
1726995605541465600,11.341465576171874,0.9103491306304932,0.5752004384994507,0.0954708606004715
1726995605551451400,11.351451416015625,1.0678154230117798,0.6941279172897339,0.1869746744632721
1726995605561437400,11.3614375,1.208186388015747,0.8297850489616394,0.26732465624809265
1726995605571423500,11.371423583984376,1.358660101890564,0.8000985383987427,0.36060771346092224
1726995605581409500,11.381409423828124,1.5296281576156616,0.6028217077255249,0.490444540977478
1726995605591396400,11.391396240234375,1.624302625656128,0.4328334629535675,0.5220746397972107
1726995605601382400,11.40138232421875,1.6083964109420776,0.09149449318647385,0.4161332845687866
1726995605611368400,11.411368408203124,1.5298411846160889,-0.35121315717697144,0.36846938729286194
1726995605621354200,11.421354248046875,1.3847495317459106,-0.8252361416816711,0.3306722044944763
1726995605631340500,11.431340576171875,1.1725701093673706,-1.3978205919265747,0.2676330506801605
1726995605641326300,11.441326416015626,0.9290485382080078,-1.9036195278167725,0.38349705934524536
1726995605651312400,11.4513125,0.6602509021759033,-2.0592334270477295,0.6292154788970947
1726995605661298400,11.46129833984375,0.31014081835746765,-1.7634915113449097,0.8092308044433594
1726995605671284500,11.471284423828125,-0.07354345917701721,-1.3057595491409302,0.9542718529701233
1726995605681270300,11.481270263671876,-0.386697918176651,-1.1148418188095093,1.1242693662643433
1726995605691256600,11.491256591796875,-0.6694065928459167,-0.941740095615387,1.1919167041778564
1726995605701242400,11.501242431640625,-0.8945398330688477,-0.7134014368057251,1.1794700622558594
1726995605711228400,11.511228515625,-1.0299205780029297,-0.49845853447914124,1.0688331127166748
1726995605721214500,11.52121435546875,-1.1192238330841064,-0.20659418404102325,0.8793212175369263
1726995605731200500,11.531200439453125,-1.160670518875122,0.10937070101499557,0.6203551292419434
1726995605741186300,11.541186279296875,-1.173645257949829,0.36255529522895813,0.3459603488445282
1726995605751172400,11.55117236328125,-1.1712510585784912,0.5835180282592773,0.017696438357234
1726995605761159400,11.561159423828125,-1.1768522262573242,0.6862190961837769,-0.3711378574371338
1726995605771145200,11.571145263671875,-1.156688928604126,0.7512117028236389,-0.7378162741661072
1726995605781131500,11.581131591796876,-1.0916675329208374,0.7671011686325073,-1.037879467010498
1726995605791117300,11.591117431640624,-1.000331997871399,0.7273580431938171,-1.287980079650879
1726995605801103400,11.601103271484375,-0.8908784985542297,0.6883515119552612,-1.4152053594589233
1726995605811089400,11.61108935546875,-0.7705060243606567,0.6342613697052002,-1.4242981672286987
1726995605821075500,11.621075439453126,-0.6816267371177673,0.5364437103271484,-1.4074918031692505
1726995605831061200,11.631061279296874,-0.5785635113716125,0.48963868618011475,-1.3566429615020752
1726995605841047600,11.641047607421875,-0.46848440170288086,0.4355093836784363,-1.2542109489440918
1726995605851033300,11.651033447265625,-0.3675481975078583,0.41378411650657654,-1.1057183742523193
1726995605861019400,11.661019287109376,-0.30340540409088135,0.42528045177459717,-0.9367945790290833
1726995605871005400,11.67100537109375,-0.2752174437046051,0.4625660479068756,-0.7861696481704712
1726995605880991500,11.680991455078125,-0.28368550539016724,0.45966747403144836,-0.6763949990272522
1726995605890977300,11.690977294921876,-0.26786261796951294,0.3838115632534027,-0.6027412414550781
1726995605900963300,11.70096337890625,-0.23259782791137695,0.29994145035743713,-0.5420382618904114
1726995605910949400,11.710949462890625,-0.1857765167951584,0.23213283717632294,-0.48829856514930725
1726995605920935400,11.720935302734375,-0.14155367016792297,0.21409204602241516,-0.4391818940639496
1726995605930921200,11.730921142578126,-0.10306699573993683,0.1859259307384491,-0.41927555203437805
1726995605940908500,11.740908447265625,-0.08440595865249634,0.15210963785648346,-0.4107334613800049
1726995605950894300,11.750894287109375,-0.09622453898191452,0.11443842947483063,-0.37269261479377747
1726995605960880600,11.760880615234376,-0.12132669240236282,0.11345279216766357,-0.32013964653015137
1726995605970866400,11.770866455078124,-0.13083204627037048,0.14555266499519348,-0.2844032347202301
1726995605980852500,11.7808525390625,-0.14965473115444183,0.2206394374370575,-0.2714352309703827
1726995605990838500,11.790838623046875,-0.1576591283082962,0.3297920227050781,-0.24707157909870148
1726995606000824300,11.80082421875,-0.13947586715221405,0.30108606815338135,-0.18991321325302124
1726995606010810000,11.81081005859375,-0.13216522336006165,0.2463301420211792,-0.12625247240066528
1726995606020796200,11.820796142578125,-0.1820387840270996,0.21660900115966797,-0.007042197044938803
1726995606030782200,11.8307822265625,-0.28729248046875,0.20208784937858582,0.14867070317268372
1726995606040768300,11.840768310546874,-0.3737059533596039,0.1724303513765335,0.2625584006309509
1726995606050754000,11.850754150390625,-0.3723740875720978,0.15169578790664673,0.3006303906440735
1726995606060740400,11.860740234375,-0.3123967945575714,0.14323918521404266,0.28894951939582825
1726995606070726100,11.87072607421875,-0.19540464878082275,0.1498912274837494,0.2484409660100937
1726995606080712200,11.880712158203124,-0.09631428867578506,0.15344920754432678,0.18294265866279602
1726995606090698200,11.8906982421875,-0.055996157228946686,0.1143321692943573,0.08795275539159775
1726995606100684300,11.900684326171875,-0.027149062603712082,0.10298150777816772,-0.049673281610012054
1726995606110670000,11.910670166015626,0.0030506509356200695,0.09275230765342712,-0.15669800341129303
1726995606120657200,11.9206572265625,0.025071531534194946,0.05669337138533592,-0.22487519681453705
1726995606130643200,11.930643310546875,0.02371065504848957,0.01426522247493267,-0.23905518651008606
1726995606140629000,11.94062890625,0.004332696553319693,-0.04711504653096199,-0.20952579379081726
1726995606150615300,11.950615234375,-0.025501631200313568,-0.1247352734208107,-0.16500546038150787
1726995606160601000,11.96060107421875,-0.036249082535505295,-0.17771460115909576,-0.09068676084280014
1726995606170587100,11.970587158203125,-0.011494203470647335,-0.22389142215251923,-0.005249889567494392
1726995606180573200,11.9805732421875,0.08383684605360031,-0.16136199235916138,0.1486603170633316
1726995606190559200,11.990559326171875,0.1317889243364334,-0.298644483089447,0.15370647609233856
1726995606200545000,12.000544921875,0.1887451559305191,-0.3871450424194336,0.150666743516922
1726995606210531300,12.01053125,0.2239348292350769,-0.41746461391448975,0.1526356190443039
1726995606220517000,12.02051708984375,0.24005919694900513,-0.4081669747829437,0.15131868422031403
1726995606230503200,12.030503173828125,0.24363689124584198,-0.39383411407470703,0.15916195511817932
1726995606240489200,12.0404892578125,0.24746093153953552,-0.3610633909702301,0.191350519657135
1726995606250475300,12.050475341796876,0.2516612708568573,-0.3391466438770294,0.2279609888792038
1726995606260461000,12.0604609375,0.249705970287323,-0.3120095729827881,0.2548719644546509
1726995606270447000,12.070447021484375,0.2515028119087219,-0.25308260321617126,0.2796902358531952
1726995606280434200,12.08043408203125,0.29055672883987427,-0.16131645441055298,0.32388752698898315
1726995606290420000,12.090419921875,0.35517194867134094,-0.056346628814935684,0.3509329855442047
1726995606300406300,12.10040625,0.430076539516449,0.03309563547372818,0.36721980571746826
1726995606310392000,12.11039208984375,0.49531280994415283,0.10384304076433182,0.3721546530723572
1726995606320378000,12.120378173828126,0.5513217449188232,0.15999819338321686,0.3896031677722931
1726995606330364200,12.1303642578125,0.5927325487136841,0.16845479607582092,0.40276315808296204
1726995606340350200,12.14035009765625,0.6414092779159546,0.13742923736572266,0.4151250123977661
1726995606350336000,12.1503359375,0.7259582877159119,0.13688647747039795,0.4160861670970917
1726995606360322300,12.160322265625,0.7971504330635071,0.21203716099262238,0.4173218607902527
1726995606370308000,12.17030810546875,0.8705572485923767,0.2425583153963089,0.4224114418029785
1726995606380294100,12.180294189453125,0.9769404530525208,0.30586671829223633,0.46046188473701477
1726995606390280200,12.1902802734375,1.1548116207122803,0.36312493681907654,0.5521654486656189
1726995606400266200,12.200266357421874,1.3629674911499023,0.4316997528076172,0.643537163734436
1726995606410252000,12.210251953125,1.558609127998352,0.5564139485359192,0.7246837019920349
1726995606420238000,12.220238037109375,1.7372691631317139,0.5864706635475159,0.7418216466903687
1726995606430224100,12.23022412109375,1.855973243713379,0.47381123900413513,0.6883826851844788
1726995606440211000,12.2402109375,1.903786301612854,0.24235858023166656,0.4430658519268036
1726995606450197200,12.250197265625,1.8485978841781616,-0.2761290669441223,0.16451996564865112
1726995606460183000,12.26018310546875,1.6590620279312134,-0.8763064742088318,0.02382650226354599
1726995606470169000,12.270169189453124,1.3956815004348755,-1.4849400520324707,-0.0353127159178257
1726995606480155100,12.280155029296875,1.0817980766296387,-1.9786951541900635,0.04440794512629509
1726995606490141200,12.29014111328125,0.727066695690155,-2.2028839588165283,0.2874690592288971
1726995606500127000,12.300126953125,0.3596572279930115,-2.1361138820648193,0.5925453305244446
1726995606510113300,12.31011328125,0.010729876346886158,-1.8210716247558594,0.8566622138023376
1726995606520099000,12.32009912109375,-0.3067641854286194,-1.4339255094528198,1.0867390632629395
1726995606530085000,12.330085205078126,-0.5789331197738647,-1.176801085472107,1.2407324314117432
1726995606540071000,12.34007080078125,-0.8140098452568054,-0.8881844282150269,1.3123860359191895
1726995606550057200,12.35005712890625,-1.0795317888259888,-0.5660676956176758,1.2924169301986694
1726995606560043000,12.36004296875,-1.2897683382034302,-0.23783652484416962,1.1785424947738647
1726995606570029000,12.370029052734376,-1.4633361101150513,0.031389348208904266,1.0238174200057983
1726995606580015000,12.38001513671875,-1.5633724927902222,0.26323455572128296,0.726395845413208
1726995606590001200,12.390001220703125,-1.588549256324768,0.4433358907699585,0.3554760813713074
1726995606599987000,12.399987060546875,-1.577364444732666,0.5991835594177246,-0.06594466418027878
