time,seconds_elapsed,z,y,x
1727009982812408600,0.03240869140625,-2.525494044408202,-1.3560136271834373,0.42693873374983665
1727009982822446600,0.042446533203125,-1.1360767447948454,0.07852408613860606,0.24106252639517187
1727009982832484600,0.052484619140625,-0.6114686410620809,0.834621855148673,-0.13299772686511277
1727009982842522600,0.062522705078125,-0.4634586385041475,1.3012871807396411,-0.19155673720911143
1727009982852559600,0.0725595703125,-0.9175786630377173,0.7111234857738018,-0.2578871122069657
1727009982862597600,0.08259765625,0.3876052328795194,0.397529830044508,0.02784910704270005
1727009982872635600,0.0926357421875,0.38667029011696574,-0.08542728965580462,0.8070369520001113
1727009982882673700,0.102673583984375,0.11380290479063987,-0.03931201969087124,1.772546263861656
1727009982892710700,0.112710693359375,-0.484632943958044,-0.2852729856520891,2.2676012331128117
1727009982902748700,0.122748779296875,-0.3963853361845016,-0.4070937772035598,2.257221731787175
1727009982912786700,0.13278662109375,0.663188599166274,-0.3733119191110134,2.004387957447022
1727009982922824700,0.14282470703125,0.6700140612721442,-0.32051673299074174,1.8337302158817648
1727009982932862700,0.15286279296875,-0.3940940103769302,-0.7205342881977558,1.397571233844012
1727009982942899700,0.162899658203125,0.36873949662894007,-0.9356436042994261,0.8036974323138594
1727009982952937700,0.172937744140625,0.7626786087051034,-0.7388800922274589,0.5626774298861622
1727009982962975700,0.182975830078125,-0.4223842853158712,-0.8455050682127475,0.4420627992540598
1727009982973013800,0.193013671875,0.14480010060071943,-0.5990326455980539,0.5873273024961352
1727009982983050500,0.203050537109375,0.3024067835435271,-0.4492027341365814,0.8640525322943925
1727009982993088800,0.2130888671875,-0.0806076144143939,-0.29095687650740143,0.6868819017037749
1727009983003126500,0.22312646484375,-0.05443477002084255,-0.3601093231886625,0.2831991019874811
1727009983013164800,0.233164794921875,0.1599973774716258,-0.15781331143081187,0.19631869091391563
1727009983023202600,0.24320263671875,-0.4561383786186576,0.278001533344388,0.13618600151240826
1727009983033239600,0.253239501953125,-0.1750666440486908,0.2581722127586603,-0.07515519422739744
1727009983043277800,0.26327783203125,0.051608898945152755,0.7622481083333492,0.008286766830086707
1727009983053315600,0.273315673828125,-0.31632337295413016,0.2098345905691385,-0.3688111005604267
1727009983063353900,0.283353759765625,-0.6211334182471037,0.04691138877868652,-0.32591917655617
1727009983073391600,0.2933916015625,0.4439782774865627,-0.24079846863150595,0.12599223201721907
1727009983083428600,0.3034287109375,-0.41909664194732904,-0.45925651063919065,0.6600307196572422
1727009983093467000,0.313466796875,-0.31933424520790576,-0.5790607016712427,0.9762582310214638
1727009983103504600,0.323504638671875,0.6975304292291402,-0.7636205657303333,0.8903270834967494
1727009983113543000,0.33354296875,0.3919666429594159,-1.153312541756034,0.6714502315551042
1727009983123579600,0.34357958984375,-0.06159457864761352,-1.1683891148567198,0.9217886819481849
1727009983133617700,0.35361767578125,-0.10402268453240394,-0.5169055665314197,1.3415519711107016
1727009983143655700,0.36365576171875,0.07937982618510722,-0.20501111593544483,1.49815941388309
1727009983153693700,0.373693603515625,1.1748097955539822,0.2818529480755329,1.3719938711255788
1727009983163731500,0.3837314453125,0.3756330555349588,0.34734862581491466,1.17412415137738
1727009983173768700,0.393768798828125,-0.751679660306871,0.3384983798831701,0.7507377032816409
1727009983183806700,0.403806640625,0.11143033044040203,-0.20049919146895406,0.17365560820698736
1727009983193844700,0.4138447265625,0.6818824859812855,-0.19610943207740783,-0.326512174013257
1727009983203882800,0.4238828125,-0.6748217538148165,-0.84137892819345,-0.4376920368239283
1727009983213919700,0.433919677734375,0.2169499755322933,-0.8815092785298824,-0.013827449822425841
1727009983223957800,0.443957763671875,0.08841536555588245,-0.5878577561110258,0.939157165378332
1727009983233995800,0.453995849609375,0.15496961243748664,-0.4221756110012531,1.7137117975771425
1727009983244033500,0.464033447265625,0.3406552656561136,-0.27025661830604075,1.9112886718586086
1727009983254071800,0.47407177734375,-0.36930209894776345,-0.930516762804985,1.7256559178709983
1727009983264108500,0.484108642578125,-0.27436463814675804,-0.7407604991465806,1.2273600670024751
1727009983274146800,0.494146728515625,0.34389117883741854,-0.8350269288182258,0.4413894300371408
1727009983284184600,0.5041845703125,0.8192705567598343,-0.45115737533569333,-0.2800345004767179
1727009983294222600,0.51422265625,1.029790791505575,-0.6187041452735662,-0.6457254231899976
1727009983304260600,0.524260498046875,0.06696224316060542,-0.6375590678691864,-0.3063917615264654
1727009983314297600,0.534297607421875,1.0529401964247227,-0.8332125728726386,0.5839280154466628
1727009983324335600,0.544335693359375,0.9715501994609832,-0.6248930630415678,1.5040087244331837
1727009983334373600,0.55437353515625,0.13775076661109922,-1.150863395038247,1.8396473309710621
1727009983344411600,0.56441162109375,-0.44248950023353095,-0.9029512950092553,1.4858470447987318
1727009983354449000,0.574448974609375,0.5095639715969562,-0.9604536359071731,0.4679021739095449
1727009983364486700,0.584486572265625,1.702854887998104,-0.5433721331745386,-0.7717056725084781
1727009983374524700,0.594524658203125,1.2914777343869208,-0.6911275764495134,-1.4585291220232843
1727009983384562700,0.604562744140625,-0.16103110443353652,-0.8870394401282071,-1.0563441596493124
1727009983394600700,0.6146005859375,0.3805915547251701,-0.5130231721401214,0.05130903921574354
1727009983404637700,0.6246376953125,0.6715963620275258,-0.27340543772578235,0.8415659751981497
1727009983414675700,0.63467578125,0.6356278075456618,-0.0493868389815092,0.6132984868377447
1727009983424713700,0.644713623046875,-1.3295096511393785,-0.4777022679120302,-0.41047845120579
1727009983434751700,0.654751708984375,0.6203399297818541,-0.4696107313930988,-1.4847794155672192
1727009983444789800,0.664789794921875,1.4907809940695762,-0.4434989695370197,-1.868760320469737
1727009983454826500,0.674826416015625,1.6975141114920376,-0.19850071112811565,-1.2936489409461616
1727009983464864800,0.68486474609375,0.3239998989313841,-0.2284399223178625,0.11901567100286484
1727009983474902500,0.694902587890625,-0.9306751682370901,-0.11420505585074424,1.4173828726425766
1727009983484940800,0.70494091796875,-0.7536088748037815,0.054094578281044955,1.5627847385287283
1727009983494977800,0.714977783203125,0.2530611533552408,-0.3855798645317554,0.6021972471088171
1727009983505015600,0.725015625,0.8710375688761473,-0.07407704360187053,-0.5086269830077886
1727009983515053800,0.7350537109375,-0.7414402981042861,-0.5693816036999225,-0.9248097833350301
1727009983525091600,0.745091552734375,0.6207903038978576,-0.11140285791158676,-0.5478481095448136
1727009983535129900,0.7551298828125,-0.6521306140571832,0.46902445593774317,0.208425600554049
1727009983545166800,0.765166748046875,0.6246396728023886,0.6529395923525094,0.5429845951616764
1727009983555204600,0.77520458984375,-0.9032353726476431,0.511358453798294,0.3672328914582729
1727009983565243000,0.785242919921875,0.5217044912457466,0.01864683280289173,-0.1031225208222866
1727009983575280600,0.79528076171875,-0.7263456048250198,-0.07550152344703674,-0.4748749355316162
1727009983585318700,0.805318603515625,0.4272320176079869,-0.8127244961172342,-0.505616110754013
1727009983595355600,0.815355712890625,-1.0996601542845368,-0.08690379194915294,-0.061763797734677786
1727009983605393700,0.8253935546875,-0.8893792812526226,-0.41602468715608115,0.3672179861500859
1727009983615431700,0.835431640625,0.8338824349582195,0.8135346434563397,0.4761369182914495
1727009983625469000,0.845468994140625,0.5446630497679114,0.4260357935607433,0.45038580644130705
1727009983635506000,0.855505859375,0.2090291194051504,0.9040665627747774,0.37422348099797964
1727009983645544000,0.8655439453125,-1.5581033027142286,-0.5685036518216133,0.40994449045956133
1727009983655582000,0.87558203125,1.2340794383853673,-0.22392507524192332,0.6194505797266959
1727009983665620000,0.885619873046875,-0.1221457857221365,-0.6150327632844448,0.9516942831292748
1727009983675658000,0.895657958984375,-0.5151160527661443,-0.7019587670654058,1.0045470446556806
1727009983685695000,0.905695068359375,-1.3665446658089757,-0.33374212526679037,0.7752300472423433
1727009983695732700,0.915732666015625,-0.3918301570981741,-0.04445756588578224,0.35168519371449947
1727009983705771000,0.92577099609375,0.9750175833106041,0.5776479122638702,-0.0209007492095232
1727009983715808800,0.935808837890625,0.520383471775055,0.3745750709146261,-0.13491525092422962
1727009983725845800,0.945845703125,-1.3389540635719894,0.1976929018765688,0.19936083508878946
1727009983735884000,0.955884033203125,-0.6904843101099133,-0.2473626494526863,0.6376189813628792
1727009983745921800,0.965921875,-0.27146219470351934,0.16756547463834284,0.6143970957294106
1727009983755960000,0.9759599609375,1.0662278402820229,0.11896247951090336,0.12415040354281663
1727009983765997800,0.985997802734375,-0.4632324285328388,0.13762041822969912,-0.08206833461672067
1727009983776034800,0.996034912109375,-0.5889958202302455,-0.20389701721370218,0.20044687675982711
1727009983786073000,1.006072998046875,0.510174212449789,0.6870213101744651,0.6255795840010047
1727009983796110800,1.01611083984375,0.05956541090756654,0.04904898532927036,0.8391995383277535
1727009983806149000,1.026149169921875,-0.7174050502613186,0.127775316041708,0.6354404682800173
1727009983816187000,1.036186767578125,-1.9394336931079625,-0.9312813174366951,0.3941451560422778
1727009983826223900,1.046223876953125,-0.13285568804591893,-0.6072375793635845,0.4104577006787061
1727009983836262000,1.056261962890625,0.0348912806391716,-0.4006201972752809,0.5472402067795396
1727009983846300000,1.0662998046875,-0.49556204199045895,0.17635376124978064,0.31317075414210555
1727009983856338000,1.076337890625,0.3188461694300175,0.1593587873071432,-0.09168459648489952
1727009983866376000,1.0863759765625,-1.3746598754644392,0.21060557494163512,0.0763613551467657
1727009983876413000,1.096412841796875,-0.5116255803018808,0.6315495983213186,0.6323927711471915
1727009983886451000,1.106450927734375,-0.39447570317089553,0.4986842656642198,1.0594108537435531
1727009983896489000,1.116489013671875,0.6817796101287007,0.30832477541565895,1.140486962452531
1727009983906527000,1.12652685546875,-0.40774522684961556,-0.3763613698095083,1.248858489844203
1727009983916564000,1.13656396484375,-1.136983922767639,-0.7832809594899416,1.5033908847957849
1727009983926602000,1.14660205078125,0.14923954435288905,-0.5888619647175073,1.6558280561462044
1727009983936640000,1.156639892578125,-0.22412907338142393,-0.8957523234158754,1.583815251597762
1727009983946678000,1.166677978515625,0.18871932182610035,-0.48523850863575935,1.3479530703246592
1727009983956715800,1.1767158203125,-0.6342354764044285,-0.7469751358777285,1.0989368084460496
1727009983966753000,1.1867529296875,0.9212713800758123,-0.26603929287195205,0.8999953678131103
1727009983976790800,1.196790771484375,0.8038318723484873,-0.3649591013073921,0.8082119871288538
1727009983986829000,1.2068291015625,0.08854366811066866,-0.6380225937277079,0.6339513987660408
1727009983996866800,1.21686669921875,-0.3622776071384549,-1.203471534153819,0.3758151341035962
1727009984006904800,1.22690478515625,0.2622103822335601,-1.1933756720751523,0.30374329284429546
1727009984016942000,1.236942138671875,0.764796039250493,-0.6258627848565578,0.3767638131305575
1727009984026979800,1.246979736328125,0.12394319053292274,-0.8576970257878302,0.2456818567588925
1727009984037017900,1.257017822265625,0.7428086638480424,-0.5414531478106975,-0.12636778733134268
1727009984047056000,1.267055908203125,0.6469178478449583,-0.9315285701960325,-0.20670652167648076
1727009984057094000,1.277093994140625,1.3565113475725055,-0.8081991276472806,0.12555179477334022
1727009984067131100,1.287131103515625,0.3294236775457859,-1.2974486254900692,0.677170655028522
1727009984077169000,1.2971689453125,0.4962038470253348,-1.2501000143378973,0.9496969718322157
1727009984087207000,1.30720703125,0.658766691070795,-1.609772699674964,0.9948878204286098
1727009984097245000,1.317244873046875,0.8924433449983596,-0.9289274477869272,0.9007254356533289
1727009984107282000,1.327281982421875,0.634454672113061,-0.8080980053603649,0.5155833780169486
1727009984117320000,1.33731982421875,1.3866957656949759,-0.7421744575977325,-0.15624299337416886
1727009984127358000,1.34735791015625,2.167280617968738,-1.0984282744020224,-0.500905156584084
1727009984137396000,1.35739599609375,0.47499826965034003,-1.4549275903999805,0.045726855169236656
1727009984147434000,1.36743408203125,-0.10585574517846107,-1.306293026202917,1.0524407224699854
1727009984157471000,1.377470947265625,-0.06740005005598068,-1.3887918611913919,1.7218068412274121
1727009984167508700,1.3875087890625,2.0570219616562126,-0.6018570553690195,1.511891586637497
1727009984177547000,1.397547119140625,1.4148667981684206,-1.072370873081684,0.6825538093715906
1727009984187584800,1.407584716796875,1.3766755992010236,-0.5834989763796329,-0.30050737966299057
1727009984197623000,1.417623046875,1.280968323071301,-1.4333295065760612,-0.9182192990288138
1727009984207660000,1.427659912109375,0.5732110988602042,-0.654029725676775,-1.1073507087871433
1727009984217697800,1.43769775390625,1.0989555131465196,-1.3909715433180332,-1.2774848648697137
1727009984227736000,1.447736083984375,0.7897779202938079,-0.4480219999194145,-1.2638970690220594
1727009984237773800,1.45777392578125,0.8575158240020274,-0.435025740224123,-0.8374775368407368
1727009984247812000,1.46781201171875,1.9637386978030205,0.13713994123637677,-0.30807913009151816
1727009984257849000,1.47784912109375,0.19061521857529878,0.10369652131795883,0.040890228793025014
1727009984267886800,1.487886962890625,0.13226648998111484,-0.3782330089002847,-0.2109814225167036
1727009984277925000,1.497925048828125,0.7051414887547492,-0.5664940655648708,-0.8754727748446166
1727009984287963000,1.507962890625,0.31023440842926503,-0.9998018959552049,-1.242520080602914
1727009984298001000,1.5180009765625,0.12876140446960926,-0.2640601017534733,-1.1693697964571417
1727009984308038000,1.528037841796875,0.3248568080216646,-0.027749007669091223,-0.9285442936882377
1727009984318076000,1.538075927734375,1.7115493588462471,0.40036651477515695,-0.7324877608418464
1727009984328114000,1.548114013671875,0.17929127600640057,0.35846506311297416,-0.38168694874644277
1727009984338152000,1.55815185546875,-0.13153437631428241,-0.011123451560735702,0.042833764076232905
1727009984348190000,1.56818994140625,-0.18869974034279582,-0.5580442171275616,0.42433235064372415
1727009984358227000,1.57822705078125,-0.09174714032709598,-0.4382452867925167,0.5445195496439933
1727009984368265000,1.588264892578125,0.3026227643817663,-0.05773030443489551,0.3604612053662538
1727009984378302700,1.598302734375,0.5170809230983257,0.10713877072632312,-0.09632935355082153
1727009984388341000,1.608341064453125,0.5109931276172399,0.5793371805250644,-0.4498109291628003
1727009984398378000,1.6183779296875,-0.5211550406694412,0.4470125306159258,-0.581479891642183
1727009984408416000,1.628416015625,0.1924286977380514,0.7734118919044732,-0.6184777891717851
1727009984418454000,1.6384541015625,0.8144991045743226,0.40897535316646094,-0.6053552727483212
1727009984428491800,1.64849169921875,0.4265431585609913,0.5558429076910019,-0.5172206238299608
1727009984438530000,1.658530029296875,-1.0065151298582553,0.19960253489017485,-0.39649288821220396
1727009984448567000,1.668567138671875,-0.5929863511711359,-0.013522913917899131,-0.45349531676396726
1727009984458604800,1.678604736328125,-1.0232733724355696,0.5830681837469339,-0.42426863775774837
1727009984468643000,1.68864306640625,-0.0744224960386753,0.748331811183691,-0.25721725012138485
1727009984478680800,1.698680908203125,0.14242781851142644,1.3074749294638632,0.01884659315869212
1727009984488719000,1.708718994140625,-1.074733802820742,1.108954929113388,0.292282718283683
1727009984498755800,1.718755859375,-0.866356717583537,1.339675071322918,0.3086811876378953
1727009984508793900,1.7287939453125,-0.6440075133562088,0.7935673757046461,0.03782806474342942
1727009984518831900,1.738831787109375,0.4992363465890288,0.5666308436870575,-0.1648809117294848
1727009984528870000,1.748869873046875,-0.632057840104401,0.09109364485442638,0.018481266977638005
1727009984538908000,1.758907958984375,0.9497218140125274,-0.3351952466845512,0.6215886146686971
1727009984548945000,1.76894482421875,0.19848785164654253,0.16898586283028125,1.6626315986812115
1727009984558983000,1.77898291015625,0.3266735020548105,-0.020995441755652426,2.615749484872818
1727009984569021000,1.78902099609375,-0.5004746562123298,-0.3004401596456766,2.9292426028370855
1727009984579059000,1.799058837890625,-0.37172406539767977,-0.43754502956867214,2.7077970694512126
1727009984589097000,1.809096923828125,0.5966001577541232,-0.5048819512605667,2.0357108780801294
1727009984599134000,1.819134033203125,0.4747878417700529,-0.9720447049796581,1.2759507871702314
1727009984609172000,1.829171875,1.2663842096626758,-0.5837836385399103,0.9893388079993426
1727009984619210000,1.8392099609375,1.2821262609347701,-0.2816787605524063,1.36691422977373
1727009984629247700,1.849247802734375,0.2589519649595022,-0.29489596952199937,1.923314479086548
1727009984639285500,1.859285400390625,-0.43501288074254985,-0.8632394623458385,2.0921603489242493
1727009984649322500,1.869322509765625,0.39485914953053,-1.0452578252285718,2.0961123014204204
1727009984659360800,1.87936083984375,-0.652132952144742,-1.0741881516367195,2.1226614317804575
1727009984669398500,1.8893984375,0.7811457010269165,-1.3638129027575254,1.9716351501412688
1727009984679436500,1.8994365234375,1.5891747328042982,-1.1566589295744896,1.453394535613805
1727009984689474600,1.909474609375,-0.3317944983303547,-1.3818752136707304,0.916741919952631
1727009984699511600,1.919511474609375,0.3388169443130493,-1.4678671514719723,0.5993937339954077
1727009984709549600,1.929549560546875,0.30837153716683385,-1.3003507766723632,0.9240819074518978
1727009984719587600,1.939587646484375,-0.05121259310394525,-0.9105541712284088,1.3984437788948416
1727009984729625300,1.949625244140625,1.2165592715248466,-0.7140028406023978,1.1768535763412713
1727009984739663600,1.95966357421875,1.3271546124458313,-0.8765233068108558,0.553320987997949
1727009984749700600,1.96970068359375,-0.7188701543778181,-1.0714899985939264,0.26393004563301803
1727009984759738400,1.97973828125,-0.3666752575755119,-0.8683148659139871,0.42254722079262136
1727009984769776600,1.989776611328125,0.9080176384881138,-0.3800578862398863,0.6530244941569865
1727009984779814400,1.999814453125,0.8845382709622382,0.04508592691719532,0.5270410299681126
1727009984789852700,2.009852783203125,-0.23495821817070245,-0.6700228291004896,0.10449848535060882
1727009984799889700,2.0198896484375,-0.5366852027565241,-0.5415928485423326,-0.3235032014556229
1727009984809927400,2.029927490234375,-0.424365230000019,-1.1527461400449275,-0.5529340345069765
1727009984819965700,2.039965576171875,0.7155459783911705,0.043268648362159726,-0.6880123670384287
1727009984830003500,2.05000341796875,1.8040397187560795,-0.1879927611172199,-0.9048511372812091
1727009984840041700,2.060041748046875,0.4592635249018669,0.4593371746599674,-1.0293309189088642
1727009984850078500,2.070078369140625,0.13899638275802134,0.09608370822668075,-0.8230255253791808
1727009984860116500,2.080116455078125,-0.3323243674233556,0.5942489184528589,-0.1699206594623625
1727009984870154500,2.090154541015625,0.5178361253798007,0.14937456890940665,0.3135897102065384
1727009984880192500,2.100192626953125,0.9767305247083305,-0.54411564501822,0.2348236320056021
1727009984890230500,2.11023046875,-0.04478752849251032,-1.5027520023703573,-0.08544511757344007
1727009984900267500,2.120267578125,-0.6278706175476312,-1.5924363649487494,0.1535509778112173
1727009984910305500,2.130305419921875,0.42768180720210075,-0.6056564476519822,0.9319760217025875
1727009984920343600,2.140343505859375,-0.2435246787250042,-0.029556933873891827,1.3818804743677378
1727009984930381600,2.150381591796875,-0.725949883505702,0.6593085428625345,0.6219271989732981
1727009984940419300,2.16041943359375,-1.9731433627471326,0.5916659162223339,-0.9477546055927872
1727009984950456600,2.17045654296875,0.346687823818624,0.25969956845641134,-2.2571222169354557
1727009984960494600,2.18049462890625,0.6408668772429228,-0.1833797143638134,-2.3636824571214614
1727009984970532600,2.19053271484375,0.9046753423228859,-0.22671558274328707,-1.5161851921781897
1727009984980570600,2.200570556640625,0.4680465508162975,-0.45225627648830413,-0.40477234851866956
1727009984990608400,2.2106083984375,-0.03637070554196834,-0.1469581554174423,0.4984444655589759
1727009985000645600,2.220645751953125,-0.0819172357082367,0.19280220722556113,0.6607970278546214
1727009985010683600,2.23068359375,0.6733227474287152,0.3684206399381161,-0.06055310677066445
1727009985020721400,2.240721435546875,-0.22647914363890884,0.5055605811744928,-1.1784339043352752
1727009985030759700,2.250759765625,-0.015935235756635666,0.25906185507476326,-2.0979066374912856
1727009985040797400,2.26079736328125,0.972179145014286,0.19738953501582143,-2.39191223404482
1727009985050834700,2.270834716796875,0.9974942035347223,-0.44608021820187566,-1.6779574703678488
1727009985060872400,2.28087255859375,0.5045072727292775,0.32416064245104786,-0.5898328555762767
1727009985070910500,2.290910400390625,-0.5881412492275238,-0.5680097308248281,-0.010213204848021268
1727009985080948500,2.300948486328125,-0.549382187244296,0.04336275638639927,0.027773046131804584
1727009985090986500,2.310986572265625,0.2741825595781207,-0.4424783943176269,-0.09900361426137387
1727009985101023500,2.3210234375,0.9017924803629517,0.6977841117292642,0.07211728783622384
1727009985111061500,2.3310615234375,3.149941117247939,0.44734044739603995,0.6360808850754052
1727009985121099500,2.341099609375,-0.15897037251144647,0.37455110551714893,1.6292100983336566
1727009985131137500,2.351137451171875,-0.8763397669374943,-0.4976186822593212,2.2458584801211954
1727009985141175600,2.361175537109375,-0.3997106812149286,0.20553134041726587,1.8835496010616422
1727009985151212500,2.371212646484375,-0.8035258751392365,-0.5273235001713037,0.33123196907676755
1727009985161250600,2.38125048828125,1.9779881724297999,0.10716039803624153,-1.6517852104961872
1727009985171288600,2.39128857421875,0.737074504110217,0.09773615160882472,-2.9775819785922764
1727009985181326600,2.40132666015625,-0.13655337352007627,0.4934522102296352,-3.1331703074499964
1727009985191364600,2.411364501953125,0.3646741468861699,1.0896604460567236,-2.4973694814249874
1727009985201401600,2.421401611328125,0.8959078062385321,0.6667968527913093,-1.6772063597396014
1727009985211439600,2.431439697265625,1.3986892780885098,-0.16576514721810817,-0.9281314020384103
1727009985221477600,2.4414775390625,-0.3563070082962513,-0.4139198238313198,-0.12307897491902112
1727009985231515600,2.451515625,-0.8483774087786674,-0.7186702478915452,0.4849576458677649
1727009985241553700,2.4615537109375,-0.46483489529341454,-0.344550519528985,0.4179726794186979
1727009985251590400,2.47159033203125,0.8385060031056404,-0.2936521069407463,-0.09135054222494363
1727009985261628700,2.481628662109375,0.16731705283522605,-0.10325637633502482,-0.3062082216531038
1727009985271666400,2.49166650390625,0.03837035492658615,0.19985621739029882,0.19395663795769214
1727009985281704700,2.50170458984375,-0.5570078598171472,0.04516775998175144,0.9664670509777963
1727009985291742500,2.511742431640625,0.2232148811459541,0.03261339883506298,1.1243152145262807
1727009985301779500,2.521779541015625,0.03928133229166269,-0.5028501531720161,0.48482400955073535
1727009985311817700,2.531817626953125,0.3415881625920534,-1.0043868856579066,-0.44519291397333144
1727009985321855500,2.54185546875,-0.10516863969713448,-0.571234538090229,-0.9907189372461288
1727009985331893500,2.5518935546875,1.64536423753798,-0.3128191642254591,-1.01599205632098
1727009985341931500,2.561931640625,1.1277519840419292,0.48094461083412166,-0.6442357691541314
1727009985351969500,2.571969482421875,-0.5976125496670603,0.1913315501511097,-0.33726189689077435
1727009985362006800,2.5820068359375,-0.3243248931020498,-0.22361469411849974,-0.4040493680063635
1727009985372044500,2.59204443359375,0.0840694453060627,-0.34645313827991486,-0.7752922257583588
1727009985382082600,2.60208251953125,2.3323592442274093,-0.9767162039220333,-1.2678678723491728
1727009985392120600,2.61212060546875,0.16164777502715585,-1.1001964531183241,-1.4037024300754068
1727009985402158600,2.62215869140625,0.5338558245494961,-0.8456149583280086,-0.9892390739519148
1727009985412195300,2.6321953125,0.24247896906435487,-0.16719839489161967,-0.23234014462679622
1727009985422233600,2.642233642578125,-0.09579612345695496,0.31566286321878434,0.34172559830136595
1727009985432271400,2.652271240234375,0.3546820374429226,0.17871055350899695,0.3239904004506767
1727009985442309600,2.6623095703125,-0.10874912853240966,-0.21149755534529685,-0.12596461335793135
1727009985452347400,2.672347412109375,-0.3111179132655263,-0.45671208685338494,-0.8044103298235684
1727009985462384400,2.68238427734375,0.7353092480033636,-1.0968804604381321,-1.5517606556892394
1727009985472422700,2.692422607421875,0.8078270794644952,-0.9975760365992784,-1.6938386378496884
1727009985482460400,2.70246044921875,-0.8389026012077927,-0.536265516039729,-1.0469957549370825
1727009985492498700,2.712498779296875,-0.3447773140221834,-0.22626783897578714,-0.4301867026951164
1727009985502536400,2.722536376953125,0.865806682485342,0.5531278035134076,-0.41577458485253155
1727009985512573400,2.732573486328125,-0.31275574360042807,0.220824186617136,-0.8777339977748692
1727009985522611700,2.74261181640625,-0.9884171631097793,0.08368073824942111,-1.261402329596877
1727009985532649500,2.7526494140625,-0.5811895303934812,-0.4810574235588312,-0.7044550408605486
1727009985542687700,2.762687744140625,0.8894333495274186,-0.218867791852355,1.0380542505253105
1727009985552725500,2.7727255859375,-0.5745660206004977,0.37472470851838585,2.9643063174337145
1727009985562762500,2.782762451171875,-0.25334376968890426,0.23099019132256507,3.6084085233360526
1727009985572800500,2.792800537109375,-0.2956973490327596,0.06324585298597812,2.843821450661123
1727009985582838500,2.802838623046875,-0.8440218439176678,-0.10285364075303077,1.6102201511815188
1727009985592876800,2.812876708984375,0.29972645841836926,0.4662643435746431,0.6210722626443952
1727009985602914600,2.82291455078125,-0.2427788287937641,0.08025836258530616,0.3973644834149629
1727009985612952600,2.83295263671875,0.8502212830796837,0.7859715137481689,0.8898042286664247
1727009985622989800,2.84298974609375,-1.4826026560500263,0.536996752923727,1.5353116251915693
1727009985633027800,2.85302783203125,-1.639692621642351,-0.11843582528829574,1.736780392345041
1727009985643065900,2.86306591796875,-1.1782307099133729,-0.1347165134817362,1.442480635150522
1727009985653103900,2.873103759765625,0.304663622559607,-0.5711696561604738,0.6778181591518223
1727009985663142000,2.883141845703125,-0.18751900612562894,-0.02296644956767559,-0.23550796100795268
1727009985673179000,2.893178955078125,-1.251208267840743,-0.12808628168702124,-0.883181011134386
1727009985683217000,2.903216796875,1.0553072178170084,0.26198621808886524,-1.0213619858562946
1727009985693255000,2.9132548828125,0.8866440110698341,0.9747107093185186,-0.58560025950782
1727009985703293000,2.92329296875,1.6820482468128204,0.6107867962777614,0.011534443514421582
1727009985713331000,2.9333310546875,-0.8303998535394668,0.04908697925209999,0.5062956174507737
1727009985723368000,2.943367919921875,-0.9781161338478326,-0.42947044418454167,0.7787499649967998
1727009985733406000,2.953406005859375,0.3799953423976898,-0.8250695984274149,0.9279152750696986
1727009985743444000,2.96344384765625,0.705227705733478,-0.20401158350408077,1.1279202532809227
1727009985753482000,2.97348193359375,1.5314187094062566,-0.09676350718438624,1.2915087140470742
1727009985763520000,2.98352001953125,-1.8370070455953478,0.19807459467053412,1.4402493689671159
1727009985773557000,2.993556884765625,-0.9941951619893312,0.6211106218934058,1.504218860052526
1727009985783594800,3.0035947265625,0.18152794901728628,0.9021727118521928,1.2748831579387188
1727009985793633000,3.013633056640625,0.011248246984183788,0.22328210116326808,0.936652123754844
1727009985803670800,3.0236708984375,-0.709491208396852,0.3233668617248535,0.687368516176939
1727009985813708800,3.033708740234375,1.2103791215851902,-0.23222411703169343,0.4605474272325635
1727009985823746800,3.043746826171875,0.6275511763349175,-0.32486265324056146,0.2919292286708951
1727009985833783800,3.05378369140625,-0.5194137499600648,-0.8370897065669297,0.20770846526063977
1727009985843822000,3.063822021484375,-0.39772126096338034,-0.48185821854770183,0.3630444267924875
1727009985853859800,3.07385986328125,-0.38948827014714477,-0.05772562825977802,0.655893254526332
1727009985863897900,3.08389794921875,3.2158436222225424,-0.04984159701168537,0.9332320861782878
1727009985873936000,3.093935791015625,0.7272790862828493,0.1176531504780054,1.2926517466023564
1727009985883972900,3.103972900390625,-0.3126841396689415,-0.3661936115384102,1.5301599415168166
1727009985894011000,3.114010986328125,-1.0708534542560577,-0.6045885261595249,1.286126728747785
1727009985904049000,3.124048828125,0.5130640886723995,-0.8939899899184703,0.6052180562347174
1727009985914087000,3.1340869140625,1.6467326032817362,-0.3974894980341196,-0.07664404454566538
1727009985924125000,3.144125,1.5584598610669373,-0.1997404820561409,-0.16849325700774787
1727009985934162000,3.154161865234375,1.6354568837687373,-0.2607388483762741,0.603025879952684
1727009985944199700,3.16419970703125,0.2539899586379528,0.18569091391563414,1.8479276680603622
1727009985954238000,3.174238037109375,0.2562003281638026,-0.2578308519750833,2.511709849205613
1727009985964275700,3.184275634765625,-0.5074804433211684,-0.8722533744066954,2.0756175026632846
1727009985974314000,3.19431396484375,0.1687500082477927,-1.6613164244294165,1.0493130189035087
1727009985984352000,3.20435205078125,0.9125526515692471,-1.3897598294407127,0.283264568439126
1727009985994388700,3.214388671875,1.522178587374091,-1.1891431490719317,0.36639899791739877
1727009986004427000,3.224427001953125,0.918353154541552,0.016654197680950163,1.2583297902837396
1727009986014464800,3.23446484375,0.4095429239213466,0.4362245946198702,2.280354331701994
1727009986024503000,3.2445029296875,-0.7976958538115024,0.6412386331647634,2.7189640678927303
1727009986034540800,3.254540771484375,0.1019438324317336,0.02691606397628784,2.184978041092306
1727009986044577800,3.264577880859375,0.5136410117775202,-0.61049102820158,1.1477142833575606
1727009986054616000,3.274615966796875,0.7800035452544689,-1.1057196004539727,0.4729942363515496
1727009986064653800,3.28465380859375,0.6202662800237536,-1.1575380504965782,0.6859941590838133
1727009986074691800,3.29469189453125,0.17277794858962298,-0.9957458985626697,1.5442906120695172
1727009986084729900,3.304729736328125,-0.5051046541005373,-0.3511480180978775,2.3595094092205167
1727009986094766800,3.314766845703125,-1.000728363150358,0.13644552923142908,2.5307319450616834
1727009986104805000,3.32480517578125,-0.8657862242192029,0.040250177323818206,1.7861083407461642
1727009986114843000,3.3348427734375,-0.44409868899583815,0.04015490025579929,0.8654211902990937
1727009986124881000,3.344880859375,-0.37639585660099983,0.1351554894208908,0.35390009328499433
1727009986134919000,3.3549189453125,-0.7703729625999927,-0.028096213671565055,0.15089286451786757
1727009986144957000,3.36495703125,-0.40252047793865203,0.28683015196621414,0.17767200424149632
1727009986154993700,3.37499365234375,-0.2874503296911716,0.40697219665050505,0.371678034298867
1727009986165032000,3.385031982421875,-1.3450018193036317,0.44328971070051193,0.7427119254752993
1727009986175069700,3.395069580078125,-0.5491881259769201,0.8600696001380681,0.9274613207571208
1727009986185108000,3.40510791015625,-3.133822341617942,0.7963958771288394,0.9124657039381563
1727009986195145700,3.415145751953125,-0.9793640880823135,0.35533319482803344,0.4675552601680159
1727009986205182700,3.4251826171875,0.22858254565894603,-0.2616524560898542,-0.22485870283022522
1727009986215221000,3.435220947265625,-0.11324994708299636,-0.35760055523812767,-0.6892756649725139
1727009986225258800,3.4452587890625,0.06291326003074646,-0.6034913785725832,-0.9906744405172765
1727009986235297000,3.455297119140625,0.8975257628291845,-0.368810516038537,-0.6930176279798149
1727009986245334800,3.465334716796875,0.5858697971642017,0.003641571372747421,0.18234803322851656
1727009986255371800,3.475371826171875,-1.475976808169484,0.5110387203246355,1.0489169322580099
1727009986265410000,3.48541015625,-1.4230232166171073,0.555689762955904,1.2093155840069054
1727009986275447800,3.49544775390625,-0.7601444140523672,0.23527941294908522,0.19288593998625875
1727009986285486000,3.505486083984375,1.3764222089618443,-0.5218336705833673,-1.4273727901287376
1727009986295523800,3.51552392578125,-0.3243079419672489,-0.6497504409223794,-2.147039501711726
1727009986305561900,3.525561767578125,-0.7859010788604617,-0.8515992934346198,-0.9755901225015521
1727009986315598800,3.535598876953125,1.180852875110507,-0.23818156413137911,1.3532792337834834
1727009986325636900,3.545636962890625,0.31781799542605876,-0.22170038492977617,3.398565164938569
1727009986335675000,3.5556748046875,0.2840004814982414,-0.2917997570723295,3.8296491817995904
1727009986345713000,3.565712890625,-0.48137511120587584,-1.304726507538557,2.5114184650436044
1727009986355751000,3.5757509765625,-0.0934565745934844,-1.879620152658224,0.6691634357921779
1727009986365789000,3.585788818359375,1.6794430327504872,-1.5583827041774987,-0.49975569428801536
1727009986375826000,3.595825927734375,2.193515713943541,-0.924393896010518,-0.40541196159645915
1727009986385863700,3.60586376953125,0.5269356698974966,0.26420155605077744,0.46438466730788347
1727009986395902000,3.61590185546875,-0.8689107859805226,0.1651543218433857,1.0067550760939716
1727009986405939700,3.625939697265625,-0.3452466850996017,-0.05833119293749332,0.6924993031941354
1727009986415978000,3.63597802734375,1.203225450438261,-0.5984364332705736,-0.17891835104078052
1727009986426015000,3.646014892578125,1.2352969974815844,-0.9682833066195249,-1.068748152539879
1727009986436052700,3.656052734375,1.0686606203868985,-1.3495225115984677,-1.475987914085388
1727009986446091000,3.666091064453125,0.4341524645209312,-1.0992150408655403,-1.2808067027688026
1727009986456128800,3.676128662109375,0.3536912728399038,-0.19795067602992056,-1.0036961269147693
1727009986466167000,3.6861669921875,-0.15504209315180778,-0.008968319353461264,-0.9883740546204149
1727009986476204000,3.6962041015625,0.5409072043657303,0.24175708453059194,-1.2582679770939051
1727009986486241800,3.70624169921875,0.3154746471703052,-0.38381110129356383,-1.3956141084268687
1727009986496280000,3.716280029296875,0.2318564527630806,-0.1774707825809717,-1.0936908706165849
1727009986506317800,3.72631787109375,0.09840426012873649,-0.8883692274272441,-0.6459564554668963
1727009986516356000,3.736356201171875,0.43834027159959077,-0.7371615978717804,-0.6501390018485486
1727009986526393900,3.746393798828125,0.7246709496110677,-1.2126613873034715,-1.0589031964823603
1727009986536430800,3.756430908203125,-0.17026771933436394,-0.4906821609944105,-1.440553028088808
1727009986546468900,3.76646875,2.2929683140814303,-0.44682899074256416,-1.7059638137988744
1727009986556507000,3.7765068359375,1.0650164186656474,0.044929859572649,-1.3430910172462462
1727009986566545000,3.786544921875,-0.16784779871106148,0.5158049118131399,-0.7737003534570336
1727009986576583000,3.7965830078125,0.4978264797911048,0.08523556647598743,-0.7135814003199339
1727009986586621000,3.806620849609375,0.2926961213901639,-0.8685773162424564,-1.143267971473187
1727009986596658000,3.816657958984375,0.48120559985786676,-0.5413859277933836,-1.7451044224455952
1727009986606696000,3.826696044921875,0.9882920754253863,-1.1673545111119747,-2.152915261877328
1727009986616733700,3.836733642578125,0.7784557312905788,-0.8225035473316907,-1.936796476472169
1727009986626772000,3.84677197265625,-0.43349926130920646,-0.3064221566647291,-1.2721587014108895
1727009986636810000,3.85681005859375,0.8933902704596519,0.7068132213592528,-1.1253262181997299
1727009986646847000,3.866846923828125,2.4412720388889313,-0.056872810822725293,-1.5798811270192266
1727009986656885000,3.876885009765625,0.9235451702266931,0.39754561213552947,-2.0638766498565673
1727009986666923000,3.886923095703125,-1.4399568157613276,-0.9687871644884347,-1.9769218583725392
1727009986676961000,3.8969609375,-0.28589082528948784,-0.30753450182080266,-1.36964175504148
1727009986686999000,3.9069990234375,-0.07642506803274154,0.23570494488477706,-0.7030033076822757
1727009986697037000,3.917037109375,-2.0926456482231615,0.8346464050680399,-0.409444285852462
1727009986707074000,3.927073974609375,-2.2790824120700357,0.6806961988061666,-0.7395135678254068
1727009986717112000,3.937112060546875,2.9252403814584014,1.5759820737540722,-1.382814248086512
1727009986727150000,3.947150146484375,-0.8821125051200389,0.31482933500409127,-1.6896186820670962
1727009986737188000,3.95718798828125,-0.5297001661747693,0.19338614459335804,-1.5469389346212148
1727009986747226000,3.96722607421875,0.8627811971843242,-0.15642741003036498,-1.273854253282398
1727009986757262800,3.977262939453125,-1.2270219210892914,-0.4815916765660047,-0.8525169928014278
1727009986767301000,3.987301025390625,-2.1612094813615084,0.3907873700469732,-0.5981877922717481
1727009986777339000,3.9973388671875,-1.5296289033800363,1.0267746585547923,-0.980361720817536
1727009986787377200,4.007377197265625,-0.35602731457203624,0.9854173967719078,-1.7318579873815179
1727009986797415000,4.017414794921875,-0.6823197083547711,1.0567238066166638,-1.9532883231982587
1727009986807453000,4.027452880859375,-1.3596531527295708,1.2370868035078049,-1.1548318602778016
1727009986817490200,4.037490234375,-0.48526685794740915,0.7809370267122984,-0.04219225130230188
1727009986827528000,4.04752783203125,0.011222235760092734,0.7343845343738794,0.8332290125507861
1727009986837566000,4.05756591796875,-0.5157853303298354,0.5602537098705769,1.0430445330932736
1727009986847604000,4.06760400390625,0.8614362123161554,0.375511474981904,0.6880967573862522
1727009986857642000,4.07764208984375,0.08376695522814989,0.5446347004562616,0.5030957984961569
1727009986867679200,4.08767919921875,-0.7152461186617612,0.6366483827650546,0.7577605876557528
1727009986877717000,4.097717041015625,0.11925737080425024,0.45572716746926306,1.1695868732739239
1727009986887755000,4.107755126953125,-0.08904635693579911,-0.05326806432902813,1.319042033138871
1727009986897793000,4.11779296875,-1.6207529433727264,-0.6630909840106963,0.9954511533997953
1727009986907831000,4.1278310546875,-2.9579490573614833,-1.3289186995089053,0.452321048820205
1727009986917869000,4.137869140625,0.6989338662862777,-0.9260410786956548,0.31996801306679845
1727009986927906000,4.147906005859375,1.7312781416669487,0.16573533660173415,0.6841540841750801
1727009986937943800,4.15794384765625,2.0487515614390372,0.950347252434492,1.111686253773421
1727009986947982000,4.167982177734375,1.5797165841072798,0.8728063321143388,1.1478937315776943
1727009986958020000,4.17802001953125,-2.002173350137472,0.7783873422294855,0.5000649063676595
1727009986968058000,4.18805810546875,-0.458718750500679,-0.21912322791814803,-0.5375227495592088
1727009986978095000,4.19809521484375,1.047799326404929,-0.5831459251582622,-1.1826829400818795
1727009986988132900,4.2081328125,0.6118216922834515,-0.5193821857780218,-0.7788430501077324
1727009986998171100,4.218171142578125,0.3337275122195482,-0.5460960051804781,0.531400978743285
1727009987008209000,4.228208984375,-1.2635048548340797,0.5039209972739219,1.8904519277960061
1727009987018247200,4.2382470703125,-0.28114392302334307,0.22691022853255272,2.1804875978052616
1727009987028285000,4.248284912109375,-1.261316404879093,0.6268237388432025,1.5487119356431067
1727009987038322000,4.258322021484375,2.246069492523372,0.36723932119905944,0.38954460344426334
1727009987048360200,4.268360107421875,1.8055717506289481,0.4029267206519842,-0.4466712063649669
1727009987058398000,4.27839794921875,1.6776824528187513,-0.053800563770532606,-0.31330431739389897
1727009987068436000,4.28843603515625,-2.9583237358927725,0.2111684695214033,0.45655612910669297
1727009987078474000,4.298473876953125,-3.1801942166924473,-0.7553554262101649,1.1396977848362178
1727009987088512000,4.308511962890625,-0.22059622308015822,-0.024813538739085195,1.4098271965660154
1727009987098549200,4.31854931640625,1.02097912401855,-0.15197101514339445,1.1372894815854728
1727009987108587000,4.3285869140625,2.00560800076127,0.18992928213775156,0.6977700101386756
1727009987118625000,4.338625,1.765614418771863,-0.1539174730360508,0.8539381847109645
1727009987128663000,4.3486630859375,-0.024962591820955275,0.0917588307648897,1.5877714418776332
1727009987138701000,4.358701171875,-0.04268003481924534,-0.2056739637583494,2.064157220363617
1727009987148737800,4.36873779296875,-1.3024752214804292,-0.4524047450482845,1.7680055516920983
1727009987158776000,4.378776123046875,0.800363611716032,-0.8062854029804468,0.8912192100308834
1727009987168813800,4.388813720703125,0.42841304408609865,-0.817161601781845,0.25139058979451656
1727009987178852000,4.39885205078125,0.8115738647773861,-0.7489093188107013,0.28771404039496556
1727009987188889900,4.408889892578125,0.3471618710711598,0.4262269322186708,1.1250820341803134
1727009987198928100,4.41892822265625,1.7238532523632049,0.6723194156050681,1.8294344183839857
1727009987208965000,4.428965087890625,-0.8054360926747322,0.4208738807529211,1.7034245045796035
1727009987219003000,4.4390029296875,-1.919085317084193,-0.09785831668376922,0.5840818908341229
1727009987229041200,4.449041259765625,-0.9436170673966408,-0.4837748658239841,-0.8351881107293069
1727009987239079000,4.459078857421875,0.4017787196606397,-1.0428829127907753,-1.6943879422955215
1727009987249117000,4.469116943359375,0.4259609747588634,0.13720248507857322,-1.4916339576371014
1727009987259155000,4.479155029296875,-2.4690534875229,0.5028104056835174,-0.5184913744181394
1727009987269192000,4.48919189453125,-1.3664464661315083,1.409741125717759,0.19697288050632922
1727009987279230200,4.499230224609375,-0.17861323061436413,1.214514321693778,0.2407261523139663
1727009987289268000,4.50926806640625,-0.33323183765709397,1.7405904521524904,-0.04014059773581102
1727009987299306000,4.519305908203125,0.3482318383902311,0.1848953796237707,-0.5185339349182322
1727009987309344000,4.529343994140625,-0.33203473682701584,-0.12270225056111812,-0.5659646713959052
1727009987319381000,4.539381103515625,-1.0758011397913099,-0.5075561389058828,-0.06905497765615581
1727009987329419000,4.5494189453125,-0.44856443623304365,-0.29577158331274983,0.8508497171763331
1727009987339457000,4.55945703125,-0.4117880724996328,-0.09410276354253291,1.5525662729837
1727009987349495000,4.5694951171875,-1.042943118545413,0.518410125875473,1.4348451718360185
1727009987359533000,4.579532958984375,-0.4771911035194993,0.4526952524274587,0.2682638370536268
1727009987369571000,4.589571044921875,0.19189532151371239,0.005633037450909614,-0.9554194411322474
1727009987379607800,4.59960791015625,-0.14851502947062253,-0.378269833779335,-1.1184367509469388
1727009987389646000,4.60964599609375,-0.17174480614960191,-0.038598318463563916,-0.21626367376856503
1727009987399683800,4.619683837890625,-0.018719021256268023,-0.01539689109623432,0.6465374702252448
1727009987409722000,4.62972216796875,0.8602838274106382,0.4603273547410965,0.6082239965850487
1727009987419759900,4.639759765625,-0.26264146712720393,0.11165770945549011,0.0014314575752243399
1727009987429798100,4.649798095703125,0.0064256491333246225,-0.23591712633073328,-0.67628620034419
1727009987439835100,4.659835205078125,-0.8487924193203449,-0.5973053834140301,-1.2832283769577741
1727009987449873000,4.669872802734375,-0.8877215771734714,-0.08393442074954509,-1.765213144494593
1727009987459911200,4.6799111328125,1.6144593961864708,-0.526537902751565,-1.9834666038408875
1727009987469949000,4.689948974609375,2.1901970909148454,-0.2639034498870373,-1.434864461058378
1727009987479987000,4.699987060546875,0.10675357080101966,-0.45790158889889715,-0.2336225856527686
1727009987490024200,4.710024169921875,0.19568214657604693,0.047939562782645224,0.9495986990895122
1727009987500062000,4.72006201171875,-0.07504208924174309,0.49388884808123107,1.2965230350777506
1727009987510100200,4.730100341796875,0.6398132765367627,-0.21842706234753131,0.5475984456326812
1727009987520138000,4.740137939453125,-0.15501637418866157,-0.3733651106029749,-0.3758456753723323
1727009987530176000,4.750176025390625,-0.24920740053653714,0.14001929606497288,-0.875963992427662
1727009987540214000,4.760214111328125,1.0433189661204814,-0.12127660167217254,-1.006752738006413
1727009987550251000,4.7702509765625,-0.019148937106132507,0.23440847533345222,-0.8452307082507758
1727009987560289000,4.7802890625,-1.2333981781229375,-0.22803426412642,-0.4775505114164203
1727009987570327000,4.7903271484375,-0.5077002235516905,-0.37257775961756706,-0.08508125269711017
1727009987580365000,4.800364990234375,0.43537820692360396,0.12412322327494621,0.03310381270051002
1727009987590403000,4.810403076171875,-0.9744587803840636,-0.1610141532987356,-0.7267436642318964
1727009987600441000,4.820441162109375,-0.34980887844860553,-0.6687696141690015,-1.9403230431631207
1727009987610477800,4.830477783203125,0.33215397929251195,-0.04501636881232261,-2.390342354379594
1727009987620516000,4.84051611328125,1.9231155955135821,0.030033903735876083,-1.864254241222143
1727009987630553600,4.8505537109375,-0.42775136530697344,0.554300354424119,-0.6302633579030633
1727009987640591600,4.860591552734375,-1.9209440966933964,0.5808130982965231,0.5082739317864179
1727009987650629600,4.870629638671875,0.480078641654551,0.32095161727666854,0.5975021480951458
1727009987660666600,4.88066650390625,-0.3696826226979494,-0.49065702655315396,-0.11748685400038957
1727009987670704600,4.89070458984375,0.3055903820157051,-0.4234451925456524,-0.8865452268704771
1727009987680742700,4.90074267578125,0.7462333775997162,-0.6938789209842682,-1.0737753330521285
1727009987690780700,4.91078076171875,0.7909124772816896,-0.010104629907011985,-0.4822133155956864
1727009987700818400,4.920818359375,-1.3265887952566147,0.6478577590435743,0.34134909313917156
1727009987710856700,4.930856689453125,-1.6162357582092284,0.5220072735846042,0.6094276367537677
1727009987720893700,4.940893798828125,1.0496528453171252,0.46644203822910785,0.09961780063696205
1727009987730931500,4.950931396484375,-0.0909817089125514,-0.23128245226740834,-0.6584867781508713
1727009987740969700,4.9609697265625,0.2415986790984869,-0.9604898762643337,-1.0407512345243244
1727009987751007500,4.971007568359375,-0.02355944702476263,-1.3588660940051078,-0.4234622167456895
1727009987761045800,4.981045654296875,-0.5768804350227117,-0.8803682918012141,0.7794266952145844
1727009987771082800,4.991082763671875,-1.030399278792739,-0.13362754920125006,1.309016021426022
1727009987781120500,5.00112060546875,-0.7651949754402041,0.15345979239642618,0.4847615387737751
1727009987791158800,5.01115869140625,0.3237251736432314,0.13271861766278742,-0.9956821126114577
1727009987801196500,5.021196533203125,0.8210545175671577,0.5276368039041758,-1.9620120201408862
1727009987811234800,5.03123486328125,0.21395137823820112,0.11914543486237525,-1.768583936101943
1727009987821272600,5.0412724609375,0.5186795904666185,-0.04298106359243393,-0.6607262276407331
1727009987831309600,5.0513095703125,0.01821545564830303,-0.05540449183583259,0.6877431947082281
1727009987841347600,5.06134765625,-1.6389175456166267,-0.8323632625669241,1.300615857349336
1727009987851385600,5.071385498046875,-2.3674901788413525,-1.1317413459390402,0.9798383545305579
1727009987861423600,5.081423583984375,1.258103288051486,-0.05903261920511722,-0.018545345189794896
1727009987871461600,5.091461669921875,3.266252789989114,0.19951076495349407,-0.9966614059723913
1727009987881499600,5.101499755859375,0.2944195841819048,0.6111018535763025,-0.7873888332001865
1727009987891536600,5.11153662109375,-5.717097543865442,0.8976865063488483,0.47826823123171924
1727009987901574700,5.12157470703125,-4.738320315760374,0.4675491226881742,1.4460434421986341
1727009987911612700,5.13161279296875,2.4714023887366054,1.1987532734602688,1.5153689073592425
1727009987921650700,5.141650634765625,3.252400205725431,0.35610710180997845,0.6158679719995707
1727009987931688400,5.1516884765625,0.6461059469401836,-0.37923897107243537,-0.3298753668360412
1727009987941725700,5.1617255859375,-1.4541139359295367,-0.5483329704523087,-0.4710871606212109
1727009987951763700,5.171763671875,-2.8440038214907046,-0.25682839693427084,0.3283877586267888
1727009987961801500,5.181801513671875,-1.233321021233499,0.7226444122195244,1.1513338620942086
1727009987971839700,5.19183984375,1.1479901776894927,0.8493436234623193,0.9115055536691099
1727009987981877500,5.20187744140625,1.6765549100935457,0.08383739011585711,-0.14032682764418422
1727009987991915800,5.211915771484375,0.1204480418935418,-0.8723042278110981,-0.8605814221177249
1727009988001952800,5.221952880859375,-0.9871861600100994,-1.2098393156200646,-0.5462105714708566
1727009988011990500,5.231990478515625,-0.06820464443713427,-0.8782634284764528,0.3313787571363151
1727009988022028800,5.24202880859375,1.038992919614911,0.43166006318330763,0.8577756439819931
1727009988032066600,5.252066650390625,-0.4912123223483562,0.6210334650039673,0.5139676864486188
1727009988042104800,5.262104736328125,2.0345061784654854,0.66879124147892,-0.4538585971184075
1727009988052141600,5.2721416015625,1.0838944298759101,0.6163970373749733,-0.9261479731362312
1727009988062179600,5.2821796875,1.6862001057952642,-0.017567805394530296,-0.41163112837225196
1727009988072217600,5.292217529296875,-1.6460744316339493,-0.3971972370892763,0.5821217697422951
1727009988082255600,5.302255615234375,-1.633254989810288,-1.0944307291984559,1.1872507594540715
1727009988092293600,5.312293701171875,-0.19225421795397996,-1.4670219328194856,1.0520000660303979
1727009988102331600,5.32233154296875,0.17923983808010815,-1.1226847637802362,0.7014671841561794
1727009988112368600,5.33236865234375,1.3590291756123303,-0.5500210696697235,0.6619472208030521
1727009988122406700,5.34240673828125,2.197820425400138,0.07567337288260459,0.9460418103255331
1727009988132444700,5.352444580078125,0.8829746749073266,0.7859446257412434,1.3900699183031915
1727009988142482400,5.362482421875,0.42568712625354527,0.40775720954835415,1.5164447198972104
1727009988152520700,5.372520751953125,1.6856342886060476,-0.2601642633587122,1.3049312363304197
1727009988162557700,5.3825576171875,-0.4425274941563606,-1.1108557942986488,1.0978238057028502
1727009988172595700,5.392595703125,-0.5846048917949199,-1.4404980830311775,1.154772385175526
1727009988182633700,5.4026337890625,-0.38141631511151786,-1.2903203810453414,1.368725078587979
1727009988192671500,5.41267138671875,1.5307143605291842,-0.6073457159131765,1.485214299853146
1727009988202709800,5.422709716796875,1.310940559747815,-0.049615971562266346,1.2770410666249692
1727009988212747500,5.43274755859375,-0.3472521797031164,0.7913678198337555,0.89869977504462
1727009988222784500,5.442784423828125,-0.3007932108670473,0.8437620239377022,0.4710426273597404
1727009988232822800,5.45282275390625,0.21694003866016864,0.7780220160484314,0.09311280265711247
1727009988242860500,5.462860595703125,0.6051759706586599,-0.09354922131299973,-0.2990873567972332
1727009988252898800,5.47289892578125,-0.7684282582730054,-0.37218496090769765,-0.4358982487423345
1727009988262936600,5.4829365234375,0.2026218827113509,-1.0293810416609048,-0.08931731936428695
1727009988272974800,5.492974853515625,0.07610065838396549,-0.8055383840054273,0.4860281246434897
1727009988283011600,5.503011474609375,-1.892382603597641,-0.8874059353530407,0.9485853573285042
1727009988293049600,5.513049560546875,-1.2780799081534147,0.3282651551604271,1.1110654915265739
1727009988303087600,5.523087646484375,0.568425910410285,0.8924117808163166,0.7044253033094108
1727009988313125600,5.533125732421875,0.40781946112960576,0.9646943422168492,-0.12490622687879949
1727009988323163600,5.54316357421875,-0.795281486146152,0.3423638231396675,-0.7759232171382755
1727009988333200600,5.55320068359375,-1.3074664538964629,-0.2941828528165817,-0.7139836975105106
1727009988343238700,5.56323876953125,-0.1756716242045164,-0.6476426549881696,-0.16590568819995968
1727009988353276700,5.573276611328125,-1.027196975620091,-0.7142834111094475,0.584976793847233
1727009988363314700,5.583314697265625,-1.118669682919979,-0.33693712191581726,0.8165005075246096
1727009988373352400,5.5933525390625,0.13453063552081584,0.38264381107985973,0.12022307403124868
1727009988383390700,5.603390625,-0.9898065716415643,0.593040127184987,-0.8757646704632789
1727009988393427700,5.613427734375,-0.3113099287062883,0.7927695033252239,-1.6016053214408457
1727009988403465700,5.6234658203125,-1.1001958685964346,0.41998482295870776,-1.6670011920675634
1727009988413503700,5.633503662109375,0.8843985702306032,0.33350539390146733,-1.1590329652294515
1727009988423541500,5.64354150390625,0.28794863460212944,-0.15826573137342928,-0.4242741907157004
1727009988433579800,5.653579833984375,-0.5203717813372611,-0.6969733798682689,0.14479257488138972
1727009988443616500,5.663616455078125,-0.25318653330057855,-0.19197218614220618,0.4140213845096528
1727009988453654500,5.673654541015625,-1.220235914210975,0.5124637846916914,0.2548386478891596
1727009988463692500,5.683692626953125,0.7296440618485212,1.23940852445364,-0.43161041535530237
1727009988473730600,5.69373046875,0.45873131772130726,1.2916887467890976,-1.3066066221967338
1727009988483768600,5.7037685546875,-0.05428308659046888,1.0075503181248904,-1.8490055264249443
1727009988493806600,5.713806640625,-0.3008051935657859,-0.07227204000651836,-1.6482907925091683
1727009988503843600,5.723843505859375,-1.4803586765155194,-0.4956996968954801,-0.9597261984154581
1727009988513881600,5.733881591796875,-0.4857499652892351,-1.2977537459164856,-0.3230164773846045
1727009988523919600,5.743919677734375,1.1895312716066837,-1.0664040736317635,0.32163843049705027
1727009988533957600,5.75395751953125,-0.14879180058538913,-0.027366730353236196,0.7861294807888567
1727009988543995600,5.76399560546875,0.8885743946105241,0.7275234164327382,0.7352309220701455
1727009988554032600,5.77403271484375,-0.32203385955542324,1.448240659981966,0.13501323140598834
1727009988564070700,5.784070556640625,-1.0758967091202736,1.355534903755784,-0.7852060823336243
1727009988574108700,5.794108642578125,1.1183271530926227,0.6639017158716917,-1.4645910524107515
1727009988584146700,5.804146728515625,0.818987648165226,-0.06698036333918571,-1.5021778557442127
1727009988594184700,5.814184814453125,0.23796178390085695,-0.8416010465115308,-0.7899106067627668
1727009988604222500,5.824222412109375,0.17875936108678578,-1.2002677696764468,0.2463575275307521
1727009988614259700,5.834259765625,-2.2509362217769024,-0.8691519012600183,0.9016658583085984
1727009988624297700,5.844297607421875,-0.8810048361390829,-0.4608884957551956,0.815376764191687
1727009988634339300,5.85433935546875,0.15586276188492773,0.27630057464540003,0.1954436981776729
1727009988644377300,5.86437744140625,1.3708435320466756,0.9293068024933338,-0.4977773799523711
1727009988654415400,5.874415283203125,2.5211960549533368,1.2982523430883883,-0.8121851285435259
1727009988664452400,5.884452392578125,-0.7636971380978822,1.0743985795170068,-0.760517631278932
1727009988674490400,5.894490478515625,-3.3175553994640707,0.6382903047531843,-0.5876254086598753
1727009988684528400,5.9045283203125,-1.2237848388642072,-0.24823183350265024,-0.7251425126455724
1727009988694566400,5.91456640625,1.2962825043201445,-0.07236439446508884,-1.0119303598400204
1727009988704604400,5.9246044921875,1.5339409213602542,-1.106884552580118,-1.0189422844287008
1727009988714642200,5.93464208984375,-0.4890951840639114,-0.9810819979161024,-0.5162376772072166
1727009988724679400,5.944679443359375,-2.7991157552331685,-1.2137883455067873,0.008268573586270212
1727009988734717400,5.954717529296875,0.35778000345826144,-0.30902970881462094,0.05588781837336719
1727009988744755200,5.964755126953125,2.666889889523387,0.21409400157928465,-0.33939109093919395
1727009988754793500,5.97479345703125,1.3669763352245092,0.07325169869363307,-0.7686557103533297
1727009988764831200,5.984831298828125,-2.6714035675555468,-0.16007424210011958,-0.8583760940931737
1727009988774868500,5.994868408203125,-4.915285486906766,-0.8277268349379301,-0.894798749018088
1727009988784906500,6.004906494140625,0.7471949161082506,-0.28006138848364354,-1.3799854544013739
1727009988794944300,6.0149443359375,2.5698779605358837,-0.005368249034881592,-1.9654051697105168
1727009988804982500,6.024982421875,2.3165011653602123,-0.2798831093072891,-1.8457716590702533
1727009988815020300,6.035020263671875,-0.4413198719322681,0.20252222172915935,-0.8140230845604092
1727009988825058600,6.04505859375,-1.5827081671386956,0.6605921529322862,0.10539156173281371
1727009988835095300,6.05509521484375,-0.4140022414177656,1.0026695603460072,0.18630268913842737
1727009988845133300,6.06513330078125,0.34435470469594,0.20666940453648566,-0.3199582953903824
1727009988855171300,6.07517138671875,-1.0643220066606998,-0.3209685684114694,-0.5416862624468282
1727009988865209300,6.085209228515625,-0.430491896186769,-0.7646540004312992,-0.16260708504598587
1727009988875247400,6.095247314453125,0.22786650634407996,-0.44791561693549153,0.3550818138828501
1727009988885284400,6.105284423828125,-0.199391522487998,-0.35111879200339313,0.35545484844632447
1727009988895322400,6.115322265625,-0.6773340288966894,0.07581190457046032,-0.1282046839023009
1727009988905360400,6.1253603515625,-0.4633762209177017,0.4859954644829034,-0.49355234613586213
1727009988915398400,6.1353984375,-0.7288058574587106,1.4160311657726763,-0.34730062195472416
1727009988925436400,6.1454365234375,0.36626375416517254,1.1335475185781716,-0.05567012050207704
1727009988935473400,6.155473388671875,0.12091215227395295,0.2034001736074686,0.23360472120251505
1727009988945511400,6.165511474609375,-2.9907798983395097,-0.3889841200172901,0.6152014709148556
1727009988955549400,6.175549560546875,-1.0784063538536428,-0.8294242865055799,0.832653331554681
1727009988965587500,6.18558740234375,1.3408023217871785,-0.5898112282663583,0.672850307611376
1727009988975625200,6.195625244140625,1.0950181736975908,0.0007429273217916488,0.09708623633272945
1727009988985663500,6.20566357421875,1.1487754828482866,0.3508510809779167,-0.76289926571846
1727009988995700500,6.215700439453125,0.011046002410352229,0.4592570951610803,-1.1653970203686506
1727009989005738500,6.225738525390625,0.48765901378095144,0.6958779858469962,-0.7393729903109372
1727009989015776500,6.235776611328125,-0.3964993179529905,0.21160627641677854,-0.03575063741486519
1727009989025814300,6.245814208984375,-0.12173077518045902,-0.436327470472455,0.4092337849069386
1727009989035852500,6.2558525390625,-1.1839292138159274,-1.2392530416309833,0.604242708396539
1727009989045889300,6.26588916015625,-0.22004794154763221,-0.861826672938466,0.637505218790099
1727009989055927300,6.27592724609375,2.5006582938373088,-0.27225276055932046,0.4802724106609821
1727009989065965300,6.28596533203125,2.659135037612915,0.11557342159450054,0.09521874369410797
1727009989076003300,6.29600341796875,1.1880027468651533,0.1345019939482212,-0.37092253975644707
1727009989086041300,6.306041259765625,0.287833776050806,-0.6731734020859003,-0.6413903165951371
1727009989096079400,6.316079345703125,-0.23487258571386335,-0.48870121631026264,-0.5901601878345012
1727009989106116400,6.326116455078125,0.24867110170274973,-1.1695464681982994,-0.44896271483562883
1727009989116154400,6.336154296875,0.11406184798777103,-1.2115753456324339,-0.514211066750437
1727009989126192400,6.3461923828125,-0.7794955957323312,-0.8953829055815935,-0.7579685313180089
1727009989136230400,6.35623046875,1.9349550863891838,0.24193419466316698,-0.7858904113359749
1727009989146268400,6.366268310546875,1.3205866322323678,0.8681167129933833,-0.22480682651251555
1727009989156305400,6.376305419921875,0.8322311606198549,1.1019944424510002,0.6428845006756484
1727009989166343400,6.386343505859375,0.13202391339689493,-0.347230552393198,1.293692341696471
1727009989176381400,6.39638134765625,-2.2895696115538477,-0.7127706684589385,1.567596084333211
1727009989186419500,6.40641943359375,-0.03432517118901014,-1.4829279424816368,1.1202699577234685
1727009989196457500,6.41645751953125,0.7649050525829195,-1.3337100254386662,0.31674941634647547
1727009989206494200,6.426494140625,-0.28295301827192304,-0.49420507442355155,-0.32143994878288357
1727009989216532500,6.436532470703125,1.323725514779985,0.767996296596527,-0.5904220536410808
1727009989226570200,6.4465703125,0.3211415868908167,1.6091501838624476,-0.5270617439625784
1727009989236608500,6.4566083984375,0.18364976347684858,2.193922248917818,-0.41691429293956606
1727009989246646500,6.466646484375,0.4247083443492651,0.47025779712498184,-0.3566501226454973
1727009989256684300,6.476684326171875,-1.8683003017425537,-0.49363691914677615,-0.19926586854802444
1727009989266721500,6.486721435546875,-1.213594868761301,-2.065259044125676,-0.005863843682233709
1727009989276759300,6.49675927734375,1.2365817765951155,-2.2100123829752207,0.18262951705101876
1727009989286797300,6.50679736328125,-0.9334422948628663,-1.5269015242427586,0.24130179677745325
1727009989296835300,6.51683544921875,0.24557868864536284,-0.3877507788300514,0.02523797926281113
1727009989306873300,6.526873291015625,0.019679682981967924,0.9022603901356459,-0.2267986944494769
1727009989316910600,6.53691064453125,-0.7674941922932863,2.1695681443840265,-0.4041550934031605
1727009989326948400,6.5469482421875,-1.4570149180680512,1.460834768617153,-0.8262135808307677
1727009989336986400,6.556986328125,-1.065390512675047,1.1848907523244618,-1.1603420020014048
1727009989347024400,6.5670244140625,0.10170447071790695,-0.26186113040447234,-1.0033435871500522
1727009989357062400,6.5770625,0.06668342621922492,-0.6807230868130922,-0.35918548634201286
1727009989367099400,6.587099365234375,-1.701638790206611,-0.5841302600204944,0.2843215849450789
1727009989377137400,6.597137451171875,-0.5641267519116401,0.3017284458905458,0.45405974571369584
1727009989387175400,6.607175537109375,-0.8354583059728146,1.0808300738692282,0.0659554772708565
1727009989397213400,6.61721337890625,0.9302864611804484,1.9242559977203606,-0.5691257657753304
1727009989407251500,6.62725146484375,2.1258014833718537,2.1250445275247096,-0.8012835030399262
1727009989417289500,6.63728955078125,-0.9289663184925914,1.4213392090529202,-0.5256285328216851
1727009989427326500,6.647326416015625,-3.8145311076447364,0.2703618322461843,-0.15910671224221587
1727009989437364200,6.6573642578125,-3.1093150923490525,-0.7300918056160212,0.14874584255181253
1727009989447402500,6.667402587890625,-0.5044757085472346,-0.7030944930970668,0.43427444693278516
1727009989457440300,6.677440185546875,0.8069634483724832,-0.40324294699430463,0.5664319235814735
1727009989467478300,6.687478271484375,1.9882526690736413,0.18866145415902136,0.37529564027413725
1727009989477515500,6.697515625,-0.7184025368660688,0.692182053938508,-0.0535075721733272
1727009989487553300,6.70755322265625,-2.247709368684888,1.061127010011673,-0.4828357583429664
1727009989497591600,6.717591552734375,-1.3455585764035582,0.4875701664537191,-0.9350937883969396
1727009989507629300,6.72762939453125,-1.8934598774403333,0.29974516311883925,-1.2527224717959762
1727009989517667300,6.737667236328125,0.3856155203670263,-0.02411152794957161,-1.6327679369457064
1727009989527704600,6.74770458984375,2.0738781116500498,-0.32979484894573685,-1.9213250588349997
1727009989537742300,6.757742431640625,2.3429425975620743,-0.5872486843019723,-1.5506616084061562
1727009989547780400,6.7677802734375,0.9184124835133552,-0.7849351564377546,-0.45596123195346444
1727009989557818400,6.777818359375,-2.277776005646586,-0.13208148880302906,0.7479583016961813
1727009989567856400,6.7878564453125,-0.10695172372162341,-0.025050270104408263,1.2274201266266405
1727009989577893400,6.797893310546875,2.911414100679755,1.0362333917737006,0.924974033986032
1727009989587931400,6.807931396484375,1.1723007353425026,0.43553193618059155,-0.039375659511610865
1727009989597969400,6.817969482421875,-1.5401859532296656,-0.5166407781153917,-1.0018107515595853
1727009989608007400,6.82800732421875,-2.9153125694230195,-0.8551911804467439,-1.2658511256992817
1727009989618045400,6.83804541015625,1.1383353373765945,-0.6812988408744335,-0.9008329876810311
1727009989628079400,6.848079345703125,1.6606015541583299,-0.6068056176871061,-0.13913071319479495
1727009989638116400,6.858116455078125,-0.898395823661983,-0.3183446496486664,0.7500771935462951
1727009989648154600,6.868154541015625,0.4653305698558688,0.40294016465544696,1.0508921778537332
1727009989658192400,6.8781923828125,1.5864210501819849,1.1423159314453601,0.5180103129029273
1727009989668230700,6.888230712890625,1.2700550071299075,0.7243710898816585,-0.6417078581117093
1727009989678268400,6.898268310546875,-0.3395022962287068,0.0954582698047161,-1.652000022290647
1727009989688305400,6.908305419921875,-2.1181226193070413,-0.8566407947331667,-1.8398809935964644
1727009989698343400,6.918343505859375,-0.16725363221019504,-0.6057587389826774,-1.2571806202486158
1727009989708381400,6.92838134765625,1.5822911107704043,-0.8268284247934817,-0.41000462314896285
1727009989718419200,6.938419189453125,2.278313473524153,-0.38895840105414387,0.07149805995933711
1727009989728457500,6.94845751953125,-2.5060914248019457,-0.20866496226787565,0.33037703274786473
1727009989738494500,6.958494384765625,-2.594674548140168,0.41234862899184227,0.3272440684843808
1727009989748532500,6.968532470703125,-2.3486177205890417,1.4475526777178047,-0.1801278729610145
1727009989758570500,6.978570556640625,-0.2037169844716787,1.7860224160283802,-1.0131360093027353
1727009989768608300,6.988608154296875,2.9420108989953992,1.2408628149151801,-1.6523862451292572
1727009989778646500,6.998646484375,-0.44145723457634445,0.6166746852725744,-1.3501277840152381
1727009989788683500,7.00868359375,-0.6771095724910497,-0.5962134965240955,-0.31090441664531826
1727009989798721300,7.01872119140625,-0.5594684047117829,-0.9637363108396529,0.6639450435567646
1727009989808759600,7.028759521484375,-2.223164125493169,-1.0883873573809861,1.0473550897687673
1727009989818797300,7.03879736328125,-0.6554764173537493,-0.6650216598123312,0.6185127143546939
1727009989828835600,7.048835693359375,1.6179706191778183,-0.1547369727253914,-0.19863683166317642
1727009989838873300,7.058873291015625,1.1609043120592832,0.7953162651985883,-0.574055294599384
1727009989848910300,7.068910400390625,-2.0251117426544427,0.8327186518758535,-0.22105302693694828
1727009989858948400,7.0789482421875,-3.5586323927760124,0.13945815505087375,0.5751204396128654
1727009989868986400,7.088986328125,-0.8238935403853654,0.06787117469906806,1.5054679833307862
1727009989879024400,7.0990244140625,0.4271913933366537,-0.6048486384004355,2.1175890969522295
1727009989889062400,7.1090625,0.4141419421494007,-1.0607155066013336,1.9295476743876934
1727009989899099400,7.119099365234375,-1.4202040675431489,-1.3777654402643442,1.0345223500721157
1727009989909137400,7.129137451171875,-1.1547995654433965,-0.8197896121978759,0.20139825920052826
1727009989919175400,7.139175537109375,-0.9184341108232736,0.05113046777844429,-0.18268997853398322
1727009989929213400,7.14921337890625,0.06659253306537866,0.9981488680511712,0.08433774085342884
1727009989939251500,7.15925146484375,1.4283973108708858,1.3626327530622482,0.7620566043492406
1727009989949288400,7.169288330078125,1.9374200151979921,0.6869640270292758,1.3270537824198603
1727009989959326500,7.179326416015625,1.030510922473669,-0.19643793337941168,1.4958574205510318
1727009989969364500,7.189364501953125,-1.8342682682812212,-0.8186755134761333,1.0052877800203859
1727009989979402500,7.199402587890625,0.6530144111543893,-1.920640729832649,-0.01775397561639547
1727009989989440500,7.2094404296875,-1.436533563314378,-1.5646195527404545,-0.9309692558128386
1727009989999477500,7.2194775390625,-1.6081810465693473,-0.687594141626358,-1.1949153027325867
1727009990009515500,7.229515625,2.6906279079854487,-0.015467033722996711,-0.6538707357227802
1727009990019553500,7.239553466796875,1.9821423694998024,1.1729039619326591,0.2866996574543416
1727009990029591300,7.24959130859375,0.6901958485573529,0.6409744292706251,0.8852902583733201
1727009990039629600,7.259629638671875,-0.8408253859639168,-0.027617490243911743,1.1555883046682924
1727009990049666300,7.269666259765625,0.21661972066462037,-1.2014490884155034,1.3010630165949464
1727009990059704600,7.27970458984375,1.6739204699367283,-1.730883881652355,1.2864230813458561
1727009990069742300,7.289742431640625,0.07795680764466524,-1.7901304358690977,1.293706224091351
1727009990079780400,7.2997802734375,1.4516113054588435,-1.7791303184270857,1.2510400716669856
1727009990089818400,7.309818359375,0.48849195747375485,-0.12823942642211913,1.1939292873699217
1727009990099855400,7.31985546875,0.366820511265099,-0.02437865445315838,1.0368967510532587
1727009990109893400,7.329893310546875,1.7479384768277406,0.11829203290343283,1.0941197635531426
1727009990119931400,7.339931396484375,0.4793395137250423,0.5329109449148178,1.281590838883817
1727009990129969400,7.349969482421875,3.9224721346646545,-0.2262690080195665,1.1760682711824775
1727009990140007400,7.36000732421875,0.6087766254991293,-0.38630291810929773,1.183277471908927
1727009990150045400,7.37004541015625,-2.5024662200421095,-0.9793570738196372,1.2162149881318212
1727009990160082400,7.38008251953125,-2.0010498990654946,-1.1139257032632828,1.1336650074779986
1727009990170120400,7.390120361328125,-0.7392746445029974,-0.27087445794343945,1.097409306617826
1727009990180158500,7.400158447265625,3.501256308606267,0.3295271379202604,0.8813658514712005
1727009990190196500,7.410196533203125,1.4588509013235569,0.7506622999578714,0.1356457571558654
1727009990200234500,7.420234375,-3.2207407466143367,0.057602878662943835,-0.8362455838929861
1727009990210271200,7.430271240234375,-2.710624401831627,0.010387538501620292,-1.355047266369313
1727009990220309500,7.4403095703125,-1.0263640319272875,0.22135259440541266,-1.2863365721061826
1727009990230347500,7.450347412109375,-0.04781447509825229,0.536926025775075,-0.8064596635688096
1727009990240385500,7.460385498046875,-0.1676589981406927,0.3009481091678142,-0.24732845492213962
1727009990250423600,7.470423583984375,0.4943763393372297,0.6789402950495481,-0.08012070768028497
1727009990260460300,7.480460205078125,-0.608885346570611,0.14253916993141175,-0.22077859390974044
1727009990270498600,7.49049853515625,-1.4671896906018256,0.3166781777411699,-0.07632971789948642
1727009990280536300,7.500536376953125,-1.0992895674064755,0.035658757880330086,0.459358875035122
1727009990290574300,7.51057421875,-0.5225900419086218,0.4477689019411802,1.14787144668065
1727009990300612400,7.5206123046875,0.29058570510745046,0.22838848439157008,1.4384098785802721
1727009990310649300,7.5306494140625,-1.0649000988095998,0.41468437846302986,1.1492528180364519
1727009990320687600,7.5406875,-1.2246028772488236,0.11816928330659866,0.5867593664150684
1727009990330725400,7.550725341796875,-1.9856033236086368,0.6408195309698581,0.30121866973750294
1727009990340763400,7.560763427734375,-1.1851172545567155,0.6811503723144531,0.16585530971959234
1727009990350801400,7.570801513671875,0.24616467183977364,0.9002969811081886,-0.09148454386815429
1727009990360838400,7.58083837890625,0.35263299595862624,0.7905214321374893,-0.4068854682151228
1727009990370876400,7.59087646484375,2.3103759604781864,0.47307168550193307,-0.5410305384844541
1727009990380914400,7.60091455078125,0.2926017211049795,0.8676870894044637,-0.4590750896576792
1727009990390952400,7.610952392578125,-0.3394213399469852,0.9804740951508283,-0.3898469473917037
1727009990400990500,7.620990478515625,1.168189208370447,0.9341787924438715,-0.597561477066949
1727009990411027500,7.63102734375,-2.0500179281130433,0.157885792145133,-0.8598217628568411
1727009990421065200,7.641065185546875,-2.666900410917401,-0.9420978950053452,-1.017426473038271
1727009990431103500,7.651103515625,-3.2981577482938764,-1.0947650757193566,-0.5760218454319983
1727009990441141200,7.661141357421875,0.14709873293191195,-0.7639537432074547,0.3544843229137361
1727009990451179500,7.671179443359375,2.9334394700050352,-0.25446751302182674,1.189140445658192
1727009990461217300,7.68121728515625,0.6629015989184379,-0.4670744909137487,1.4804592142805457
1727009990471254300,7.691254150390625,-0.23442279611974953,-0.06215513513982296,0.9760125126320868
1727009990481292500,7.70129248046875,-0.6175821555063128,-0.6587468173265457,-0.01097505606599152
1727009990491330300,7.711330322265625,0.8641443022310733,-0.8072732449740171,-0.727395771465078
1727009990501368600,7.72136865234375,1.081662433040142,-0.5225128850191831,-0.9308767552237958
1727009990511406300,7.73140625,1.7081950799822807,-0.6559229920774697,-0.9717089702192694
1727009990521443300,7.741443359375,-0.5599062116071581,-0.24408757330477238,-0.8357220714755356
1727009990531481600,7.751481689453125,-0.24586568889319896,-0.03876198459267616,-0.6351009341273457
1727009990541519400,7.761519287109375,2.1030314331591127,0.2953571572929621,-0.3707116004195064
1727009990551557600,7.7715576171875,-1.8402660473912953,-0.1999357123672962,0.10421864549592137
1727009990561595400,7.781595458984375,-0.8976280541598797,-0.7583306426286697,0.2031820738773793
1727009990571632400,7.79163232421875,0.17144260833263397,-1.1609411369383333,-0.19812566727064548
1727009990581670400,7.80167041015625,2.3169687828719616,-0.7605453960686922,-0.5719015506315976
1727009990591708400,7.81170849609375,1.8000562020778654,-0.3951327057749033,-0.8097958222541958
1727009990601746400,7.821746337890625,-1.8519693446666001,-0.13641747218072414,-0.9698569856770336
1727009990611784400,7.831784423828125,-2.445578796172142,0.25672844369113446,-1.2266146554626525
1727009990621821400,7.841821533203125,0.6414490610450506,0.5248685082346201,-1.3722751722849904
1727009990631860700,7.85186083984375,5.007842774572969,0.5291507155984639,-1.179803877514228
1727009990641898800,7.861898681640625,1.206507540848851,0.008747370079159737,-0.4479513458359986
1727009990651936500,7.8719365234375,-3.1268349669486284,-0.8003004833519458,0.23199147731959818
1727009990661974800,7.881974853515625,-4.458396289920807,-0.687066318359971,0.31274617205448446
1727009990672011500,7.892011474609375,-0.7301397364109754,0.2853454663664102,-0.13015366254560648
1727009990682049800,7.9020498046875,1.3338459267780185,0.6507850446671247,-0.780348413169384
1727009990692087600,7.912087646484375,1.4046674757152795,0.6101648649871348,-0.9016288872990756
1727009990702125600,7.92212548828125,1.303848263399303,0.6575853723317384,-0.015801380243897437
1727009990712163600,7.93216357421875,-1.3554466409504413,0.40745092007815836,1.4896401534713803
1727009990722200600,7.94220068359375,-3.991514106708765,0.1768786619067192,2.35895323664248
1727009990732238600,7.952238525390625,-5.923854042163491,-0.2046282540977001,1.8952189960673451
1727009990742276600,7.962276611328125,-0.7808616233885288,0.29585809255242346,0.946201896258071
1727009990752314600,7.972314697265625,4.510043182788789,0.7870949648201465,0.37685273352302606
1727009990762352600,7.9823525390625,4.284425624415278,0.9593412907510995,0.6214706143122166
1727009990772389600,7.9923896484375,-0.861504016855359,0.7222194648057222,0.8621453834988176
1727009990782427600,8.002427734375,-3.624488135999441,-0.1116670618057251,0.4913322224009782
1727009990792465700,8.012465576171875,-2.577309571841359,-0.49314124458432196,-0.13479732363298536
1727009990802503700,8.022503662109376,-0.5354141599074006,-0.12802841401994228,-0.46871597451046104
1727009990812541700,8.032541748046874,0.6935837374299765,0.40134792702794075,-0.40287915518321094
1727009990822578700,8.04257861328125,3.003949761036038,0.7996475724011659,-0.2678560599703342
1727009990832616400,8.052616455078125,0.1680827765107155,0.43267070153057574,0.21624204645864664
1727009990842654700,8.06265478515625,-4.6082688714802265,0.1115057337641716,0.9945618764098733
1727009990852692500,8.0726923828125,-4.551076327183843,-0.5302718285828828,1.4374500936374068
1727009990862730800,8.082730712890625,0.2665826059684157,-0.4017103305995464,1.1883254760134965
1727009990872767700,8.092767822265625,1.7420412354826926,-0.4247381549656391,0.16620536526627838
1727009990882805500,8.102805419921875,3.8407863696247335,-0.46322307618260383,-1.2292185543507337
1727009990892843800,8.11284375,1.8603633712634444,-0.25972236481010913,-2.015400934370607
1727009990902881500,8.122881591796874,-1.325924193868041,0.05402034400105476,-1.5934996102660894
1727009990912919600,8.13291943359375,0.0061585226297378535,0.6595066957831383,-0.45522126377373934
1727009990922956800,8.142956787109375,-0.08377017009854316,0.8353332182884216,0.8330784250989556
1727009990932994600,8.15299462890625,3.5963819854557513,0.131316934171319,1.530121947593987
1727009990943032800,8.16303271484375,1.148808216074109,-0.3803846339762211,1.4573574478954077
1727009990953070600,8.173070556640624,0.7473264335334301,-2.210164943188429,0.9370092666294425
1727009990963108600,8.183108642578125,-1.456349732157588,-1.8847306275397537,0.7463793619416653
1727009990973145600,8.1931455078125,-0.9599287352502346,-2.0007611452519893,0.7859940178409218
1727009990983183600,8.20318359375,1.8572411475896835,-0.7132774489372968,1.101909175320342
1727009990993221600,8.2132216796875,0.1994920602530241,-0.338494872751832,1.9572762237906456
1727009991003259600,8.223259765625,1.1557780550867318,-0.6015601182490586,2.916417900316417
1727009991013297700,8.233297607421875,-1.430354874679446,-0.1570586936712265,3.365823171287775
1727009991023334700,8.243334716796875,0.5675079187825322,-0.7121084051579236,2.7354300495252013
1727009991033372700,8.25337255859375,0.527224131450057,-0.5004740716904401,1.303469493214786
1727009991043410400,8.263410400390624,0.5062269361287355,-0.21016075378358362,-0.14618534441404044
1727009991053448700,8.27344873046875,2.034792009669542,-0.17137246570587159,-1.1389548575144262
1727009991063486500,8.283486572265625,1.1247136392593382,0.12070026308894156,-1.3413912275910376
1727009991073523500,8.2935234375,-3.307711758580804,-0.36872225323319435,-0.6786862472232431
1727009991083561700,8.303561767578126,-3.6050481069922444,-0.7426543500691651,0.2029486304476857
1727009991093599500,8.313599609375,-0.02146335152834654,-0.6693389384895563,0.8750864058755338
1727009991103637800,8.3236376953125,1.2081719669297337,0.18833879807591436,1.2891378932625055
1727009991113675500,8.333675537109375,2.518447925288975,0.4474520910769701,1.1853170149125158
1727009991123712500,8.34371240234375,0.8160176924437283,0.5268991372793913,0.6506795384660363
1727009991133750800,8.353750732421876,-1.3054960306063295,-0.21763971136212348,0.3154553579479456
1727009991143788500,8.36378857421875,-1.4573375741511583,-0.5635743787258863,0.7100125288572162
1727009991153826800,8.373826904296875,-0.8246826449364423,-0.2607978850871324,1.4687567937880754
1727009991163864600,8.383864501953125,0.9894944369524716,-0.47419279848635193,1.8086491122476755
1727009991173901600,8.393901611328126,-0.02246113039404154,-0.2789391064554453,1.4387228900521993
1727009991183939600,8.403939697265624,-0.6065265084847807,0.09964870723187923,0.39986170705817636
1727009991193977600,8.4139775390625,-0.09572335048168897,0.36365035679638386,-0.7438578075747937
1727009991204015600,8.424015625,-0.3784589266106486,0.7581476872771978,-1.496053673775494
1727009991214053600,8.4340537109375,1.085140630544722,1.2491969280183315,-1.8255441329471767
1727009991224090600,8.444090576171876,-0.3427513611525297,0.8531815941900014,-1.6517825801476835
1727009991234128600,8.454128662109374,-3.3979490788668394,0.6003185937553643,-1.0757579582367092
1727009991244166700,8.464166748046875,-3.717375094011426,0.7553764689981937,-0.5931850886136293
1727009991254204700,8.47420458984375,-0.9157865189239383,1.2693038965016603,-0.32484643275812264
1727009991264242700,8.48424267578125,0.5815127709984779,1.5361433998405933,-0.18127799284420906
1727009991274279700,8.49427978515625,0.8416185821682214,1.3016612747490406,-0.4121984068661928
1727009991284317700,8.504317626953124,0.18880378523916005,0.529876107263565,-0.7835684711944312
1727009991294355700,8.514355712890625,-0.1399789640545845,-0.6311287425607442,-1.028068936149031
1727009991304393500,8.5243935546875,-0.6930927390426397,-1.7349632599204778,-1.0574296167984605
1727009991314431700,8.534431640625,0.0253536369651556,-1.8475024283856152,-0.880707533692941
1727009991324468700,8.54446875,1.2241630245268345,-1.2639841627836226,-0.5670685044519603
1727009991334506800,8.5545068359375,1.87058227519989,0.22552666521966455,-0.19987514128647743
1727009991344544800,8.564544677734375,1.1454632895603776,1.224963819515705,-0.14476225280836225
1727009991354582500,8.57458251953125,-1.7962912965863942,1.3330974464982748,-0.3878358267650008
1727009991364620800,8.584620849609376,-1.813003946456313,0.597090863880515,-0.7435466227337718
1727009991374657500,8.594657470703124,-0.4852408467233181,0.16735913841128347,-0.9062275402009486
1727009991384695600,8.604695556640625,2.3928876549482343,-0.6456453436911106,-0.7271887776508927
1727009991394733600,8.614733642578125,2.8090947129338977,-0.8861100503236055,-0.263441020007059
1727009991404771600,8.624771484375,-3.951843190577626,-1.6545266181588172,0.0847230138439685
1727009991414809600,8.6348095703125,-5.336932690119743,-0.9518407058626412,-0.356734586058557
1727009991424846600,8.6448466796875,0.9687766430944204,0.08139993383586407,-1.3229837565019726
1727009991434884600,8.654884521484375,7.74995653964579,1.5992174033910036,-2.062976193885505
1727009991444922600,8.664922607421875,4.61841646374613,1.071609825581312,-1.8171394388258457
1727009991454960600,8.674960693359376,-4.486304287543892,-0.21475041966140268,-0.759436996435374
1727009991464998700,8.68499853515625,-5.998036299705505,-0.8927046262830496,0.13996800426915287
1727009991475035600,8.69503564453125,-0.33996026912927624,-1.6230688190996645,0.4509746391799301
1727009991485073700,8.70507373046875,5.655200767400861,-0.7998661835879087,0.5368324292074889
1727009991495111700,8.715111572265625,3.6273958401396866,-0.9525643439620732,0.4430268219806254
1727009991505149700,8.725149658203126,-1.8244500541001558,-0.34195758042633534,0.2923814294178039
1727009991515187700,8.735187744140624,-7.957387576204538,0.09101122726798057,0.10707659221030771
1727009991525224700,8.745224609375,-1.8633488168150185,1.4794810168981551,-0.6144365509569645
1727009991535262500,8.755262451171875,3.826747322878241,1.694219746121764,-1.6642255898743867
1727009991545300700,8.76530078125,2.6004531315416095,1.233013270458579,-2.283404220791906
1727009991555338500,8.77533837890625,0.4671937333792448,0.02786708109080791,-1.7577765647530554
1727009991565376500,8.78537646484375,-1.5573258886009453,-0.5979927811563015,-0.5619023173278197
1727009991575413800,8.795413818359375,-1.9366367558658122,-0.6192027424454689,0.42676772456448525
1727009991585451500,8.805451416015625,-3.322223099014163,-0.4042945018738508,0.860492355594784
1727009991595489800,8.81548974609375,-2.0844532816782593,0.11388064620196818,0.6285730667285621
1727009991605527600,8.825527587890624,1.7607208015114069,0.6188251413047313,-0.08200864031873643
1727009991615565600,8.835565673828125,3.220326320594549,1.230834757375717,-1.0088215071044861
1727009991625602800,8.845602783203125,0.5894307045161724,0.536271361258626,-1.6413105782330035
1727009991635640000,8.85564013671875,-3.6496214082121847,0.10689560962021351,-1.3252392803438007
1727009991645678300,8.86567822265625,-3.406147875152528,0.15303542950451374,-0.09635467065516859
1727009991655716000,8.875716064453124,-0.40472821711599827,0.8216957380801438,1.268342357993126
1727009991665754400,8.88575439453125,1.162053482094407,1.2129267602413891,1.569201327572763
1727009991675791400,8.895791259765625,0.3330652489185333,0.4471078076839447,0.7140455107003449
1727009991685829000,8.9058291015625,-1.5396803417950868,-0.013397241711616515,-0.41441049342509356
1727009991695867400,8.915867431640624,-0.83169018561095,-0.2349544187784195,-1.0115171759292483
1727009991705905200,8.9259052734375,2.9811124908059834,0.3520581186801195,-0.9489068443678319
1727009991715943400,8.935943359375,1.4597025497168301,0.3718377549052238,-0.41144199900832024
1727009991725980200,8.945980224609375,0.422006099653244,-0.7719324670016765,0.1633862527249381
1727009991736018200,8.95601806640625,-1.4134177684038878,-0.7633651296645403,0.6690176706459373
1727009991746056200,8.96605615234375,-2.388749824491143,-0.5519879858285188,0.9093915571898221
1727009991756094200,8.97609423828125,3.389271559153497,-0.6175707573294639,0.5401038520935922
1727009991766131200,8.986131103515625,1.5049971509486435,-0.6507090568214654,-0.07651669183894991
1727009991776169200,8.996169189453125,1.1435215078428387,-0.6428957527220249,-0.5147956617053598
1727009991786207200,9.006207275390626,1.836939533317089,-0.6218623170435428,-0.6848715117294341
1727009991796245200,9.016245361328124,0.5017196878373622,-0.014493804776668548,-0.6343520885214209
1727009991806283300,9.026283203125,0.9407008876889944,-0.960256067508459,-0.7846390961006283
1727009991816320300,9.0363203125,-2.5074896011620758,-0.865719004201889,-0.8288563504245132
1727009991826358300,9.046358154296875,-2.5400550692021846,-0.9905003991246223,-0.7185355155959725
1727009991836396300,9.056396240234376,1.9558172571539878,-0.41785190258324145,-0.357641910161823
1727009991846434300,9.066434326171875,-0.11667875248789787,0.14730828402936458,0.23705438673235474
1727009991856472300,9.076472412109375,2.3193124233886597,-0.9388485378205775,0.5649538138529285
1727009991866509300,9.08650927734375,-1.3916981040269136,0.00022796353697776794,0.900486000874266
1727009991876547300,9.09654736328125,-0.255860136424005,0.4623942241430282,0.9699510937012732
1727009991886585300,9.10658544921875,2.479896953098476,0.7502069574058056,0.588349265955016
1727009991896623400,9.116623291015625,0.08217793247103691,0.9805097509860992,0.05759076810004189
1727009991906661400,9.126661376953125,0.19287205759137868,0.7786345949888229,-0.45517705930583174
1727009991916698000,9.136697998046875,0.5341477932333946,1.216489421159029,-0.7536540291197598
1727009991926736400,9.146736328125,1.374794900020957,0.6580500672340392,-0.8154802245661615
1727009991936774100,9.156774169921874,-0.5980860123977064,-0.09025485594272613,-0.7559638404320925
1727009991946812200,9.166812255859375,-4.022077879537642,-1.1426982087612152,-0.5401259908601641
1727009991956850200,9.17685009765625,-3.8430826638683673,-1.1874468665480613,0.08758418456190266
1727009991966887200,9.18688720703125,-2.1357702119395134,-0.31553076127171514,0.9396889341674745
1727009991976925400,9.196925537109376,0.32569355110675097,0.18510873011350631,1.4762642468087375
1727009991986963200,9.206963134765624,2.200052714496851,0.8186842813044786,1.645984999784827
1727009991997001200,9.217001220703125,0.6826748054027557,0.8611053729265927,1.4471648474439978
1727009992007039200,9.227039306640625,-1.2368015568256376,0.7986427792727947,0.7662958493541926
1727009992017076200,9.237076171875,-2.1371651734292505,0.11318448063135146,-0.28310070138061416
1727009992027114200,9.2471142578125,-1.2504843374803662,0.18063655313551424,-1.1864307483080774
1727009992037152300,9.25715234375,0.1929971452757716,0.0723924515157938,-1.605599359513074
1727009992047190300,9.267190185546875,1.038854972448945,1.155598606866598,-1.3530530238121747
1727009992057228300,9.277228271484375,-0.29283026916384697,1.2175509129106998,-0.890370630377531
1727009992067265300,9.287265380859376,-1.1263923861265182,1.705818413978815,-0.730808137191832
1727009992077303300,9.29730322265625,-0.8344827389389275,1.0786340251296758,-0.8031643483504652
1727009992087341300,9.30734130859375,0.3608624796435237,0.9353191946506499,-0.5966890050813556
1727009992097379300,9.31737939453125,0.23105361194759605,0.46238019561767574,0.07567709920965135
1727009992107417300,9.327417236328126,0.21773265034258366,-0.21242051540911197,0.8623625333808362
1727009992117454300,9.337454345703126,-1.7961919278651475,-0.18884090237915516,1.329691437447071
1727009992127492000,9.3474921875,-2.564785605832934,-0.5009942961722612,1.154099673545733
1727009992137530400,9.3575302734375,1.4432874214887619,0.2943815902590751,0.7037377594366669
1727009992147568000,9.367568115234375,3.026953035482764,1.0418570768743753,0.3648084042577073
1727009992157606400,9.3776064453125,2.11514038862586,1.0318471395134925,0.143938369204849
1727009992167643400,9.387643310546874,-1.8250673092156648,0.1916132897019386,-0.12480923277772962
1727009992177681200,9.39768115234375,-3.5942680620417,-0.4004384109675884,-0.39858905677385625
1727009992187719400,9.407719482421875,-0.9782713244095445,-0.49313656840920445,-0.559299989342317
1727009992197757200,9.417757080078125,1.9016472755491733,-0.37804479285180564,-0.19839557025320828
1727009992207794200,9.427794189453126,0.8294201948523521,0.20482173084318636,0.5763797189589589
1727009992217832400,9.43783251953125,-1.5147954913854598,0.443037781766057,0.8230958141364156
1727009992227870200,9.4478701171875,-3.348588543370366,0.44842473550140854,0.4482832081388682
1727009992237908500,9.457908447265625,-1.9647738860696553,0.5759644892215728,-0.27417247657552357
1727009992247946200,9.4679462890625,-0.18796645763218403,0.5517705436855554,-0.6716402742344886
1727009992257983200,9.477983154296876,3.4229490800887343,0.5087871420055627,-0.3657557315777987
1727009992268021200,9.488021240234374,3.4750188745439052,0.45286885542869565,0.4734223255705088
1727009992278059300,9.498059326171875,0.6965370342776179,-0.9824848504513501,0.9089057464342564
1727009992288097000,9.508096923828125,-1.1980196984887121,-2.060387638697028,0.4935629040624946
1727009992298135300,9.51813525390625,-0.2571615744113922,-2.7025252665281294,-0.1969661219719797
1727009992308172300,9.52817236328125,1.474401229415834,-2.330806754088402,-0.4451137112572789
1727009992318210300,9.538210205078125,0.9527093053907155,-1.3841472502559422,0.05771583751812577
1727009992328248300,9.548248291015625,-0.4111421758115291,0.1802992840051651,0.655501624860242
1727009992338286000,9.5582861328125,-2.035484668108821,0.944092283692956,0.8112661140024662
1727009992348324400,9.568324462890626,-3.3759242940634486,1.069545294266939,0.5966951425611973
1727009992358361300,9.578361328125,-1.3396668880164622,1.2058353406757116,0.4956944361984729
1727009992368399000,9.588399169921875,0.49017216564565896,1.1308996344178914,0.5495495066352188
1727009992378437400,9.598437255859375,0.08841595007777213,-0.07374854229986667,0.6463463315673172
1727009992388475100,9.60847509765625,-0.238672270257771,-0.41757483920753,0.7212278234198689
1727009992398513400,9.618513427734374,-1.8614304159730672,-0.7686568063318729,0.7017752271920442
1727009992408550100,9.628550048828124,-1.502443374812603,-0.35132395918667314,0.513757770024985
1727009992418588200,9.638588134765625,0.683368048363924,0.2517974170297384,0.277992180994153
1727009992428626200,9.648626220703125,1.6307570355147123,0.9678905079096555,0.07581672687605023
1727009992438664200,9.658664306640626,1.882773648253083,1.0628729768961667,-0.20746859209015964
1727009992448702200,9.6687021484375,0.08795359326303005,0.5684925459057092,-0.08211188149750233
1727009992458739200,9.6787392578125,-3.6352556137293575,0.2705588161230087,0.9381731227770447
1727009992468777200,9.688777099609375,-4.724136307585239,-0.6918319253265858,2.4912352164536715
1727009992478815200,9.698815185546875,-2.1788801626086234,-0.5403472323954105,3.686549747636914
1727009992488853200,9.708853271484376,1.8352081794798374,-0.5916589019596576,3.660185764585435
1727009992498890200,9.71889013671875,0.8460027886018157,-0.7282002927809953,2.3389077890880405
1727009992508928300,9.72892822265625,-3.5820842877730725,-1.1789005719989538,0.5320888148769736
1727009992518966300,9.73896630859375,-1.4458017423972487,-0.21189444570839402,-0.7924610218979418
1727009992529004300,9.74900439453125,2.6081340414330363,0.40888416775166986,-0.9144662301056087
1727009992539042300,9.759042236328124,1.6127204435646534,0.8725748614460229,0.063085693988204
1727009992549079300,9.769079345703124,-1.476646670255065,-0.02049859814941883,1.0042843020662664
1727009992559117300,9.779117431640625,0.06998626715689897,-1.0170365238726138,0.9873837284088134
1727009992569155300,9.7891552734375,-0.4436556214034557,-1.6072931578189134,0.34474414240494367
1727009992579193300,9.799193359375,0.9558625087246299,-1.788419540297985,-0.525153024264425
1727009992589231400,9.8092314453125,-0.4655722696572542,-0.9409487249702214,-1.3011569784887134
1727009992599268000,9.81926806640625,0.23186726641803979,-0.5505395405858755,-1.6335399442315102
1727009992609306400,9.829306396484375,2.1017378862172365,0.6694786392211913,-1.003320279339701
1727009992619344100,9.83934423828125,2.367888238248229,0.29092648136913773,0.4312745709970593
1727009992629382000,9.8493818359375,2.3148373238012194,-0.17391045975089073,1.988572110286355
1727009992639420000,9.859419921875,-0.804147514168918,-1.375493988201022,2.9677269395321604
1727009992649457000,9.869456787109375,1.0897507546886802,-2.2255741092443464,2.857590156033635
1727009992659495000,9.879494873046875,0.19972177735567093,-2.6535423321723934,2.11669784720093
1727009992669532700,9.88953271484375,1.5679299924626946,-2.369344282275438,1.5054247287109492
1727009992679571000,9.899571044921874,-0.319057766354084,-1.1428636284559965,1.319096393674612
1727009992689608700,9.909608642578124,0.30483459521234035,-0.8590566237032413,1.1441657970957457
1727009992699646000,9.91964599609375,0.4310577133759856,0.16890169167816638,0.7786774112172424
1727009992709684000,9.92968408203125,0.45341947504878044,-0.12044015084803103,0.21355375722274184
1727009992719721700,9.9397216796875,1.8850778335422276,-0.2544178286612034,-0.3030190702229738
1727009992729760000,9.949760009765624,1.1841647761374712,-0.988497827130556,-0.15180091927349568
1727009992739797800,9.9597978515625,-0.03239712573587894,-0.7854699939668178,0.8158801836691796
1727009992749834800,9.969834716796875,1.1610802531480788,-0.44053427451252936,1.7149924850374458
1727009992759873000,9.979873046875,-1.9183216392353175,0.18907529565691947,1.7286087763272224
1727009992769910800,9.989910888671876,-1.2565455372154712,0.4867138418853283,0.47928734514638777
1727009992779949000,9.999948974609374,4.222528847950697,1.1863017881661653,-1.0404286515064536
1727009992789985800,10.00998583984375,2.8967379250735044,0.7961550541102885,-1.5421718663498758
1727009992800023800,10.02002392578125,-1.6595049910932778,0.22335750448703764,-0.8491606681108474
1727009992810061800,10.030061767578125,-3.421538044247031,-0.7611638202279806,0.3732721716225147
1727009992820099800,10.040099853515626,-2.6713123821407554,-0.632229397279024,1.5919512117803096
1727009992830137900,10.050137939453125,0.060004094585776324,-0.2621995685786009,2.3746150622852147
1727009992840174800,10.0601748046875,1.5118939247250556,0.3348305050253868,2.129750513258576
1727009992850212900,10.070212890625,-1.6185113019257782,0.5633265414446592,1.064810082438588
1727009992860251000,10.0802509765625,-0.8097676921382546,0.5404682284265756,-0.35375030955076214
1727009992870289000,10.090288818359374,-2.4734128517761826,0.5016524678200484,-1.3433027603007852
1727009992880327000,10.100326904296875,-3.5168317711398003,0.3439765190333128,-1.6462465733304619
1727009992890364000,10.110364013671875,-0.41275107231289143,0.589731733289361,-1.4285846501365302
1727009992900402000,10.12040185546875,1.0437439135342836,0.9091162473797798,-0.9479040970660746
1727009992910440000,10.13043994140625,0.559895397952199,0.9571253682672977,-0.7017672630812972
1727009992920478000,10.14047802734375,-0.6514382478788495,1.1055430748432875,-0.8729447176717221
1727009992930516000,10.150515869140625,-1.5030869334131478,0.5192565135717392,-1.3569728276044128
1727009992940553000,10.160552978515625,-0.2689607332766056,0.6480711095333099,-1.5406617540478706
1727009992950591000,10.170591064453125,1.4454907767519354,0.42638709121644497,-1.1553396636694668
1727009992960629000,10.18062890625,0.025615795032680033,0.2936567831158638,-0.16719152675941584
1727009992970667000,10.1906669921875,-1.2894804230898618,-0.30113924782574175,0.9473676521018147
1727009992980703700,10.200703857421875,-1.487060512241721,0.5238882650256157,1.742037582220882
1727009992990742000,10.210741943359375,1.4115259633079171,0.9038573039382696,1.7162693731054663
1727009993000779800,10.22077978515625,2.4492159836307166,1.094620698812604,0.8247638204138725
1727009993010818000,10.230818115234374,0.35941754153221844,-0.019941548788547515,-0.6515602668233216
1727009993020855800,10.240855712890625,-2.348952067109942,-0.8103881621241569,-1.7537661600679157
1727009993030892800,10.250892822265625,-0.9370248295247554,-1.6782780806243418,-1.9849924982339142
1727009993040931000,10.26093115234375,1.1417764177411793,-1.3035358364492653,-1.0468155029993504
1727009993050968800,10.27096875,2.154469943973422,-0.5730705213457346,0.44433717392683025
1727009993061006800,10.2810068359375,0.5160404741346836,0.6620353374779224,1.400084239578247
1727009993071044900,10.291044921875,-0.9034989920198917,0.6985889983713627,1.0369127523399888
1727009993081081900,10.301081787109375,-2.3026956351086496,0.9457815519541501,-0.050262233576551074
1727009993091120000,10.3111201171875,-0.750138860605657,-0.12434066541790961,-1.1829283662103116
1727009993101158000,10.321157958984376,-0.09384645069390535,-0.5236924501925706,-1.4575018248021603
1727009993111196000,10.33119580078125,0.5740291372448205,-0.9917588747531175,-0.8841365582935512
1727009993121234000,10.34123388671875,4.042604242476821,-0.8358820843428373,-0.05939787232093513
1727009993131271000,10.35127099609375,1.522333485674858,-0.21233809782266616,0.7737973110254853
1727009993141308700,10.36130859375,-0.21245617124438285,0.8600053027302026,1.0132678189888595
1727009993151347000,10.371346923828124,-0.2780792747557163,0.9253817380040883,0.5588462542254478
1727009993161384700,10.381384765625,-4.431488409250974,0.7588181338846683,0.0019035685990005731
1727009993171423000,10.391423095703125,-3.0251503699749707,-0.3246387813568115,-0.4553017816640436
1727009993181460000,10.4014599609375,-0.5375947188168764,0.013798223727941513,-0.8075250277779996
1727009993191497700,10.411497802734376,0.6603174276441335,-1.0202958179295063,-1.0708438096448778
1727009993201536000,10.421535888671874,0.8003782247632741,-0.30263387029767036,-0.9286601020876317
1727009993211573800,10.43157373046875,-1.6148139087125657,-0.19301380414962768,-0.3971300901371985
1727009993221612000,10.441612060546875,-0.3100213502004742,0.557215365087986,0.12220394565016031
1727009993231649000,10.45164892578125,-1.8601003364130853,1.0191086539715528,0.3453784947857261
1727009993241686800,10.461686767578126,-0.49963849764913315,0.7969494193583726,0.12077858902215957
1727009993251725000,10.47172509765625,0.05366612373590469,0.44358489425480363,-0.15933591788820922
1727009993261762800,10.4817626953125,-0.7127490411490202,0.5315794040501117,-0.11010843418687581
1727009993271799800,10.4917998046875,-1.5018752195358276,0.19277590374052522,0.2608027073927224
1727009993281837800,10.501837890625,-4.767501986581087,0.1412339325517416,0.572482565389946
1727009993291875800,10.511875732421874,-1.283739541350305,0.5327490323513746,0.38941988108605147
1727009993301913900,10.521913818359375,1.3941156865626572,0.8183212932109832,-0.2392520429071039
1727009993311952000,10.531951904296875,0.6638456017702817,0.8668173208326101,-0.803662287935242
1727009993321988900,10.54198876953125,0.20751637675464152,0.1929343091726303,-0.9817414847381413
1727009993332027000,10.55202685546875,-2.9824370174080133,0.007898644295334815,-0.5815510571822524
1727009993342065000,10.56206494140625,-0.7206091069996357,-0.004375730866193771,0.14345219312310217
1727009993352103000,10.57210302734375,0.9268319368124007,0.05291968928277492,0.9644818685099482
1727009993362141000,10.582140869140625,1.530949922850728,-0.5835942534476518,1.6435628872044383
1727009993372178000,10.592177978515625,-0.5715957726180553,-0.26549101133942604,2.1359541902042922
1727009993382216000,10.6022158203125,-0.9921639484226703,-0.6662444796055554,1.8599170888006686
1727009993392254000,10.61225390625,0.10315613083094358,-0.30215865400135516,0.6377066596463322
1727009993402291700,10.622291748046875,3.0240155207261443,-0.13280220429301262,-0.8496811848536133
1727009993412329000,10.632328857421875,4.207250614798069,-0.5163689754366875,-1.5225272546812891
1727009993422367000,10.642366943359375,-0.8990048954710363,-0.7799673048973083,-0.8648060540754348
1727009993432405000,10.652405029296874,-1.574464070406556,-0.5373094721347094,0.46967393282242115
1727009993442443000,10.662443115234375,-0.07984218299984931,-0.6060387249678373,1.8639818540215491
1727009993452480800,10.672480712890625,2.387159340429306,-0.6932330242961645,2.7189497471064326
1727009993462518000,10.68251806640625,2.954977348074317,-0.8410165246218443,2.5462901641994713
1727009993472555800,10.6925556640625,0.2543348265528679,-1.922222446066141,1.6419902310602366
1727009993482593800,10.70259375,-0.6997171256184578,-2.4987194347292183,0.9067123280432074
1727009993492631800,10.7126318359375,-0.9618401218295097,-2.1614532269895075,0.9218651812504977
1727009993502669800,10.722669921875,1.5007564446389674,-1.5320605144411326,1.0620472666617482
1727009993512707000,10.73270703125,2.3779785473689437,-0.46612814997434615,1.0284736444924025
1727009993522744800,10.742744873046876,-0.23516776926815508,0.39237902315258977,0.5071179666843265
1727009993532782800,10.752782958984374,0.6180103177905082,0.24901450831294059,-0.48750090060979123
1727009993542820900,10.76282080078125,1.0081541292369365,0.46990591494739054,-1.4586743757128715
1727009993552859000,10.77285888671875,1.526999723920226,0.17156594245135784,-1.816302257349342
1727009993562896000,10.782895751953125,-0.7790887684971094,0.030279987451434134,-1.1663085822556167
1727009993572934000,10.792933837890626,-2.932744473478198,-0.046503392499685284,0.07621054849922657
1727009993582972000,10.802971923828125,-3.133215315635502,0.5494686964839697,1.0492742212630808
1727009993593010000,10.813010009765625,-0.7493599851876497,0.48511108286380766,1.2413128967702387
1727009993603047000,10.823046875,1.4438824647724628,0.905398688161373,0.7210605040289462
1727009993613084700,10.833084716796876,1.7629951761841773,0.8929781825274229,-0.18515337297283113
1727009993623123000,10.843123046875,0.22289047149717806,0.6023515608876944,-0.997227588487789
1727009993633160700,10.85316064453125,-2.308122044071555,0.407490667566657,-1.2582228227779269
1727009993643198500,10.863198486328125,-2.894254291564226,0.44746144342720506,-0.81490505502671
1727009993653235500,10.8732353515625,-2.3929829320162535,0.9433855967283248,-0.01788903670553118
1727009993663273500,10.8832734375,-1.9237863343819974,0.38300387656390666,0.8095794030245393
1727009993673311500,10.8933115234375,0.2913993595778942,1.0954477972865104,1.2755648565925657
1727009993683349500,10.903349609375,2.148520095658302,0.5616191530048847,0.8393998101402074
1727009993693387500,10.913387451171875,0.57119537512362,0.3602759119272232,-0.43770036626085634
1727009993703424500,10.923424560546875,-3.552879236076772,-0.7432762813597917,-1.6326314510844646
1727009993713462500,10.933462646484376,-3.437351114928722,0.19192191725969313,-1.9369944832623003
1727009993723500500,10.94350048828125,0.5166244115024805,1.0214087476074696,-1.339252608127147
1727009993733538600,10.95353857421875,3.631898412255943,2.0906588583201167,-0.3904013664040714
1727009993743576600,10.96357666015625,2.2078113657996057,0.6904957082867622,0.5539596512276679
1727009993753613600,10.973613525390626,-0.8980486176595092,0.12332768898308276,1.4588288356222212
1727009993763651600,10.983651611328124,-0.7810799423143268,-0.636852965426445,1.7552314103148876
1727009993773689600,10.993689697265625,-0.20809388438165186,-1.3593828113555908,1.3288302905730902
1727009993783727400,11.003727294921875,-1.6706918632790446,-1.7736136008322239,0.48986280743554234
1727009993793764600,11.0137646484375,-0.8642109377264976,-0.9010065906822681,-0.23013963890783487
1727009993803802400,11.02380224609375,1.3069529514163731,0.2191238124400377,-0.5424092064265161
1727009993813840600,11.033840576171874,1.8683862264603375,1.1743261036902666,-0.3855063609041273
1727009993823878400,11.04387841796875,0.40402912893593307,1.2150853995800017,-0.07680511685889214
1727009993833916400,11.05391650390625,-0.18974281965494155,0.5735404769450426,-0.054603112325072284
1727009993843953700,11.06395361328125,-1.2517431053698063,-0.5284118799299001,-0.2777981562593952
1727009993853991400,11.073991455078126,0.8797966293931007,-0.5919038166314363,-0.5200608887571841
1727009993864029400,11.084029541015624,1.531748087491095,-1.0306500386834143,-0.45214843219965695
1727009993874067500,11.0940673828125,0.3523179386600852,-0.1662684205651283,0.08653298587538301
1727009993884105500,11.10410546875,1.067294592730701,-0.03864917186796665,0.44821664570868014
1727009993894142700,11.114142822265626,-1.2649842797368764,0.4246703504264355,0.1969401838131249
1727009993904180500,11.124180419921874,-0.9147714966624975,-0.3432376833647489,-0.7930266198914497
1727009993914218500,11.134218505859375,-0.11873685406148433,-0.35786534365415573,-1.9608971907667814
1727009993924256500,11.144256591796875,0.896222863537073,-1.3129443007856607,-2.4401915501758453
1727009993934293500,11.15429345703125,0.027536826223134993,-0.6589338643312453,-1.5341652316354215
1727009993944331500,11.16433154296875,-0.4680763614326715,-0.4031652055829763,0.19367840553820131
1727009993954369500,11.17436962890625,0.6091513040304184,0.7146767943412065,1.5500243334159254
1727009993964407600,11.184407470703125,0.19677637155354022,0.8761860376805066,1.8220413855232298
1727009993974445600,11.194445556640625,0.17228315081000328,0.4871364512115717,1.055137560338527
1727009993984482600,11.204482666015625,-2.0430138945698735,-0.1477466754466295,0.02001665985137224
1727009993994520300,11.214520263671876,-3.1645506573587654,0.02674479906260967,-0.8144310808394104
1727009994004558600,11.22455859375,-1.481058933739364,-0.043727498045563695,-1.5710075002118944
1727009994014596400,11.234596435546875,2.693471022456884,1.3278221364438534,-1.9422826527982948
1727009994024634600,11.244634521484375,1.4532318923979997,1.298530575507879,-1.2876476547047495
1727009994034671600,11.254671630859375,-3.6888387353569265,1.6886878309577702,-0.06693031365238129
1727009994044709400,11.26470947265625,-5.52127628107965,0.7664198410600424,0.6362736311685293
1727009994054747600,11.27474755859375,-3.0836282779067754,0.840021083843708,0.44867863719724116
1727009994064785400,11.284785400390625,1.6009493417501448,0.20995091042518615,-0.31041729071550067
1727009994074822400,11.294822509765625,0.9105699533194302,-0.061031099545955654,-0.7236335693873465
1727009994084860700,11.304860595703126,-0.748197371149063,-0.5621797094970942,0.09257277749627828
1727009994094898400,11.3148984375,-2.298830776374042,0.569110385543108,1.6229880089484154
1727009994104936700,11.324936767578125,-2.8399887406304476,0.8237918335765599,2.6884114009797573
1727009994114974500,11.334974365234375,-1.3297042969286441,0.7068553069353103,2.415706512738764
1727009994125011500,11.345011474609375,-0.21409984679818153,0.7337164258539676,0.9767986945737153
1727009994135049500,11.355049560546876,2.9581629923731088,-0.20591478677690028,-0.9454697825912386
1727009994145087500,11.36508740234375,4.211494828239083,-0.690255469790101,-1.9122107551395893
1727009994155125500,11.37512548828125,1.3923288031458854,-1.330377666145563,-1.1047083045195787
1727009994165163500,11.38516357421875,-2.01927032314986,-0.5612748696118592,0.8016897457532585
1727009994175200500,11.395200439453125,-3.604081307786703,-0.308649185064435,2.2641087148219348
1727009994185238500,11.405238525390626,0.05201835652887821,1.0802940672963857,2.52736276088953
1727009994195276500,11.415276611328125,4.580936627918482,0.8361316751897334,1.3823957304134964
1727009994205314300,11.425314208984375,4.5671880885511635,-0.14604162509441374,-0.19704992779791353
1727009994215352600,11.4353525390625,0.18150515266358852,-1.1919430089235306,-1.0030001805398612
1727009994225389600,11.4453896484375,-2.3526707953721284,-2.139756358966231,-0.8926101529326289
1727009994235427600,11.455427490234374,-0.4995487735390663,-2.317199084496498,-0.25467472603172064
1727009994245465600,11.465465576171875,0.11639672067612408,-1.0994646317124366,0.749758994442597
1727009994255503400,11.47550341796875,3.4285943924993276,-1.0759966623634099,1.648299706467986
1727009994265540600,11.48554052734375,0.5110778832912445,0.5327309121727943,2.0999038026578725
1727009994275578600,11.49557861328125,0.7301821142479777,-0.05211304907500743,1.5276885829672215
1727009994285616400,11.505616455078124,0.3069014646142721,0.22439853797256945,0.5543294343881309
1727009994295654700,11.515654541015625,0.11354045446217059,-0.6091711777746677,-0.00944097836650908
1727009994305692400,11.5256923828125,0.5782102223217487,-1.0748732112914323,0.33600122930519283
1727009994315729700,11.535729736328125,-0.12487550294697283,-0.6427589745998382,1.4708523047626019
1727009994325767400,11.545767333984376,0.4940148125484585,-0.40379473565816876,2.4196377147078514
1727009994335805400,11.555805419921874,-0.05127104529291391,0.1437561445057392,2.5726979863926767
1727009994345843500,11.565843505859375,-0.13976152191162108,0.16329145058095454,1.674664420171827
1727009994355881500,11.575881591796875,-1.2050246088147163,0.1112351001292467,0.3451144370220601
1727009994365918500,11.58591845703125,0.7599336939111352,0.3017576719850302,-0.6987734880927949
1727009994375956500,11.59595654296875,1.5920289531916378,0.918082813167572,-0.9040490271180868
1727009994385994500,11.605994384765625,-2.3103864818722006,0.22674890049099922,-0.22954276899322867
1727009994396032500,11.616032470703125,-4.591674295032024,0.36509237229824065,0.8734146732710302
1727009994406069500,11.626069580078125,-2.6912042465686796,0.4406926799446344,1.8676105659127233
1727009994416107500,11.636107421875,1.3866028267145156,0.8006962046712637,2.30083890132606
1727009994426145500,11.6461455078125,1.0920248371005057,-0.3161649675220251,1.8956474506124854
1727009994436183600,11.65618359375,-1.6766335282877087,-0.025679215657711026,0.9973839480932801
1727009994446221600,11.6662216796875,-3.1020974160552024,-0.5349076716899871,-0.3540914511386305
1727009994456258600,11.676258544921875,-2.00483438604027,0.8423895665407181,-1.6707763266921043
1727009994466296300,11.68629638671875,0.298460676266253,1.5835761821448802,-2.5559797835648057
1727009994476334600,11.69633447265625,1.7525512313202023,2.5290233875781296,-3.002830401617288
1727009994486372400,11.706372314453125,0.2610921918585896,1.439124456590414,-2.911459401126206
1727009994496410600,11.71641064453125,-1.2634218527257441,1.1169693087428807,-2.065870454022288
1727009994506447600,11.726447509765626,-1.2982891679674387,-0.1837017859250307,-0.6684465196944773
1727009994516485400,11.7364853515625,0.5965250466912985,-0.8121031493484974,0.7985189336974173
1727009994526523600,11.746523681640625,-0.428050640514493,-1.5773708977639673,1.8654314683079718
1727009994536561400,11.7565615234375,-0.4654144487470388,-1.9520675492316484,2.0056353271596135
1727009994546598400,11.766598388671875,-1.277368545013666,-1.0324930362015963,1.176303833504021
1727009994556636700,11.77663671875,0.7215311902806162,0.1341968735218048,-0.025880729579180476
1727009994566674400,11.78667431640625,1.7756804702341555,1.6875088503062725,-0.8425341626431793
1727009994576712700,11.796712646484375,1.0186673399448394,2.1476216855138537,-1.2661372491642833
1727009994586750500,11.80675048828125,0.44578795725703235,1.481730257129669,-1.1168856490474193
1727009994596787500,11.816787353515625,-0.73884998935014,0.0949918213367462,-0.5423724546127021
1727009994606825500,11.826825439453126,-0.9209528156459331,-1.4593044903099537,0.10997048702090978
1727009994616863500,11.836863525390624,1.7830343401283024,-1.778739857804775,0.5397521891117095
1727009994626901500,11.846901611328125,3.076014295771718,-2.0624346343547106,0.7504010186731815
1727009994636939500,11.856939453125,-1.2807897516340017,-0.7864987524926662,0.8767490783907472
1727009994646977500,11.8669775390625,-3.2028280733048913,-0.2525157944321632,0.2945291089709848
1727009994657015600,11.877015625,-1.3175047405689955,1.055246719801426,-0.7556606927670538
1727009994667053600,11.887053466796875,0.9388473687767982,1.1365537146568299,-1.765278610946238
1727009994677091600,11.897091552734375,3.1181898882001637,0.5749070891231298,-2.293779630464315
1727009994687128600,11.907128662109375,-0.6044640229970216,-0.7006319023758173,-2.0256433653131127
1727009994697166300,11.917166259765626,0.3438198671668768,-1.7533336138695477,-1.3696630900904536
1727009994707204600,11.92720458984375,-1.7890224746271968,-1.8911060077905655,-1.1117284124147147
1727009994717242400,11.937242431640625,-1.2533330049097537,-2.270903197267651,-1.3144576279580593
1727009994727280600,11.94728076171875,1.395720199149847,-0.9031611383676529,-1.45474171243906
1727009994737317600,11.957317626953126,0.6656067662239075,0.19749065730273724,-0.475131686771661
1727009994747355400,11.96735546875,0.406375399801135,1.662945486935973,0.9673615155994891
1727009994757393700,11.9773935546875,-0.8764970033258199,2.412592472371459,1.9073716445453464
1727009994767431400,11.987431396484375,-1.0279711748629807,1.701944787415862,1.8297253641545772
1727009994777468400,11.997468505859375,-1.491935717062652,0.7795271599143743,0.9566254559211432
1727009994787506700,12.007506591796876,-0.3812447579368949,-0.748195617583394,-0.18202471955828367
1727009994797544400,12.01754443359375,-1.2555594487875699,-0.9484738597780465,-1.106642268256843
1727009994807582700,12.027582763671875,-2.280131921122968,-1.019458782583475,-1.6575602867662906
1727009994817620500,12.037620361328125,-1.0480056626319885,0.6129787533640861,-1.6042846236526964
1727009994827657500,12.047657470703125,-0.07622808415591717,1.4496288994699715,-0.6153253895554691
1727009994837695500,12.057695556640626,-2.1493980475366112,2.6309651741832494,0.8869885136585682
1727009994847733500,12.0677333984375,-2.7167677268922326,1.1571779850125312,1.952811937858164
1727009994857771500,12.077771484375,0.6779261495709419,0.5117161811947822,2.219534244558215
1727009994867809500,12.0878095703125,1.9303864632993935,-1.3433330093085765,1.91185478130877
1727009994877846500,12.097846435546876,-0.08726648778170347,-2.076466082316637,2.034009773250669
1727009994887884500,12.107884521484374,-1.2387027142718434,-1.114930496391654,2.6428534726366397
1727009994897922600,12.117922607421875,-1.9079636190891265,0.5594295340061187,2.767677829918265
1727009994907960600,12.127960693359375,1.6452178148046135,2.4206045139133927,1.5833496799126265
1727009994917997600,12.13799755859375,2.101367299339175,2.917471501022577,-0.5047748376242817
1727009994928035600,12.14803564453125,-0.602764525602758,1.2084300333440303,-2.6804809002414345
1727009994938073600,12.158073486328124,-0.984907693684101,-0.21437632565200326,-4.028495053103566
1727009994948111600,12.168111572265625,1.5334370634913443,-2.391573649740219,-3.7096898002058265
1727009994958149600,12.178149658203125,0.5194833080649376,-2.3082062152236698,-1.6816835051536558
1727009994968186600,12.1881865234375,2.1063386580109595,-2.2167735476732253,0.6333299789320677
1727009994978224600,12.198224609375,-0.1880459526091814,-0.9370365199625491,1.9936188722819088
1727009994988262700,12.2082626953125,-1.7808333229526876,-0.28805589436888696,1.8577514351993798
1727009994998300700,12.21830078125,-0.29037556948810817,0.4872761519432068,0.4973988289635628
1727009995008337400,12.22833740234375,1.582783570462465,0.013244681498408318,-1.0183017215028405
1727009995018375700,12.238375732421876,1.3531734353214502,-0.4966612354040146,-1.6231617580801248
1727009995028413400,12.248413330078124,0.8161281670808792,-1.9446523045390842,-0.9850162686251104
1727009995038451700,12.25845166015625,0.35812019519805904,-1.9603923099845646,0.4858956573702395
1727009995048489500,12.268489501953125,1.402911571958661,-1.8916484441041945,1.8307143751919268
1727009995058526500,12.2785263671875,1.17501905439049,-1.0210229631602763,2.1099963037356733
1727009995068564700,12.288564697265626,0.1768254704147577,-0.4027040178120136,1.2698454560324548
1727009995078602500,12.2986025390625,1.0901698568835854,0.40725101359188554,-0.00688968644849956
1727009995088640500,12.308640625,0.39927755049467084,0.06606383301615715,-0.749460230691731
1727009995098677800,12.318677734375,0.6773521490752696,0.016893267133831977,-0.42294736255872994
1727009995108715500,12.328715576171875,1.8331299119010567,-0.5188654684275389,0.8647114345945417
1727009995118753800,12.33875390625,-1.920264297735691,-0.46663376140892504,1.9955156458139418
1727009995128791600,12.34879150390625,-1.713947944420576,-0.8034048791080712,1.8138098560117184
1727009995138829600,12.35882958984375,-1.0287836602896452,0.12602818011343478,0.6320365050554275
1727009995148866600,12.368866455078125,-0.4308323801875114,0.5808779802262782,-0.7068567682400345
1727009995158904600,12.378904541015626,1.483833951410651,1.6119184795320034,-1.6563406818434596
1727009995168942300,12.3889423828125,-0.018913374784588814,1.347533968129754,-1.8473184501208364
1727009995178980600,12.398980712890625,-0.9899550402015447,0.8062024008721113,-1.186015810831636
1727009995189018400,12.409018310546875,-2.826210975168645,0.01440612649321556,-0.07821407034136355
1727009995199055600,12.4190556640625,-1.805961918990314,-0.11052782864272594,0.6398042895127087
1727009995209093600,12.42909375,1.224715982234478,0.4432762666970491,0.1533389059631154
1727009995219131400,12.43913134765625,1.7811843283474444,0.4854407532095909,-1.2234564836926758
1727009995229169700,12.449169677734375,-2.420443770393729,0.9889444018542766,-2.4055589204728602
1727009995239206700,12.45920654296875,-3.203550542360544,0.5438274757266044,-2.7996114297956227
1727009995249244400,12.469244384765625,0.3198334269016981,0.9495090480446815,-2.6055390565037726
1727009995259282700,12.47928271484375,2.197374142937362,0.9397644836217165,-1.469458804577589
1727009995269320400,12.489320556640624,1.5255127002328632,0.5277180524468421,0.08215128192612901
1727009995279358700,12.499358642578125,-1.6552075861603022,-0.36587563163042064,0.8928994182027876
1727009995289395500,12.5093955078125,-0.751852971047163,-0.7418897954374551,0.6578374473966657
1727009995299433500,12.51943359375,-1.646300641605258,-0.6795084503263235,-0.15672807347737253
1727009995309471500,12.529471435546874,-0.38540187761634587,-0.3470201245129108,-0.8094717048663645
1727009995319509500,12.539509521484375,0.6539414628714323,0.8773936599045992,-0.7862227850954979
1727009995329546500,12.54954638671875,0.3990308822572231,1.6592133146703243,-0.0525195292503573
1727009995339584500,12.55958447265625,2.4016963998258114,2.039667506751418,0.414402675444819
