time,seconds_elapsed,z,y,x
1727009982807389700,0.0273896484375,0.4240655303001404,0.43379297852516174,-0.3267914354801178
1727009982817427700,0.037427734375,0.6222319006919861,0.47938522696495056,-0.4384346008300781
1727009982827465700,0.0474658203125,0.7820771932601929,0.4780571162700653,-0.21839305758476257
1727009982837503700,0.057503662109375,0.8462798595428467,0.5312963724136353,-0.043228961527347565
1727009982847540700,0.067540771484375,0.8267232179641724,0.6831924319267273,0.10013512521982193
1727009982857578800,0.077578857421875,0.7532609701156616,0.776323676109314,0.012374111451208591
1727009982867616800,0.08761669921875,0.6184991598129272,0.8179798126220703,0.14068201184272766
1727009982877654800,0.09765478515625,0.5303389430046082,0.7788808941841125,0.10358444601297379
1727009982887692800,0.10769287109375,0.5477797389030457,0.6743283867835999,0.16082963347434998
1727009982897729500,0.1177294921875,0.5816644430160522,0.5778468251228333,0.24293860793113708
1727009982907767800,0.127767822265625,0.552004873752594,0.5207347869873047,0.2633328437805176
1727009982917805600,0.1378056640625,0.4804510474205017,0.4829203188419342,0.14438460767269135
1727009982927843600,0.147843505859375,0.4882597029209137,0.4261225461959839,0.14848613739013672
1727009982937880800,0.157880859375,0.49983805418014526,0.3758836090564728,0.2328987568616867
1727009982947918600,0.167918701171875,0.43616268038749695,0.49488988518714905,0.151993528008461
1727009982957956900,0.177956787109375,0.4013703167438507,0.5676964521408081,0.07225368916988373
1727009982967994600,0.18799462890625,0.4220961034297943,0.5648186206817627,0.054676562547683716
1727009982978032600,0.19803271484375,0.42691031098365784,0.4673978090286255,0.10386700928211212
1727009982988070000,0.20806982421875,0.4436754584312439,0.43960505723953247,0.11631675809621811
1727009982998107600,0.218107666015625,0.4276892840862274,0.4574306607246399,0.093229278922081
1727009983008145700,0.228145751953125,0.3726891577243805,0.46236497163772583,0.033793915063142776
1727009983018183700,0.23818359375,0.3553876578807831,0.4895031154155731,0.0018759306985884905
1727009983028220700,0.248220703125,0.33190762996673584,0.4682713449001312,0.21434585750102997
1727009983038258700,0.2582587890625,0.35561081767082214,0.46683454513549805,0.24895335733890533
1727009983048296700,0.268296630859375,0.37738004326820374,0.5216003060340881,0.29125475883483887
1727009983058334500,0.27833447265625,0.39058879017829895,0.5985907316207886,0.3279978334903717
1727009983068372700,0.288372802734375,0.3888731896877289,0.6523423790931702,0.28315022587776184
1727009983078409700,0.29840966796875,0.4265395998954773,0.7070937752723694,0.24664519727230072
1727009983088447500,0.308447509765625,0.5485634803771973,0.7330931425094604,0.19485417008399963
1727009983098485800,0.31848583984375,0.7374383807182312,0.7425761222839355,0.2108464539051056
1727009983108523500,0.3285234375,0.8772801160812378,0.7522827982902527,0.08049537241458893
1727009983118561800,0.338561767578125,0.8252635598182678,0.7803562879562378,-0.009136506356298923
1727009983128598800,0.348598876953125,0.6532467603683472,0.7796105742454529,-0.05221207067370415
1727009983138636500,0.358636474609375,0.5929227471351624,0.7224058508872986,0.051180630922317505
1727009983148674800,0.3686748046875,0.6694771647453308,0.6622807383537292,0.09173045307397842
1727009983158712600,0.378712646484375,0.7712525129318237,0.570019006729126,0.12611240148544312
1727009983168749600,0.38874951171875,0.8086411356925964,0.5610287189483643,0.2294483631849289
1727009983178787600,0.39878759765625,0.7584227323532104,0.6134147047996521,0.3560470640659332
1727009983188825600,0.40882568359375,0.6845570206642151,0.7527352571487427,0.26413044333457947
1727009983198864000,0.41886376953125,0.689336895942688,0.8619086146354675,0.15491527318954468
1727009983208901600,0.428901611328125,0.7225350141525269,0.8903469443321228,0.11002690345048904
1727009983218938600,0.438938720703125,0.6936485171318054,0.8603959679603577,0.17746107280254364
1727009983228976600,0.4489765625,0.6362465023994446,0.7607098817825317,0.23568442463874817
1727009983239014700,0.4590146484375,0.6289462447166443,0.6475793123245239,0.20922724902629852
1727009983249052700,0.469052734375,0.6505599021911621,0.49455779790878296,0.2295977771282196
1727009983259090700,0.479090576171875,0.6357141137123108,0.41193270683288574,0.15066993236541748
1727009983269127700,0.489127685546875,0.5510357022285461,0.39514651894569397,0.1371258944272995
1727009983279165700,0.499165771484375,0.4567960500717163,0.44453829526901245,0.104913629591465
1727009983289203700,0.50920361328125,0.42070966958999634,0.6105555295944214,0.17154192924499512
1727009983299241700,0.51924169921875,0.4276277720928192,0.7247323989868164,0.23265747725963593
1727009983309278700,0.52927880859375,0.40203797817230225,0.6664392948150635,0.2923154830932617
1727009983319316700,0.539316650390625,0.33513325452804565,0.4985235035419464,0.21457354724407196
1727009983329354800,0.549354736328125,0.27976641058921814,0.2870408296585083,0.10929320007562637
1727009983339392800,0.559392822265625,0.24831047654151917,0.033847443759441376,0.034998465329408646
1727009983349430500,0.569430419921875,0.1848798394203186,-0.06757957488298416,0.06803151220083237
1727009983359467800,0.5794677734375,0.08728377521038055,0.07358980178833008,0.15584605932235718
1727009983369505500,0.589505615234375,0.02370692789554596,0.3513769507408142,0.10352559387683868
1727009983379543800,0.599543701171875,0.01745062880218029,0.4460810720920563,0.1311071515083313
1727009983389581600,0.60958154296875,0.01350329164415598,0.2911341190338135,0.06564904749393463
1727009983399618600,0.61961865234375,-0.023035544902086258,0.016943829134106636,0.10455410927534103
1727009983409656800,0.62965673828125,-0.07745271176099777,-0.18493948876857758,0.02461213618516922
1727009983419694600,0.639694580078125,-0.10657677799463272,-0.20207373797893524,0.14286048710346222
1727009983429732600,0.649732666015625,-0.1556638926267624,-0.06464371085166931,0.10945405811071396
1727009983439770600,0.6597705078125,-0.20934976637363434,0.2075534611940384,0.16148130595684052
1727009983449807600,0.6698076171875,-0.23408573865890503,0.35036519169807434,0.03298325091600418
1727009983459846000,0.679845947265625,-0.2173277884721756,0.27679193019866943,0.05745929852128029
1727009983469883600,0.689883544921875,-0.20119436085224152,-0.04078737646341324,0.0879780575633049
1727009983479921700,0.699921630859375,-0.18982426822185516,-0.28117868304252625,0.12907595932483673
1727009983489959700,0.709959716796875,-0.20843788981437683,-0.26211896538734436,0.18614935874938965
1727009983499996700,0.71999658203125,-0.22359314560890198,-0.0985444188117981,-0.009343167766928673
1727009983510034700,0.73003466796875,-0.19040270149707794,0.10371893644332886,0.038652319461107254
1727009983520072700,0.74007275390625,-0.17422053217887878,0.12494219839572906,-0.04573393240571022
1727009983530110700,0.75011083984375,-0.18267767131328583,0.058154117316007614,0.0801670104265213
1727009983540147700,0.760147705078125,-0.17654813826084137,-0.008538360707461834,0.05582438409328461
1727009983550185700,0.770185791015625,-0.12994521856307983,-0.055650744587183,0.2198500782251358
1727009983560223500,0.780223388671875,-0.1038971021771431,-0.02899543195962906,0.1729283630847931
1727009983570261800,0.79026171875,-0.08569386601448059,0.10485956817865372,0.20513024926185608
1727009983580299500,0.800299560546875,-0.08960951119661331,0.17677398025989532,0.07574456185102463
1727009983590336500,0.81033642578125,-0.07565747946500778,0.2041187733411789,0.00595429539680481
1727009983600374800,0.820374755859375,-0.033000558614730835,0.1402958631515503,-0.026757311075925827
1727009983610412500,0.83041259765625,0.005057076457887888,0.08268209546804428,0.031246602535247803
1727009983620450000,0.840449951171875,0.011924836784601212,0.14503414928913116,0.20447777211666107
1727009983630487800,0.85048779296875,0.05114680901169777,0.22163119912147522,0.13514050841331482
1727009983640524800,0.86052490234375,0.13677409291267395,0.32835790514945984,0.3772210478782654
1727009983650563000,0.87056298828125,0.16626779735088348,0.3063599169254303,0.15834516286849976
1727009983660600800,0.880600830078125,0.1418578028678894,0.33514204621315,0.1427243947982788
1727009983670639000,0.89063916015625,0.14192411303520203,0.2688722014427185,-0.08280166983604431
1727009983680676000,0.900676025390625,0.20292727649211884,0.21060331165790558,0.02056705951690674
1727009983690713900,0.9107138671875,0.2442760467529297,0.2312968671321869,0.05433541163802147
1727009983700752100,0.920752197265625,0.23571452498435974,0.40446600317955017,0.25837215781211853
1727009983710790000,0.930789794921875,0.2578778862953186,0.5356876850128174,0.14712953567504883
1727009983720828000,0.940827880859375,0.34096744656562805,0.5191062688827515,0.16790537536144257
1727009983730865000,0.950864990234375,0.3950525224208832,0.39935219287872314,0.19503499567508698
1727009983740903000,0.96090283203125,0.3736446797847748,0.3845503330230713,0.21259935200214386
1727009983750941000,0.97094091796875,0.3434545695781708,0.4837088882923126,0.07622180134057999
1727009983760979000,0.98097900390625,0.3882388174533844,0.6562372446060181,0.12970899045467377
1727009983771017000,0.991016845703125,0.4594714641571045,0.6589800119400024,0.14986805617809296
1727009983781054000,1.001053955078125,0.4606342017650604,0.5624340772628784,0.2034897357225418
1727009983791092000,1.011092041015625,0.3930327594280243,0.568742036819458,0.3045881390571594
1727009983801129700,1.021129638671875,0.39994102716445923,0.6267991662025452,0.19888034462928772
1727009983811168000,1.03116796875,0.5006484389305115,0.6279997229576111,0.21945832669734955
1727009983821205800,1.041205810546875,0.5333667397499084,0.5822594165802002,0.18941813707351685
1727009983831243000,1.051242919921875,0.4409121572971344,0.5991116166114807,0.13338123261928558
1727009983841281000,1.061281005859375,0.39931729435920715,0.6133001446723938,0.01932309754192829
1727009983851318800,1.07131884765625,0.48303961753845215,0.6967092752456665,0.049673546105623245
1727009983861357000,1.081357177734375,0.5679103136062622,0.8494772911071777,0.22101546823978424
1727009983871393800,1.091393798828125,0.5748345255851746,0.9078028798103333,0.2742496728897095
1727009983881431800,1.101431884765625,0.5943089127540588,0.891463577747345,0.37523168325424194
1727009983891470000,1.111469970703125,0.6594095826148987,0.839821994304657,0.22387969493865967
1727009983901507800,1.1215078125,0.7182723879814148,0.9142000675201416,0.34085559844970703
1727009983911546000,1.131546142578125,0.7220362424850464,0.8896987438201904,0.2971682846546173
1727009983921582800,1.141582763671875,0.6883957386016846,0.8311957120895386,0.32665935158729553
1727009983931620900,1.151620849609375,0.6470354795455933,0.8113828897476196,0.20854681730270386
1727009983941659000,1.161658935546875,0.6425190567970276,0.8233452439308167,0.14756469428539276
1727009983951697000,1.17169677734375,0.6827180981636047,0.7979011535644531,0.20920301973819733
1727009983961735000,1.18173486328125,0.6720228791236877,0.7974146008491516,0.32339590787887573
1727009983971772000,1.19177197265625,0.607369065284729,0.7988433837890625,0.3574497401714325
1727009983981810000,1.201809814453125,0.5776662826538086,0.7578645348548889,0.3425171375274658
1727009983991848000,1.211847900390625,0.5986626148223877,0.7346732020378113,0.25964489579200745
1727009984001886000,1.221885986328125,0.5661646127700806,0.7164939045906067,0.2105061113834381
1727009984011923000,1.2319228515625,0.47366422414779663,0.6596708297729492,0.189724400639534
1727009984021961000,1.2419609375,0.41851842403411865,0.6419195532798767,0.3263229727745056
1727009984031999000,1.2519990234375,0.40522366762161255,0.6304882168769836,0.2658956050872803
1727009984042037000,1.262037109375,0.3642202913761139,0.702337920665741,0.37330353260040283
1727009984052075000,1.272074951171875,0.24541215598583221,0.7236194610595703,0.3415575921535492
1727009984062111700,1.28211181640625,0.1560569703578949,0.6566910743713379,0.3714233636856079
1727009984072150000,1.29214990234375,0.15410222113132477,0.48546868562698364,0.19627070426940918
1727009984082187800,1.302187744140625,0.14969734847545624,0.3505132794380188,0.20213311910629272
1727009984092226000,1.31222607421875,0.04904024675488472,0.23320981860160828,0.1668052226305008
1727009984102263800,1.322263916015625,-0.08243601769208908,0.15808869898319244,0.1944911926984787
1727009984112300800,1.33230078125,-0.13775813579559326,0.19358837604522705,0.2986641824245453
1727009984122339000,1.342339111328125,-0.15608814358711243,0.31634411215782166,0.26460155844688416
1727009984132376800,1.352376953125,-0.2079361528158188,0.37189793586730957,0.30512288212776184
1727009984142415000,1.3624150390625,-0.3043641448020935,0.21634188294410706,0.08853119611740112
1727009984152452900,1.372452880859375,-0.3876848816871643,-0.05344804376363754,0.14366768300533295
1727009984162489900,1.38248974609375,-0.4481511414051056,-0.28564053773880005,0.040587373077869415
1727009984172528000,1.392528076171875,-0.48684927821159363,-0.33453670144081116,0.14939402043819427
1727009984182566000,1.40256591796875,-0.5097545981407166,-0.31023162603378296,0.0907679870724678
1727009984192604000,1.41260400390625,-0.5593171119689941,-0.2936939299106598,0.18765804171562195
1727009984202642000,1.422641845703125,-0.6516904234886169,-0.3959726393222809,0.04642901569604874
1727009984212679000,1.432678955078125,-0.7348883748054504,-0.33470556139945984,0.042810048907995224
1727009984222717000,1.442717041015625,-0.7952781915664673,-0.27152764797210693,-0.10796934366226196
1727009984232755000,1.4527548828125,-0.8043654561042786,-0.23616166412830353,-0.026794862002134323
1727009984242793000,1.46279296875,-0.8025845885276794,-0.36090758442878723,0.051244545727968216
1727009984252830000,1.472829833984375,-0.8158639073371887,-0.5185299515724182,0.13787530362606049
1727009984262868000,1.482867919921875,-0.8328615427017212,-0.5900049805641174,0.09989277273416519
1727009984272905700,1.49290576171875,-0.8407642245292664,-0.5460958480834961,0.06150943413376808
1727009984282944000,1.502944091796875,-0.8586633205413818,-0.47515666484832764,-0.05679696798324585
1727009984292981800,1.512981689453125,-0.8746481537818909,-0.5135477185249329,-0.22987154126167297
1727009984303019000,1.52301904296875,-0.8545993566513062,-0.5510261058807373,-0.07444174587726593
1727009984313057000,1.53305712890625,-0.8496384024620056,-0.5542110204696655,0.023436350747942924
1727009984323094800,1.5430947265625,-0.8522775769233704,-0.40953585505485535,0.16800524294376373
1727009984333133000,1.553133056640625,-0.8247101306915283,-0.43144169449806213,0.052027247846126556
1727009984343170800,1.5631708984375,-0.7610858678817749,-0.4593292474746704,0.07293759286403656
1727009984353207800,1.573207763671875,-0.7346164584159851,-0.539763331413269,-0.14904913306236267
1727009984363246000,1.58324609375,-0.7344462871551514,-0.5553849339485168,-0.18281002342700958
1727009984373283800,1.593283935546875,-0.7218886613845825,-0.5255141258239746,-0.12275254726409912
1727009984383322000,1.603322021484375,-0.675298273563385,-0.45875558257102966,-0.06132860481739044
1727009984393360000,1.61335986328125,-0.6010584235191345,-0.4022749960422516,-0.033059947192668915
1727009984403396900,1.62339697265625,-0.5310636162757874,-0.3794647753238678,0.002412291243672371
1727009984413435000,1.633434814453125,-0.49450933933258057,-0.2969174385070801,0.03608716279268265
1727009984423473000,1.643472900390625,-0.45483702421188354,-0.23945306241512299,-0.06438618153333664
1727009984433511000,1.653510986328125,-0.3709823191165924,-0.24661724269390106,-0.018127605319023132
1727009984443549000,1.663548828125,-0.2859121859073639,-0.1886221170425415,-0.01555525790899992
1727009984453586000,1.6735859375,-0.24570217728614807,-0.04232242330908775,-0.09656648337841034
1727009984463624000,1.6836240234375,-0.1890207827091217,0.13259080052375793,-0.14953117072582245
1727009984473662000,1.693661865234375,-0.05278065800666809,0.2225736826658249,-0.04219858720898628
1727009984483700000,1.703699951171875,0.11396624892950058,0.19410556554794312,0.06427139788866043
1727009984493738000,1.713738037109375,0.22208073735237122,0.18572938442230225,0.11151640862226486
1727009984503775000,1.72377490234375,0.27664172649383545,0.3421240448951721,0.20675557851791382
1727009984513813000,1.73381298828125,0.3476594388484955,0.5838450789451599,0.16865479946136475
1727009984523851000,1.74385107421875,0.4599047601222992,0.6571906805038452,0.057376474142074585
1727009984533888800,1.753888671875,0.5458753108978271,0.7968785166740417,0.12129446864128113
1727009984543926000,1.763926025390625,0.588998556137085,0.8752691745758057,0.0580529160797596
1727009984553963800,1.7739638671875,0.6732111573219299,0.7898645401000977,0.12183882296085358
1727009984564002000,1.784001953125,0.7448363304138184,0.6977684497833252,0.23578029870986938
1727009984574040000,1.7940400390625,0.7379845976829529,0.6468434929847717,0.19597722589969635
1727009984584077800,1.804077880859375,0.7456731200218201,0.6914530396461487,0.10089945048093796
1727009984594115000,1.814114990234375,0.7918696403503418,0.7689688205718994,0.14241281151771545
1727009984604152800,1.82415283203125,0.8037446737289429,0.9546266198158264,0.026972761377692223
1727009984614190800,1.83419091796875,0.7735660076141357,0.9909777045249939,0.08666937798261642
1727009984624228400,1.844228271484375,0.7735201716423035,0.9295494556427002,0.18572619557380676
1727009984634266600,1.8542666015625,0.7844500541687012,0.8342152237892151,0.32748544216156006
1727009984644303600,1.8643037109375,0.7533605694770813,0.7917990684509277,0.2282203882932663
1727009984654341400,1.87434130859375,0.710865318775177,0.6810344457626343,0.02840500883758068
1727009984664379600,1.884379638671875,0.6469026207923889,0.4620366096496582,0.15953746438026428
1727009984674417400,1.89441748046875,0.5092323422431946,0.3745267391204834,0.15337836742401123
1727009984684455700,1.90445556640625,0.3679361939430237,0.449092298746109,0.18901945650577545
1727009984694492700,1.91449267578125,0.3166698217391968,0.5372424125671387,0.05972937494516373
1727009984704530400,1.924530517578125,0.2830423414707184,0.43917176127433777,0.04526202008128166
1727009984714568700,1.934568603515625,0.17476356029510498,0.23125559091567993,0.04198073968291283
1727009984724606500,1.9446064453125,0.041312817484140396,0.14321574568748474,0.1949034482240677
1727009984734644700,1.954644775390625,-0.02462198957800865,0.18250802159309387,0.1026368960738182
1727009984744681500,1.964681396484375,-0.0017749968683347106,0.20252354443073273,-0.019570238888263702
1727009984754719500,1.974719482421875,0.015691345557570457,0.07541805505752563,-0.0927986428141594
1727009984764757800,1.9847578125,-0.057909637689590454,-0.028864670544862747,0.025317873805761337
1727009984774795500,1.99479541015625,-0.18101878464221954,-0.09155068546533585,0.11897299438714981
1727009984784833800,2.004833740234375,-0.23303724825382233,-0.09294138848781586,0.1529139131307602
1727009984794870500,2.01487060546875,-0.21656319499015808,-0.12844638526439667,0.01079805288463831
1727009984804908500,2.024908447265625,-0.2609969675540924,-0.1693038046360016,-0.03955380246043205
1727009984814946600,2.034946533203125,-0.37247344851493835,-0.1521730273962021,-0.09180262684822083
1727009984824984600,2.044984619140625,-0.4122315049171448,-0.1665322482585907,-0.030230073258280754
1727009984835022300,2.055022216796875,-0.3493739664554596,-0.105922169983387,-0.05473941192030907
1727009984845059600,2.0650595703125,-0.2741186320781708,-0.08353111147880554,0.0097450390458107
1727009984855097600,2.07509765625,-0.3109546899795532,-0.10686812549829483,0.09401677548885345
1727009984865135600,2.085135498046875,-0.40177059173583984,-0.2678391635417938,0.22231802344322205
1727009984875173600,2.095173583984375,-0.4650936424732208,-0.3373543322086334,0.31319865584373474
1727009984885211400,2.10521142578125,-0.4964102804660797,-0.2406560182571411,0.0659228265285492
1727009984895248600,2.11524853515625,-0.5176923871040344,-0.1382335126399994,-0.2494196742773056
1727009984905286700,2.12528662109375,-0.5253974795341492,-0.30155107378959656,-0.4266810119152069
1727009984915324400,2.135324462890625,-0.5293269753456116,-0.6767574548721313,-0.11436598747968674
1727009984925362700,2.14536279296875,-0.5475823879241943,-0.8417173624038696,-0.0033814155030995607
1727009984935400400,2.155400390625,-0.5631906390190125,-0.74747633934021,0.06799742579460144
1727009984945437700,2.165437744140625,-0.5817222595214844,-0.5061957836151123,0.04573366791009903
1727009984955475500,2.175475341796875,-0.6538947224617004,-0.3545037508010864,0.08763637393712997
1727009984965513500,2.185513427734375,-0.7437908053398132,-0.3093098998069763,-0.0003251719754189253
1727009984975551500,2.195551513671875,-0.7648739814758301,-0.38078543543815613,-0.08503419905900955
1727009984985589500,2.205589599609375,-0.7207959890365601,-0.5780398845672607,-0.23750177025794983
1727009984995626500,2.21562646484375,-0.6487393975257874,-0.8356349468231201,-0.19910217821598053
1727009985005664500,2.22566455078125,-0.6250588297843933,-0.9588165283203125,-0.046536341309547424
1727009985015702500,2.23570263671875,-0.6780586242675781,-0.8159264922142029,0.017741180956363678
1727009985025740500,2.245740478515625,-0.702121913433075,-0.5952532291412354,-0.026253174990415573
1727009985035778600,2.255778564453125,-0.6330464482307434,-0.3959087133407593,-0.06777744740247726
1727009985045816600,2.265816650390625,-0.6011220812797546,-0.356884628534317,0.031127825379371643
1727009985055853600,2.275853515625,-0.6255267262458801,-0.38831284642219543,-0.05788833275437355
1727009985065891600,2.2858916015625,-0.5760590434074402,-0.4940813481807709,-0.07693339884281158
1727009985075929600,2.2959296875,-0.4775780141353607,-0.509343683719635,-0.09957239776849747
1727009985085967600,2.305967529296875,-0.43348458409309387,-0.4768320620059967,-0.0742739662528038
1727009985096004600,2.316004638671875,-0.4520590603351593,-0.27249810099601746,-0.051478102803230286
1727009985106042600,2.326042724609375,-0.42454808950424194,-0.178556427359581,-0.06728662550449371
1727009985116080600,2.33608056640625,-0.30976077914237976,-0.2811107635498047,0.0937240943312645
1727009985126118700,2.34611865234375,-0.21599514782428741,-0.5248249173164368,0.029571207240223885
1727009985136156700,2.35615673828125,-0.19318251311779022,-0.7573476433753967,0.00472577940672636
1727009985146194400,2.3661943359375,-0.16382035613059998,-0.7671310305595398,-0.10557116568088531
1727009985156231700,2.376231689453125,-0.0758574828505516,-0.5561537742614746,-0.13411173224449158
1727009985166269400,2.38626953125,0.02328694611787796,-0.24186429381370544,-0.13888119161128998
1727009985176307500,2.396307373046875,0.039673641324043274,0.03665175288915634,-0.06507886946201324
1727009985186345500,2.406345458984375,0.015482020564377308,0.18764393031597137,0.05017714947462082
1727009985196383500,2.416383544921875,0.07719758152961731,0.22701317071914673,0.2904219627380371
1727009985206420700,2.426420654296875,0.19450743496418,0.2618076503276825,0.24324993789196014
1727009985216458500,2.43645849609375,0.24005573987960815,0.1813916265964508,0.026206836104393005
1727009985226496500,2.44649658203125,0.196804940700531,0.06527647376060486,-0.1895933598279953
1727009985236534500,2.456534423828125,0.16816850006580353,0.006643521599471569,-0.055744487792253494
1727009985246572500,2.466572509765625,0.21155406534671783,0.09299971163272858,0.029524069279432297
1727009985256609500,2.476609619140625,0.2769221365451813,0.31154564023017883,0.0887860581278801
1727009985266647600,2.4866474609375,0.2959347069263458,0.3448474109172821,-0.04481407627463341
1727009985276685600,2.496685546875,0.2784348130226135,0.23198209702968597,0.06525277346372604
1727009985286723600,2.5067236328125,0.271748423576355,0.05636846646666527,0.11630237102508545
1727009985296761600,2.51676171875,0.3025641143321991,0.0193095151335001,0.2022939771413803
1727009985306798300,2.52679833984375,0.3193494975566864,0.12784583866596222,0.029314212501049042
1727009985316836600,2.536836669921875,0.2946425676345825,0.21730941534042358,-0.16739484667778015
1727009985326874400,2.546874267578125,0.23697179555892944,0.33595511317253113,-0.15922561287879944
1727009985336912600,2.55691259765625,0.22151347994804382,0.3266236484050751,-0.07652007788419724
1727009985346950700,2.56695068359375,0.27823615074157715,0.2626236379146576,0.1662779301404953
1727009985356987400,2.5769873046875,0.30428585410118103,0.20843788981437683,0.2455141544342041
1727009985367025700,2.587025634765625,0.24108637869358063,0.20697368681430817,0.16129009425640106
1727009985377063400,2.5970634765625,0.17935962975025177,0.28666985034942627,0.01865624263882637
1727009985387101700,2.607101806640625,0.1799686998128891,0.3794221580028534,-0.10573495179414749
1727009985397139500,2.617139404296875,0.19200779497623444,0.41944625973701477,-0.1656281054019928
1727009985407176400,2.627176513671875,0.1560889333486557,0.40587854385375977,-0.03289536386728287
1727009985417214700,2.637214599609375,0.11806405335664749,0.278878778219223,0.013059076853096485
1727009985427252500,2.64725244140625,0.12365669012069702,0.15864743292331696,0.15360286831855774
1727009985437290800,2.657290771484375,0.09325165301561356,0.058408983051776886,0.10867933928966522
1727009985447328500,2.66732861328125,0.019704995676875114,0.03949388116598129,0.07059667259454727
1727009985457365500,2.677365478515625,-0.05096571147441864,0.21810144186019897,0.11667468398809433
1727009985467403800,2.68740380859375,-0.10187309980392456,0.32181212306022644,-0.08289195597171783
1727009985477441500,2.697441650390625,-0.11465094983577728,0.2852613031864166,-0.2304297387599945
1727009985487479600,2.7074794921875,-0.09946214407682419,0.09289132803678513,-0.10940718650817871
1727009985497517600,2.717517578125,-0.14250467717647552,-0.059122975915670395,0.06154485419392586
1727009985507555600,2.7275556640625,-0.23304709792137146,0.0337691493332386,0.14840039610862732
1727009985517592600,2.737592529296875,-0.27120059728622437,0.25780677795410156,0.01920165680348873
1727009985527630600,2.747630615234375,-0.2330303192138672,0.46635305881500244,0.03357527032494545
1727009985537668400,2.75766845703125,-0.24651549756526947,0.4081672430038452,-0.021943116560578346
1727009985547706600,2.76770654296875,-0.31615662574768066,0.09332728385925293,-0.05254736542701721
1727009985557744400,2.777744384765625,-0.3309726119041443,-0.24978214502334595,-0.0046698530204594135
1727009985567781400,2.787781494140625,-0.3081873953342438,-0.3739648163318634,0.073672354221344
1727009985577819600,2.797819580078125,-0.2931615710258484,-0.3177281618118286,-0.047144610434770584
1727009985587857400,2.807857421875,-0.2612465023994446,-0.15095995366573334,-0.19344402849674225
1727009985597895700,2.817895751953125,-0.2432592511177063,-0.039076827466487885,0.010026801377534866
1727009985607933400,2.827933349609375,-0.28463491797447205,0.0009233179152943194,0.001210406655445695
1727009985617970400,2.837970458984375,-0.3121775984764099,-0.08493193238973618,0.049008287489414215
1727009985628009000,2.848009033203125,-0.23728445172309875,-0.20259837806224823,0.06665892153978348
1727009985638047000,2.858046875,-0.17315234243869781,-0.34273871779441833,0.026019616052508354
1727009985648085000,2.8680849609375,-0.1846979409456253,-0.36870425939559937,0.041004955768585205
1727009985658122800,2.878122802734375,-0.2106800079345703,-0.276003897190094,-0.20523357391357422
1727009985668160000,2.888159912109375,-0.1795002520084381,-0.11836845427751541,-0.1536252498626709
1727009985678197800,2.89819775390625,-0.10675733536481857,-0.014394652098417282,-0.046840742230415344
1727009985688236000,2.908236083984375,-0.09328174591064453,0.041179925203323364,0.02684226632118225
1727009985698273800,2.918273681640625,-0.10754696279764175,0.07425186038017273,0.16411224007606506
1727009985708311800,2.928311767578125,-0.09053043276071548,0.053821686655282974,0.11518171429634094
1727009985718349000,2.93834912109375,-0.020195549353957176,-0.0076182386837899685,0.009459547698497772
1727009985728386800,2.94838671875,0.013887319713830948,0.01985759474337101,0.005662412848323584
1727009985738424800,2.9584248046875,0.017050622031092644,0.05227731913328171,-0.15445108711719513
1727009985748462800,2.968462890625,0.04578506574034691,0.06851620972156525,-0.09995003044605255
1727009985758500900,2.9785009765625,0.08610053360462189,0.016868196427822113,-0.15439383685588837
1727009985768539000,2.988538818359375,0.09683040529489517,-0.008117581717669964,-0.06100369989871979
1727009985778576000,2.998575927734375,0.1319684237241745,-0.004570783115923405,0.11897086352109909
1727009985788614000,3.00861376953125,0.18966767191886902,-0.004531634971499443,0.2109236866235733
1727009985798652000,3.01865185546875,0.21086616814136505,0.030107302591204643,0.07826151698827744
1727009985808690000,3.02868994140625,0.19126290082931519,0.07589556276798248,0.023561252281069756
1727009985818728000,3.03872802734375,0.20341943204402924,0.12665221095085144,0.12152323871850967
1727009985828765000,3.048764892578125,0.2370181381702423,0.14322613179683685,-0.017184846103191376
1727009985838802700,3.058802734375,0.24347257614135742,0.19858206808567047,-0.0434260368347168
1727009985848841000,3.068841064453125,0.23762507736682892,0.23046515882015228,-0.02448510378599167
1727009985858879000,3.07887890625,0.24908199906349182,0.24948839843273163,0.12231046706438065
1727009985868917000,3.0889169921875,0.267488956451416,0.2233542650938034,0.07490965723991394
1727009985878955000,3.098955078125,0.3004125654697418,0.1578514128923416,-0.025122663006186485
1727009985888991700,3.10899169921875,0.3533226549625397,0.0552360899746418,0.08136436343193054
1727009985899030000,3.119030029296875,0.37267449498176575,0.06367245316505432,0.07464494556188583
1727009985909067800,3.12906787109375,0.34410199522972107,0.2781655788421631,0.026999926194548607
1727009985919105800,3.139105712890625,0.3561099171638489,0.48013943433761597,-0.1756778210401535
1727009985929143800,3.149143798828125,0.41806861758232117,0.5552911758422852,0.023909326642751694
1727009985939180800,3.159180908203125,0.44083118438720703,0.4011591374874115,0.08525204658508301
1727009985949219000,3.169218994140625,0.44722864031791687,0.20959104597568512,0.22065940499305725
1727009985959256800,3.1792568359375,0.4671943485736847,0.09180156141519547,0.2693369388580322
1727009985969294800,3.189294921875,0.4681432247161865,0.15573127567768097,0.09849408268928528
1727009985979332900,3.199332763671875,0.4461132884025574,0.36521977186203003,-0.1335330307483673
1727009985989369900,3.209369873046875,0.44730985164642334,0.549387514591217,-0.20426231622695923
1727009985999407900,3.219407958984375,0.46043577790260315,0.553956925868988,-0.161353200674057
1727009986009446000,3.22944580078125,0.4817008674144745,0.40395253896713257,-0.01625407114624977
1727009986019484000,3.23948388671875,0.5087867975234985,0.18973317742347717,0.19993388652801514
1727009986029522000,3.24952197265625,0.5279282927513123,0.06148386746644974,0.30768832564353943
1727009986039559000,3.259558837890625,0.49045440554618835,0.18122944235801697,0.24397724866867065
1727009986049596700,3.2695966796875,0.42606449127197266,0.3875133693218231,-0.0454295314848423
1727009986059635000,3.279635009765625,0.41249674558639526,0.4637679159641266,-0.12335815280675888
1727009986069672700,3.289672607421875,0.4130869209766388,0.416998028755188,-0.061042848974466324
1727009986079711000,3.2997109375,0.3679870665073395,0.23549294471740723,-0.027419906109571457
1727009986089748700,3.309748779296875,0.31778648495674133,0.04416293278336525,-0.03520539030432701
1727009986099785700,3.31978564453125,0.33618441224098206,0.05023574084043503,0.04668867588043213
1727009986109824000,3.329823974609375,0.3723661005496979,0.07231307774782181,0.038298118859529495
1727009986119861800,3.33986181640625,0.3494293689727783,0.13766145706176758,0.03146471455693245
1727009986129900000,3.349900146484375,0.293980211019516,0.20808635652065277,0.05681907385587692
1727009986139937800,3.359937744140625,0.2751215696334839,0.2692655622959137,-0.03882169723510742
1727009986149974800,3.369974853515625,0.31580084562301636,0.2781437337398529,-0.07292267680168152
1727009986160013000,3.380012939453125,0.3644181787967682,0.22310392558574677,-0.0073236930184066296
1727009986170050800,3.39005078125,0.37597495317459106,0.25273504853248596,0.0372413769364357
1727009986180089000,3.400089111328125,0.38232287764549255,0.15972894430160522,0.045942723751068115
1727009986190126800,3.410126953125,0.4452192783355713,0.1488848179578781,0.2625237703323364
1727009986200164900,3.420164794921875,0.45176613330841064,0.15476959943771362,0.3503361642360687
1727009986210201900,3.430201904296875,0.35734906792640686,0.2458702176809311,0.10428246110677719
1727009986220240000,3.440239990234375,0.3134242296218872,0.472359299659729,-0.08440729230642319
1727009986230278000,3.45027783203125,0.36911866068840027,0.5405998826026917,-0.10774217545986176
1727009986240316000,3.46031591796875,0.44760146737098694,0.561348021030426,0.09043349325656891
1727009986250354000,3.47035400390625,0.47944143414497375,0.4470134377479553,0.10486969351768494
1727009986260391000,3.480390869140625,0.47462403774261475,0.19267864525318146,0.17085003852844238
1727009986270429000,3.490428955078125,0.45773160457611084,0.05615568161010742,0.28132009506225586
1727009986280466700,3.500466796875,0.4142914414405823,0.2837560772895813,0.2979499399662018
1727009986290505000,3.5105048828125,0.35851234197616577,0.7875390648841858,0.0191904716193676
1727009986300542700,3.520542724609375,0.359054833650589,1.0288995504379272,-0.01973695307970047
1727009986310579700,3.530579833984375,0.4057552218437195,0.8669116497039795,0.10992889851331711
1727009986320618000,3.540617919921875,0.37001028656959534,0.40044674277305603,0.2703457474708557
1727009986330655700,3.55065576171875,0.25607597827911377,0.060975734144449234,0.2977334260940552
1727009986340694000,3.560694091796875,0.18682873249053955,-0.0356203131377697,0.2225143015384674
1727009986350731800,3.570731689453125,0.1988915205001831,0.05688219144940376,-0.004662129562348127
1727009986360770000,3.58077001953125,0.21736720204353333,0.2714591920375824,-0.1015188992023468
1727009986370807000,3.59080712890625,0.15550783276557922,0.4572852551937103,-0.12916012108325958
1727009986380844800,3.6008447265625,0.0882750004529953,0.3535836338996887,-0.06536143273115158
1727009986390883000,3.610883056640625,0.10148827731609344,0.15410088002681732,0.11484935134649277
1727009986400920800,3.6209208984375,0.12776541709899902,0.0038690404035151005,0.37391313910484314
1727009986410959000,3.630958984375,0.07809187471866608,-0.010276339948177338,0.29423004388809204
1727009986420995800,3.640995849609375,0.019356386736035347,0.15372590720653534,0.099309541285038
1727009986431033900,3.651033935546875,-0.009238239377737045,0.21687239408493042,-0.12464845180511475
1727009986441071900,3.66107177734375,-0.03960200399160385,0.17312544584274292,-0.11140375584363937
1727009986451110000,3.67110986328125,-0.09135947376489639,0.1328592449426651,-0.10386674106121063
1727009986461148000,3.68114794921875,-0.12733691930770874,0.0659172311425209,0.09669432044029236
1727009986471186000,3.69118603515625,-0.13058410584926605,0.10453226417303085,0.11932665854692459
1727009986481223000,3.701222900390625,-0.13625077903270721,0.20067903399467468,0.18720237910747528
1727009986491261000,3.711260986328125,-0.19647683203220367,0.19715194404125214,0.05644889548420906
1727009986501299000,3.721298828125,-0.2478169947862625,0.06424609571695328,0.12378638982772827
1727009986511336700,3.731336669921875,-0.28345435857772827,-0.050391536206007004,0.10334130376577377
1727009986521375000,3.741375,-0.33471912145614624,-0.07825858891010284,0.010746387764811516
1727009986531412700,3.751412841796875,-0.3784559667110443,-0.03494866192340851,-0.14507436752319336
1727009986541449700,3.76144970703125,-0.3911621570587158,0.046395193785429,-0.07769479602575302
1727009986551488000,3.771488037109375,-0.437170147895813,0.09497391432523727,-0.008809204213321209
1727009986561525800,3.78152587890625,-0.47965049743652344,-0.023927703499794006,-0.05630588158965111
1727009986571564000,3.79156396484375,-0.46110981702804565,-0.23476403951644897,0.22662222385406494
1727009986581601800,3.801601806640625,-0.4796139895915985,-0.2844511568546295,0.23500078916549683
1727009986591638800,3.811638671875,-0.5663073658943176,-0.2058945745229721,-0.027579696848988533
1727009986601677000,3.821677001953125,-0.5917996764183044,-0.06288309395313263,-0.1528491973876953
1727009986611714800,3.83171484375,-0.5564848184585571,-0.02906573936343193,-0.1273249387741089
1727009986621753000,3.841753173828125,-0.5548022389411926,-0.21458686888217926,-0.1489974707365036
1727009986631791000,3.851791015625,-0.5903154611587524,-0.3034730553627014,-0.0025600967928767204
1727009986641829000,3.8618291015625,-0.6479012966156006,-0.26454564929008484,0.18386517465114594
1727009986651865900,3.871865966796875,-0.6598072052001953,-0.1830827295780182,-0.07655416429042816
1727009986661904100,3.881904052734375,-0.6264721751213074,-0.1275627464056015,-0.052447762340307236
1727009986671942000,3.89194189453125,-0.6565046310424805,-0.12998409569263458,-0.18672087788581848
1727009986681980000,3.90197998046875,-0.7218554019927979,-0.20053710043430328,-0.19674554467201233
1727009986692018000,3.912017822265625,-0.7195879817008972,-0.31110328435897827,-0.23993216454982758
1727009986702055000,3.922054931640625,-0.6490480303764343,-0.3946698307991028,0.01224468182772398
1727009986712093200,3.93209326171875,-0.6129467487335205,-0.3445110321044922,0.11311163753271103
1727009986722131000,3.942130859375,-0.6567136645317078,-0.19671626389026642,0.22712182998657227
1727009986732169000,3.9521689453125,-0.6968890428543091,-0.15707004070281982,0.027345070615410805
1727009986742207000,3.96220703125,-0.6532619595527649,-0.19927528500556946,-0.10361906886100769
1727009986752245000,3.972244873046875,-0.620309054851532,-0.299094557762146,-0.16704225540161133
1727009986762282000,3.982281982421875,-0.6758610010147095,-0.3282873332500458,-0.22387491166591644
1727009986772320000,3.992320068359375,-0.6996739506721497,-0.41445204615592957,-0.18117325007915497
1727009986782358000,4.00235791015625,-0.6238777041435242,-0.20920595526695251,0.08102800697088242
1727009986792396000,4.01239599609375,-0.5972940325737,-0.046724360436201096,0.01207051146775484
1727009986802434000,4.02243408203125,-0.6331934332847595,-0.012656672857701778,0.022433403879404068
1727009986812471000,4.032470947265625,-0.65108722448349,-0.04903864860534668,0.034029074013233185
1727009986822509000,4.042509033203125,-0.6493303179740906,-0.2811738848686218,0.04424149543046951
1727009986832547000,4.052547119140625,-0.6220521330833435,-0.40506839752197266,-0.02371837943792343
1727009986842585000,4.062585205078125,-0.5778148770332336,-0.35386672616004944,-0.03062448836863041
1727009986852623000,4.072623046875,-0.545137882232666,-0.21278071403503418,-0.16020485758781433
1727009986862661000,4.0826611328125,-0.49645423889160156,-0.20286603271961212,-0.08199899643659592
1727009986872698000,4.092697998046875,-0.47744593024253845,-0.27937811613082886,0.14175260066986084
1727009986882735900,4.10273583984375,-0.5168524384498596,-0.40510115027427673,0.24720872938632965
1727009986892774100,4.112774169921875,-0.5366796851158142,-0.45315176248550415,0.020904749631881714
1727009986902812000,4.12281201171875,-0.4978023171424866,-0.323940247297287,-0.10370215773582458
1727009986912850000,4.132849853515625,-0.44991523027420044,-0.269727885723114,-0.1883224993944168
1727009986922887200,4.14288720703125,-0.3898654878139496,-0.25384238362312317,-0.1934078186750412
1727009986932925000,4.152925048828125,-0.35790807008743286,-0.3323681056499481,-0.09029847383499146
1727009986942963200,4.162963134765625,-0.347846120595932,-0.4314770996570587,0.09100740402936935
1727009986953001000,4.1730009765625,-0.3150649964809418,-0.5766433477401733,-0.01016741618514061
1727009986963039000,4.1830390625,-0.2877092659473419,-0.3763238191604614,0.2452840656042099
1727009986973077000,4.193076904296875,-0.2809259295463562,-0.1562063843011856,0.015420234762132168
1727009986983114000,4.203114013671875,-0.2354455441236496,0.05278651416301727,-0.015032744966447353
1727009986993152000,4.213152099609375,-0.20525488257408142,0.005846970248967409,-0.3398371934890747
1727009987003190000,4.22318994140625,-0.21653789281845093,-0.2111724317073822,-0.10349922627210617
1727009987013228000,4.23322802734375,-0.20687808096408844,-0.4147908091545105,0.008935172110795975
1727009987023266000,4.24326611328125,-0.1530127227306366,-0.4986729025840759,0.21669821441173553
1727009987033304000,4.253303955078125,-0.08306212723255157,-0.3926444947719574,-0.0331057570874691
1727009987043340800,4.2633408203125,-0.05849180370569229,-0.22894130647182465,0.018003234639763832
1727009987053379000,4.273379150390625,-0.09382449835538864,-0.016712667420506477,-0.15636004507541656
1727009987063416800,4.283416748046875,-0.06253848224878311,-0.03730342909693718,-0.04578852653503418
1727009987073455000,4.293455078125,0.040174052119255066,-0.1558697521686554,0.11624778062105179
1727009987083493000,4.3034931640625,0.06557155400514603,-0.27477189898490906,0.2397337704896927
1727009987093529900,4.31352978515625,0.006121275946497917,-0.2374975085258484,-0.012810070998966694
1727009987103568100,4.323568115234375,-0.0005257080192677677,-0.04579518362879753,-0.06829223781824112
1727009987113606000,4.33360595703125,0.07329445332288742,-0.011834821663796902,-0.159967303276062
1727009987123644200,4.34364404296875,0.1450972706079483,-0.07274051755666733,0.11545761674642563
1727009987133682000,4.353681884765625,0.15045368671417236,-0.2729593515396118,0.1669919192790985
1727009987143720000,4.363719970703125,0.12450357526540756,-0.35632163286209106,0.24781858921051025
1727009987153757200,4.373757080078125,0.09123137593269348,-0.31937000155448914,-0.043774910271167755
1727009987163795000,4.383794921875,0.0867500752210617,-0.13548539578914642,-0.02636050060391426
1727009987173833000,4.3938330078125,0.14171744883060455,0.008884038776159286,-0.1901630163192749
1727009987183871000,4.40387109375,0.2029605656862259,-0.05700842663645744,-0.10040942579507828
1727009987193909000,4.413908935546875,0.22587600350379944,-0.26392725110054016,0.04898139089345932
1727009987203946200,4.4239462890625,0.19911816716194153,-0.4754272401332855,0.26211604475975037
1727009987213984000,4.43398388671875,0.17082446813583374,-0.40841519832611084,0.06120263785123825
1727009987224022000,4.44402197265625,0.20023322105407715,-0.3106313645839691,0.0456516407430172
1727009987234060000,4.45406005859375,0.23579281568527222,-0.10766121745109558,-0.05651813745498657
1727009987244098000,4.46409814453125,0.19931790232658386,0.09291023015975952,-0.21949879825115204
1727009987254136000,4.474135986328125,0.15929432213306427,0.03803233802318573,-0.28229373693466187
1727009987264173000,4.484173095703125,0.20441146194934845,-0.027036678045988083,-0.021641645580530167
1727009987274210800,4.4942109375,0.26704156398773193,-0.13138705492019653,0.18449661135673523
1727009987284249000,4.5042490234375,0.28500083088874817,-0.12216026335954666,0.19140058755874634
1727009987294286800,4.514286865234375,0.2716618776321411,-0.07955154776573181,0.2852349281311035
1727009987304325000,4.5243251953125,0.19917382299900055,0.07377169281244278,0.07555734366178513
1727009987314363000,4.53436279296875,0.16825345158576965,0.21201691031455994,-0.16164802014827728
1727009987324399900,4.54439990234375,0.2287767231464386,0.0919666737318039,-0.11566375195980072
1727009987334438100,4.554438232421875,0.2853609025478363,-0.19782093167304993,0.009227054193615913
1727009987344476000,4.564475830078125,0.21900904178619385,-0.3830839991569519,0.059353604912757874
1727009987354514200,4.57451416015625,0.12814359366893768,-0.33304932713508606,0.06475795805454254
1727009987364552000,4.584552001953125,0.15816088020801544,-0.03504373878240585,0.029042303562164307
1727009987374589000,4.5945888671875,0.2511850893497467,0.1193959042429924,0.055538360029459
1727009987384627200,4.604627197265625,0.2573356628417969,-0.006474144756793976,-0.0007403587806038558
1727009987394665000,4.6146650390625,0.15679679811000824,-0.1480957269668579,0.10322998464107513
1727009987404703000,4.624702880859375,0.06955750286579132,-0.20643386244773865,-0.08776739984750748
1727009987414741000,4.634740966796875,0.12526391446590424,-0.228541299700737,-0.038894135504961014
1727009987424779000,4.644779052734375,0.23458774387836456,-0.25492045283317566,0.11997140944004059
1727009987434816000,4.65481591796875,0.22538810968399048,-0.3062496781349182,0.16667766869068146
1727009987444854000,4.66485400390625,0.0882670134305954,-0.12548495829105377,0.0009558085002936423
1727009987454892000,4.67489208984375,0.044436708092689514,0.18430565297603607,-0.003406449221074581
1727009987464930000,4.684929931640625,0.17261917889118195,0.1538476198911667,-0.06911195814609528
1727009987474968000,4.694968017578125,0.2845534384250641,0.14774231612682343,0.021373998373746872
1727009987485006000,4.705006103515625,0.2082730382680893,-0.029350697994232178,0.015664979815483093
1727009987495043000,4.71504296875,0.09841977804899216,-0.19402486085891724,-0.007214237004518509
1727009987505080800,4.725080810546875,0.1324099749326706,-0.21704202890396118,0.08311033248901367
1727009987515119000,4.735119140625,0.19223175942897797,-0.18409261107444763,-0.04704047739505768
1727009987525156900,4.745156982421875,0.16000618040561676,-0.12456190586090088,-0.10495038330554962
1727009987535195100,4.755195068359375,0.09213898330926895,0.061142448335886,0.06537740677595139
1727009987545233000,4.76523291015625,0.1055314838886261,0.13706891238689423,0.009286176413297653
1727009987555270000,4.775269775390625,0.23319490253925323,0.08966836333274841,0.03954022005200386
1727009987565308200,4.78530810546875,0.3012272119522095,0.04771825298666954,0.1060505360364914
1727009987575346000,4.795345947265625,0.21719756722450256,-0.15577015280723572,-0.007598265074193478
1727009987585384200,4.80538427734375,0.16736209392547607,-0.1590128242969513,0.056116797029972076
1727009987595422000,4.815421875,0.17633135616779327,0.03008865937590599,-0.02099662832915783
1727009987605459000,4.825458984375,0.1938759982585907,0.22663579881191254,-0.07376157492399216
1727009987615497200,4.835497314453125,0.221500426530838,0.4606610834598541,-0.0382256805896759
1727009987625534500,4.845534423828125,0.21856722235679626,0.38805878162384033,-0.0422917976975441
1727009987635572700,4.85557275390625,0.18963651359081268,0.16057422757148743,0.05054866150021553
1727009987645610500,4.865610595703125,0.18809694051742554,0.04849483072757721,0.26388809084892273
1727009987655648800,4.875648681640625,0.2184726893901825,0.026699787005782127,0.1901496946811676
1727009987665685800,4.885685791015625,0.23666313290596008,0.1638440638780594,-0.11563152074813843
1727009987675723500,4.8957236328125,0.22699879109859467,0.38003653287887573,-0.0845407173037529
1727009987685761800,4.90576171875,0.22125355899333954,0.45123055577278137,-0.14133982360363007
1727009987695799600,4.915799560546875,0.26027578115463257,0.30162695050239563,-0.12854360044002533
1727009987705837800,4.925837890625,0.29442283511161804,0.14442110061645508,0.16504381597042084
1727009987715874600,4.93587451171875,0.24821940064430237,0.09272860735654831,0.31267136335372925
1727009987725912600,4.94591259765625,0.1792733520269394,0.3091519773006439,0.24767744541168213
1727009987735950600,4.95595068359375,0.18841545283794403,0.5153919458389282,0.0185859352350235
1727009987745988600,4.965988525390625,0.2220786064863205,0.4991490840911865,-0.0653771385550499
1727009987756026600,4.976026611328125,0.17034803330898285,0.32021021842956543,-0.10743751376867294
1727009987766064600,4.986064697265625,0.08335480839014053,0.05080405995249748,-0.08313776552677155
1727009987776101600,4.9961015625,0.06777771562337875,-0.14286766946315765,-0.028606077656149864
1727009987786139600,5.0061396484375,0.07217992097139359,0.013773069716989994,0.07168084383010864
1727009987796177700,5.016177734375,0.027152525261044502,0.2122560739517212,-0.04814516007900238
1727009987806215400,5.02621533203125,-0.02225337363779545,0.5009616613388062,0.14520619809627533
1727009987816253700,5.036253662109375,-0.06474437564611435,0.46621882915496826,0.11064795404672623
1727009987826291500,5.04629150390625,-0.09641522169113159,0.22305864095687866,0.08125144988298416
1727009987836328700,5.05632861328125,-0.11889336258172989,0.013135243207216263,0.04909351095557213
1727009987846366700,5.06636669921875,-0.16477110981941223,-0.16590455174446106,0.005705822724848986
1727009987856404500,5.076404541015625,-0.20808155834674835,-0.1742626130580902,-0.24324168264865875
1727009987866442800,5.08644287109375,-0.21091996133327484,0.08550851047039032,-0.19268396496772766
1727009987876480500,5.09648046875,-0.21953555941581726,0.2746107876300812,-0.18495973944664001
1727009987886517500,5.106517578125,-0.20299997925758362,0.2614941895008087,-0.10887908190488815
1727009987896555800,5.1165556640625,-0.15479277074337006,0.001430916483514011,0.26132693886756897
1727009987906593500,5.126593505859375,-0.16293086111545563,-0.26215359568595886,0.4178086817264557
1727009987916631800,5.1366318359375,-0.24287442862987518,-0.24533838033676147,0.22910243272781372
1727009987926669600,5.146669677734375,-0.2861854135990143,-0.007764179725199938,-0.21630807220935822
1727009987936707800,5.156707763671875,-0.19808298349380493,0.17178693413734436,-0.3896838426589966
1727009987946744600,5.16674462890625,-0.08993148803710938,0.12614941596984863,-0.15885968506336212
1727009987956782600,5.176782470703125,-0.08438731729984283,-0.1075538918375969,0.2822452783584595
1727009987966820600,5.186820556640625,-0.14094141125679016,-0.2552402913570404,0.35126855969429016
1727009987976858600,5.196858642578125,-0.1797090470790863,-0.07734885066747665,0.19853359460830688
1727009987986896600,5.206896728515625,-0.14703312516212463,0.11849389225244522,-0.14348739385604858
1727009987996933600,5.21693359375,-0.047559261322021484,0.19588668644428253,-0.10385209321975708
1727009988006971600,5.2269716796875,-0.021316474303603172,0.12906743586063385,0.006234992761164904
1727009988017009700,5.237009765625,-0.07786337286233902,-0.1046726182103157,-0.06947015225887299
1727009988027047700,5.247047607421875,-0.11761903762817383,-0.14710156619548798,-0.04964824765920639
1727009988037085400,5.25708544921875,-0.07188963890075684,0.03813540190458298,-0.04019562155008316
1727009988047123700,5.267123779296875,0.0137200728058815,0.18368461728096008,0.14202344417572021
1727009988057160700,5.27716064453125,0.052685849368572235,0.3208286166191101,0.20536141097545624
1727009988067198700,5.28719873046875,0.004515389446169138,0.19212231040000916,0.18703193962574005
1727009988077236700,5.29723681640625,-0.06034563109278679,0.04526415094733238,0.11096060276031494
1727009988087274500,5.3072744140625,-0.07667586952447891,0.02197267673909664,0.0010538127971813083
1727009988097312800,5.317312744140625,-0.04717576876282692,0.03713671490550041,-0.1837320178747177
1727009988107349800,5.327349853515625,-0.028745627030730247,0.09729485958814621,-0.15123479068279266
1727009988117387500,5.337387451171875,-0.054913051426410675,0.10223129391670227,-0.008496016263961792
1727009988127425800,5.34742578125,-0.0931195542216301,0.043049998581409454,-0.07011144608259201
1727009988137463600,5.357463623046875,-0.04442339017987251,-0.027900073677301407,0.14737160503864288
1727009988147501800,5.367501708984375,0.03424185886979103,-0.07381509989500046,0.19375748932361603
1727009988157539600,5.37753955078125,0.03350363299250603,-0.006235259119421244,0.2409476339817047
1727009988167576600,5.38757666015625,-0.042269960045814514,0.04214132949709892,-0.06275765597820282
1727009988177614600,5.397614501953125,-0.09722349047660828,0.008979113772511482,-0.21178175508975983
1727009988187652600,5.407652587890625,-0.0758548155426979,-0.14197364449501038,-0.2164425551891327
1727009988197690600,5.417690673828125,-0.028370121493935585,-0.22519263625144958,-0.10406328737735748
1727009988207728600,5.427728759765625,-0.02737969346344471,-0.20054535567760468,-0.11639638245105743
1727009988217766400,5.437766357421875,-0.03713405132293701,-0.10882022231817245,0.03684057295322418
1727009988227803600,5.4478037109375,-0.003808053908869624,-0.09468735754489899,0.15428172051906586
1727009988237841700,5.457841552734375,0.04237701743841171,-0.05700123310089111,0.2086821049451828
1727009988247879700,5.467879638671875,0.02611282654106617,0.0099636847153306,0.04008430242538452
1727009988257917700,5.477917724609375,-0.041243575513362885,0.07020065933465958,0.025358352810144424
1727009988267955500,5.48795556640625,-0.04874756559729576,0.0023971113841980696,-0.09470147639513016
1727009988277992700,5.49799267578125,-0.028207402676343918,-0.16293032467365265,-0.23945653438568115
1727009988288030700,5.50803076171875,-0.06353104114532471,-0.2432965487241745,-0.18905460834503174
1727009988298068500,5.518068359375,-0.10859864950180054,-0.29400020837783813,-0.07215674966573715
1727009988308106800,5.528106689453125,-0.09785119444131851,-0.29599517583847046,0.15849269926548004
1727009988318144500,5.53814453125,-0.09836757928133011,-0.21106456220149994,0.13744787871837616
1727009988328182800,5.548182861328125,-0.13475382328033447,-0.047211986035108566,0.1355612874031067
1727009988338219500,5.558219482421875,-0.15008670091629028,-0.05411490052938461,0.0019259981345385313
1727009988348257500,5.568257568359375,-0.153264120221138,-0.2570360600948334,-0.10609793663024902
1727009988358295600,5.578295654296875,-0.1887906938791275,-0.4191935360431671,-0.20282448828220367
1727009988368333600,5.58833349609375,-0.20411744713783264,-0.4856433868408203,-0.1878221035003662
1727009988378371800,5.598371826171875,-0.18920986354351044,-0.4342137575149536,-0.10064858198165894
1727009988388408600,5.60840869140625,-0.1737387627363205,-0.3389461040496826,0.06208467483520508
1727009988398446600,5.618446533203125,-0.22171056270599365,-0.1934663951396942,0.1866050362586975
1727009988408484600,5.628484619140625,-0.3122180700302124,-0.14663977921009064,0.1603230983018875
1727009988418522600,5.638522705078125,-0.32106804847717285,-0.23305562138557434,0.012653477489948273
1727009988428560600,5.648560546875,-0.2519153356552124,-0.2824910879135132,-0.1046752780675888
1727009988438598700,5.6585986328125,-0.1877448707818985,-0.4271364212036133,-0.2223055064678192
1727009988448635600,5.6686357421875,-0.16858422756195068,-0.48673316836357117,-0.21870358288288116
1727009988458673700,5.678673583984375,-0.1535584032535553,-0.4542276859283447,-0.058643873780965805
1727009988468711700,5.688711669921875,-0.08815542608499527,-0.37937819957733154,0.04007178544998169
1727009988478749700,5.698749755859375,-0.026740800589323044,-0.16238944232463837,0.19558414816856384
1727009988488787700,5.70878759765625,-0.041730668395757675,-0.027776503935456276,0.25949177145957947
1727009988498824700,5.71882470703125,-0.06804642826318741,0.0194927416741848,0.16266535222530365
1727009988508862700,5.72886279296875,-0.048655420541763306,0.004535363521426916,0.061946190893650055
1727009988518900700,5.738900634765625,-0.020330039784312248,-0.034810978919267654,-0.178575336933136
1727009988528938500,5.7489384765625,0.027763720601797104,-0.17683815956115723,-0.40160709619522095
1727009988538976800,5.758976806640625,0.07134262472391129,-0.29016897082328796,-0.21391494572162628
1727009988549014500,5.7690146484375,0.1065693199634552,-0.29815152287483215,0.01543701346963644
1727009988559051800,5.7790517578125,0.12118314951658249,-0.1910000443458557,0.27164536714553833
1727009988569089500,5.789089599609375,0.11512313038110733,0.030073480680584908,0.377360075712204
1727009988579127600,5.79912744140625,0.11634045839309692,0.18810252845287323,0.13760580122470856
1727009988589165600,5.80916552734375,0.12902721762657166,0.2510383427143097,0.028615133836865425
1727009988599203600,5.81920361328125,0.13494157791137695,0.11544323712587357,-0.05356469005346298
1727009988609240600,5.829240478515625,0.1287076473236084,-0.02702655829489231,-0.09539443254470825
1727009988619278600,5.839278564453125,0.12328571826219559,-0.10481403023004532,-0.06228521093726158
1727009988629320400,5.849320556640625,0.141121968626976,-0.11953545361757278,-0.09999184310436249
1727009988639358200,5.859358154296875,0.15647882223129272,-0.0022248048335313797,-0.12135972082614899
1727009988649396500,5.869396484375,0.16740018129348755,0.09260929375886917,-0.028811408206820488
1727009988659434200,5.879434326171875,0.17963527143001556,0.12495151907205582,0.035776905715465546
1727009988669471500,5.889471435546875,0.1981021612882614,0.09252087771892548,0.17208121716976166
1727009988679509500,5.899509521484375,0.21859918534755707,0.06241597235202789,0.3128575086593628
1727009988689547300,5.90954736328125,0.1949622929096222,0.15851746499538422,0.1985090970993042
1727009988699585500,5.91958544921875,0.14259763062000275,0.2692303955554962,0.038773227483034134
1727009988709623300,5.929623291015625,0.11958498507738113,0.21791422367095947,-0.1352134793996811
1727009988719660300,5.939660400390625,0.13377058506011963,0.11930375546216965,-0.1445625126361847
1727009988729698300,5.9496982421875,0.1105736494064331,0.022702382877469063,0.004417917691171169
1727009988739736300,5.959736328125,0.08256784826517105,0.11303707212209702,0.06558220833539963
1727009988749774300,5.9697744140625,0.10053779184818268,0.19194573163986206,-0.029738720506429672
1727009988759812400,5.979812255859375,0.14073528349399567,0.0871194526553154,-0.11697988212108612
1727009988769850400,5.989850341796875,0.1183767095208168,0.012003665789961815,0.11956394463777542
1727009988779887400,5.999887451171875,0.042095523327589035,0.0452100895345211,0.20988771319389343
1727009988789925400,6.00992529296875,-0.0006580671179108322,0.2638375163078308,0.07203558087348938
1727009988799963400,6.01996337890625,0.008784969337284565,0.361926794052124,-0.22203172743320465
1727009988810001400,6.03000146484375,-0.007283213082700968,0.23384632170200348,-0.28961610794067383
1727009988820039200,6.0400390625,-0.05778100714087486,0.13065308332443237,-0.10798825323581696
1727009988830076400,6.050076416015625,-0.08232097327709198,0.03593243286013603,0.22074036300182343
1727009988840114400,6.060114501953125,-0.038109034299850464,0.08185625076293945,0.3141760528087616
1727009988850152400,6.07015234375,-0.037510890513658524,0.19652877748012543,0.11747762560844421
1727009988860190500,6.0801904296875,-0.134325310587883,0.15795421600341797,-0.12534913420677185
1727009988870228200,6.090228271484375,-0.22383415699005127,0.06443944573402405,-0.1406812220811844
1727009988880266500,6.1002666015625,-0.20913191139698029,-0.012440690770745277,-0.10575652122497559
1727009988890303500,6.110303466796875,-0.12028646469116211,-0.07252160459756851,-0.07184462994337082
1727009988900341200,6.12034130859375,-0.09206760674715042,0.05163336545228958,-0.11892984807491302
1727009988910379500,6.130379638671875,-0.16000351309776306,0.09397523105144501,-0.15173546969890594
1727009988920417300,6.140417236328125,-0.19306932389736176,0.11081892251968384,0.22565390169620514
1727009988930455600,6.15045556640625,-0.16853708028793335,0.13126029074192047,0.35783615708351135
1727009988940492300,6.1604921875,-0.13535675406455994,0.041967689990997314,0.14318086206912994
1727009988950530300,6.1705302734375,-0.14300616085529327,-0.034927356988191605,-0.06384982168674469
1727009988960568300,6.180568359375,-0.18724791705608368,-0.14643791317939758,-0.12311713397502899
1727009988970606300,6.1906064453125,-0.2043057382106781,-0.18414241075515747,-0.16458308696746826
1727009988980644400,6.200644287109375,-0.14853541553020477,-0.04078231751918793,-0.10753338038921356
1727009988990681300,6.210681396484375,-0.09589723497629166,0.06285965442657471,-0.007961519993841648
1727009989000719400,6.22071923828125,-0.12914946675300598,0.15320393443107605,0.12023000419139862
1727009989010757400,6.23075732421875,-0.1778877079486847,0.1290631741285324,0.2323853075504303
1727009989020795400,6.24079541015625,-0.1880287528038025,0.01937396451830864,0.15528252720832825
1727009989030833400,6.25083349609375,-0.18660449981689453,-0.04501434788107872,0.06527833640575409
1727009989040871400,6.260871337890625,-0.2208157330751419,-0.12457441538572311,-0.16608670353889465
1727009989050908400,6.270908447265625,-0.2650929093360901,-0.1866511106491089,-0.13476474583148956
1727009989060946400,6.280946533203125,-0.2542482614517212,-0.21586278080940247,-0.041479531675577164
1727009989070984400,6.290984375,-0.20920781791210175,-0.2053837776184082,0.09177253395318985
1727009989081022500,6.3010224609375,-0.20668527483940125,-0.12405110895633698,0.21413733065128326
1727009989091060500,6.311060546875,-0.2822687029838562,-0.12561571598052979,-0.042094990611076355
1727009989101097500,6.321097412109375,-0.329092413187027,-0.15764261782169342,0.006678142584860325
1727009989111135500,6.331135498046875,-0.31175497174263,-0.24181608855724335,-0.09576274454593658
1727009989121173500,6.341173583984375,-0.2939317524433136,-0.21722206473350525,-0.21465344727039337
1727009989131211300,6.351211181640625,-0.32200732827186584,-0.11249538511037827,-0.2295815348625183
1727009989141249500,6.36124951171875,-0.3739083409309387,-0.029087044298648834,-0.15920989215373993
1727009989151287300,6.371287353515625,-0.3500024676322937,-0.11168764531612396,0.15401113033294678
1727009989161324500,6.381324462890625,-0.27865293622016907,-0.2714584171772003,0.39664241671562195
1727009989171362300,6.3913623046875,-0.3042972981929779,-0.4652363955974579,0.12058047950267792
1727009989181400300,6.401400390625,-0.4018038809299469,-0.5296950340270996,-0.05546884983778
1727009989191438300,6.411438232421875,-0.47644510865211487,-0.5056836605072021,-0.36120107769966125
1727009989201476400,6.421476318359375,-0.4488014876842499,-0.4532433748245239,-0.46391040086746216
1727009989211513300,6.431513427734375,-0.37369129061698914,-0.46565210819244385,-0.3012136220932007
1727009989221551400,6.44155126953125,-0.34904322028160095,-0.4560799300670624,-0.10364729911088943
1727009989231589400,6.45158935546875,-0.3612349033355713,-0.39899933338165283,0.19115370512008667
1727009989241627400,6.46162744140625,-0.3235620856285095,-0.3444069027900696,0.4747422933578491
1727009989251665400,6.47166552734375,-0.2549968659877777,-0.3830118179321289,0.25379127264022827
1727009989261702400,6.481702392578125,-0.2588216960430145,-0.4272085726261139,0.14257845282554626
1727009989271740400,6.491740478515625,-0.3622034788131714,-0.45255202054977417,-0.12974494695663452
1727009989281778400,6.5017783203125,-0.4385682940483093,-0.495228111743927,-0.4736037850379944
1727009989291816400,6.51181640625,-0.3590087592601776,-0.5337728261947632,-0.5015121102333069
1727009989301854500,6.5218544921875,-0.26225611567497253,-0.5643001198768616,-0.31221407651901245
1727009989311892200,6.531892333984375,-0.24297243356704712,-0.6197447180747986,0.01161377876996994
1727009989321929500,6.541929443359375,-0.24724307656288147,-0.4952225387096405,0.376875638961792
1727009989331967200,6.55196728515625,-0.23043480515480042,-0.335931658744812,0.25371667742729187
1727009989342005500,6.562005615234375,-0.17845575511455536,-0.28884831070899963,0.26053598523139954
1727009989352043300,6.572043212890625,-0.14636386930942535,-0.32256951928138733,-0.07049254328012466
1727009989362081300,6.582081298828125,-0.1728077232837677,-0.4448413848876953,-0.27788007259368896
1727009989372118500,6.592118408203125,-0.20039008557796478,-0.5306364297866821,-0.2586368918418884
1727009989382156300,6.60215625,-0.1630469709634781,-0.5452004671096802,-0.13240677118301392
1727009989392194300,6.6121943359375,-0.07155328243970871,-0.4731036424636841,-0.04880082979798317
1727009989402232300,6.622232421875,-0.022313028573989868,-0.3178221881389618,0.1402319371700287
1727009989412270300,6.632270263671875,-0.024100542068481445,-0.2401132583618164,0.14622725546360016
1727009989422307600,6.6423076171875,-0.011025752872228622,-0.2429378181695938,0.2695867419242859
1727009989432345300,6.652345458984375,0.03978816047310829,-0.25858309864997864,0.18050293624401093
1727009989442383400,6.66238330078125,0.07498715817928314,-0.27716875076293945,0.023935159668326378
1727009989452421400,6.67242138671875,0.08022533357143402,-0.3984789252281189,-0.14060690999031067
1727009989462459400,6.68245947265625,0.05552104860544205,-0.4096570312976837,-0.18243318796157837
1727009989472496400,6.692496337890625,0.043364517390728,-0.3701341152191162,-0.17723709344863892
1727009989482534400,6.702534423828125,0.11071133613586426,-0.33428025245666504,-0.034870367497205734
1727009989492572400,6.712572509765625,0.23360715806484222,-0.316581666469574,0.3402433395385742
1727009989502610400,6.7226103515625,0.2675020098686218,-0.30037155747413635,0.3454812467098236
1727009989512648400,6.7326484375,0.19809924066066742,-0.1401083767414093,0.2156742364168167
1727009989522686500,6.7426865234375,0.16798341274261475,-0.025073396041989326,-0.00019867181254085153
1727009989532723500,6.752723388671875,0.21017001569271088,0.16701801121234894,0.008608934469521046
1727009989542761200,6.76276123046875,0.2743023931980133,0.1552540361881256,0.04861414059996605
1727009989552799500,6.772799560546875,0.3273110091686249,0.016154734417796135,-0.0038772961124777794
1727009989562837200,6.782837158203125,0.33911415934562683,-0.14470233023166656,0.044854290783405304
1727009989572875500,6.79287548828125,0.3073737919330597,-0.2760574221611023,-0.015503591857850552
1727009989582912500,6.80291259765625,0.303352415561676,-0.17852286994457245,0.1670670211315155
1727009989592950300,6.8129501953125,0.32802313566207886,-0.07621300965547562,0.18621568381786346
1727009989602988500,6.822988525390625,0.3193609416484833,0.07133090496063232,0.1377626657485962
1727009989613026300,6.8330263671875,0.2917615473270416,0.2134947031736374,0.015307317487895489
1727009989623064300,6.843064208984375,0.30765795707702637,0.24543212354183197,0.015749668702483177
1727009989633097500,6.853097412109375,0.3405322730541229,0.09484155476093292,-0.1488262265920639
1727009989643135500,6.863135498046875,0.35270771384239197,-0.13207174837589264,-0.12110139429569244
1727009989653173500,6.873173583984375,0.3326096534729004,-0.19019444286823273,-0.03713538497686386
1727009989663211300,6.883211181640625,0.3462338447570801,-0.08195745199918747,0.20305031538009644
1727009989673249500,6.89324951171875,0.40548837184906006,0.12491477280855179,0.23388174176216125
1727009989683286500,6.90328662109375,0.4296797215938568,0.31618887186050415,0.12845037877559662
1727009989693324300,6.91332421875,0.38433408737182617,0.3448042571544647,-0.012351208366453648
1727009989703362600,6.923362548828125,0.33715325593948364,0.3347782492637634,0.0715564712882042
1727009989713400300,6.933400390625,0.35337164998054504,0.29348382353782654,-0.1640307456254959
1727009989723438600,6.9434384765625,0.410007506608963,0.19770269095897675,-0.280827134847641
1727009989733476400,6.953476318359375,0.41417720913887024,0.09592759609222412,-0.242850199341774
1727009989743513300,6.963513427734375,0.37777259945869446,0.03646666556596756,-0.0681162029504776
1727009989753551400,6.97355126953125,0.3631707429885864,0.22750027477741241,0.25189563632011414
1727009989763589400,6.98358935546875,0.4122261703014374,0.4520934224128723,0.37036049365997314
1727009989773627400,6.99362744140625,0.4658451974391937,0.5670876502990723,0.15670491755008698
1727009989783665400,7.00366552734375,0.45264551043510437,0.5755322575569153,0.18964210152626038
1727009989793702400,7.013702392578125,0.37761548161506653,0.414378821849823,0.0821172371506691
1727009989803740400,7.023740478515625,0.30911657214164734,0.27799326181411743,-0.0495784729719162
1727009989813778400,7.0337783203125,0.2886078357696533,0.1367756873369217,-0.17714256048202515
1727009989823816400,7.04381640625,0.2646942436695099,0.2233220338821411,-0.14579235017299652
1727009989833854500,7.0538544921875,0.18046271800994873,0.3665798604488373,-0.17844164371490479
1727009989843891500,7.063891357421875,0.14247512817382812,0.513316810131073,-0.0041462755762040615
1727009989853929500,7.073929443359375,0.1950770765542984,0.5381729006767273,0.25493136048316956
1727009989863967500,7.083967529296875,0.24137666821479797,0.3607177138328552,0.32948946952819824
1727009989874005200,7.094005126953125,0.21045416593551636,0.17308363318443298,0.2610835134983063
1727009989884043500,7.10404345703125,0.149061381816864,0.009708819910883904,-0.06813298165798187
1727009989894080500,7.11408056640625,0.10848679393529892,-0.035232022404670715,-0.2530759274959564
1727009989904118500,7.124118408203125,0.0876331776380539,0.0950053408741951,-0.2603740692138672
1727009989914156500,7.134156494140625,0.08365761488676071,0.22929523885250092,-0.09428868442773819
1727009989924194300,7.1441943359375,0.0954575464129448,0.36023008823394775,0.00487358495593071
1727009989934232600,7.154232666015625,0.12935346364974976,0.39109718799591064,0.17414836585521698
1727009989944270300,7.164270263671875,0.18924103677272797,0.26611077785491943,0.3307470381259918
1727009989954307300,7.174307373046875,0.22681982815265656,0.13489283621311188,0.1897270530462265
1727009989964345300,7.184345458984375,0.21526864171028137,0.0016969662392511964,-0.005074919667094946
1727009989974383400,7.19438330078125,0.18892571330070496,0.032583776861429214,0.14953702688217163
1727009989984421400,7.20442138671875,0.15982641279697418,0.21789397299289703,-0.1613747775554657
1727009989994459400,7.21445947265625,0.15113039314746857,0.3586942255496979,-0.2904486060142517
1727009990004496400,7.224496337890625,0.13283555209636688,0.39758917689323425,-0.04255624860525131
1727009990014534400,7.234534423828125,0.09567832201719284,0.324533611536026,0.045767489820718765
1727009990024572400,7.244572509765625,0.10309788584709167,0.25162556767463684,0.31799715757369995
1727009990034610400,7.2546103515625,0.0984615907073021,0.16721029579639435,0.2280624657869339
1727009990044648400,7.2646484375,0.04270831495523453,0.14748719334602356,0.34607192873954773
1727009990054685400,7.274685546875,-0.007466171868145466,0.12985174357891083,0.10944553464651108
1727009990064723500,7.284723388671875,-0.04879710078239441,0.025737853720784187,-0.16870379447937012
1727009990074761500,7.294761474609375,-0.10874112695455551,-0.03537743166089058,-0.14359231293201447
1727009990084799500,7.304799560546875,-0.17085376381874084,-0.045642051845788956,-0.34760695695877075
1727009990094837500,7.31483740234375,-0.170017272233963,-0.04355493560433388,0.06879211217164993
1727009990104874500,7.32487451171875,-0.1358286738395691,-0.021495172753930092,0.23111364245414734
1727009990114912500,7.33491259765625,-0.13118891417980194,-0.11486506462097168,0.10173381865024567
1727009990124950500,7.344950439453125,-0.13731764256954193,-0.14116831123828888,0.1330382078886032
1727009990134988500,7.354988525390625,-0.21342040598392487,-0.13722097873687744,-0.12696513533592224
1727009990145026600,7.365026611328125,-0.2269258201122284,-0.17634573578834534,-0.0142918536439538
1727009990155063300,7.375063232421875,-0.15561436116695404,-0.24116414785385132,-0.03671753406524658
1727009990165101600,7.3851015625,-0.13817252218723297,-0.3113328516483307,-0.04025714099407196
1727009990175139300,7.395139404296875,-0.216496080160141,-0.4610688090324402,-0.03641713038086891
1727009990185177300,7.40517724609375,-0.28185033798217773,-0.4767391085624695,-0.1699504256248474
1727009990195215400,7.41521533203125,-0.26151522994041443,-0.36532896757125854,-0.12717951834201813
1727009990205252400,7.42525244140625,-0.19821694493293762,-0.2502308785915375,0.030761107802391052
1727009990215290600,7.43529052734375,-0.14683391153812408,-0.10708703845739365,0.12725861370563507
1727009990225328400,7.445328369140625,-0.13977201282978058,-0.12934626638889313,0.0936141088604927
1727009990235366400,7.455366455078125,-0.17314381897449493,-0.22564111649990082,-0.053102631121873856
1727009990245404400,7.465404296875,-0.18874195218086243,-0.29609212279319763,-0.07256288081407547
1727009990255441400,7.47544140625,-0.15800747275352478,-0.20071206986904144,-0.07416131347417831
1727009990265479400,7.4854794921875,-0.10754244029521942,-0.08014410734176636,0.09304419159889221
1727009990275517400,7.495517333984375,-0.06711246073246002,-0.08107034862041473,0.07092264294624329
1727009990285555500,7.505555419921875,-0.061585865914821625,-0.19465896487236023,0.021318338811397552
1727009990295593500,7.515593505859375,-0.08591597527265549,-0.2852032482624054,-0.046237003058195114
1727009990305631500,7.525631591796875,-0.06059863045811653,-0.2761367857456207,-0.1311260610818863
1727009990315668200,7.535668212890625,0.04090402275323868,-0.21773818135261536,-0.044435109943151474
1727009990325706500,7.54570654296875,0.11685311794281006,-0.1701190024614334,-0.07803754508495331
1727009990335744300,7.555744140625,0.12081696838140488,-0.17237070202827454,0.13466086983680725
1727009990345782500,7.565782470703125,0.0978567898273468,-0.09363727271556854,0.062022093683481216
1727009990355820500,7.575820556640625,0.13660657405853271,-0.014435931108891964,0.028554413467645645
1727009990365857300,7.585857177734375,0.22214651107788086,0.0019065570086240768,-0.035225898027420044
1727009990375895600,7.5958955078125,0.2674327790737152,0.0371076874434948,-0.1688593327999115
1727009990385933300,7.605933349609375,0.264541894197464,0.06420641392469406,-0.12113707512617111
1727009990395971600,7.6159716796875,0.2949181795120239,0.07205848395824432,0.09340052306652069
1727009990406009300,7.62600927734375,0.34621891379356384,0.08564645797014236,0.2259974479675293
1727009990416046300,7.63604638671875,0.3431496322154999,0.22700226306915283,0.21352612972259521
1727009990426084600,7.646084716796875,0.2658497989177704,0.3900556266307831,0.029169868677854538
1727009990436122400,7.656122314453125,0.2045494168996811,0.34304311871528625,-0.0940609872341156
1727009990446160400,7.666160400390625,0.2233707755804062,0.13185390830039978,-0.012987970374524593
1727009990456198400,7.676198486328125,0.23573608696460724,-0.057017214596271515,0.06656517833471298
1727009990466235400,7.6862353515625,0.21947376430034637,-0.11176594346761703,0.016566991806030273
1727009990476273700,7.696273681640625,0.21984954178333282,0.006817159708589315,0.13939730823040009
1727009990486311400,7.7063115234375,0.2191517949104309,0.0713127925992012,0.07960827648639679
1727009990496349400,7.716349365234375,0.1925329566001892,0.12022041529417038,0.010861968621611595
1727009990506387500,7.726387451171875,0.14801263809204102,0.09768501669168472,-0.047087084501981735
1727009990516424400,7.736424560546875,0.09177572280168533,0.13923725485801697,-0.1680305451154709
1727009990526462200,7.746462158203125,0.0685630813241005,0.18180175125598907,-0.032523587346076965
1727009990536500500,7.75650048828125,0.07205315679311752,0.16807982325553894,0.12594594061374664
1727009990546538200,7.766538330078125,0.04225904121994972,0.07352188974618912,0.17268230020999908
1727009990556576500,7.776576416015625,0.024625984951853752,-0.022792130708694458,0.20908397436141968
1727009990566613500,7.786613525390625,0.03556065633893013,-0.0005227785441093147,0.021638715639710426
1727009990576651300,7.7966513671875,0.025550633668899536,-0.010372745804488659,-0.149473637342453
1727009990586689500,7.806689453125,0.002752643311396241,-0.004751611966639757,-0.22471299767494202
1727009990596727300,7.816727294921875,0.006706638727337122,0.01281912624835968,-0.12320102751255035
1727009990606765600,7.826765625,0.03694816306233406,0.03681500628590584,-0.006334062200039625
1727009990616802600,7.836802490234375,0.039140477776527405,0.17555557191371918,0.2627176344394684
1727009990626841600,7.846841552734375,-0.018927086144685745,0.28955912590026855,0.2603287994861603
1727009990636879600,7.856879638671875,-0.05741136148571968,0.25031983852386475,-0.04729694128036499
1727009990646917600,7.866917724609375,-0.0028764803428202868,0.08889871090650558,-0.2269873470067978
1727009990656955600,7.87695556640625,0.06750660389661789,-0.032697759568691254,-0.18397489190101624
1727009990666992600,7.88699267578125,0.036199018359184265,-0.07326862215995789,0.05235641449689865
1727009990677030700,7.89703076171875,-0.0308106429874897,0.1647718995809555,0.20057570934295654
1727009990687068700,7.907068603515625,-0.01661492884159088,0.4260471761226654,-0.004507400095462799
1727009990697106700,7.917106689453125,0.058755192905664444,0.4521948993206024,-0.1540316492319107
1727009990707144700,7.927144775390625,0.05973789840936661,0.21785829961299896,-0.07765724509954453
1727009990717181700,7.937181640625,-0.031144604086875916,-0.04831293597817421,0.15254613757133484
1727009990727219500,7.947219482421875,-0.07747721672058105,-0.08716073632240295,0.20800645649433136
1727009990737257700,7.9572578125,-0.017522001639008522,0.005795038305222988,0.036257874220609665
1727009990747295700,7.967295654296875,0.032158203423023224,0.08928913623094559,-0.003129480639472604
1727009990757333800,7.977333740234375,-0.029156288132071495,0.10946311056613922,0.001868473831564188
1727009990767370800,7.987370849609375,-0.06963101029396057,0.024339694529771805,-0.005105546209961176
1727009990777408500,7.997408447265625,0.028318723663687706,-0.034088194370269775,0.04969511926174164
1727009990787446800,8.00744677734375,0.15081347525119781,0.020021911710500717,0.14226047694683075
1727009990797484500,8.017484619140625,0.15399836003780365,0.11947845667600632,0.03995833545923233
1727009990807522600,8.0275224609375,0.055217448621988297,0.19082321226596832,-0.09987226873636246
1727009990817560600,8.037560546875,0.0123645244166255,0.2665374279022217,-0.1262359619140625
1727009990827597600,8.04759765625,0.03814632073044777,0.32015323638916016,-0.0550728403031826
1727009990837635800,8.0576357421875,0.08249940723180771,0.27594929933547974,0.08350954204797745
1727009990847673600,8.067673583984375,0.1422375738620758,0.09240370243787766,0.2866211235523224
1727009990857711600,8.077711669921875,0.17849810421466827,-0.05835545063018799,0.3152168095111847
1727009990867749600,8.08774951171875,0.13917945325374603,-0.11103331297636032,0.008666991256177425
1727009990877786600,8.09778662109375,0.10421082377433777,0.07929348945617676,-0.11244824528694153
1727009990887824600,8.10782470703125,0.12037834525108337,0.359613299369812,-0.29706868529319763
1727009990897862700,8.117862548828125,0.20624211430549622,0.5793280601501465,-0.048237305134534836
1727009990907900700,8.127900634765625,0.2966793477535248,0.5999337434768677,0.07348912954330444
1727009990917938700,8.137938720703126,0.3057063817977905,0.4885406494140625,0.4542948007583618
1727009990927975700,8.1479755859375,0.23971138894557953,0.37206196784973145,0.36873728036880493
1727009990938013400,8.158013427734375,0.19529172778129578,0.2685377299785614,0.10793206095695496
1727009990948051700,8.1680517578125,0.20302794873714447,0.29884183406829834,0.022597188130021095
1727009990958089500,8.17808935546875,0.15981629490852356,0.23329903185367584,-0.10095430910587311
1727009990968127700,8.188127685546876,0.06309294700622559,0.3342362940311432,0.04416506364941597
1727009990978164700,8.198164794921874,-0.021588915959000587,0.4599478840827942,-0.12788686156272888
1727009990988202500,8.208202392578125,-0.025430524721741676,0.41016942262649536,-0.05429066717624664
1727009990998240800,8.21824072265625,0.020622188225388527,0.24239452183246613,0.07399886101484299
1727009991008278500,8.228278564453126,0.0178730059415102,-0.07599889487028122,0.11302296072244644
1727009991018316800,8.23831689453125,-0.019036807119846344,-0.280374139547348,0.15544870495796204
1727009991028353800,8.248353759765624,-0.06946935504674911,-0.2597482204437256,-0.09745624661445618
1727009991038391600,8.2583916015625,-0.08485124260187149,-0.19116009771823883,-0.23162896931171417
1727009991048429800,8.268429931640625,-0.07234929502010345,-0.03172224387526512,-0.07555653899908066
1727009991058467600,8.278467529296876,-0.09107398241758347,0.16623450815677643,0.09091313183307648
1727009991068505600,8.288505615234374,-0.1474142223596573,0.23766395449638367,0.10302917659282684
1727009991078542600,8.29854248046875,-0.1568135768175125,0.16728194057941437,0.12731879949569702
1727009991088580600,8.30858056640625,-0.14261840283870697,0.011390605941414833,0.0032061797101050615
1727009991098618600,8.31861865234375,-0.20795665681362152,-0.16255642473697662,-0.1372920721769333
1727009991108656600,8.32865673828125,-0.2994202673435211,-0.2634177803993225,-0.09222739934921265
1727009991118694700,8.338694580078124,-0.31231021881103516,-0.21295461058616638,-0.0143533730879426
1727009991128731600,8.348731689453125,-0.252206414937973,-0.1119409129023552,0.15771958231925964
1727009991138769700,8.358769775390625,-0.2404368370771408,-0.05799565836787224,0.1610535979270935
1727009991148807400,8.368807373046875,-0.2840418517589569,-0.14527569711208344,-0.017590178176760674
1727009991158845700,8.378845703125,-0.306231826543808,-0.35306432843208313,-0.037587590515613556
1727009991168883500,8.388883544921875,-0.2846788763999939,-0.5089444518089294,-0.20447351038455963
1727009991178920700,8.398920654296875,-0.2496708184480667,-0.5508735179901123,-0.1833149641752243
1727009991188958700,8.408958740234375,-0.23075811564922333,-0.45187079906463623,-0.09694891422986984
1727009991198996500,8.41899658203125,-0.24620471894741058,-0.3435933291912079,-0.03711514547467232
1727009991209034800,8.42903466796875,-0.26241323351860046,-0.19957223534584045,-0.07987778633832932
1727009991219072500,8.439072509765625,-0.26519519090652466,-0.0917871743440628,-0.03922836109995842
1727009991229109500,8.449109619140625,-0.22765472531318665,-0.10264861583709717,-0.05769738554954529
1727009991239147800,8.459147705078125,-0.16117024421691895,-0.11407729983329773,-0.0847119614481926
1727009991249185500,8.469185546875,-0.10905005782842636,-0.1588229387998581,0.01420476846396923
1727009991259223800,8.479223876953125,-0.08392712473869324,-0.1989802122116089,0.11109749227762222
1727009991269261600,8.489261474609375,-0.05758872628211975,-0.2174534946680069,0.19156304001808167
1727009991279298600,8.499298583984375,-0.045284658670425415,-0.13392797112464905,0.22919803857803345
1727009991289336600,8.509336669921876,-0.050698865205049515,-0.0632210448384285,0.33300912380218506
1727009991299374600,8.51937451171875,-0.04255305230617523,-0.034389130771160126,0.20523011684417725
1727009991309412600,8.52941259765625,-0.03026709146797657,0.004316185135394335,-0.0595187209546566
1727009991319450600,8.53945068359375,-0.05338918790221214,0.009342368692159653,-0.37142014503479004
1727009991329487600,8.549487548828125,-0.0835351049900055,-0.03863926976919174,-0.42918652296066284
1727009991339525600,8.559525634765626,-0.053960170596838,-0.10838452726602554,-0.25483202934265137
1727009991349563600,8.569563720703124,0.017361147329211235,-0.10201691091060638,0.1739153414964676
1727009991359601700,8.5796015625,0.04790733754634857,-0.05071111395955086,0.4213397800922394
1727009991369639700,8.5896396484375,-0.0013720606220886111,0.07630808651447296,0.3486645221710205
1727009991379676700,8.5996767578125,-0.06781819462776184,0.11129483580589294,0.08046048879623413
1727009991389714700,8.609714599609376,-0.08216144889593124,0.012938168831169605,-0.18671183288097382
1727009991399752700,8.619752685546874,-0.05873202160000801,-0.15835262835025787,-0.2173973023891449
1727009991409790700,8.629790771484375,-0.04194531962275505,-0.25225141644477844,-0.1386665403842926
1727009991419828700,8.639828857421875,-0.049320146441459656,-0.10244648158550262,0.04258367791771889
1727009991429865500,8.649865478515625,-0.06812712550163269,0.03511883690953255,-0.010905644856393337
1727009991439903700,8.65990380859375,-0.061651378870010376,0.23258131742477417,0.015541142784059048
1727009991449941800,8.669941650390625,-0.04489796608686447,0.21680687367916107,0.01829671487212181
1727009991459979500,8.6799794921875,-0.01768818311393261,0.0977284237742424,0.25005805492401123
1727009991470017800,8.690017822265625,-0.03786668926477432,0.004882107023149729,0.4538375437259674
1727009991480054500,8.700054443359376,-0.13310745358467102,-0.009104815311729908,0.015021293424069881
1727009991490092800,8.7100927734375,-0.16436231136322021,-0.03844938799738884,-0.4857539236545563
1727009991500130600,8.720130615234375,-0.09141113609075546,-0.07767961174249649,-0.7331421375274658
1727009991510168600,8.73016845703125,-0.04025527834892273,-0.23018287122249603,-0.3369910717010498
1727009991520205800,8.740205810546875,-0.030532609671354294,-0.24169571697711945,0.39146924018859863
1727009991530243600,8.75024365234375,-0.04114370793104172,-0.040707483887672424,0.6437004208564758
1727009991540281600,8.760281494140624,-0.08556177467107773,0.17975804209709167,0.13072259724140167
1727009991550319600,8.770319580078125,-0.11384880542755127,0.2795131206512451,-0.2224746197462082
1727009991560357600,8.780357666015625,-0.12477921694517136,0.19064292311668396,-0.15525323152542114
1727009991570395000,8.790394775390626,-0.1356763392686844,0.10148561000823975,0.17218215763568878
1727009991580432600,8.8004326171875,-0.12775875627994537,-0.05751416087150574,0.08734636008739471
1727009991590470700,8.810470703125,-0.10404970496892929,-0.18718400597572327,-0.10271891951560974
1727009991600508700,8.8205087890625,-0.1455492079257965,-0.27293965220451355,-0.19516922533512115
1727009991610546700,8.830546630859375,-0.22781692445278168,-0.17702750861644745,-0.04117806255817413
1727009991620583400,8.84058349609375,-0.22291670739650726,0.12523141503334045,0.07946180552244186
1727009991630621200,8.85062109375,-0.11579371243715286,0.26841068267822266,-0.008413191884756088
1727009991640659500,8.860659423828125,-0.045997053384780884,0.24097293615341187,-0.040828920900821686
1727009991650697200,8.870697265625,-0.1209474578499794,-0.007068828213959932,-0.00016458335448987782
1727009991660735500,8.880735595703126,-0.20160555839538574,-0.1839141696691513,0.08113320171833038
1727009991670772200,8.890772216796876,-0.1432541012763977,-0.2518831193447113,0.08024343848228455
1727009991680810200,8.900810302734374,-0.028051873669028282,-0.1917492002248764,-0.01992177590727806
1727009991690848300,8.91084814453125,-0.03405517339706421,-0.030255639925599098,0.027940021827816963
1727009991700886300,8.92088623046875,-0.13476154208183289,0.14651939272880554,0.01804930716753006
1727009991710924000,8.930924072265626,-0.1698438972234726,0.1481359302997589,0.032102543860673904
1727009991720961300,8.940961181640626,-0.11265943944454193,0.031128091737627983,0.17466075718402863
1727009991730999300,8.950999267578124,-0.117427296936512,-0.06270731985569,-0.05143336206674576
1727009991741037300,8.961037353515625,-0.21179640293121338,-0.15383750200271606,-0.08829817175865173
1727009991751075300,8.971075439453125,-0.23571611940860748,-0.1764482706785202,0.13104456663131714
1727009991761113000,8.981113037109376,-0.1842244267463684,-0.23470917344093323,0.05305442959070206
1727009991771150300,8.991150390625,-0.17342451214790344,-0.24229945242404938,-0.0705583244562149
1727009991781188400,9.001188232421875,-0.26710760593414307,-0.19028978049755096,-0.13589684665203094
1727009991791226000,9.01122607421875,-0.3350112736225128,-0.17020103335380554,-0.09824773669242859
1727009991801264400,9.021264404296875,-0.2647525668144226,-0.2318982183933258,0.19327305257320404
1727009991811302100,9.03130224609375,-0.21535731852054596,-0.31824854016304016,-0.09904642403125763
1727009991821339400,9.04133935546875,-0.300589919090271,-0.17756599187850952,0.05416416749358177
1727009991831377200,9.051377197265625,-0.441131055355072,-0.10880424082279205,-0.1699506938457489
1727009991841415200,9.061415283203125,-0.41387468576431274,-0.22180695831775665,-0.09219064563512802
1727009991851453200,9.071453125,-0.2783410847187042,-0.3150290548801422,0.15370380878448486
1727009991861491200,9.0814912109375,-0.29196473956108093,-0.45995986461639404,-0.17887280881404877
1727009991871528200,9.091528076171874,-0.4009964168071747,-0.45485299825668335,-0.2712804973125458
1727009991881566200,9.101566162109375,-0.42445167899131775,-0.48057353496551514,-0.15213707089424133
1727009991891604200,9.111604248046875,-0.3284066319465637,-0.5440486669540405,-0.09011897444725037
1727009991901642200,9.121642333984376,-0.25817108154296875,-0.5378365516662598,-0.000024234765078290366
1727009991911680300,9.13168017578125,-0.30685076117515564,-0.4356452226638794,-0.06734947860240936
1727009991921717200,9.14171728515625,-0.36733460426330566,-0.41694608330726624,0.035649072378873825
1727009991931755300,9.15175537109375,-0.3237628936767578,-0.4119044542312622,0.021256286650896072
1727009991941793300,9.161793212890625,-0.24134577810764313,-0.3584471046924591,0.01780855841934681
1727009991951831300,9.171831298828126,-0.259040892124176,-0.3207511305809021,-0.07242386788129807
1727009991961869300,9.181869384765625,-0.318370521068573,-0.35884496569633484,-0.18120867013931274
1727009991971906300,9.19190625,-0.3044120967388153,-0.45940646529197693,-0.07324385643005371
1727009991981944300,9.2019443359375,-0.22522565722465515,-0.60057532787323,-0.03771435469388962
1727009991991982300,9.211982421875,-0.18131811916828156,-0.7421364188194275,-0.010869425721466541
1727009992002020400,9.222020263671874,-0.18720796704292297,-0.7807115316390991,0.015217568725347519
1727009992012058400,9.232058349609375,-0.17728210985660553,-0.7176372408866882,0.049135319888591766
1727009992022095000,9.24209521484375,-0.11189990490674973,-0.5635805130004883,0.04773157089948654
1727009992032133400,9.25213330078125,-0.041970618069171906,-0.39017120003700256,-0.037341512739658356
1727009992042171100,9.262171142578126,-0.013962154276669025,-0.3309829831123352,-0.23432408273220062
1727009992052209400,9.27220947265625,0.00811971165239811,-0.331592857837677,-0.09316190332174301
1727009992062246400,9.282246337890625,0.06651271134614944,-0.3216579258441925,0.04688761383295059
1727009992072284200,9.2922841796875,0.16945187747478485,-0.22495588660240173,0.294124573469162
1727009992082322400,9.302322509765625,0.23929567635059357,-0.08707817643880844,0.21610300242900848
1727009992092360200,9.312360107421876,0.263790100812912,-0.047083888202905655,0.14899693429470062
1727009992102398200,9.322398193359374,0.25908562541007996,-0.11445600539445877,0.026701118797063828
1727009992112435500,9.332435546875,0.27541425824165344,-0.22179178893566132,-0.07209309935569763
1727009992122473200,9.34247314453125,0.3269892930984497,-0.2673475444316864,0.03734816983342171
1727009992132511500,9.352511474609376,0.37752199172973633,-0.19013504683971405,-0.011606588959693909
1727009992142549200,9.36254931640625,0.4030880630016327,-0.1367272287607193,-0.08053505420684814
1727009992152587300,9.372587158203125,0.44243255257606506,-0.09470999985933304,-0.029278526082634926
1727009992162624300,9.382624267578125,0.48058366775512695,-0.0887887254357338,0.15727829933166504
1727009992172662300,9.392662353515625,0.5137045979499817,0.0038035267498344183,0.1619420349597931
1727009992182700000,9.402699951171876,0.5511430501937866,0.2000875473022461,0.13722044229507446
1727009992192738300,9.41273828125,0.5634199380874634,0.22353161871433258,-0.05943962559103966
1727009992202776300,9.4227763671875,0.5365419983863831,0.16639722883701324,-0.16097743809223175
1727009992212813300,9.432813232421875,0.496945858001709,-0.014614095911383629,-0.1629556268453598
1727009992222851300,9.442851318359375,0.4833530783653259,-0.012919792905449867,0.11797191202640533
1727009992232889000,9.45288916015625,0.5340655446052551,0.06777025759220123,0.1995333433151245
1727009992242927400,9.46292724609375,0.6100782752037048,0.3512086272239685,0.3376328945159912
1727009992252965000,9.472965087890625,0.6279701590538025,0.40662822127342224,0.2080322951078415
1727009992263002000,9.483002197265625,0.5876866579055786,0.34762346744537354,0.1804632544517517
1727009992273040400,9.493040283203126,0.5648908019065857,0.1570306271314621,0.2599373161792755
1727009992283078100,9.503078125,0.5849036574363708,0.15613633394241333,0.34300342202186584
1727009992293116400,9.513116455078125,0.5984112024307251,0.30572742223739624,0.09006784111261368
1727009992303154200,9.523154296875,0.5753464102745056,0.45834946632385254,-0.1661495566368103
1727009992313191200,9.533191162109375,0.5232935547828674,0.46700021624565125,-0.46898186206817627
1727009992323229400,9.5432294921875,0.5291474461555481,0.4189741015434265,-0.45434966683387756
1727009992333267200,9.55326708984375,0.6278095841407776,0.345569372177124,-0.09352569282054901
1727009992343305500,9.563305419921875,0.7146922945976257,0.36965739727020264,0.2684764564037323
1727009992353343200,9.57334326171875,0.6765755414962769,0.4916568100452423,0.4352707862854004
1727009992363380200,9.583380126953125,0.5717524290084839,0.4794326424598694,0.20427776873111725
1727009992373418200,9.593418212890626,0.5285988450050354,0.49521079659461975,0.17504291236400604
1727009992383456300,9.603456298828124,0.5505518317222595,0.41342538595199585,-0.02840101532638073
1727009992393494300,9.613494384765625,0.5891620516777039,0.39057308435440063,0.049732137471437454
1727009992403531300,9.62353125,0.5896158814430237,0.4192348122596741,0.017059143632650375
1727009992413569300,9.6335693359375,0.5605186820030212,0.46472400426864624,0.06933459639549255
1727009992423607300,9.643607177734374,0.5212216377258301,0.4295274019241333,-0.09261169284582138
1727009992433645300,9.653645263671875,0.49149197340011597,0.5385369658470154,0.0277437474578619
1727009992443683000,9.66368310546875,0.4541379511356354,0.7612459659576416,0.12518800795078278
1727009992453720300,9.67372021484375,0.42786478996276855,0.9076031446456909,0.17202183604240417
1727009992463758300,9.68375830078125,0.44375506043434143,0.7874442934989929,0.2789972722530365
1727009992473796400,9.69379638671875,0.47565895318984985,0.4126072824001312,0.24130316078662872
1727009992483834400,9.70383447265625,0.4397081434726715,0.11580702662467957,0.15466813743114471
1727009992493872000,9.7138720703125,0.34951460361480713,0.014592524617910385,-0.021736454218626022
1727009992503909400,9.723909423828125,0.30097874999046326,0.17632895708084106,-0.16376815736293793
1727009992513947100,9.733947021484376,0.3454572558403015,0.43987536430358887,-0.1549464464187622
1727009992523985200,9.743985107421874,0.37708815932273865,0.6808241009712219,0.1778525561094284
1727009992534023200,9.754023193359375,0.3237423896789551,0.6574870347976685,0.32019051909446716
1727009992544061200,9.764061279296875,0.30031001567840576,0.5065247416496277,0.4103989899158478
1727009992554098400,9.774098388671876,0.3563048541545868,0.34938594698905945,0.2530951201915741
1727009992564136200,9.78413623046875,0.3920316994190216,0.2657637596130371,0.14328312873840332
1727009992574174200,9.79417431640625,0.32430166006088257,0.2914406359195709,-0.02472558617591858
1727009992584212200,9.804212158203125,0.24133485555648804,0.45759153366088867,-0.1379227191209793
1727009992594250200,9.814250244140625,0.21513494849205017,0.6969825625419617,-0.02419561706483364
1727009992604287200,9.824287353515626,0.2280171811580658,0.8416702151298523,0.053825415670871735
1727009992614325200,9.8343251953125,0.2338377982378006,0.842667281627655,0.47680649161338806
1727009992624363300,9.84436328125,0.18782156705856323,0.6399858593940735,0.4342217445373535
1727009992634400800,9.85440087890625,0.10929080098867416,0.3735671937465668,0.3474229574203491
1727009992644437800,9.864437744140625,0.0545005276799202,0.18787881731987,-0.02045094594359398
1727009992654476000,9.87447607421875,0.010260893031954765,0.1858106106519699,0.019691945984959602
1727009992664513800,9.884513671875,-0.06320400536060333,0.21135325729846954,-0.17797452211380005
1727009992674552000,9.894552001953125,-0.13084110617637634,0.1844279021024704,-0.20917479693889618
1727009992684589800,9.90458984375,-0.15263614058494568,0.07684551179409027,-0.11027723550796509
1727009992694626800,9.914626708984375,-0.19692930579185486,-0.05054812878370285,0.039740756154060364
1727009992704664800,9.924664794921876,-0.2712149918079376,0.013434848748147488,0.2074786275625229
1727009992714702800,9.934702880859374,-0.327789843082428,0.15433897078037262,0.23949913680553436
1727009992724740900,9.944740966796875,-0.3250372111797333,0.24458365142345428,0.07146646082401276
1727009992734779000,9.95477880859375,-0.3467283844947815,0.12333578616380692,-0.14345675706863403
1727009992744815900,9.96481591796875,-0.4049714505672455,-0.18591207265853882,-0.13656876981258392
1727009992754854000,9.97485400390625,-0.4567398428916931,-0.4158041179180145,-0.16284377872943878
1727009992764892000,9.984891845703125,-0.4298759996891022,-0.4696945250034332,0.002799514913931489
1727009992774930000,9.994929931640625,-0.41140803694725037,-0.2933325469493866,0.04313096031546593
1727009992784968000,10.004968017578125,-0.4624030590057373,-0.044549357146024704,0.10057507455348969
1727009992795005000,10.0150048828125,-0.5112347602844238,0.07799067348241806,0.009493370540440083
1727009992805043000,10.02504296875,-0.4737936556339264,0.025257153436541557,0.045518215745687485
1727009992815081000,10.0350810546875,-0.43844711780548096,-0.1584293246269226,-0.05066956952214241
1727009992825118700,10.04511865234375,-0.4765194058418274,-0.4033445417881012,-0.05672373250126839
1727009992835157000,10.055156982421876,-0.506882905960083,-0.5437319874763489,-0.19606751203536987
1727009992845194000,10.065194091796876,-0.47609782218933105,-0.7010214924812317,-0.33385786414146423
1727009992855232000,10.07523193359375,-0.42436671257019043,-0.6017884016036987,-0.10091090202331543
1727009992865270000,10.08527001953125,-0.39761021733283997,-0.38892751932144165,0.025722673162817955
1727009992875307800,10.095307861328125,-0.36753833293914795,-0.17622403800487518,0.11377982795238495
1727009992885345000,10.105344970703126,-0.32184460759162903,-0.20481786131858826,-0.05179262533783913
1727009992895382800,10.1153828125,-0.2964460551738739,-0.2506508529186249,-0.07105766236782074
1727009992905420800,10.1254208984375,-0.30994507670402527,-0.308810830116272,-0.15096980333328247
1727009992915458800,10.135458740234375,-0.27718472480773926,-0.314780056476593,-0.027522703632712364
1727009992925496800,10.145496826171875,-0.2022697478532791,-0.24483931064605713,0.045287586748600006
1727009992935534000,10.1555341796875,-0.17569193243980408,-0.0806620866060257,0.1342076063156128
1727009992945571800,10.16557177734375,-0.2012106031179428,0.0850302055478096,-0.006164152640849352
1727009992955609900,10.17560986328125,-0.198953315615654,0.14771915972232819,0.022915968671441078
1727009992965648000,10.18564794921875,-0.16091884672641754,-0.007267500273883343,-0.07798614352941513
1727009992975686000,10.195685791015626,-0.10994913429021835,-0.15708015859127045,-0.15248940885066986
1727009992985723000,10.205722900390626,-0.0717141330242157,-0.3779504895210266,-0.06468818336725235
1727009992995761000,10.215760986328124,-0.038122083991765976,-0.47379180788993835,0.16631413996219635
1727009993005799000,10.225798828125,-0.03627411648631096,-0.3627278506755829,0.23738299310207367
1727009993015837000,10.2358369140625,-0.062182679772377014,-0.03640035167336464,0.17256565392017365
1727009993025875000,10.245875,-0.04679759964346886,0.18243399262428284,0.04465748369693756
1727009993035911700,10.25591162109375,-0.011426558718085289,0.277242511510849,-0.0810767412185669
1727009993045950000,10.265949951171875,-0.01956438086926937,0.06965924054384232,-0.24342358112335205
1727009993055987700,10.27598779296875,-0.0443916991353035,-0.14316675066947937,-0.2994924485683441
1727009993066026000,10.28602587890625,-0.004601942375302315,-0.2867606580257416,-0.09322049468755722
1727009993076063700,10.296063720703126,0.08579852432012558,-0.2301064431667328,0.14515666663646698
1727009993086100700,10.306100830078124,0.14249616861343384,-0.0420081689953804,0.48731639981269836
1727009993096139000,10.316138916015625,0.09718220680952072,0.17855775356292725,0.2940385341644287
1727009993106176800,10.3261767578125,0.03447568416595459,0.24980424344539642,0.001981391804292798
1727009993116215000,10.336215087890626,0.03151984140276909,0.19731706380844116,-0.20614545047283173
1727009993126252000,10.346251953125,0.02942926064133644,0.029989058151841164,-0.3703141510486603
1727009993136289800,10.356289794921874,0.030903587117791176,-0.02395247109234333,-0.2219044268131256
1727009993146328000,10.366328125,0.09334006905555725,-0.04850521683692932,0.04360713064670563
1727009993156365800,10.37636572265625,0.17011579871177673,-0.006904511246830225,0.19957250356674194
1727009993166403800,10.38640380859375,0.18450991809368134,0.018882878124713898,0.38227519392967224
1727009993176440800,10.39644091796875,0.12832175195217133,0.14138349890708923,0.15589559078216553
1727009993186478800,10.406478759765625,0.09971088171005249,0.23331262171268463,0.05047089606523514
1727009993196516900,10.416516845703125,0.1191311851143837,0.2428789585828781,-0.30061522126197815
1727009993206555000,10.426554931640625,0.1440839320421219,0.2968548536300659,-0.15127554535865784
1727009993216593000,10.436593017578126,0.13755466043949127,0.24016839265823364,0.033609092235565186
1727009993226630000,10.4466298828125,0.13716983795166016,0.1828813999891281,0.10955525934696198
1727009993236668000,10.45666796875,0.15816886723041534,0.10304036736488342,0.14998896420001984
1727009993246705700,10.46670556640625,0.14198963344097137,0.2540799379348755,0.09581627696752548
1727009993256744000,10.476743896484376,0.10415356606245041,0.2930113673210144,-0.10489872097969055
1727009993266781700,10.48678173828125,0.11591728031635284,0.3399825990200043,0.023009445518255234
1727009993276819000,10.49681884765625,0.140766441822052,0.18972119688987732,-0.010043845511972904
1727009993286857000,10.50685693359375,0.15588733553886414,0.08287810534238815,0.22756072878837585
1727009993296894700,10.516894775390625,0.12981845438480377,0.1653205156326294,0.07702154666185379
1727009993306933000,10.52693310546875,0.11630424112081528,0.2757128179073334,0.04309846833348274
1727009993316970000,10.536969970703124,0.15094876289367676,0.3148157298564911,0.012314989231526852
1727009993327007700,10.5470078125,0.12987065315246582,0.4377235472202301,0.1383136659860611
1727009993337046000,10.5570458984375,0.04613953083753586,0.4502025842666626,0.19102801382541656
1727009993347083800,10.567083740234375,0.027994083240628242,0.4815778136253357,0.2322329729795456
1727009993357122000,10.5771220703125,0.09764959663152695,0.3483417332172394,0.08202216774225235
1727009993367158800,10.58715869140625,0.11768189072608948,0.0460234172642231,-0.13602867722511292
1727009993377196800,10.59719677734375,0.05258464813232422,-0.08813118934631348,0.08169592916965485
1727009993387234800,10.60723486328125,0.012909406796097755,-0.0616132952272892,0.11222746968269348
1727009993397272800,10.61727294921875,0.07436637580394745,0.09963711351156235,0.126851424574852
1727009993407310800,10.627310791015624,0.11219391226768494,0.31466713547706604,0.038833681493997574
1727009993417347800,10.637347900390624,0.05120379850268364,0.5052221417427063,-0.0203928891569376
1727009993427385900,10.6473857421875,-0.00965742114931345,0.5320332646369934,-0.07254637032747269
1727009993437423900,10.657423828125,-0.0172096136957407,0.3604860007762909,0.23867303133010864
1727009993447462000,10.6674619140625,-0.04002970829606056,0.029756831005215645,0.2868698537349701
1727009993457500000,10.6775,-0.13300305604934692,-0.17151449620723724,0.18950921297073364
1727009993467537000,10.687536865234375,-0.2321203202009201,-0.13455168902873993,0.018014419823884964
1727009993477575000,10.697574951171875,-0.2715124785900116,-0.06088678538799286,-0.05636447295546532
1727009993487613000,10.707613037109375,-0.25400298833847046,-0.045404233038425446,-0.13364647328853607
1727009993497651000,10.71765087890625,-0.23613689839839935,-0.17034830152988434,-0.02394527941942215
1727009993507687700,10.727687744140624,-0.2765730023384094,-0.30268317461013794,-0.1945234090089798
1727009993517726000,10.737725830078125,-0.3228752613067627,-0.4182414710521698,-0.305929571390152
1727009993527764000,10.747763916015625,-0.2968052923679352,-0.39234620332717896,-0.018729479983448982
1727009993537802000,10.757802001953126,-0.23309077322483063,-0.23613077402114868,0.11229138821363449
1727009993547840000,10.767840087890624,-0.21284089982509613,-0.03783765807747841,0.1318267434835434
1727009993557876700,10.777876708984374,-0.27004265785217285,0.07797548919916153,-0.1362590342760086
1727009993567915000,10.7879150390625,-0.34265321493148804,0.044196490198373795,-0.19577457010746002
1727009993577952800,10.797952880859375,-0.3394928574562073,-0.11390872299671173,-0.18183690309524536
1727009993587991000,10.807990966796876,-0.27070021629333496,-0.32808545231819153,0.19016169011592865
1727009993598028800,10.81802880859375,-0.22467492520809174,-0.4569113552570343,0.10664469003677368
1727009993608065800,10.828065673828124,-0.25125354528427124,-0.41235825419425964,-0.030296919867396355
1727009993618104000,10.83810400390625,-0.3065708577632904,-0.3022538721561432,-0.2800372540950775
1727009993628141800,10.848141845703125,-0.30990779399871826,-0.16685795783996582,-0.15031839907169342
1727009993638179600,10.8581796875,-0.2803163528442383,-0.05118995159864426,-0.06390334665775299
1727009993648217300,10.86821728515625,-0.2168436348438263,-0.04597841203212738,0.09840299934148788
1727009993658254600,10.878254638671875,-0.1888950914144516,-0.1507711410522461,0.16205228865146637
1727009993668292600,10.888292724609375,-0.2376152127981186,-0.36897537112236023,-0.022768162190914154
1727009993678330400,10.898330322265625,-0.2792436182498932,-0.5072402954101562,-0.049666088074445724
1727009993688368600,10.90836865234375,-0.21111038327217102,-0.5249290466308594,-0.14959189295768738
1727009993698405600,10.918405517578124,-0.10075723379850388,-0.33651623129844666,-0.0644620805978775
1727009993708443400,10.928443359375,-0.09677687287330627,-0.08897940814495087,-0.12917396426200867
1727009993718481700,10.938481689453125,-0.161968395113945,0.05928116664290428,-0.03724697232246399
1727009993728519400,10.94851953125,-0.1312861144542694,0.11489835381507874,0.0023989754263311625
1727009993738557700,10.9585576171875,-0.012018846347928047,0.0305765513330698,0.35317936539649963
1727009993748594400,10.968594482421874,0.03178935497999191,-0.08025089651346207,0.21359537541866302
1727009993758632400,10.978632568359375,-0.013653494417667389,-0.23848581314086914,0.11146287620067596
1727009993768670500,10.98867041015625,-0.042220957577228546,-0.2736035883426666,-0.010855576954782009
1727009993778708500,10.99870849609375,-0.0034104441292583942,-0.2833225131034851,-0.11563178896903992
1727009993788746500,11.00874658203125,0.044488370418548584,-0.20569750666618347,-0.30540651082992554
1727009993798783500,11.018783447265625,0.05230208486318588,-0.07158603519201279,-0.23075518012046814
1727009993808821500,11.028821533203125,0.04391232877969742,0.03345702588558197,-0.058988217264413834
1727009993818859500,11.038859619140625,0.09374566376209259,-0.03904939815402031,0.1542995572090149
1727009993828897500,11.0488974609375,0.17302104830741882,-0.08884625136852264,0.26804158091545105
1727009993838935600,11.058935546875,0.18934249877929688,-0.09532385319471359,0.23178689181804657
1727009993848972500,11.06897265625,0.13350160419940948,0.025254489853978157,0.022291190922260284
1727009993859010600,11.079010498046875,0.08426401764154434,0.12289902567863464,-0.1679743528366089
1727009993869048600,11.089048583984376,0.09622693061828613,0.11015713214874268,-0.26435574889183044
1727009993879086600,11.099086669921874,0.17233288288116455,-0.07750464230775833,-0.09164603054523468
1727009993889123300,11.109123291015624,0.21368113160133362,-0.20189690589904785,0.1002163514494896
1727009993899161600,11.11916162109375,0.1795114427804947,-0.22299127280712128,0.2611631453037262
1727009993909199400,11.129199462890625,0.12159274518489838,0.003561711637303233,0.12069472670555115
1727009993919237600,11.139237548828126,0.10051275789737701,0.31303539872169495,0.012620986439287663
1727009993929275400,11.149275390625,0.10155485570430756,0.41074493527412415,-0.27221739292144775
1727009993939312400,11.1593125,0.07839494198560715,0.30261367559432983,-0.09891459345817566
1727009993949350700,11.1693505859375,0.026440927758812904,0.08314602077007294,-0.0427839495241642
1727009993959388400,11.179388427734375,0.014255900867283344,-0.15583832561969757,0.09062497317790985
1727009993969426400,11.189426513671876,0.07162997871637344,-0.214157834649086,0.07332667708396912
1727009993979464400,11.19946435546875,0.09365592151880264,-0.23462022840976715,-0.03205167502164841
1727009993989501400,11.20950146484375,0.04446680098772049,-0.19291193783283234,-0.12321434170007706
1727009993999539700,11.219539794921875,-0.002811232814565301,0.021572669968008995,-0.06154671683907509
1727009994009577500,11.229577392578125,-0.0028607675340026617,0.20311875641345978,-0.17423571646213531
1727009994019615500,11.239615478515624,0.026379143819212914,0.30381447076797485,-0.16060298681259155
1727009994029652500,11.249652587890624,0.057006560266017914,0.18802210688591003,-0.15438291430473328
1727009994039690500,11.2596904296875,0.07795977592468262,-0.015962455421686172,0.20576807856559753
1727009994049728500,11.269728515625,0.06213900446891785,-0.14901398122310638,0.3610980212688446
1727009994059766500,11.2797666015625,0.02936454676091671,0.040946900844573975,0.3300141394138336
1727009994069804500,11.289804443359374,0.01570253074169159,0.21578529477119446,-0.14939561486244202
1727009994079841500,11.299841552734375,0.013453224673867226,0.41940605640411377,-0.2717798352241516
1727009994089879600,11.309879638671875,0.03124021179974079,0.33850401639938354,-0.3710459768772125
1727009994099917300,11.319917236328125,0.10802260786294937,0.006568686570972204,0.11596015840768814
1727009994109955600,11.32995556640625,0.20699499547481537,-0.362377405166626,0.39019784331321716
1727009994119993300,11.339993408203124,0.2068125605583191,-0.38996294140815735,0.36520540714263916
1727009994130030300,11.3500302734375,0.12203189730644226,-0.06724455207586288,0.1605345457792282
1727009994140068600,11.360068603515625,0.10162010043859482,0.3588542938232422,-0.0528741329908371
1727009994150106400,11.3701064453125,0.1437092274427414,0.5237202048301697,-0.15473312139511108
1727009994160144600,11.38014453125,0.16577617824077606,0.4383813440799713,-0.1473894566297531
1727009994170181600,11.390181640625,0.14692792296409607,0.16437749564647675,-0.022961774840950966
1727009994180219400,11.400219482421875,0.1470530927181244,-0.1208537146449089,0.08492793887853622
1727009994190257700,11.410257568359375,0.22684618830680847,-0.18531446158885956,0.31180262565612793
1727009994200295400,11.42029541015625,0.27832669019699097,-0.02937386743724346,0.33998605608940125
1727009994210333700,11.430333740234374,0.22706350684165955,0.1631803959608078,0.06245885044336319
1727009994220370400,11.440370361328124,0.13365259766578674,0.2736102342605591,0.05204882100224495
1727009994230408400,11.450408447265625,0.055702146142721176,0.38120993971824646,-0.05373965948820114
1727009994240446500,11.460446533203125,0.028562402352690697,0.2773996591567993,-0.12977264821529388
1727009994250484500,11.470484375,0.04453204944729805,0.09831857681274414,-0.06958227604627609
1727009994260522500,11.4805224609375,0.033846113830804825,-0.1762637048959732,-0.2559920847415924
1727009994270559500,11.4905595703125,0.008708536624908447,-0.23682372272014618,0.0969071015715599
1727009994280597500,11.500597412109375,-0.028418591246008873,-0.10177749395370483,0.10492561757564545
1727009994290635500,11.510635498046875,-0.013221262954175472,0.11098537594079971,0.22420567274093628
1727009994300673500,11.520673583984374,-0.0011467571603134274,0.20433609187602997,0.059373579919338226
1727009994310710500,11.53071044921875,-0.037342045456171036,0.108527272939682,-0.16802655160427094
1727009994320748500,11.54074853515625,-0.08063013106584549,-0.11719319969415665,-0.23805756866931915
1727009994330786600,11.55078662109375,-0.07039320468902588,-0.32167577743530273,-0.09118157625198364
1727009994340824600,11.560824462890626,0.0031193606555461884,-0.48412299156188965,0.041978344321250916
1727009994350862600,11.570862548828124,0.018428808078169823,-0.44076433777809143,0.05753146857023239
1727009994360899300,11.5808994140625,-0.0745948776602745,-0.17707224190235138,-0.14733965694904327
1727009994370937600,11.5909375,-0.14671726524829865,-0.016096943989396095,-0.2468092441558838
1727009994380975400,11.600975341796875,-0.1276833862066269,0.08514632284641266,-0.1193050891160965
1727009994391013600,11.611013671875,-0.05975547432899475,0.02142459899187088,0.03699929639697075
1727009994401051600,11.6210517578125,-0.024330906569957733,-0.10994700342416763,0.13634425401687622
1727009994411088400,11.63108837890625,-0.022113557904958725,-0.3356616199016571,0.20088356733322144
1727009994421126700,11.641126708984375,-0.038186535239219666,-0.4519461691379547,0.054058175534009933
1727009994431164400,11.651164306640625,-0.051422443240880966,-0.5304625630378723,-0.31628021597862244
1727009994441202400,11.661202392578126,0.003878894029185176,-0.5114699602127075,-0.33906009793281555
1727009994451239700,11.67123974609375,0.056534916162490845,-0.413073867559433,-0.2631826400756836
1727009994461277400,11.68127734375,0.07353387027978897,-0.16584862768650055,-0.028537901118397713
1727009994471315700,11.691315673828125,0.1071552187204361,-0.019178753718733788,0.026738137006759644
1727009994481353500,11.701353515625,0.18160468339920044,0.2310768961906433,0.2664010524749756
1727009994491391500,11.7113916015625,0.21510565280914307,0.3729352355003357,0.16264377534389496
1727009994501428500,11.721428466796874,0.22333215177059174,0.437732070684433,0.42356404662132263
1727009994511466500,11.731466552734375,0.2092253863811493,0.3107978105545044,0.22234198451042175
1727009994521504500,11.74150439453125,0.16636714339256287,0.059488628059625626,0.1944994479417801
1727009994531542500,11.75154248046875,0.11780919134616852,-0.14288951456546783,-0.23505938053131104
1727009994541580500,11.76158056640625,0.11416172236204147,-0.26335492730140686,-0.4081307649612427
1727009994551617500,11.771617431640625,0.1314333975315094,-0.18345531821250916,-0.37484124302864075
1727009994561655600,11.781655517578125,0.14682592451572418,-0.07022888958454132,-0.11566534638404846
1727009994571693300,11.791693359375,0.19718711078166962,0.1620834469795227,0.14984248578548431
1727009994581731600,11.801731689453124,0.26408651471138,0.27804893255233765,0.3985247313976288
1727009994591768600,11.8117685546875,0.26251471042633057,0.30024850368499756,0.5465416312217712
1727009994601806300,11.821806396484375,0.19277077913284302,0.21739676594734192,0.37719255685806274
1727009994611844600,11.8318447265625,0.1212281584739685,0.23449452221393585,-0.009978331625461578
1727009994621882400,11.84188232421875,0.09107238799333572,0.08806061744689941,-0.3901080787181854
1727009994631921400,11.85192138671875,0.10466915369033813,-0.07257673144340515,-0.5516237616539001
1727009994641958400,11.86195849609375,0.12081829458475113,-0.22646082937717438,-0.24161875247955322
1727009994651996700,11.87199658203125,0.10575545579195023,-0.10624387860298157,0.1460392326116562
1727009994662034400,11.882034423828125,0.059659335762262344,0.014740596525371075,0.37970978021621704
1727009994672072700,11.89207275390625,0.05778686702251434,0.25877776741981506,0.34759125113487244
1727009994682110500,11.9021103515625,0.07716216146945953,0.2058868557214737,0.08891841769218445
1727009994692147500,11.9121474609375,0.06161729246377945,0.1783151477575302,0.15074849128723145
1727009994702185700,11.922185791015625,0.014178403653204441,0.04047472029924393,0.003370496677234769
1727009994712223500,11.932223388671876,0.017771806567907333,0.17614306509494781,0.08114279061555862
1727009994722261800,11.94226171875,0.05330609902739525,0.36838069558143616,-0.3721674382686615
1727009994732298500,11.952298583984375,0.060683853924274445,0.4561523497104645,-0.35292983055114746
1727009994742336500,11.96233642578125,0.006685066968202591,0.3706536889076233,-0.2806047797203064
1727009994752374500,11.97237451171875,-0.027239875867962837,0.17500723898410797,0.18754379451274872
1727009994762412500,11.98241259765625,0.03826669603586197,-0.004611529875546694,0.3863716721534729
1727009994772450600,11.992450439453124,0.13482359051704407,-0.07132850587368011,0.43587982654571533
1727009994782487600,12.002487548828125,0.12594594061374664,-0.0573439821600914,0.20501093566417694
1727009994792525600,12.012525634765625,0.02744387462735176,0.10316553711891174,-0.1087307408452034
1727009994802563600,12.0225634765625,-0.007223824504762888,0.25361868739128113,-0.4333074986934662
1727009994812601600,12.0326015625,0.06688129901885986,0.4989461600780487,-0.42014214396476746
1727009994822638600,12.042638671875,0.14992770552635193,0.6146727800369263,-0.11527812480926514
1727009994832676600,12.052676513671875,0.15770120918750763,0.5624673366546631,0.21739622950553894
1727009994842714600,12.062714599609375,0.11394041776657104,0.28292223811149597,0.6445657014846802
1727009994852752400,12.07275244140625,0.05793653801083565,0.19368211925029755,0.6375213265419006
1727009994862790700,12.082790771484374,-0.025839053094387054,0.18544521927833557,0.2538413405418396
1727009994872827600,12.09282763671875,-0.09794733673334122,0.3244047164916992,-0.2692115008831024
1727009994882865700,12.10286572265625,-0.07780158519744873,0.1678483933210373,-0.7157517075538635
1727009994892903700,12.112903564453125,0.04375120997428894,-0.1696215271949768,-0.4748906195163727
1727009994902941400,12.12294140625,0.15614406764507294,-0.4032931327819824,-0.07829693704843521
1727009994912979700,12.132979736328124,0.18777203559875488,-0.31177306175231934,0.4640326499938965
1727009994923016400,12.143016357421875,0.15581010282039642,0.032595228403806686,0.5304883718490601
1727009994933054500,12.153054443359375,0.1078614890575409,0.47494441270828247,0.5049337148666382
1727009994943092500,12.163092529296875,0.05542517453432083,0.8185281753540039,0.35304006934165955
1727009994953130500,12.173130615234374,-0.025944780558347702,0.7928507328033447,-0.03994182497262955
1727009994963167700,12.183167724609374,-0.07702367752790451,0.5280856490135193,-0.2560115456581116
1727009994973205500,12.19320556640625,-0.0988813042640686,0.13737650215625763,-0.4013732671737671
1727009994983243500,12.203243408203125,-0.09920594841241837,-0.1611715853214264,-0.16441744565963745
1727009994993281500,12.213281494140626,-0.08845023810863495,-0.1939319223165512,0.17062899470329285
1727009995003319600,12.223319580078124,-0.11834155768156052,0.02936188317835331,0.43312880396842957
1727009995013356500,12.2333564453125,-0.21602018177509308,0.23868288099765778,0.3084513247013092
1727009995023394600,12.24339453125,-0.33665817975997925,0.42178240418434143,0.1801639050245285
1727009995033432600,12.2534326171875,-0.4040510654449463,0.2963397800922394,-0.14001329243183136
1727009995043470600,12.263470703125,-0.3889509439468384,-0.017789915204048157,-0.20178771018981934
1727009995053507600,12.273507568359374,-0.3737514913082123,-0.37090402841567993,-0.19581717252731323
1727009995063545300,12.28354541015625,-0.429214209318161,-0.45358985662460327,-0.15351125597953796
1727009995073583600,12.29358349609375,-0.5035126805305481,-0.34038686752319336,-0.09566926956176758
1727009995083621400,12.303621337890625,-0.5025419592857361,-0.043185021728277206,0.04357703775167465
1727009995093659600,12.31365966796875,-0.4687986373901367,0.08617643266916275,0.12377920001745224
1727009995103696600,12.323696533203124,-0.48646897077560425,-0.05047861859202385,0.13082937896251678
