time,seconds_elapsed,z,y,x
1727009847089696800,0.01769677734375,0.017373397946357727,-0.12307026237249374,0.026751453056931496
1727009847099734800,0.02773486328125,0.03338645398616791,-0.09508071094751358,0.05595621094107628
1727009847109772800,0.037772705078125,0.023059779778122902,-0.07230881601572037,0.04476027935743332
1727009847119810800,0.047810791015625,-0.0016727314796298742,-0.06563280522823334,0.0013432984706014395
1727009847129848800,0.057848876953125,-0.02207946963608265,-0.06589725613594055,-0.04547720402479172
1727009847139886800,0.067886962890625,-0.013259080238640308,-0.05850671976804733,-0.06245032697916031
1727009847149923800,0.077923828125,-0.00373055599629879,-0.03344424441456795,-0.039499204605817795
1727009847159961900,0.0879619140625,-0.009650496765971184,0.029223931953310966,0.00048629322554916143
1727009847170000000,0.097999755859375,-0.0028075044974684715,0.060856692492961884,0.03321787342429161
1727009847180038000,0.108037841796875,0.0057162088342010975,0.05607525259256363,0.023907197639346123
1727009847190076000,0.118075927734375,0.0056392434053123,0.05603131279349327,0.007270962465554476
1727009847200113700,0.12811376953125,0.011387144215404987,0.08560331910848618,-0.002430400811135769
1727009847210152000,0.13815185546875,0.038055505603551865,0.11421605199575424,-0.01570359617471695
1727009847220189700,0.148189697265625,0.0698762834072113,0.17915324866771698,-0.009665942750871181
1727009847230228000,0.15822802734375,0.08875410258769989,0.2174319177865982,-0.014088654890656471
1727009847240265700,0.168265625,0.060268133878707886,0.1977684646844864,-0.0057468353770673275
1727009847250304000,0.178303955078125,0.07036683708429337,0.1933063417673111,-0.0022120214998722076
1727009847260341800,0.188341796875,0.12324976176023483,0.2162068635225296,0.002948385663330555
1727009847270379800,0.1983798828125,0.14455558359622955,0.23878301680088043,-0.01200845930725336
1727009847280417000,0.2084169921875,0.13473491370677948,0.2622164487838745,-0.020673852413892746
1727009847290454800,0.218454833984375,0.10524998605251312,0.24187840521335602,-0.01643037237226963
1727009847300492800,0.228492919921875,0.08112920820713043,0.15044569969177246,0.02690937928855419
1727009847310530800,0.23853076171875,0.10099878907203674,0.024653414264321327,0.08471834659576416
1727009847320568800,0.24856884765625,0.18050426244735718,-0.09529509395360947,0.13898637890815735
1727009847330606800,0.25860693359375,0.2713926136493683,-0.11057737469673157,0.23036928474903107
1727009847340644900,0.268644775390625,0.16037608683109283,-0.07228458672761917,0.22718042135238647
1727009847350683000,0.278682861328125,0.012534433975815773,-0.009516806341707706,0.1511458456516266
1727009847360721000,0.288720947265625,0.02660045213997364,0.03038187325000763,0.047630902379751205
1727009847370758700,0.298758544921875,0.1285150945186615,0.02105947956442833,-0.0364147312939167
1727009847380797000,0.308796875,0.13320785760879517,-0.02190503291785717,-0.06243834272027016
1727009847390834700,0.318834716796875,0.0358450822532177,-0.08253109455108643,0.010755175724625587
1727009847400873000,0.328873046875,-0.028603149577975273,-0.12814119458198547,0.0693545714020729
1727009847410910000,0.338909912109375,0.009473662823438644,-0.10441109538078308,0.06579872220754623
1727009847420947700,0.34894775390625,0.08187249302864075,-0.0355026014149189,0.0731423869729042
1727009847430986000,0.358986083984375,0.08181044459342957,-0.026210565119981766,0.032519325613975525
1727009847441023700,0.369023681640625,0.0022591594606637955,-0.007300257217139006,0.037449903786182404
1727009847451062000,0.37906201171875,-0.0456836000084877,0.018448781222105026,-0.008506136015057564
1727009847461099800,0.389099853515625,-0.002907373011112213,0.018991800025105476,-0.021527396515011787
1727009847471137800,0.3991376953125,0.050460509955883026,-0.009945308789610863,-0.02943272329866886
1727009847481175800,0.40917578125,0.026742398738861084,-0.08331992477178574,0.03009265474975109
1727009847491214300,0.41921435546875,-0.05700576305389404,-0.1258719116449356,0.02256549708545208
1727009847501252400,0.42925244140625,-0.07321961969137192,-0.1160443127155304,-0.008047273382544518
1727009847511290400,0.439290283203125,-0.013395434245467186,-0.09462690353393555,-0.05633730813860893
1727009847521328000,0.449328125,0.02155109867453575,-0.09438961744308472,-0.07630036026239395
1727009847531365400,0.459365478515625,0.007148989476263523,-0.1396055668592453,-0.06380214542150497
1727009847541403400,0.4694033203125,-0.0018841864075511694,-0.191144660115242,0.02539111115038395
1727009847551441200,0.479441162109375,0.01398878637701273,-0.1893470287322998,0.01221485435962677
1727009847561479400,0.4894794921875,0.03955459967255592,-0.10698796808719635,0.03725762292742729
1727009847571517200,0.49951708984375,0.03413799777626991,0.019958261400461197,0.030182935297489166
1727009847581555500,0.509555419921875,0.008235293440520763,0.10196737945079803,0.016519853845238686
1727009847591593200,0.51959326171875,-0.0006652576266787946,0.07333173602819443,-0.021329790353775024
1727009847601631500,0.529631591796875,0.03569381684064865,-0.04111441224813461,-0.03780516982078552
1727009847611669200,0.539669189453125,0.061220213770866394,-0.20236802101135254,-0.01720535196363926
1727009847621707300,0.549707275390625,0.03951731696724892,-0.2845374643802643,0.017292438074946404
1727009847631745300,0.559745361328125,0.00782356783747673,-0.20229770243167877,0.0054389736615121365
1727009847641783300,0.569783203125,0.01173415407538414,-0.04429049789905548,0.003919107839465141
1727009847651821300,0.5798212890625,0.03146764636039734,0.06607489287853241,0.0019097528420388699
1727009847661858300,0.5898583984375,0.026751985773444176,0.07659224420785904,0.009977266192436218
1727009847671896300,0.599896240234375,-0.0014223942998796701,0.009426791220903397,0.010522149503231049
1727009847681934300,0.609934326171875,-0.0179398525506258,-0.09754998981952667,-0.028839372098445892
1727009847691972400,0.619972412109375,0.020176641643047333,-0.17840676009655,-0.04349954053759575
1727009847702010400,0.63001025390625,0.07663698494434357,-0.1575630009174347,-0.09362129867076874
1727009847712048400,0.64004833984375,0.11189430952072144,-0.1606498658657074,-0.03313984349370003
1727009847722086100,0.650086181640625,0.11850960552692413,-0.12307319790124893,0.06777558475732803
1727009847732124400,0.66012451171875,0.11417264491319656,-0.051045872271060944,-0.023122895509004593
1727009847742162200,0.670162109375,0.15734781324863434,0.12241006642580032,0.19884945452213287
1727009847752200400,0.680200439453125,0.14935699105262756,0.2826966643333435,-0.07044646888971329
1727009847762238200,0.69023828125,0.17000527679920197,0.32818958163261414,-0.05582598224282265
1727009847772276500,0.7002763671875,0.2461991161108017,0.21930065751075745,-0.10651552677154541
1727009847782314200,0.710314208984375,0.31235364079475403,0.028115790337324142,0.0326618067920208
1727009847792351200,0.720351318359375,0.32951557636260986,-0.12497788667678833,0.0867956131696701
1727009847802389500,0.730389404296875,0.3162897825241089,-0.033737991005182266,0.13562840223312378
1727009847812427300,0.74042724609375,0.2590555250644684,0.05271327868103981,0.1515919268131256
1727009847822465300,0.75046533203125,0.11907951533794403,0.26941603422164917,0.23048193752765656
1727009847832503300,0.76050341796875,0.03266686573624611,0.49163365364074707,-0.010611365549266338
1727009847842541300,0.770541259765625,0.17270733416080475,0.34650227427482605,-0.13663454353809357
1727009847852579300,0.780579345703125,0.37290406227111816,-0.09670603275299072,-0.21537889540195465
1727009847862617300,0.790617431640625,0.35443878173828125,-0.510765552520752,-0.19427946209907532
1727009847872655400,0.8006552734375,0.1941833198070526,-0.4187493324279785,-0.07332108169794083
1727009847882693400,0.810693359375,0.14176885783672333,-0.023790551349520683,0.06499764323234558
1727009847892731100,0.820731201171875,0.2448694109916687,0.42149078845977783,0.3824661374092102
1727009847902769400,0.830769287109375,0.2980538010597229,0.6136099100112915,0.36780598759651184
1727009847912806400,0.840806396484375,0.2300419956445694,0.5180698037147522,0.17771966755390167
1727009847922844400,0.850844482421875,0.14756788313388824,0.13423903286457062,-0.10954619944095612
1727009847932882400,0.86088232421875,0.1815548837184906,-0.28301864862442017,-0.27212151885032654
1727009847942920200,0.870920166015625,0.2535659670829773,-0.4058774709701538,-0.28050437569618225
1727009847952958500,0.88095849609375,0.2206716537475586,-0.20574037730693817,-0.08478546142578125
1727009847962996200,0.890996337890625,0.12339996546506882,0.12387560307979584,0.15907993912696838
1727009847973034500,0.901034423828125,0.06649141013622284,0.4186481237411499,0.3585107624530792
1727009847983072300,0.911072265625,0.0674743801355362,0.48475176095962524,0.259012907743454
1727009847993110300,0.9211103515625,0.08131589740514755,0.24028797447681427,0.005849633365869522
1727009848003148300,0.931148193359375,0.04296797513961792,-0.1369999349117279,-0.0919048860669136
1727009848013186300,0.941186279296875,-0.07160361111164093,-0.41603875160217285,-0.1607915461063385
1727009848023224300,0.951224365234375,-0.13627395033836365,-0.47870001196861267,-0.12494699656963348
1727009848033262300,0.961262451171875,-0.11763155460357666,-0.28963473439216614,-0.020435500890016556
1727009848043299000,0.971299072265625,-0.1289965957403183,-0.0046160570345819,0.03549594059586525
1727009848053337300,0.98133740234375,-0.22862331569194794,0.17702777683734894,0.10609900206327438
1727009848063375400,0.991375244140625,-0.3202882707118988,0.07510087639093399,0.16585847735404968
1727009848073413400,1.001413330078125,-0.34308624267578125,-0.17525890469551086,0.12841735780239105
1727009848083451400,1.011451416015625,-0.33400169014930725,-0.44857698678970337,-0.06682643294334412
1727009848093489400,1.021489501953125,-0.36288684606552124,-0.6316554546356201,-0.15535470843315125
1727009848103527400,1.03152734375,-0.4332236051559448,-0.6342949271202087,-0.22242242097854614
1727009848113565200,1.041565185546875,-0.4878208041191101,-0.5247231721878052,-0.17254513502120972
1727009848123603500,1.051603515625,-0.47430500388145447,-0.3481031060218811,-0.09291262924671173
1727009848133641200,1.06164111328125,-0.45483994483947754,-0.24276550114154816,-0.0650825947523117
1727009848143679500,1.071679443359375,-0.4627700448036194,-0.31602293252944946,0.03214328736066818
1727009848153717200,1.08171728515625,-0.4880746006965637,-0.49537351727485657,0.04219618812203407
1727009848163755300,1.09175537109375,-0.5000425577163696,-0.6570878624916077,-0.0336487740278244
1727009848173793300,1.101793212890625,-0.4922182261943817,-0.6759507656097412,-0.1262090653181076
1727009848183830300,1.111830322265625,-0.5130257606506348,-0.5538467168807983,-0.14660781621932983
1727009848193868300,1.121868408203125,-0.5563902854919434,-0.4172539710998535,-0.12491264194250107
1727009848203906300,1.13190625,-0.5832293629646301,-0.30636340379714966,-0.07587558776140213
1727009848213944300,1.1419443359375,-0.5504881739616394,-0.29937446117401123,0.04853637516498566
1727009848223982300,1.151982421875,-0.5220573544502258,-0.2738456726074219,0.062237273901700974
1727009848234020400,1.162020263671875,-0.5595008730888367,-0.19895757734775543,0.02684439718723297
1727009848244058400,1.172058349609375,-0.6026930809020996,-0.21592484414577484,-0.16769419610500336
1727009848254096400,1.182096435546875,-0.5524517297744751,-0.2288733869791031,-0.08448745310306549
1727009848264134400,1.192134521484375,-0.49159955978393555,-0.3160754144191742,-0.10555066168308258
1727009848274172400,1.20217236328125,-0.47126924991607666,-0.41462647914886475,-0.025607891380786896
1727009848284210200,1.212210205078125,-0.47012969851493835,-0.4879092276096344,0.05687553435564041
1727009848294248400,1.22224853515625,-0.46062272787094116,-0.4858569800853729,0.018315091729164124
1727009848304286200,1.2322861328125,-0.4500790238380432,-0.3547266721725464,-0.007705590222030878
1727009848314323200,1.2423232421875,-0.4682002365589142,-0.16437935829162598,-0.16247199475765228
1727009848324361200,1.252361328125,-0.41801536083221436,-0.17815642058849335,-0.2844682037830353
1727009848334399200,1.262399169921875,-0.26320552825927734,-0.264838308095932,-0.17878572642803192
1727009848344437200,1.272437255859375,-0.16571547091007233,-0.33959245681762695,-0.05421450361609459
1727009848354475300,1.282475341796875,-0.1795005202293396,-0.47389647364616394,0.12824638187885284
1727009848364513300,1.29251318359375,-0.174950510263443,-0.4377608299255371,0.19038459658622742
1727009848374551300,1.30255126953125,-0.1080673485994339,-0.26064997911453247,0.1701781302690506
1727009848384589300,1.31258935546875,-0.04265238717198372,-0.10466969013214111,0.07098016887903214
1727009848394627300,1.32262744140625,0.00708640506491065,-0.07533017545938492,-0.11746777594089508
1727009848404665300,1.332665283203125,0.04477519541978836,-0.1388803869485855,-0.196470707654953
1727009848414703400,1.342703369140625,0.06720273941755295,-0.19601398706436157,-0.17209506034851074
1727009848424741400,1.352741455078125,0.12099326401948929,-0.22476813197135925,-0.03906670957803726
1727009848434779400,1.362779296875,0.21806149184703827,-0.19313323497772217,0.06407565623521805
1727009848444816400,1.37281640625,0.29316556453704834,-0.06801526993513107,0.2745727002620697
1727009848454854100,1.382854248046875,0.2850636839866638,-0.07289764285087585,0.04049656167626381
1727009848464892400,1.392892333984375,0.26705408096313477,-0.23163588345050812,-0.29830652475357056
1727009848474930200,1.40293017578125,0.3074195981025696,-0.37042146921157837,-0.5999734401702881
1727009848484967400,1.412967529296875,0.404037207365036,-0.3228265345096588,-0.12358931452035904
1727009848495005400,1.42300537109375,0.4693453907966614,0.3757328689098358,1.1548060178756714
1727009848505043500,1.43304345703125,0.3406558632850647,1.2282123565673828,0.7430131435394287
1727009848515081500,1.44308154296875,0.27886253595352173,1.6833910942077637,0.028243888169527054
1727009848525119200,1.453119140625,0.4004720449447632,1.1512720584869385,-0.5615125894546509
1727009848535157500,1.463157470703125,0.5463070273399353,-0.012510998174548149,-0.6282495260238647
1727009848545195300,1.4731953125,0.5173219442367554,-1.1702721118927002,0.10961224883794785
1727009848555233500,1.483233642578125,0.340484082698822,-1.2799229621887207,0.4730740785598755
1727009848565271300,1.493271240234375,0.29536640644073486,-0.37334534525871277,0.4004361033439636
1727009848575308300,1.503308349609375,0.46614906191825867,0.9767633080482483,0.057622816413640976
1727009848585346600,1.5133466796875,0.6747504472732544,1.5034923553466797,-0.2163003385066986
1727009848595384300,1.52338427734375,0.7636595964431763,1.206746220588684,-0.034383807331323624
1727009848605422600,1.533422607421875,0.7434000968933105,0.3548310697078705,-0.07810172438621521
1727009848615460400,1.54346044921875,0.7344452142715454,-0.5856336355209351,0.014991732314229012
1727009848625498600,1.55349853515625,0.7131069302558899,-0.900566577911377,0.06260692328214645
1727009848635536400,1.563536376953125,0.607526957988739,-0.40247899293899536,0.12364017963409424
1727009848645574400,1.573574462890625,0.4885193407535553,0.620975136756897,0.2047795057296753
1727009848655612400,1.5836123046875,0.47464507818222046,1.4522571563720703,0.14996713399887085
1727009848665650400,1.593650390625,0.5578539371490479,1.5022401809692383,0.023420371115207672
1727009848675688400,1.6036884765625,0.6513791084289551,0.9361889958381653,-0.023077089339494705
1727009848685726500,1.6137265625,0.6935372352600098,0.13835307955741882,0.016115320846438408
1727009848695764200,1.62376416015625,0.7207600474357605,-0.5205768942832947,0.12488174438476562
1727009848705801500,1.633801513671875,0.75823974609375,-0.5746363997459412,0.08404776453971863
1727009848715839500,1.643839599609375,0.7800723910331726,-0.08151749521493912,-0.06533080339431763
1727009848725877500,1.65387744140625,0.8259530663490295,0.808060348033905,-0.06084311008453369
1727009848735915500,1.66391552734375,0.9152160882949829,1.510268211364746,0.11883104592561722
1727009848745953300,1.673953369140625,0.9867688417434692,1.6208610534667969,0.33848538994789124
1727009848755991600,1.683991455078125,1.0329853296279907,1.2967562675476074,0.2810143530368805
1727009848766029300,1.694029296875,1.107968807220459,0.6068454384803772,0.31778037548065186
1727009848776067600,1.704067626953125,1.1667004823684692,-0.0343550443649292,0.3520802855491638
1727009848786105300,1.714105224609375,1.140639305114746,-0.11152173578739166,0.28933754563331604
1727009848796143600,1.7241435546875,1.0569063425064087,0.3129078447818756,-0.09164949506521225
1727009848806181400,1.734181396484375,1.0380094051361084,0.8769538998603821,-0.33155104517936707
1727009848816219400,1.744219482421875,1.0694046020507812,1.22797429561615,-0.09907225519418716
1727009848826257400,1.75425732421875,1.047096610069275,1.1804940700531006,0.16592586040496826
1727009848836295400,1.76429541015625,1.0242458581924438,0.9049639701843262,0.43533337116241455
1727009848846332400,1.77433251953125,1.0315560102462769,0.6970691084861755,0.5752366781234741
1727009848856370400,1.784370361328125,0.9998742341995239,0.6070308089256287,0.31378456950187683
1727009848866408400,1.794408447265625,0.953324019908905,0.6078108549118042,0.13426007330417633
1727009848876446500,1.804446533203125,0.9212896823883057,0.5619837045669556,-0.052271194756031036
1727009848886484500,1.814484375,0.8471674919128418,0.5664703249931335,-0.0822243019938469
1727009848896522500,1.8245224609375,0.736046314239502,0.551856517791748,-0.22691863775253296
1727009848906560500,1.834560546875,0.6883847713470459,0.5850877165794373,0.0941491350531578
1727009848916598300,1.844598388671875,0.640400767326355,0.7052993178367615,0.41741082072257996
1727009848926636500,1.854636474609375,0.5867955684661865,0.7733678817749023,0.46522095799446106
1727009848936674300,1.86467431640625,0.5873937010765076,0.5769437551498413,0.4087534248828888
1727009848946712600,1.874712646484375,0.5334990620613098,0.2614675462245941,0.25802940130233765
1727009848956750300,1.884750244140625,0.37056368589401245,0.030467893928289413,-0.07173144817352295
1727009848966788600,1.89478857421875,0.24578766524791718,0.07897071540355682,-0.19632796943187714
1727009848976826400,1.904826416015625,0.187538743019104,0.2515273094177246,-0.23590120673179626
1727009848986863400,1.91486328125,0.1524238884449005,0.38124004006385803,-0.08309409022331238
1727009848996901600,1.924901611328125,0.10808439552783966,0.4258730113506317,0.2955986261367798
1727009849006939400,1.934939453125,0.020708207041025162,0.35646358132362366,0.43425264954566956
1727009849016977400,1.944977294921875,-0.044990379363298416,0.20387457311153412,0.40125420689582825
1727009849027015400,1.955015380859375,-0.05727873742580414,0.05161659047007561,0.1985708773136139
1727009849037053400,1.965053466796875,-0.082290880382061,-0.01372167095541954,-0.0030599720776081085
1727009849047091500,1.975091552734375,-0.16855067014694214,-0.02208958938717842,-0.2796444296836853
1727009849057129500,1.98512939453125,-0.23741309344768524,-0.01919553242623806,-0.20120768249034882
1727009849067167500,1.99516748046875,-0.2442566156387329,0.009706422686576843,-0.07428914308547974
1727009849077205500,2.00520556640625,-0.21023499965667725,0.07544735074043274,0.1594248116016388
1727009849087243300,2.0152431640625,-0.205490842461586,0.13423849642276764,0.2213454395532608
1727009849097281500,2.025281494140625,-0.2249862402677536,0.13658687472343445,0.24018196761608124
1727009849107319300,2.0353193359375,-0.22736072540283203,0.09136027097702026,0.1590980440378189
1727009849117356500,2.0453564453125,-0.20199383795261383,0.006306099239736795,0.010665693320333958
1727009849127394600,2.05539453125,-0.15850895643234253,-0.014040451496839523,-0.07638158649206161
1727009849137432300,2.065432373046875,-0.15702369809150696,0.032946765422821045,-0.0987449511885643
1727009849147470600,2.075470703125,-0.16291621327400208,0.003287672298029065,-0.08915304392576218
1727009849157508400,2.08550830078125,-0.12314057350158691,0.012824186123907566,0.08577962219715118
1727009849167546600,2.095546630859375,-0.07209363579750061,0.026152241975069046,0.1441289484500885
1727009849177584400,2.10558447265625,-0.024757277220487595,0.04354481399059296,0.09817689657211304
1727009849187622400,2.115622314453125,0.020371051505208015,0.05920606479048729,0.054553788155317307
1727009849197660400,2.125660400390625,0.04351285472512245,0.026429742574691772,0.02364274486899376
1727009849207698400,2.135698486328125,0.05221579968929291,0.008897621184587479,-0.007025951519608498
1727009849217736400,2.145736328125,0.04488811269402504,0.08292098343372345,0.11241921782493591
1727009849227774500,2.1557744140625,0.05207385495305061,0.21020090579986572,0.1143108606338501
1727009849237812500,2.1658125,0.08831388503313065,0.23640960454940796,0.13647209107875824
1727009849247850500,2.1758505859375,0.09107398241758347,0.2708328366279602,0.10736214369535446
1727009849257887500,2.185887451171875,0.051423244178295135,0.2654407322406769,0.08542781323194504
1727009849267925500,2.195925537109375,0.030014624819159508,0.1762876808643341,0.1327947974205017
1727009849277963500,2.205963623046875,0.035296738147735596,0.05684490501880646,0.12616272270679474
1727009849288001500,2.21600146484375,0.00860440731048584,0.062782421708107,0.01028699241578579
1727009849298039600,2.22603955078125,-0.044914476573467255,0.16341182589530945,-0.011724034324288368
1727009849308077300,2.236077392578125,-0.0804213359951973,0.17322450876235962,-0.003322825999930501
1727009849318115600,2.246115478515625,-0.07419992983341217,0.21504786610603333,0.08188820630311966
1727009849328153300,2.2561533203125,-0.09041725099086761,0.03581418842077255,0.12137383222579956
1727009849338191600,2.266191650390625,-0.17299415171146393,-0.12504392862319946,0.1780054122209549
1727009849348229400,2.2762294921875,-0.2861478626728058,-0.18934063613414764,-0.06751512736082077
1727009849358267400,2.286267333984375,-0.32580792903900146,-0.1229938343167305,-0.08500836789608002
1727009849368305400,2.296305419921875,-0.32943010330200195,-0.07318606227636337,-0.1167878657579422
1727009849378343400,2.306343505859375,-0.3410010039806366,-0.08086608350276947,0.053704507648944855
1727009849388381400,2.31638134765625,-0.38685211539268494,-0.06655585765838623,0.23068061470985413
1727009849398418400,2.32641845703125,-0.46639779210090637,-0.04151415452361107,0.11615510284900665
1727009849408456400,2.33645654296875,-0.5159016847610474,-0.07253065705299377,-0.07984556257724762
1727009849418494500,2.346494384765625,-0.5586813688278198,-0.24499830603599548,-0.16431809961795807
1727009849428532500,2.356532470703125,-0.5864075422286987,-0.375083327293396,-0.09409747272729874
1727009849438570500,2.366570556640625,-0.6177431344985962,-0.4925212860107422,0.040829986333847046
1727009849448608500,2.3766083984375,-0.6124199628829956,-0.33076193928718567,0.05158596113324165
1727009849458646500,2.386646484375,-0.5936921238899231,-0.01329956017434597,0.00040506679215468466
1727009849468684500,2.3966845703125,-0.5986208319664001,0.07818881422281265,-0.12076529860496521
1727009849478722300,2.406722412109375,-0.624640166759491,-0.02839994989335537,-0.0747075304389
1727009849488760300,2.41676025390625,-0.6597970724105835,-0.4503703713417053,0.10283637046813965
1727009849498798000,2.426798095703125,-0.7099388241767883,-0.7637381553649902,0.17249906063079834
1727009849508836000,2.436836181640625,-0.793495774269104,-0.7665826678276062,0.15433284640312195
1727009849518874000,2.4468740234375,-0.8866422176361084,-0.5088216662406921,-0.1980302631855011
1727009849528912100,2.456912109375,-0.9350854158401489,-0.2764366567134857,-0.2685973644256592
1727009849538949000,2.46694921875,-0.956600546836853,-0.3896801173686981,-0.3735552132129669
1727009849548987100,2.476987060546875,-1.0021635293960571,-0.7346175312995911,-0.10556583851575851
1727009849559025200,2.487025146484375,-1.131650686264038,-1.0298584699630737,0.0858086496591568
1727009849569063200,2.497063232421875,-1.2619284391403198,-0.9678528904914856,0.20513930916786194
1727009849579101200,2.50710107421875,-1.3094568252563477,-0.7198441624641418,0.03470844402909279
1727009849589139200,2.51713916015625,-1.2902450561523438,-0.5572717785835266,-0.14911144971847534
1727009849599177200,2.52717724609375,-1.316291332244873,-0.7057832479476929,-0.3289637863636017
1727009849609215000,2.537215087890625,-1.4098979234695435,-0.9740365147590637,-0.34633317589759827
1727009849619253200,2.547253173828125,-1.468179702758789,-1.1960359811782837,-0.3264465630054474
1727009849629291000,2.557291015625,-1.405208706855774,-1.191890001296997,-0.2432350218296051
1727009849639329300,2.567329345703125,-1.3092811107635498,-1.0102269649505615,-0.11000772565603256
1727009849649367000,2.577366943359375,-1.278357744216919,-0.854316234588623,-0.10261133313179016
1727009849659405300,2.5874052734375,-1.2871321439743042,-0.8698573708534241,-0.1316531002521515
1727009849669443000,2.597443115234375,-1.2611298561096191,-0.8557085394859314,-0.07133596390485764
1727009849679480000,2.60747998046875,-1.1703951358795166,-0.8897005915641785,-0.0427839495241642
1727009849689518300,2.617518310546875,-1.0233182907104492,-0.8413184285163879,-0.09012030810117722
1727009849699556000,2.62755615234375,-0.932171106338501,-0.8365364670753479,-0.1811000108718872
1727009849709594000,2.637593994140625,-0.8948282599449158,-0.7441958785057068,-0.35092392563819885
1727009849719632100,2.647632080078125,-0.7969623804092407,-0.5772241950035095,-0.17701631784439087
1727009849729670100,2.657670166015625,-0.6207386255264282,-0.37020230293273926,0.0306902676820755
1727009849739708200,2.667708251953125,-0.43190932273864746,-0.3580572009086609,0.1702452301979065
1727009849749746200,2.67774609375,-0.31760114431381226,-0.33969470858573914,0.07731848955154419
1727009849759784200,2.6877841796875,-0.3053615093231201,-0.35597941279411316,-0.04505908861756325
1727009849769822200,2.697822265625,-0.2578986585140228,-0.20503410696983337,-0.0526680052280426
1727009849779860000,2.70785986328125,-0.1049242839217186,0.04265958070755005,-0.0665217712521553
1727009849789898200,2.717898193359375,0.1012595072388649,0.14077575504779816,0.033728402107954025
1727009849799936000,2.72793603515625,0.2044530063867569,0.05566965416073799,-0.1286565065383911
1727009849809974300,2.737974365234375,0.21453972160816193,-0.02172100730240345,0.017471667379140854
1727009849820011300,2.74801123046875,0.23888182640075684,0.007891745306551456,0.13046187162399292
1727009849830049000,2.758049072265625,0.3911285996437073,0.1475473791360855,0.2533254623413086
1727009849840087300,2.76808740234375,0.583020806312561,0.3408851623535156,0.23134852945804596
1727009849850125000,2.778125,0.6504989266395569,0.4868902862071991,0.06545570492744446
1727009849860163300,2.788163330078125,0.6381759643554688,0.3585200607776642,-0.055032625794410706
1727009849870201000,2.798201171875,0.6797841191291809,0.3490075170993805,0.16735650599002838
1727009849880239000,2.808239013671875,0.7599966526031494,0.364846408367157,0.22246263921260834
1727009849890277000,2.818277099609375,0.8325814008712769,0.43896564841270447,0.3172527849674225
1727009849900315100,2.828315185546875,0.8452795743942261,0.4124844968318939,0.24258388578891754
1727009849910353200,2.838353271484375,0.7935455441474915,0.5148193836212158,0.01906583644449711
1727009849920391200,2.84839111328125,0.7848125100135803,0.6018000841140747,-0.06798890233039856
1727009849930429200,2.85842919921875,0.8631049394607544,0.605207622051239,-0.025774605572223663
1727009849940467200,2.86846728515625,0.9213733077049255,0.6096553802490234,0.08027113974094391
1727009849950505000,2.8785048828125,0.9116706252098083,0.4684430956840515,0.05279210954904556
1727009849960542200,2.888542236328125,0.8831875920295715,0.3682941496372223,0.2308286875486374
1727009849970580200,2.898580322265625,0.7976028919219971,0.17234274744987488,0.26299700140953064
1727009849980618200,2.9086181640625,0.658116340637207,0.31114962697029114,0.34684982895851135
1727009849990656300,2.91865625,0.5259056091308594,0.49242326617240906,0.16373033821582794
1727009850000694000,2.928694091796875,0.45204177498817444,0.6379762291908264,-0.035953208804130554
1727009850010732300,2.938732177734375,0.3974458873271942,0.49990782141685486,-0.019641611725091934
1727009850020770000,2.94877001953125,0.27900072932243347,0.19608348608016968,-0.07389632612466812
1727009850030808300,2.958808349609375,0.12864719331264496,-0.003929760307073593,0.01393126230686903
1727009850040846000,2.96884619140625,0.027545606717467308,-0.157800555229187,-0.05631227418780327
1727009850050884400,2.97888427734375,0.0019656792283058167,-0.13122139871120453,0.01131044514477253
1727009850060922000,2.988922119140625,-0.04097353294491768,-0.16501212120056152,0.06347537785768509
1727009850070960000,2.998960205078125,-0.1434069573879242,-0.16159369051456451,0.13615144789218903
1727009850080998100,3.008998046875,-0.23913481831550598,-0.23440930247306824,-0.0031989889685064554
1727009850091036200,3.0190361328125,-0.2718650698661804,-0.2829161286354065,-0.12193123251199722
1727009850101074200,3.02907421875,-0.2760257124900818,-0.3383977711200714,-0.08616071939468384
1727009850111111200,3.039111083984375,-0.3265860974788666,-0.3811076581478119,-0.12947383522987366
1727009850121149200,3.049149169921875,-0.39682990312576294,-0.34095385670661926,0.042885683476924896
1727009850131187200,3.059187255859375,-0.4527094066143036,-0.40007737278938293,-0.035176895558834076
1727009850141225200,3.06922509765625,-0.43503880500793457,-0.3312474489212036,0.0285221878439188
1727009850151263200,3.07926318359375,-0.42688339948654175,-0.32549288868904114,0.03382241353392601
1727009850161301200,3.08930126953125,-0.457685261964798,-0.33780360221862793,0.11209111660718918
1727009850171339000,3.099339111328125,-0.49123629927635193,-0.3488461375236511,-0.04099190607666969
1727009850181377300,3.109377197265625,-0.4970846176147461,-0.36285701394081116,-0.05915386602282524
1727009850191415000,3.1194150390625,-0.4887121617794037,-0.3098830282688141,-0.10620339959859848
1727009850201453300,3.129453369140625,-0.4672026038169861,-0.314710795879364,-0.06994739174842834
1727009850211491000,3.139490966796875,-0.44172096252441406,-0.19022853672504425,0.07048721611499786
1727009850221529300,3.149529296875,-0.4234234392642975,-0.10931317508220673,-0.13433757424354553
1727009850231567000,3.159567138671875,-0.34724611043930054,-0.06965257972478867,-0.04658907279372215
1727009850241604000,3.16960400390625,-0.2747471332550049,-0.09168091416358948,0.05759671702980995
1727009850251642000,3.17964208984375,-0.22365039587020874,-0.12253496795892715,0.1842057853937149
1727009850261680000,3.18968017578125,-0.15322737395763397,-0.09743467718362808,0.07736483216285706
1727009850271718100,3.19971826171875,-0.04843863844871521,-0.2489837259054184,-0.06492919474840164
1727009850281756200,3.209756103515625,0.05519268289208412,-0.42056745290756226,-0.030423685908317566
1727009850291794200,3.219794189453125,0.056294962763786316,-0.41985267400741577,0.24663907289505005
1727009850301832200,3.229832275390625,-0.03387407585978508,-0.13127493858337402,0.031553931534290314
1727009850311870200,3.2398701171875,-0.015030615031719208,0.2031768262386322,-0.17535105347633362
1727009850321908200,3.249908203125,0.15583060681819916,0.29737389087677,-0.2870120704174042
1727009850331946200,3.2599462890625,0.3172578513622284,0.04320845752954483,0.06299228221178055
1727009850341984000,3.26998388671875,0.32748943567276,-0.3437323272228241,0.3223114609718323
1727009850352022300,3.280022216796875,0.26830336451530457,-0.3306727111339569,0.15500928461551666
1727009850362060000,3.29006005859375,0.3410755693912506,-0.05696874484419823,-0.02616928517818451
1727009850372098300,3.300098388671875,0.5153744220733643,0.1769295036792755,-0.18744978308677673
1727009850382136000,3.310135986328125,0.601095974445343,0.32560819387435913,0.09392915666103363
1727009850392173000,3.320173095703125,0.5313312411308289,0.45817261934280396,0.04740479961037636
1727009850402211000,3.330211181640625,0.510094940662384,0.4748387038707733,0.07848522067070007
1727009850412249000,3.3402490234375,0.637121856212616,0.4379770755767822,0.08526962250471115
1727009850422287000,3.350287109375,0.7487171292304993,0.39604294300079346,0.15913665294647217
1727009850432325000,3.3603251953125,0.7094874382019043,0.39812153577804565,0.10676746070384979
1727009850442363100,3.370363037109375,0.6616272330284119,0.43692538142204285,-0.008192149922251701
1727009850452401200,3.380401123046875,0.718933641910553,0.4645245373249054,-0.10807932913303375
1727009850462439200,3.390439208984375,0.8166844248771667,0.4436013996601105,-0.006059490609914064
1727009850472477200,3.400477294921875,0.8273248076438904,0.4100586175918579,0.1338331699371338
1727009850482515200,3.41051513671875,0.7576078176498413,0.42507538199424744,0.12494353204965591
1727009850492553700,3.4205537109375,0.7179930210113525,0.4392798840999603,0.0500759519636631
1727009850502591500,3.430591552734375,0.7611868381500244,0.4755936861038208,-0.0028543761000037193
1727009850512629800,3.440629638671875,0.7954263091087341,0.4514518678188324,0.21275807917118073
1727009850522667500,3.45066748046875,0.7411401271820068,0.49629685282707214,0.1015508621931076
1727009850532704500,3.46070458984375,0.6585054397583008,0.5076722502708435,-0.019282618537545204
1727009850542742800,3.47074267578125,0.6311119198799133,0.5148977041244507,-0.007217432837933302
1727009850552780500,3.480780517578125,0.658037543296814,0.4522140622138977,0.09936520457267761
1727009850562818800,3.49081884765625,0.6756857633590698,0.422040730714798,0.2177368551492691
1727009850572856600,3.500856689453125,0.617085874080658,0.3905922472476959,0.195424884557724
1727009850582894600,3.51089453125,0.5449528098106384,0.3527340888977051,0.19288423657417297
1727009850592932600,3.5209326171875,0.5022215843200684,0.31060153245925903,0.08990059792995453
1727009850602970600,3.530970703125,0.4551507532596588,0.2998860478401184,0.027669711038470268
1727009850613008600,3.541008544921875,0.37118181586265564,0.3821556270122528,-0.09062124788761139
1727009850623046700,3.551046630859375,0.2874152660369873,0.41446295380592346,-0.03626905754208565
1727009850633084700,3.561084716796875,0.25860998034477234,0.4331407845020294,0.14070145785808563
1727009850643122700,3.571122802734375,0.2430400848388672,0.36160746216773987,0.1862098127603531
1727009850653160400,3.581160400390625,0.20035812258720398,0.3713000416755676,0.10268163681030273
1727009850663198700,3.59119873046875,0.11912772059440613,0.29489049315452576,0.03377101197838783
1727009850673236700,3.60123681640625,0.036913275718688965,0.16200540959835052,-0.10204913467168808
1727009850683273500,3.6112734375,-0.012479306198656559,0.06818864494562149,-0.14263971149921417
1727009850693311700,3.621311767578125,-0.043778639286756516,0.009678193368017673,-0.060677461326122284
1727009850703349500,3.631349609375,-0.07406464219093323,-0.009974337182939053,0.02684013545513153
1727009850713387800,3.6413876953125,-0.0983542650938034,-0.07212106138467789,0.1398758739233017
1727009850723425500,3.651425537109375,-0.12438080459833145,0.014112889766693115,0.1794603019952774
1727009850733463800,3.6614638671875,-0.18584735691547394,0.10167975723743439,0.1078694760799408
1727009850743501600,3.67150146484375,-0.25759264826774597,0.06594705581665039,0.035240013152360916
1727009850753539600,3.68153955078125,-0.3155590295791626,-0.07727587968111038,0.016979249194264412
1727009850763577600,3.69157763671875,-0.4151018559932709,-0.21151916682720184,-0.004296211525797844
1727009850773615600,3.70161572265625,-0.5212035179138184,-0.31746822595596313,-0.09493636339902878
1727009850783653600,3.711653564453125,-0.574656069278717,-0.5814492702484131,-0.005933522712439299
1727009850793691600,3.721691650390625,-0.6546912789344788,-0.7171503901481628,-0.02793229930102825
1727009850803729700,3.731729736328125,-0.7696276903152466,-0.6210233569145203,-0.1447976678609848
1727009850813767700,3.741767578125,-0.8352168202400208,-0.432982861995697,-0.1902751326560974
1727009850823804700,3.7518046875,-0.8338202834129333,-0.487644761800766,-0.10670540481805801
1727009850833842700,3.7618427734375,-0.8467574119567871,-0.5710262060165405,-0.022013690322637558
1727009850843880700,3.771880615234375,-0.9281851649284363,-0.5346490144729614,-0.05679164454340935
1727009850853918500,3.78191845703125,-0.989866316318512,-0.4765598773956299,-0.018812835216522217
1727009850863956700,3.791956787109375,-0.9346014857292175,-0.4725712835788727,0.04592115432024002
1727009850873994500,3.801994384765625,-0.8745533227920532,-0.4956187903881073,0.15523698925971985
1727009850884032800,3.81203271484375,-0.9172568321228027,-0.3918878734111786,0.028320854529738426
1727009850894070500,3.822070556640625,-0.9715936183929443,-0.43763646483421326,-0.2764020264148712
1727009850904108800,3.83210888671875,-0.9267033338546753,-0.5303666591644287,-0.1343064159154892
1727009850914146600,3.842146484375,-0.8776010274887085,-0.6266005039215088,-0.2145674228668213
1727009850924184600,3.8521845703125,-0.8298628330230713,-0.6329319477081299,-0.09325191378593445
1727009850934222600,3.86222265625,-0.7494792938232422,-0.5982176065444946,-0.12983815371990204
1727009850944260600,3.872260498046875,-0.6496374011039734,-0.5767080783843994,0.023901604115962982
1727009850954298600,3.882298583984375,-0.5952375531196594,-0.47636309266090393,0.07198524475097656
1727009850964335600,3.892335693359375,-0.5678959488868713,-0.39559632539749146,0.09622986614704132
1727009850974373600,3.90237353515625,-0.4883055090904236,-0.3571067154407501,0.0006269080913625658
1727009850984411600,3.91241162109375,-0.3670738637447357,-0.45423275232315063,-0.14502829313278198
1727009850994449700,3.92244970703125,-0.3184927701950073,-0.5104190707206726,-0.1869073063135147
1727009851004487700,3.93248779296875,-0.2988777756690979,-0.47570422291755676,-0.1568087935447693
1727009851014525700,3.942525634765625,-0.18214264512062073,-0.39747172594070435,-0.009240902960300446
1727009851024563500,3.9525634765625,0.0027017768006771803,-0.20179836452007294,0.04524444416165352
1727009851034601700,3.962601806640625,0.10813578963279724,-0.0702587142586708,0.11155502498149872
1727009851044639500,3.972639404296875,0.10399297624826431,0.09665437042713165,0.11010999232530594
1727009851054677800,3.982677734375,0.13725639879703522,0.1275760680437088,0.07037589699029922
1727009851064715500,3.992715576171875,0.2779623866081238,0.12805384397506714,0.05739564821124077
1727009851074753800,4.00275390625,0.42130276560783386,0.005456816870719194,-0.04688681662082672
1727009851084791600,4.01279150390625,0.47199922800064087,-0.2606068253517151,-0.108546182513237
1727009851094829600,4.02282958984375,0.4929649531841278,-0.28784990310668945,-0.0034043188206851482
1727009851104867600,4.03286767578125,0.5695561170578003,-0.09564609825611115,0.10723457485437393
1727009851114904600,4.042904541015625,0.6896021366119385,0.3700675368309021,0.047735828906297684
1727009851124942800,4.05294287109375,0.7891204357147217,0.6134543418884277,0.030115824192762375
1727009851134980600,4.062980712890625,0.8166261315345764,0.5568784475326538,0.07234130799770355
1727009851145018600,4.0730185546875,0.8060954213142395,0.4315386116504669,0.2508130371570587
1727009851155056600,4.083056640625,0.7906371355056763,0.28334808349609375,0.14367035031318665
1727009851165094700,4.0930947265625,0.8467541933059692,0.3129208981990814,0.10092847794294357
1727009851175132700,4.103132568359375,0.9223514795303345,0.359762966632843,-0.027840951457619667
1727009851185170700,4.113170654296875,0.9271896481513977,0.535266637802124,-0.08803930878639221
1727009851195208700,4.123208740234375,0.8681236505508423,0.6429094672203064,-0.0975654348731041
1727009851205246700,4.133246826171875,0.8634359836578369,0.622473418712616,0.11645470559597015
1727009851215284500,4.143284423828125,0.9173018336296082,0.6216158866882324,0.298083633184433
1727009851225322800,4.15332275390625,0.9303380250930786,0.5448817014694214,0.28270626068115234
1727009851235360500,4.163360595703125,0.8668914437294006,0.5178053379058838,0.22239366173744202
1727009851245398800,4.173398681640625,0.7614685893058777,0.5221564173698425,0.044016990810632706
1727009851255435800,4.183435791015625,0.7013857960700989,0.6000866293907166,-0.0734180212020874
1727009851265473500,4.1934736328125,0.6997160315513611,0.6243624091148376,-0.13380999863147736
1727009851275511800,4.20351171875,0.6722111701965332,0.5430119037628174,-0.030310768634080887
1727009851285549600,4.213549560546875,0.5897056460380554,0.45992231369018555,0.21195407211780548
1727009851295587800,4.223587890625,0.4843887984752655,0.4584980607032776,0.25547730922698975
1727009851305625600,4.23362548828125,0.4257257282733917,0.5258675217628479,0.15962108969688416
1727009851315663600,4.24366357421875,0.41470423340797424,0.4788201153278351,0.18417303264141083
1727009851325701600,4.25370166015625,0.34663039445877075,0.4447348415851593,0.03464746102690697
1727009851335739600,4.26373974609375,0.20082710683345795,0.37065476179122925,-0.05699937045574188
1727009851345777700,4.273777587890625,0.06819876283407211,0.3719967305660248,-0.013345366343855858
1727009851355815700,4.283815673828125,0.017971809953451157,0.41385921835899353,0.10074978321790695
1727009851365853700,4.293853759765625,0.00803395826369524,0.37558719515800476,0.022905316203832626
1727009851375891700,4.3038916015625,-0.04829908907413483,0.2240128517150879,0.02593732438981533
1727009851385929500,4.313929443359375,-0.18224143981933594,0.06929891556501389,0.08065010607242584
1727009851395967700,4.3239677734375,-0.29177725315093994,0.055628109723329544,0.06154884770512581
1727009851406004700,4.334004638671875,-0.3083074986934662,0.09051737934350967,-0.010928015224635601
1727009851416042500,4.34404248046875,-0.3183308243751526,0.05494580790400505,-0.029106220230460167
1727009851426080800,4.354080810546875,-0.39524826407432556,-0.02901514060795307,0.053474411368370056
1727009851436118500,4.364118408203125,-0.513309121131897,-0.07315011322498322,0.1802145093679428
1727009851446156800,4.37415673828125,-0.5876419544219971,-0.09663253277540207,-0.041003890335559845
1727009851456194600,4.384194580078125,-0.5735002756118774,-0.030111828818917274,-0.04623087868094444
1727009851466232800,4.39423291015625,-0.5684347152709961,-0.11461898684501648,-0.17052699625492096
1727009851476270600,4.4042705078125,-0.6131012439727783,-0.24980637431144714,0.03774178773164749
1727009851486308600,4.41430859375,-0.6722899675369263,-0.492122083902359,0.11234225332736969
1727009851496346600,4.4243466796875,-0.6817032098770142,-0.6351814866065979,0.025042502209544182
1727009851506385000,4.434385009765625,-0.6647937297821045,-0.6721357703208923,-0.04186222702264786
1727009851516422700,4.444422607421875,-0.6779691576957703,-0.5092557668685913,-0.08698150515556335
1727009851526461000,4.4544609375,-0.6695530414581299,-0.3594481945037842,-0.1291089802980423
1727009851536498700,4.464498779296875,-0.6172834634780884,-0.29723408818244934,-0.19561663269996643
1727009851546536700,4.47453662109375,-0.5846368074417114,-0.2836785912513733,0.006194246467202902
1727009851556574000,4.484573974609375,-0.5978567600250244,-0.2550967335700989,0.05391489714384079
1727009851566611700,4.49461181640625,-0.565539538860321,-0.2167818397283554,0.0865362212061882
1727009851576650000,4.50464990234375,-0.5001869201660156,-0.29166221618652344,0.08436361700296402
1727009851586687700,4.514687744140625,-0.5144838094711304,-0.26970523595809937,-0.22703208029270172
1727009851596725800,4.524725830078125,-0.5388669371604919,-0.24349308013916016,-0.12108461558818817
1727009851606763800,4.534763671875,-0.504046618938446,-0.22180137038230896,-0.2056327909231186
1727009851616801800,4.5448017578125,-0.39514732360839844,-0.3714164197444916,0.07523936033248901
1727009851626839800,4.55483984375,-0.3262377679347992,-0.4777814745903015,0.2209630012512207
1727009851636877800,4.5648779296875,-0.3235578238964081,-0.44465336203575134,0.17813271284103394
1727009851646915800,4.574915771484375,-0.3093959391117096,-0.31569403409957886,0.1402660310268402
1727009851656953900,4.584953857421875,-0.265766441822052,-0.20187826454639435,-0.16308452188968658
1727009851666991600,4.59499169921875,-0.2248605489730835,-0.1688515990972519,-0.19835756719112396
1727009851677030000,4.60502978515625,-0.1982947140932083,-0.221931591629982,-0.16528376936912537
1727009851687067600,4.615067626953125,-0.13655997812747955,-0.3230598270893097,0.02743002586066723
1727009851697104600,4.625104736328125,-0.0649598240852356,-0.2693507671356201,0.009467271156609058
1727009851707143000,4.635142822265625,0.004765193909406662,-0.1781279295682907,-0.026610039174556732
1727009851717180700,4.6451806640625,0.06933486461639404,0.014156565070152283,0.053772151470184326
1727009851727219000,4.655218994140625,0.11478757113218307,0.10763245075941086,0.04524444416165352
1727009851737256700,4.665256591796875,0.1650419533252716,0.1985117644071579,0.15399223566055298
1727009851747295000,4.675294921875,0.23347187042236328,0.1304597407579422,0.07793314754962921
1727009851757332700,4.685332763671875,0.3079969882965088,0.08807685971260071,0.13353542983531952
1727009851767370800,4.695370849609375,0.32280734181404114,0.15445774793624878,-0.00024208133982028812
1727009851777408800,4.70540869140625,0.33242908120155334,0.207060769200325,-0.038364168256521225
1727009851787446800,4.71544677734375,0.3720388114452362,0.18893583118915558,-0.03503414988517761
1727009851797484800,4.72548486328125,0.41965746879577637,0.12014265358448029,0.08158887177705765
1727009851807522800,4.735522705078125,0.42631402611732483,0.13219691812992096,0.09225776046514511
1727009851817560800,4.745560791015625,0.435455858707428,0.14447729289531708,0.07557571679353714
1727009851827598800,4.755598876953125,0.45276960730552673,0.32350537180900574,0.09721896052360535
1727009851837636600,4.76563671875,0.424656480550766,0.4035344123840332,0.03989388793706894
1727009851847673900,4.775673828125,0.4136858582496643,0.35157933831214905,-0.02251516282558441
1727009851857711900,4.7857119140625,0.417522132396698,0.10313837230205536,0.07195994257926941
1727009851867749600,4.79574951171875,0.3662075400352478,-0.02503424696624279,0.06617262959480286
1727009851877788000,4.805787841796875,0.29942986369132996,0.047682568430900574,0.03748638927936554
1727009851887825700,4.81582568359375,0.2743878960609436,0.1613452136516571,-0.04664606600999832
1727009851897864000,4.825864013671875,0.26049843430519104,0.28044578433036804,-0.08989126980304718
1727009851907901700,4.835901611328125,0.20915108919143677,0.31090328097343445,0.003890611929818988
1727009851917940000,4.84593994140625,0.15610970556735992,0.2692205607891083,0.10794750601053238
1727009851927977700,4.855977783203125,0.1251978576183319,0.09306469559669495,0.1548715978860855
1727009851938015700,4.866015625,0.10824152082204819,0.02755705825984478,0.06522907316684723
1727009851948053800,4.8760537109375,0.10422839969396591,-0.049665022641420364,-0.04741358757019043
1727009851958091800,4.886091796875,0.10267764329910278,-0.1277931183576584,-0.11812371015548706
1727009851968129800,4.8961298828125,0.0779065191745758,-0.10284408926963806,-0.12183695286512375
1727009851978167800,4.906167724609375,0.029017003253102303,-0.12323245406150818,-0.11774341017007828
1727009851988204800,4.916204833984375,0.008678442798554897,-0.05285362899303436,0.0011374361347407103
1727009851998242800,4.926242919921875,0.017471667379140854,-0.013050287961959839,0.0036759611684828997
1727009852008280800,4.93628076171875,0.030313696712255478,-0.014030065387487411,-0.03828773275017738
1727009852018318800,4.94631884765625,0.03857322409749031,-0.12355336546897888,0.06376753002405167
1727009852028356900,4.95635693359375,0.023839551955461502,-0.1583094745874405,0.04036526754498482
1727009852038394600,4.96639453125,0.002513491315767169,-0.11212813854217529,-0.06909411400556564
1727009852048433000,4.976432861328125,0.0014223942998796701,-0.16961246728897095,-0.10330987721681595
1727009852058470700,4.986470703125,0.011504056863486767,-0.028548020869493484,-0.002207760466262698
1727009852068509000,4.996509033203125,-0.0026730147656053305,0.059358399361371994,0.023849140852689743
1727009852078546700,5.006546630859375,0.000011451592399680521,0.146295428276062,0.06325407326221466
1727009852088585000,5.0165849609375,0.05478282272815704,0.03201199322938919,0.021866949275135994
1727009852098622700,5.026622802734375,0.0913887694478035,-0.09859448671340942,0.10501562803983688
1727009852108660700,5.03666064453125,0.08606031537055969,-0.20237867534160614,-0.14030757546424866
1727009852118698800,5.04669873046875,0.10955605655908585,-0.22737829387187958,-0.12208676338195801
1727009852128736800,5.05673681640625,0.14850398898124695,-0.06937321275472641,-0.14961665868759155
1727009852138773800,5.066773681640625,0.1781873106956482,0.06720753014087677,-0.14400245249271393
1727009852148811800,5.076811767578125,0.2166079431772232,0.15872307121753693,0.07774326205253601
1727009852158849800,5.086849853515625,0.24143019318580627,0.1910615712404251,0.2994229197502136
1727009852168887800,5.0968876953125,0.23233763873577118,0.22033530473709106,0.2339179515838623
1727009852178925800,5.10692578125,0.22892212867736816,0.144073024392128,0.05704943835735321
1727009852188963800,5.1169638671875,0.25562137365341187,-0.011097125709056854,-0.011678493581712246
1727009852199001900,5.127001953125,0.2282257080078125,-0.05722573772072792,-0.16852030158042908
1727009852209039600,5.13703955078125,0.17767705023288727,0.04362817108631134,-0.09311210364103317
1727009852219078000,5.147077880859375,0.16939541697502136,0.2134837806224823,0.016231700778007507
1727009852229115600,5.15711572265625,0.20128996670246124,0.2509661912918091,0.09134083241224289
1727009852239154000,5.16715380859375,0.22434602677822113,0.21998855471611023,0.21402546763420105
1727009852249191700,5.177191650390625,0.19943001866340637,0.16987106204032898,0.12538960576057434
1727009852259230000,5.18722998046875,0.16914375126361847,0.11545629054307938,0.007219030521810055
1727009852269267700,5.197267822265625,0.1525522619485855,0.07774486392736435,-0.019211245700716972
1727009852279304700,5.2073046875,0.1453758329153061,0.0672895610332489,-0.039908267557621
1727009852289343000,5.217343017578125,0.10808758437633514,0.10001447796821594,0.01733371615409851
1727009852299380700,5.227380615234375,0.06536702066659927,0.13638021051883698,0.03882196545600891
1727009852309418800,5.237418701171875,0.057796455919742584,0.12691479921340942,-0.01961950771510601
1727009852319456800,5.247456787109375,0.07110373675823212,0.08862920105457306,0.01829804666340351
1727009852329494800,5.257494873046875,0.04198739677667618,0.01549400482326746,0.002171541564166546
1727009852339532800,5.26753271484375,-0.005281847435981035,-0.07335863262414932,0.13002723455429077
1727009852349570800,5.27757080078125,-0.031790684908628464,-0.08358065038919449,0.035460520535707474
1727009852359608800,5.28760888671875,-0.04482579603791237,-0.03344850242137909,0.03738811984658241
1727009852369646800,5.297646728515625,-0.09000472724437714,0.1190052181482315,-0.11864728480577469
1727009852379684600,5.3076845703125,-0.13908810913562775,0.10874645411968231,-0.1595960557460785
1727009852389723000,5.317722900390625,-0.1737651377916336,-0.09011577814817429,-0.15053997933864594
1727009852399760600,5.3277607421875,-0.1989559680223465,-0.1474621593952179,0.025465412065386772
1727009852409799000,5.337798828125,-0.2323506772518158,-0.14151744544506073,-0.054725296795368195
1727009852419836700,5.347836669921875,-0.1901417076587677,-0.12674756348133087,0.021801169961690903
1727009852429873700,5.357873779296875,-0.13364620506763458,-0.12246732413768768,0.12082868069410324
1727009852439912000,5.367911865234375,-0.15052665770053864,-0.04037272185087204,0.20440027117729187
1727009852449949700,5.37794970703125,-0.19819164276123047,0.015238873660564423,-0.03966698423027992
1727009852459988000,5.387988037109375,-0.18023528158664703,-0.05294976755976677,-0.07348247617483139
1727009852470025700,5.398025634765625,-0.14865551888942719,-0.07664204388856888,-0.09116639196872711
1727009852480063700,5.408063720703125,-0.1375565230846405,0.0020208065398037434,-0.07256181538105011
1727009852490102800,5.418102783203125,-0.10894645750522614,0.05089060962200165,-0.17552734911441803
1727009852500140500,5.428140625,-0.028085431084036827,0.0659254863858223,-0.028077440336346626
1727009852510178600,5.438178466796875,0.010274475440382957,0.03653830289840698,0.07599782943725586
1727009852520216600,5.448216552734375,0.01450091227889061,0.026223881170153618,0.220732644200325
1727009852530254600,5.458254638671875,0.0319073311984539,0.01317865215241909,0.2671549916267395
1727009852540292900,5.46829296875,0.050335608422756195,0.08172069489955902,0.06383037567138672
1727009852550330600,5.47833056640625,0.036858681589365005,0.12767274677753448,-0.13185124099254608
1727009852560369000,5.488368896484375,0.013649232685565948,0.17991943657398224,-0.16125653684139252
1727009852570406700,5.49840673828125,0.02418709546327591,0.14600594341754913,-0.1199176162481308
1727009852580443600,5.508443603515625,0.0688278004527092,0.08856901526451111,-0.04536162316799164
1727009852590481700,5.518481689453125,0.09781737625598907,0.010179666802287102,0.14806003868579865
1727009852600519700,5.528519775390625,0.0862659141421318,0.02694852650165558,0.11326371133327484
1727009852610557400,5.538557373046875,0.06983766704797745,0.0962333232164383,0.06132407858967781
1727009852620595700,5.548595703125,0.06220558285713196,0.13854749500751495,0.06550124287605286
1727009852630633500,5.558633544921875,0.04451127350330353,0.16415272653102875,0.0060357884503901005
1727009852640671700,5.568671630859375,0.015037006698548794,0.10259242355823517,-0.0980709046125412
1727009852650709500,5.57870947265625,-0.020976655185222626,0.03591352701187134,-0.1461244523525238
1727009852660747800,5.588747802734375,-0.059542421251535416,-0.07945940643548965,-0.24234633147716522
1727009852670785800,5.598785888671875,-0.04808417335152626,-0.06412998586893082,-0.00760998297482729
1727009852680823600,5.608823486328125,-0.020831512287259102,-0.036190226674079895,0.09305857121944427
1727009852690861800,5.61886181640625,-0.028475049883127213,0.09140581637620926,0.2937975227832794
1727009852700899600,5.628899658203125,-0.07975048571825027,0.32386088371276855,0.237117737531662
1727009852710937900,5.638937744140625,-0.09647087752819061,0.42121273279190063,0.12143535166978836
1727009852720975600,5.6489755859375,-0.038533009588718414,0.30239927768707275,0.011378888040781021
1727009852731012600,5.6590126953125,-0.0009954896522685885,0.027826571837067604,-0.10267630964517593
1727009852741050600,5.669050537109375,-0.047262053936719894,-0.18659092485904694,-0.1823144108057022
1727009852751088600,5.679088623046875,-0.0962626188993454,-0.21587423980236053,0.012628177180886269
1727009852761126700,5.689126708984375,-0.05961485952138901,-0.05522996559739113,0.17500589787960052
1727009852771164700,5.69916455078125,0.017061008140444756,0.2914097309112549,0.05866384506225586
1727009852781202400,5.709202392578125,0.02798849157989025,0.38116705417633057,0.12858007848262787
1727009852791240700,5.71924072265625,-0.016442356631159782,0.21260814368724823,0.15019509196281433
1727009852801278500,5.729278564453125,-0.0447259247303009,-0.052489571273326874,0.03785896673798561
1727009852811316700,5.739316650390625,-0.02490455098450184,-0.12031309306621552,-0.11230283975601196
1727009852821354800,5.749354736328125,0.007110373582690954,-0.09155947715044022,0.06696198880672455
1727009852831392800,5.759392822265625,-0.001844505313783884,0.078489750623703,0.08958953619003296
1727009852841430800,5.7694306640625,-0.055094409734010696,0.2493712157011032,0.05540866404771805
1727009852851468500,5.779468505859375,-0.0851559042930603,0.20359253883361816,0.04254266619682312
1727009852861506800,5.7895068359375,-0.06862060725688934,0.03464452922344208,-0.03104313649237156
1727009852871544600,5.799544677734375,-0.04273148626089096,-0.22319073975086212,0.11777909845113754
1727009852881581800,5.809581787109375,-0.07704338431358337,-0.3190155327320099,-0.049193646758794785
1727009852891619600,5.81961962890625,-0.11350712180137634,-0.21507875621318817,-0.15239033102989197
1727009852901657600,5.82965771484375,-0.09980569034814835,-0.08611198514699936,-0.1448083221912384
1727009852911695600,5.839695556640625,-0.06117573752999306,-0.010435064323246479,-0.06432279944419861
1727009852921733600,5.849733642578125,-0.06821314245462418,0.044682249426841736,0.025358352810144424
1727009852931771600,5.859771728515625,-0.1041455790400505,0.06934525072574615,0.135087251663208
1727009852941809700,5.8698095703125,-0.10485637187957764,0.0015073491958901286,0.1683296263217926
1727009852951847700,5.87984765625,-0.06866294890642166,0.012840431183576584,0.03502349928021431
1727009852961885700,5.8898857421875,-0.02449149452149868,-0.0000774979853304103,0.011800733394920826
1727009852971923700,5.899923828125,-0.013627128675580025,0.0025419872254133224,-0.030879884958267212
1727009852981961700,5.909961669921875,-0.018682608380913734,0.019208848476409912,-0.07520979642868042
1727009852991999700,5.919999755859375,-0.01726953499019146,0.011332815513014793,-0.06607222557067871
1727009853002037800,5.930037841796875,0.020774520933628082,-0.13821379840373993,-0.03266260400414467
1727009853012075800,5.94007568359375,0.091268390417099,-0.16157211363315582,0.09556673467159271
1727009853022112500,5.950112548828125,0.10573948174715042,0.027644677087664604,-0.00016218650853261352
1727009853032150800,5.96015087890625,0.10931077599525452,0.2082970142364502,-0.1152656078338623
1727009853042188500,5.9701884765625,0.15460768342018127,0.3505188822746277,0.06568074226379395
1727009853052226800,5.980226806640625,0.17040209472179413,0.26747485995292664,0.15646390616893768
1727009853062264600,5.9902646484375,0.16545048356056213,-0.004819522611796856,0.21890944242477417
1727009853072302600,6.000302490234375,0.12260820716619492,-0.12578029930591583,0.1802685707807541
1727009853082340600,6.010340576171875,0.05457909032702446,-0.08661025762557983,0.016862336546182632
1727009853092378600,6.020378662109375,0.02371678128838539,0.04086780548095703,-0.2799198031425476
1727009853102416600,6.030416748046875,0.050457049161195755,0.20756730437278748,-0.08874638378620148
1727009853112454700,6.04045458984375,0.02624518610537052,0.1899172067642212,-0.007151652593165636
1727009853122492700,6.05049267578125,-0.0220339298248291,0.13052712380886078,-0.11250763386487961
1727009853132530700,6.06053076171875,-0.02822631224989891,0.003254116512835026,0.23727566003799438
1727009853142568700,6.070568603515625,-0.06907227635383606,-0.10777253657579422,-0.08436068892478943
1727009853152606700,6.080606689453125,-0.05706008896231651,-0.07241055369377136,-0.13913391530513763
1727009853162644700,6.090644775390625,-0.045583728700876236,-0.027296070009469986,-0.18646521866321564
1727009853172681500,6.100681396484375,-0.07833395153284073,-0.12259489297866821,0.2580816149711609
1727009853182719700,6.1107197265625,-0.08611597865819931,-0.1830180287361145,0.21773818135261536
1727009853192757500,6.120757568359375,-0.01414537988603115,-0.011418569833040237,0.15998168289661407
1727009853202795800,6.130795654296875,0.003062102710828185,0.002172074280679226,-0.15990205109119415
1727009853212833500,6.14083349609375,-0.028061196208000183,-0.0367891751229763,-0.19937142729759216
1727009853222871800,6.150871826171875,-0.06295260041952133,-0.10876642912626266,-0.08994853496551514
1727009853232909600,6.16090966796875,-0.09038875252008438,-0.1771119236946106,-0.039504531770944595
1727009853242947600,6.170947509765625,-0.05872350186109543,-0.20817025005817413,0.034496989101171494
1727009853252985600,6.180985595703125,-0.025843581184744835,-0.17887361347675323,0.14120452105998993
1727009853263023600,6.191023681640625,-0.0656764805316925,-0.13254739344120026,0.017640246078372
1727009853273061600,6.2010615234375,-0.11174437403678894,-0.2099955826997757,0.006075735669583082
1727009853283099600,6.211099609375,-0.13377031683921814,-0.25721314549446106,-0.017478592693805695
1727009853293137700,6.2211376953125,-0.1583760529756546,-0.2583892047405243,-0.0506432019174099
1727009853303175700,6.23117578125,-0.18622712790966034,-0.11565442383289337,-0.12599068880081177
1727009853313212700,6.241212646484375,-0.17662456631660461,0.00008442220860160887,-0.12016715109348297
1727009853323250700,6.251250732421875,-0.16031776368618011,-0.04952174797654152,-0.06625385582447052
1727009853333288700,6.261288818359375,-0.15935690701007843,-0.13224725425243378,0.08619879931211472
1727009853343326500,6.271326416015625,-0.15332217514514923,-0.20509536564350128,0.08934585750102997
1727009853353364700,6.28136474609375,-0.14125566184520721,-0.2872687876224518,0.14871783554553986
1727009853363402500,6.291402587890625,-0.13635730743408203,-0.3503039479255676,0.053701575845479965
1727009853373440800,6.301440673828125,-0.16163790225982666,-0.17824296653270721,-0.14670315384864807
1727009853383478500,6.311478515625,-0.17723603546619415,-0.10906150937080383,-0.23523755371570587
1727009853393516800,6.321516845703125,-0.13210849463939667,-0.26556190848350525,-0.2592414319515228
1727009853403554600,6.331554443359375,-0.06259600073099136,-0.3573016822338104,-0.12732945382595062
1727009853413592600,6.341592529296875,-0.057019609957933426,-0.3237178921699524,0.04603034257888794
1727009853423630600,6.351630615234375,-0.06179119646549225,-0.2122582048177719,0.08236118406057358
1727009853433668600,6.361668701171875,0.008128234185278416,-0.021926337853074074,0.19331645965576172
1727009853443706600,6.37170654296875,0.06719981133937836,0.05788833275437355,0.2226535826921463
1727009853453744600,6.38174462890625,0.049912165850400925,0.047149933874607086,-0.0024583640042692423
1727009853463781600,6.39178173828125,0.012938701547682285,0.05054706335067749,-0.005130046978592873
1727009853473819600,6.401819580078125,0.018606973811984062,0.03003246709704399,-0.0748920813202858
1727009853483857700,6.411857666015625,0.07721409201622009,-0.08358997106552124,-0.22017604112625122
1727009853493895000,6.42189501953125,0.15475362539291382,-0.11232095211744308,0.11340458691120148
1727009853503933000,6.431932861328125,0.13554637134075165,-0.12586233019828796,0.1732649952173233
1727009853513971000,6.441970947265625,0.08299874514341354,-0.09983791410923004,0.0772726833820343
1727009853524009000,6.452009033203125,0.09080313891172409,0.009282181970775127,0.22519956529140472
1727009853534047000,6.462046875,0.11251216381788254,0.07448355853557587,0.045520614832639694
1727009853544084700,6.472084716796875,0.12113974243402481,0.133782297372818,0.02737942710518837
1727009853554123000,6.482123046875,0.07918456941843033,0.1872793436050415,-0.04947087913751602
1727009853564160800,6.492160888671875,0.04710066691040993,0.10807506740093231,-0.12808233499526978
1727009853574199000,6.502198974609375,0.06239573284983635,-0.13799968361854553,-0.10185205936431885
1727009853584236800,6.51223681640625,0.05938742682337761,-0.22857272624969482,0.15253201127052307
1727009853594274800,6.52227490234375,-0.011172492988407612,-0.25330203771591187,0.12650761008262634
1727009853604312800,6.532312744140625,-0.05060938000679016,-0.12299410253763199,0.012504872865974903
1727009853614349800,6.542349853515625,-0.005979862064123154,0.06872233748435974,-0.07771982997655869
1727009853624388000,6.55238818359375,0.00039840888348408043,-0.0017004283145070076,-0.2973209023475647
1727009853634425900,6.56242578125,-0.03747200965881348,-0.12094586342573166,-0.03326794132590294
1727009853644463900,6.5724638671875,-0.1029205247759819,-0.10401667654514313,0.13521108031272888
1727009853654502000,6.582501953125,-0.07786044478416443,-0.05742441117763519,0.021141238510608673
1727009853664540000,6.592539794921875,0.04379168897867203,0.07926392555236816,0.05084880068898201
1727009853674578000,6.602577880859375,0.05471491068601608,0.128440260887146,0.019715914502739906
1727009853684616000,6.612615966796875,-0.02845321223139763,0.054788146167993546,-0.16395032405853271
1727009853694654000,6.622654052734375,-0.025261415168642998,-0.004191815387457609,0.014788799919188023
1727009853704692000,6.63269189453125,0.05048181489109993,-0.025297366082668304,0.011360512115061283
1727009853714729700,6.642729736328125,0.12858301401138306,-0.07234743237495422,-0.17450496554374695
1727009853724768000,6.65276806640625,0.15877287089824677,-0.07830998301506042,0.03885072469711304
1727009853734805800,6.6628056640625,0.11110841482877731,-0.0019955066964030266,0.058391671627759933
1727009853744844000,6.672843994140625,0.09190063178539276,0.08719322830438614,0.10765162855386734
1727009853754881800,6.6828818359375,0.13621270656585693,0.21699808537960052,0.12238210439682007
1727009853764918800,6.692918701171875,0.1487407386302948,0.22257448732852936,-0.08493246883153915
1727009853774957000,6.70295703125,0.14336062967777252,0.16630162298679352,-0.09412117302417755
1727009853784994800,6.712994873046875,0.15158632397651672,0.13885322213172913,-0.1384020894765854
1727009853795033000,6.723033203125,0.1922631859779358,-0.012081163935363293,-0.0485004223883152
1727009853805070800,6.73307080078125,0.22811013460159302,-0.18769240379333496,0.16069860756397247
1727009853815108900,6.74310888671875,0.18741516768932343,-0.11160029470920563,0.3585951626300812
1727009853825147000,6.75314697265625,0.13072311878204346,0.23504047095775604,0.2732912003993988
1727009853835185000,6.763184814453125,0.13524304330348969,0.4940784275531769,-0.08703210204839706
1727009853845223000,6.773222900390625,0.14078561961650848,0.5292955636978149,-0.3270745277404785
1727009853855261000,6.783260986328125,0.13422465324401855,0.24976296722888947,-0.26634886860847473
1727009853865299000,6.793298828125,0.17071954905986786,-0.12017807364463806,-0.009516806341707706
1727009853875337000,6.8033369140625,0.20916520059108734,-0.24743269383907318,0.1824294626712799
1727009853885374700,6.813374755859375,0.21869266033172607,-0.17577049136161804,0.1922733038663864
1727009853895413000,6.8234130859375,0.22909443080425262,0.2166697233915329,0.20333580672740936
1727009853905450000,6.833449951171875,0.21329310536384583,0.5805971026420593,0.2584368884563446
1727009853915487700,6.84348779296875,0.20036078989505768,0.6659271717071533,0.07355570793151855
1727009853925526000,6.853526123046875,0.23921577632427216,0.4274703860282898,-0.11394494771957397
1727009853935563800,6.863563720703125,0.2365315854549408,0.029585056006908417,-0.09528230875730515
1727009853945602000,6.87360205078125,0.15170644223690033,-0.20282341539859772,-0.051361192017793655
1727009853955639800,6.883639892578125,0.11532951891422272,-0.03971438854932785,0.1093778908252716
1727009853965678000,6.893677978515625,0.15926076471805573,0.2234799563884735,0.304321825504303
1727009853975715800,6.9037158203125,0.2019488364458084,0.29447025060653687,0.005885586142539978
1727009853985753900,6.91375390625,0.1635465919971466,0.16928036510944366,0.09998039156198502
1727009853995792000,6.9237919921875,0.029953105375170708,0.01438027061522007,0.17130731046199799
1727009854005830000,6.933829833984375,-0.03771542012691498,-0.00018748654110822827,-0.2537001669406891
1727009854015868000,6.943867919921875,0.05163496360182762,0.06731752306222916,-0.09300344437360764
1727009854025906000,6.953906005859375,0.07659517228603363,0.08176969736814499,-0.271707147359848
1727009854035944000,6.96394384765625,0.019449597224593163,-0.028992237523198128,0.02267308719456196
1727009854045982000,6.97398193359375,-0.04235890880227089,-0.08554978668689728,0.3398406505584717
1727009854056019000,6.98401904296875,-0.0464031845331192,-0.026813771575689316,0.2949237823486328
1727009854066057000,6.994056884765625,0.014385863207280636,0.09751324355602264,0.17108306288719177
1727009854076095000,7.004094970703125,0.03081144206225872,0.27242591977119446,-0.10773791372776031
1727009854086132700,7.0141328125,-0.025286979973316193,0.22249005734920502,-0.17426954209804535
1727009854096171000,7.0241708984375,-0.043475572019815445,0.09490068256855011,-0.1811988204717636
1727009854106208800,7.034208740234375,0.025777801871299744,-0.11066712439060211,0.021100224927067757
1727009854116247000,7.0442470703125,0.06178294122219086,-0.17315420508384705,-0.0973084419965744
1727009854126284800,7.054284912109375,0.034748125821352005,0.021988922730088234,-0.08473672717809677
1727009854136323000,7.064322998046875,0.012716860510408878,0.23351821303367615,0.05132763460278511
1727009854146360800,7.07436083984375,0.05107942968606949,0.3515271544456482,0.028205005452036858
1727009854156398800,7.08439892578125,0.11195077002048492,0.24576182663440704,0.07466012239456177
1727009854166436900,7.094436767578125,0.11312415450811386,0.07579436153173447,0.11159922927618027
1727009854176475000,7.104474853515625,0.05668964609503746,-0.06033311411738396,0.11618732661008835
1727009854186513000,7.114512939453125,0.047623977065086365,-0.019875703379511833,0.027278758585453033
1727009854196551000,7.124551025390625,0.07934808731079102,0.09911912679672241,0.018213890492916107
1727009854206588000,7.134587890625,0.08508959412574768,0.2175253927707672,-0.09643838554620743
1727009854216626000,7.1446259765625,0.05819326639175415,0.21741141378879547,0.058637481182813644
1727009854226664000,7.154663818359375,0.04758589342236519,0.13687635958194733,0.2115306258201599
1727009854236702000,7.164701904296875,0.0394161157310009,0.08331725746393204,0.03825098276138306
1727009854246740000,7.174739990234375,0.03194515034556389,0.06410787999629974,-0.007785218767821789
1727009854256777700,7.18477783203125,0.005317800212651491,0.08566217124462128,-0.010438259690999985
1727009854266816000,7.19481591796875,-0.0432225726544857,0.10540658235549927,-0.05476764217019081
1727009854276853800,7.204853759765625,-0.05446111038327217,0.04421592876315117,0.0757666677236557
1727009854286892000,7.21489208984375,-0.043479032814502716,-0.11570689082145691,-0.00890800729393959
1727009854296929800,7.2249296875,-0.05374658480286598,-0.25702565908432007,-0.2023022323846817
1727009854306968000,7.234968017578125,-0.09825253486633301,-0.27050232887268066,-0.041736528277397156
1727009854317005800,7.245005859375,-0.13079343736171722,-0.1867605596780777,-0.01450011320412159
1727009854327043800,7.2550439453125,-0.087999626994133,0.079584039747715,-0.04186888784170151
1727009854337081900,7.265081787109375,-0.013170130550861359,0.13288800418376923,0.0392315573990345
1727009854347119900,7.275119873046875,-0.02635916881263256,0.11634232103824615,0.019096728414297104
1727009854357156900,7.285156982421875,-0.12243963032960892,-0.006666424684226513,0.07978164404630661
1727009854367195000,7.29519482421875,-0.14894554018974304,-0.11562193930149078,0.18081985414028168
1727009854377233000,7.30523291015625,-0.07415226101875305,-0.1490880250930786,-0.10341693460941315
1727009854387271000,7.31527099609375,-0.03145246580243111,-0.1750013679265976,-0.1605185717344284
1727009854397309000,7.325308837890625,-0.11147832125425339,-0.19476762413978577,-0.175584077835083
1727009854407347000,7.335346923828125,-0.19319716095924377,-0.26025527715682983,-0.0554901584982872
1727009854417385000,7.345385009765625,-0.18185102939605713,-0.1146666631102562,-0.010931476950645447
1727009854427422700,7.355422607421875,-0.10110877454280853,0.06751725822687149,-0.07459300756454468
1727009854437461000,7.3654609375,-0.034501783549785614,0.25136512517929077,-0.1422431617975235
1727009854447498800,7.375498779296875,-0.061647649854421616,0.03747547045350075,0.14125193655490875
1727009854457537000,7.385537109375,-0.12338132411241531,-0.232631653547287,0.32034924626350403
1727009854467574800,7.39557470703125,-0.11562806367874146,-0.3079721927642822,0.3086310625076294
1727009854477613000,7.405613037109375,-0.03942703455686569,-0.2701904773712158,0.1649676412343979
1727009854487650800,7.41565087890625,-0.03165033832192421,-0.060991715639829636,-0.13410347700119019
1727009854497688800,7.425688720703125,-0.11741770803928375,0.019569439813494682,-0.18180787563323975
1727009854507725800,7.435725830078125,-0.17827865481376648,-0.06616304069757462,0.040773794054985046
1727009854517763800,7.445763916015625,-0.13246802985668182,-0.15532727539539337,0.023518109694123268
1727009854527801900,7.4558017578125,-0.07553337514400482,-0.1671370565891266,0.07556453347206116
1727009854537839600,7.465839599609375,-0.08659374713897705,-0.11281363666057587,-0.22563153505325317
1727009854547878000,7.4758779296875,-0.10752033442258835,-0.14182956516742706,-0.24695812165737152
1727009854557915600,7.48591552734375,-0.09880673885345459,-0.2202751189470291,0.10426408797502518
1727009854567954000,7.495953857421875,-0.08041627705097198,-0.2069089710712433,0.21873819828033447
1727009854577991700,7.50599169921875,-0.03719690442085266,0.024924257770180702,0.3080846071243286
1727009854588030000,7.516030029296875,-0.0057194046676158905,0.1039343848824501,0.12397334724664688
1727009854598067700,7.526067626953125,-0.011520568281412125,-0.017533453181385994,-0.1655908226966858
1727009854608105700,7.536105712890625,-0.04175357148051262,-0.20175975561141968,-0.05073721334338188
1727009854618143700,7.546143798828125,-0.09465353935956955,-0.3640802204608917,-0.17394942045211792
1727009854628181800,7.556181640625,-0.07198071479797363,-0.2502191662788391,-0.2675885558128357
1727009854638219800,7.5662197265625,-0.04615551233291626,-0.0492280013859272,0.0016996293561533093
1727009854648257800,7.5762578125,-0.06684454530477524,0.2159176468849182,-0.004768123384565115
1727009854658294800,7.586294677734375,-0.0486207976937294,0.3361298143863678,0.15941202640533447
1727009854668332800,7.596332763671875,-0.016597619280219078,0.16318626701831818,0.29017165303230286
1727009854678370800,7.606370849609375,-0.040893372148275375,-0.09321969002485275,0.08316545933485031
1727009854688408800,7.616408935546875,-0.09152459353208542,-0.22752690315246582,0.05609282851219177
1727009854698446800,7.62644677734375,-0.1509612798690796,-0.2124163955450058,-0.10813392698764801
1727009854708484600,7.636484619140625,-0.14393000304698944,-0.06282796710729599,-0.3103885054588318
1727009854718523000,7.64652294921875,-0.04506627842783928,0.032588835805654526,-0.2391984760761261
1727009854728560600,7.656560546875,0.0015369103057309985,-0.08915810286998749,0.004460262134671211
1727009854738599000,7.666598876953125,-0.053110357373952866,-0.21657918393611908,0.20420746505260468
1727009854748636700,7.67663671875,-0.07213012129068375,-0.21814937889575958,0.4083227813243866
1727009854758675000,7.686675048828125,-0.02069622278213501,-0.15968286991119385,0.11885368078947067
1727009854768712700,7.696712646484375,0.023135146126151085,-0.04724873974919319,-0.10873420536518097
1727009854778750700,7.706750732421875,-0.02087705209851265,-0.0007536745979450643,-0.408216267824173
1727009854788788700,7.716788818359375,-0.06186896190047264,-0.015188806690275669,-0.3545897901058197
1727009854798825700,7.72682568359375,-0.00032197617110796273,-0.005053880624473095,-0.12356720864772797
1727009854808863700,7.73686376953125,0.10022753477096558,-0.06048145145177841,0.02177347242832184
1727009854818901800,7.74690185546875,0.14809705317020416,-0.174110546708107,0.23457495868206024
1727009854828939800,7.756939697265625,0.11146554350852966,-0.15125901997089386,0.37216129899024963
1727009854838977800,7.766977783203125,0.073784738779068,0.02991289086639881,0.23533795773983002
1727009854849015800,7.777015869140625,0.10170771926641464,0.28393664956092834,-0.10001528263092041
1727009854859053800,7.7870537109375,0.14446291327476501,0.4422330856323242,-0.3228931128978729
1727009854869091800,7.797091796875,0.11639238893985748,0.34013015031814575,-0.33053451776504517
1727009854879129600,7.807129638671875,0.07564149796962738,0.18024460971355438,-0.24367071688175201
1727009854889168000,7.81716796875,0.11487837880849838,-0.023614250123500824,0.06138213351368904
1727009854899205600,7.82720556640625,0.21488460898399353,-0.05657832324504852,0.2737761437892914
1727009854909244000,7.837243896484375,0.29037004709243774,0.12108887732028961,0.28994500637054443
1727009854919281700,7.84728173828125,0.3168237507343292,0.2606254518032074,0.23895078897476196
1727009854929320000,7.85731982421875,0.3026632070541382,0.3180866241455078,0.1813434213399887
1727009854939357700,7.867357666015625,0.269915372133255,0.2521294355392456,-0.007388674188405275
1727009854949395700,7.877395751953125,0.25575774908065796,0.11992773413658142,-0.25875964760780334
1727009854959433000,7.887432861328125,0.2904494106769562,0.07943437248468399,-0.08283096551895142
1727009854969470700,7.897470703125,0.31128597259521484,0.08688696473836899,-0.03273237869143486
1727009854979508700,7.9075087890625,0.33987900614738464,0.12124067544937134,0.10206405073404312
1727009854989546800,7.917546630859375,0.36738574504852295,0.18436531722545624,0.15981575846672058
1727009854999584800,7.927584716796875,0.3511076867580414,0.17280027270317078,0.16337907314300537
1727009855009622800,7.937622802734375,0.3098856806755066,0.1936456263065338,0.19986358284950256
1727009855019660800,7.947660888671875,0.27724650502204895,0.30439212918281555,0.0727572962641716
1727009855029698800,7.95769873046875,0.26277491450309753,0.2850874066352844,-0.0011004181578755379
1727009855039736800,7.96773681640625,0.24594666063785553,0.24141953885555267,-0.08074358105659485
1727009855049774600,7.977774658203125,0.1903904527425766,0.2525283992290497,0.028919799253344536
1727009855059812900,7.987812744140625,0.11997407674789429,0.2651565670967102,-0.04561489075422287
1727009855069850600,7.9978505859375,0.11496493220329285,0.3110164701938629,0.04877978935837746
1727009855079889000,8.007888916015625,0.1522800773382187,0.2718677222728729,0.1694963574409485
1727009855089926700,8.0179267578125,0.12465271353721619,0.2090083360671997,0.17769968509674072
1727009855099963600,8.027963623046874,0.0465049184858799,0.18936993181705475,0.182290181517601
1727009855110002000,8.038001953125,-0.02485208585858345,0.19578388333320618,-0.1308504194021225
1727009855120039700,8.048039794921875,-0.020350545644760132,0.17020449042320251,-0.1863214075565338
1727009855130078000,8.058077880859376,-0.006755640730261803,0.08284828066825867,-0.04294506832957268
1727009855140115700,8.06811572265625,-0.055142879486083984,-0.1310110092163086,0.05150633305311203
1727009855150153700,8.07815380859375,-0.09529642760753632,-0.2569042146205902,0.23980140686035156
1727009855160191700,8.088191650390625,-0.10242810100317001,-0.17528420686721802,-0.04087100178003311
1727009855170229800,8.098229736328125,-0.07872916758060455,0.10198415815830231,-0.14546504616737366
1727009855180267800,8.108267822265624,-0.06480642408132553,0.4244639277458191,-0.10105178505182266
1727009855190305800,8.118305908203125,-0.0859103798866272,0.372244656085968,-0.06959772109985352
1727009855200343800,8.12834375,-0.1099826917052269,-0.08667044341564178,0.22378195822238922
1727009855210381800,8.1383818359375,-0.18188245594501495,-0.4837948977947235,0.09291210025548935
1727009855220419600,8.148419677734376,-0.2609839141368866,-0.497688353061676,-0.22367917001247406
1727009855230457900,8.158457763671874,-0.2554250955581665,-0.23779498040676117,-0.12471450120210648
1727009855240495600,8.16849560546875,-0.21751713752746582,0.1335785686969757,-0.1089206263422966
1727009855250532900,8.178532958984375,-0.18881279230117798,0.2540053725242615,0.10740981251001358
1727009855260571000,8.18857080078125,-0.19561104476451874,0.03219495341181755,0.1820153445005417
1727009855270608600,8.198608642578124,-0.2274419516324997,-0.4160699248313904,0.07791450619697571
1727009855280647000,8.20864697265625,-0.24833683669567108,-0.6068190932273865,-0.038893602788448334
1727009855290684700,8.2186845703125,-0.25023752450942993,-0.3397626280784607,-0.2524122893810272
1727009855300723000,8.228722900390625,-0.19973814487457275,0.04878778010606766,-0.33114731311798096
1727009855310760700,8.2387607421875,-0.13763296604156494,0.277689129114151,-0.20507831871509552
1727009855320798700,8.248798828125,-0.13396312296390533,0.17868345975875854,0.17187455296516418
1727009855330836700,8.258836669921875,-0.15325133502483368,-0.042888343334198,0.2840048372745514
1727009855340874800,8.268874755859375,-0.09545301645994186,-0.1240449845790863,0.24958373606204987
1727009855350912800,8.278912841796876,-0.006573214195668697,-0.1972249150276184,0.07903116941452026
1727009855360950800,8.28895068359375,0.020679712295532227,-0.20601095259189606,-0.15224945545196533
1727009855370988800,8.29898876953125,-0.02166002243757248,-0.1508755385875702,-0.226689875125885
1727009855381026800,8.30902685546875,-0.040654219686985016,-0.042810846120119095,-0.3196730613708496
1727009855391063800,8.319063720703125,0.026261165738105774,0.1276319921016693,-0.19609200954437256
1727009855401101800,8.329101806640624,0.120481938123703,0.18485507369041443,0.14461763203144073
1727009855411139800,8.339139892578125,0.14979562163352966,0.022851252928376198,0.20661549270153046
1727009855421177900,8.349177734375,0.1297723799943924,-0.07103396207094193,0.18994037806987762
1727009855431215900,8.3592158203125,0.09892524778842926,-0.10124193131923676,0.1717619001865387
1727009855441253600,8.369253662109376,0.08911283314228058,-0.08068898320198059,-0.07779732346534729
1727009855451292000,8.3792919921875,0.09400586038827896,0.11982414126396179,-0.03832288831472397
1727009855461329700,8.38932958984375,0.08761666715145111,0.2874504327774048,0.002406432293355465
1727009855471368000,8.399367919921875,0.10972996056079865,0.352070689201355,0.05631813406944275
1727009855481405700,8.40940576171875,0.14931705594062805,0.1651761680841446,0.23542290925979614
1727009855491443700,8.419443603515624,0.12917183339595795,-0.050341200083494186,0.0998389795422554
1727009855501481200,8.429481201171875,0.07349951565265656,-0.10830596834421158,-0.18186593055725098
1727009855511519500,8.43951953125,0.06745946407318115,-0.12519706785678864,-0.2330031543970108
1727009855521557200,8.44955712890625,0.10636106133460999,-0.20421864092350006,-0.24666304886341095
1727009855531595500,8.459595458984374,0.12061616033315659,-0.17444583773612976,0.022223547101020813
1727009855541632500,8.469632568359375,0.07335730642080307,-0.09906107187271118,0.05002748221158981
1727009855551670300,8.479670166015625,0.05353619530797005,0.04176449030637741,0.1655367612838745
1727009855561708500,8.48970849609375,0.08138912916183472,0.12860724329948425,0.1496448814868927
1727009855571746300,8.499746337890626,0.11911174654960632,0.11905048787593842,0.12794704735279083
1727009855581784600,8.50978466796875,0.13462252914905548,0.037994254380464554,-0.0821278914809227
1727009855591822300,8.519822265625,0.10348005592823029,-0.015972841531038284,-0.06131688505411148
1727009855601860400,8.5298603515625,0.027062775567173958,-0.06172807887196541,-0.0011108045000582933
1727009855611898400,8.5398984375,-0.0013073458103463054,0.035168640315532684,0.15513232350349426
1727009855621936400,8.549936279296874,0.020662134513258934,0.20869675278663635,0.016464460641145706
1727009855631974400,8.559974365234375,0.04809162765741348,0.20797903835773468,-0.27555328607559204
1727009855642012400,8.570012451171875,0.04525722563266754,0.017482321709394455,-0.23077303171157837
1727009855652050400,8.580050537109376,-0.011982893571257591,-0.32139480113983154,-0.012225240468978882
1727009855662088400,8.59008837890625,-0.04689507186412811,-0.28765255212783813,0.1676182895898819
1727009855672126200,8.600126220703125,-0.029414881020784378,0.08962788432836533,0.21674242615699768
1727009855682164500,8.61016455078125,-0.00509782275184989,0.36982011795043945,-0.05312846601009369
1727009855692201500,8.620201416015625,-0.005850166082382202,0.45160233974456787,-0.04417465254664421
1727009855702239200,8.6302392578125,-0.06626743823289871,0.19363844394683838,-0.03692685812711716
1727009855712277500,8.640277587890624,-0.12375549972057343,-0.11603845655918121,0.028850024566054344
1727009855722315300,8.650315185546875,-0.14118961989879608,-0.279400497674942,0.08218728005886078
1727009855732353500,8.660353515625,-0.14523841440677643,-0.2551385462284088,-0.06525037437677383
1727009855742391300,8.670391357421876,-0.1487434059381485,0.01618828997015953,0.07398954033851624
1727009855752429600,8.6804296875,-0.19186024367809296,0.23636406660079956,0.015604259446263313
1727009855762467300,8.69046728515625,-0.238834410905838,0.1989261507987976,-0.0533074289560318
1727009855772505300,8.70050537109375,-0.2529124319553375,0.10676159709692001,0.0747634544968605
1727009855782543400,8.71054345703125,-0.2883191406726837,-0.19127754867076874,0.09657793492078781
1727009855792581400,8.720581298828124,-0.27538684010505676,-0.23820830881595612,-0.06630712002515793
1727009855802619400,8.730619384765625,-0.24057985842227936,-0.19452208280563354,0.15182174742221832
1727009855812657400,8.740657470703125,-0.24781592190265656,-0.1962169110774994,-0.20474621653556824
1727009855822695400,8.7506953125,-0.24242249131202698,-0.07464760541915894,0.056047823280096054
1727009855832733400,8.7607333984375,-0.28727811574935913,-0.10175991803407669,-0.1809293031692505
1727009855842770400,8.7707705078125,-0.2894669771194458,0.00529542937874794,0.08357718586921692
1727009855852808400,8.780808349609375,-0.25901079177856445,0.12390276789665222,-0.0935206264257431
1727009855862846500,8.790846435546875,-0.22710904479026794,-0.03167270869016647,-0.20765146613121033
1727009855872884200,8.80088427734375,-0.2273585945367813,-0.3399125635623932,0.03598063811659813
1727009855882922500,8.810922607421874,-0.31013283133506775,-0.4461290240287781,0.15173226594924927
1727009855892960300,8.820960205078125,-0.3113429844379425,-0.3148447573184967,0.1953071802854538
1727009855902998500,8.83099853515625,-0.19679774343967438,0.06647889316082001,0.018508436158299446
1727009855913036300,8.841036376953125,-0.155411958694458,0.05573037266731262,-0.31302234530448914
1727009855923074600,8.851074462890624,-0.20482638478279114,-0.21247898042201996,-0.02159024588763714
1727009855933112300,8.8611123046875,-0.26804131269454956,-0.27987372875213623,0.361670583486557
1727009855943150300,8.871150390625,-0.21927642822265625,-0.21137216687202454,0.0899093821644783
1727009855953188400,8.881188232421875,-0.08171670138835907,0.12107795476913452,-0.019098326563835144
1727009855963226400,8.891226318359376,-0.07581886649131775,0.28739476203918457,-0.07980774343013763
1727009855973264400,8.901264404296874,-0.16107890009880066,0.12031202763319016,0.18595042824745178
1727009855983302400,8.911302490234375,-0.13526087999343872,-0.11766964197158813,0.3437536358833313
1727009855993339400,8.92133935546875,0.005929528269916773,-0.3337087333202362,0.3233695328235626
1727009856003377400,8.93137744140625,0.050525225698947906,-0.3421597480773926,-0.1624208688735962
1727009856013415400,8.94141552734375,-0.06310999393463135,-0.22620943188667297,-0.23306681215763092
1727009856023453400,8.951453369140625,-0.16014306247234344,-0.07383853942155838,-0.10729476809501648
1727009856033491500,8.961491455078125,-0.06064843386411667,0.06460242718458176,-0.09066971391439438
1727009856043529200,8.971529296875,0.100494384765625,0.09571853280067444,0.026453977450728416
1727009856053567500,8.9815673828125,0.08509625494480133,0.03261200338602066,0.05198570340871811
1727009856063605200,8.991605224609375,-0.004926847759634256,-0.02088797092437744,0.14946378767490387
1727009856073643500,9.0016435546875,0.04646496847271919,-0.12398053705692291,0.3249455988407135
1727009856083681300,9.011681396484375,0.17522801458835602,-0.10315994173288345,0.22650930285453796
1727009856093719600,9.021719482421876,0.1694798469543457,-0.02424302138388157,-0.04641197249293327
1727009856103757300,9.03175732421875,0.03737666830420494,0.08321099728345871,-0.33822572231292725
1727009856113795300,9.04179541015625,-0.04939365014433861,0.1445278823375702,-0.20274512469768524
1727009856123833300,9.051833251953125,-0.0096861831843853,0.13729128241539001,-0.2152116447687149
1727009856133870300,9.061870361328126,0.11515934765338898,0.1405203640460968,0.06398084759712219
1727009856143908400,9.071908447265624,0.14804857969284058,0.1640392690896988,0.11706909537315369
1727009856153946400,9.0819462890625,0.06737930327653885,0.04501248151063919,-0.048476722091436386
1727009856163984400,9.091984375,0.0414678156375885,-0.0941840261220932,0.28075602650642395
1727009856174022400,9.1020224609375,0.08941030502319336,-0.10062461346387863,0.13358283042907715
1727009856184060400,9.112060302734376,0.13772910833358765,-0.07206513732671738,-0.1792624294757843
1727009856194098400,9.122098388671875,0.14479340612888336,0.017304155975580215,-0.059716593474149704
1727009856204136400,9.132136474609375,0.07966873049736023,0.1297697126865387,-0.10993582010269165
1727009856214174200,9.14217431640625,0.09299571812152863,0.14575214684009552,0.17006094753742218
1727009856224212500,9.15221240234375,0.18157857656478882,0.16087383031845093,0.20668047666549683
1727009856234250200,9.162250244140624,0.1827237457036972,0.11946061998605728,0.07004433125257492
1727009856244288500,9.17228857421875,0.1141875609755516,0.015573366545140743,0.15823517739772797
1727009856254326300,9.182326171875,0.07988790422677994,-0.0028389296494424343,-0.08953361213207245
1727009856264364500,9.192364501953126,0.10807427018880844,-0.04806846007704735,-0.31624823808670044
1727009856274402300,9.20240234375,0.14057523012161255,-0.13658234477043152,-0.2070799469947815
1727009856284439300,9.212439208984375,0.11867950856685638,-0.08466082811355591,-0.03569860756397247
1727009856294477600,9.2224775390625,0.09049181640148163,0.04896754398941994,0.18336422741413116
1727009856304515300,9.232515380859375,0.11450553685426712,0.12507589161396027,0.40499037504196167
1727009856314553300,9.24255322265625,0.1682041883468628,0.1281888633966446,0.14113102853298187
1727009856324591400,9.25259130859375,0.11939536780118942,0.16356895864009857,0.24565796554088593
1727009856334629400,9.26262939453125,-0.049431197345256805,0.14837908744812012,-0.15995211899280548
1727009856344667400,9.27266748046875,-0.0952167958021164,0.09234005212783813,-0.12549267709255219
1727009856354705400,9.282705322265626,0.0052086105570197105,-0.05347973480820656,-0.1929422914981842
1727009856364743400,9.292743408203124,0.03182530775666237,-0.3050624430179596,-0.18148617446422577
1727009856374781400,9.302781494140625,-0.06269028037786484,-0.3017904758453369,-0.07522924244403839
1727009856384819200,9.312819091796875,-0.13236470520496368,-0.061095044016838074,-0.02864229679107666
1727009856394857500,9.322857421875,-0.08438572287559509,0.20077544450759888,0.08972695469856262
1727009856404895200,9.332895263671874,-0.03086230903863907,0.2679659426212311,0.10599860548973083
1727009856414933500,9.34293359375,-0.06373769789934158,-0.005151618737727404,0.16216972470283508
1727009856424971300,9.35297119140625,-0.13700444996356964,-0.2211313247680664,0.1794123649597168
1727009856435008300,9.36300830078125,-0.16556473076343536,-0.27516764402389526,-0.0943286344408989
1727009856445046500,9.373046630859376,-0.11640756577253342,-0.31891193985939026,-0.2007211148738861
1727009856455084300,9.383084228515624,-0.08271298557519913,-0.24736611545085907,-0.21772539615631104
1727009856465122600,9.39312255859375,-0.10594480484724045,-0.30942949652671814,-0.13285179436206818
1727009856475160300,9.403160400390625,-0.12148941308259964,-0.2136763334274292,0.10071063041687012
1727009856485198300,9.4131982421875,-0.1458117961883545,-0.1820574253797531,-0.0016471651615574956
1727009856495240400,9.423240478515625,-0.12469851970672607,-0.06655612587928772,-0.14160533249378204
1727009856505278500,9.433278564453126,-0.054432082921266556,0.021874139085412025,-0.36597612500190735
1727009856515316500,9.44331640625,0.02364647388458252,-0.11503604054450989,-0.11488024890422821
1727009856525354500,9.4533544921875,0.045883335173130035,-0.35636529326438904,0.21981652081012726
1727009856535392500,9.463392578125,0.02129490301012993,-0.412105530500412,0.4824356138706207
1727009856545430500,9.473430419921876,0.022607307881116867,-0.22157180309295654,0.3085724711418152
1727009856555468300,9.48346826171875,0.06338456273078918,-0.020837636664509773,-0.15683887898921967
1727009856565506600,9.493506591796875,0.07732941210269928,0.09071338921785355,-0.302675724029541
1727009856575543300,9.503543212890625,0.012896623462438583,0.0736883357167244,-0.4195331037044525
1727009856585581300,9.513581298828125,-0.0037201696541160345,0.019297530874609947,-0.10981518030166626
1727009856595619300,9.523619384765626,0.05121844634413719,-0.07280310243368149,0.19993256032466888
1727009856605657300,9.5336572265625,0.13283394277095795,-0.10564520210027695,0.29752597212791443
1727009856615695400,9.5436953125,0.17511801421642303,0.012979714199900627,0.3636693060398102
1727009856625733400,9.5537333984375,0.157785102725029,0.030642064288258553,0.019345467910170555
1727009856635771400,9.563771484375,0.12207397818565369,-0.0032921996898949146,-0.056180182844400406
1727009856645809400,9.573809326171874,0.06447353214025497,-0.1107904314994812,-0.08965504914522171
1727009856655847400,9.583847412109375,0.024539431557059288,-0.014899587258696556,-0.1830611675977707
1727009856665885400,9.593885498046875,0.08821401745080948,0.14665202796459198,-0.28729888796806335
1727009856675923500,9.60392333984375,0.20741231739521027,0.19497162103652954,-0.056696567684412
1727009856685961500,9.61396142578125,0.24145522713661194,0.08789230138063431,0.03279256820678711
1727009856695999500,9.62399951171875,0.19006074965000153,-0.19747552275657654,0.3457121253013611
1727009856706037500,9.63403759765625,0.1049642339348793,-0.19737085700035095,0.4138115644454956
1727009856716075500,9.644075439453125,0.07216287404298782,0.024466194212436676,0.0019776634871959686
1727009856726112300,9.6541123046875,0.1271992325782776,0.23933935165405273,-0.3684033155441284
1727009856736150500,9.664150634765624,0.1642501950263977,0.3350970447063446,-0.27716556191444397
1727009856746188300,9.674188232421875,0.09198478609323502,0.23800936341285706,-0.08268289268016815
1727009856756226300,9.684226318359375,0.04729507863521576,0.029050294309854507,-0.027774373069405556
1727009856766264300,9.694264404296876,0.09824321419000626,-0.19802945852279663,0.29377275705337524
1727009856776302300,9.70430224609375,0.11031372100114822,-0.30362406373023987,0.46341612935066223
1727009856786340400,9.71434033203125,0.025769811123609543,-0.0713101327419281,0.18868443369865417
1727009856796378400,9.72437841796875,-0.014368019998073578,0.21935898065567017,-0.0332903116941452
1727009856806416400,9.73441650390625,0.0359734483063221,0.19087328016757965,-0.3499090075492859
1727009856816454400,9.744454345703126,0.08687284588813782,0.028476914390921593,-0.4782392680644989
1727009856826492400,9.754492431640625,0.060089703649282455,-0.33118271827697754,-0.2468060553073883
1727009856836530400,9.764530517578125,0.014061490073800087,-0.3843575119972229,0.09531187266111374
1727009856846568400,9.774568359375,0.03296434134244919,-0.14077655971050262,0.35326510667800903
1727009856856606500,9.7846064453125,0.09068676084280014,0.258746862411499,0.3445800244808197
1727009856866644500,9.79464453125,0.08694475144147873,0.5701103210449219,0.01455657184123993
1727009856876682500,9.8046826171875,0.05558762699365616,0.4058223366737366,0.02382703498005867
1727009856886719500,9.814719482421875,0.04553685709834099,0.061215419322252274,0.04930336773395538
1727009856896757200,9.82475732421875,0.08223921060562134,-0.26653367280960083,-0.0021731394808739424
1727009856906795500,9.83479541015625,0.134940505027771,-0.48909991979599,-0.2934579849243164
1727009856916833300,9.844833251953125,0.1469188779592514,-0.34745463728904724,-0.1514262706041336
1727009856926871600,9.85487158203125,0.08990991860628128,0.0034029872622340918,-0.07051251828670502
1727009856936909300,9.864909423828125,0.0842973068356514,0.3675937354564667,0.018098575994372368
1727009856946947300,9.874947265625,0.17404690384864807,0.6351625919342041,0.21074898540973663
1727009856956985600,9.884985595703125,0.20450253784656525,0.49183765053749084,0.2495131641626358
1727009856967023400,9.8950234375,0.1552753448486328,0.26756006479263306,0.343584269285202
1727009856977061600,9.9050615234375,0.09787196666002274,0.060153085738420486,0.14169135689735413
1727009856987099400,9.915099365234376,0.0796160027384758,-0.0965355932712555,-0.1504177302122116
1727009856997137400,9.925137451171874,0.07135700434446335,-0.10823991894721985,-0.23358692228794098
1727009857007175400,9.935175537109375,0.0596872977912426,-0.01577550172805786,-0.1905217468738556
1727009857017213400,9.94521337890625,0.07161986082792282,0.10585692524909973,-0.050813645124435425
1727009857027250400,9.95525048828125,0.10580925643444061,0.15198740363121033,0.2442169338464737
1727009857037288400,9.965288330078126,0.1069437637925148,0.002989931032061577,0.23894280195236206
1727009857047326200,9.975326171875,0.0671265721321106,-0.06167028844356537,0.15533126890659332
1727009857057364500,9.985364501953125,-0.01726394146680832,-0.08343523740768433,0.039565254002809525
1727009857067402200,9.99540234375,-0.07125154137611389,-0.13399162888526917,-0.24683640897274017
1727009857077440500,10.0054404296875,-0.014770423993468285,-0.1441260129213333,0.027876371517777443
1727009857087478300,10.015478271484374,-0.01366148330271244,-0.09643545746803284,-0.03304503485560417
1727009857097516500,10.0255166015625,-0.0704275593161583,0.025439579039812088,0.11984863877296448
1727009857107554600,10.035554443359375,-0.1155332550406456,0.14810290932655334,0.10301826149225235
1727009857117592300,10.04559228515625,-0.12502236664295197,0.13774961233139038,-0.1733001470565796
1727009857127630600,10.055630615234374,-0.12018313258886337,0.012307798489928246,0.08194253593683243
1727009857137668400,10.06566845703125,-0.16673119366168976,-0.13332504034042358,-0.09606634825468063
1727009857147706600,10.07570654296875,-0.16661374270915985,-0.2122930884361267,0.010119479149580002
1727009857157744400,10.085744384765626,-0.12735635042190552,-0.12683677673339844,0.0675516128540039
1727009857167782400,10.095782470703124,-0.09373021870851517,-0.09757822006940842,-0.14191453158855438
1727009857177819400,10.1058193359375,-0.07255276292562485,-0.24087439477443695,0.33165836334228516
1727009857187857400,10.115857421875,-0.14242558181285858,-0.3122348487377167,0.06937374919652939
1727009857197895400,10.1258955078125,-0.19046075642108917,-0.22657135128974915,-0.15572968125343323
1727009857207933400,10.135933349609376,-0.15826180577278137,0.09651216119527817,-0.2775098979473114
1727009857217971200,10.14597119140625,-0.11814608424901962,0.3038325905799866,-0.5611490607261658
1727009857228009500,10.156009521484375,-0.0725112184882164,0.21334370970726013,0.03314170613884926
1727009857238047500,10.166047607421875,-0.04484656825661659,-0.16745717823505402,0.5290896892547607
1727009857248085500,10.17608544921875,-0.03175180405378342,-0.35170769691467285,0.2778462767601013
1727009857258123500,10.18612353515625,0.018122544512152672,-0.3751043677330017,0.14386501908302307
1727009857268161500,10.19616162109375,0.019519105553627014,-0.14525306224822998,-0.15335653722286224
1727009857278199600,10.206199462890625,0.015141668729484081,0.0713423565030098,-0.31687408685684204
1727009857288237300,10.2162373046875,0.05145866423845291,0.1457236409187317,-0.14100931584835052
1727009857298275600,10.226275634765624,0.08540251851081848,0.15948019921779633,0.055624913424253464
1727009857308313300,10.236313232421875,0.1300983428955078,0.08153693377971649,0.08926143497228622
1727009857318351600,10.2463515625,0.19841961562633514,-0.08291086554527283,0.17891807854175568
1727009857328388400,10.256388427734375,0.24173086881637573,-0.1896096169948578,0.11842305213212967
1727009857338426400,10.26642626953125,0.24689607322216034,-0.16147305071353912,0.05001762881875038
1727009857348464400,10.27646435546875,0.2261766791343689,0.09886772185564041,-0.11041705310344696
1727009857358502400,10.28650244140625,0.2294779270887375,0.316653311252594,-0.20577020943164825
1727009857368540400,10.29654052734375,0.2910827100276947,0.44192761182785034,-0.05012867972254753
1727009857378578400,10.306578369140626,0.3524453938007355,0.3416745066642761,0.08017978817224503
1727009857388616400,10.316616455078124,0.359838604927063,0.1873650997877121,0.42278268933296204
1727009857398654500,10.326654541015625,0.32578954100608826,0.09181274473667145,0.15595844388008118
1727009857408692500,10.3366923828125,0.31925228238105774,0.03371215611696243,0.12255867570638657
1727009857418730500,10.34673046875,0.3094486594200134,0.05176332965493202,-0.1971985548734665
1727009857428768500,10.3567685546875,0.27632611989974976,0.0657246857881546,-0.27845799922943115
1727009857438806500,10.366806640625,0.260317862033844,0.06743043661117554,-0.0898209661245346
1727009857448844500,10.376844482421875,0.2653387188911438,0.07765751332044601,0.10062114894390106
1727009857458882300,10.38688232421875,0.2868594527244568,0.15925942361354828,0.1819266527891159
1727009857468919600,10.39691943359375,0.3151286542415619,0.26879552006721497,0.2810252904891968
1727009857478957300,10.406957275390624,0.31239384412765503,0.21449045836925507,0.14542803168296814
1727009857488995300,10.416995361328125,0.2919527590274811,0.16079899668693542,0.3106130063533783
1727009857499029200,10.427029296875,0.21981678903102875,0.08726539462804794,-0.01414484716951847
1727009857509067000,10.43706689453125,0.15105102956295013,0.005420864559710026,-0.23839819431304932
1727009857519105000,10.44710498046875,0.135109081864357,-0.026489663869142532,-0.36719000339508057
1727009857529143000,10.45714306640625,0.11069589108228683,0.05712294206023216,-0.15851880609989166
1727009857539181000,10.46718115234375,0.10664548724889755,0.043290749192237854,0.060450825840234756
1727009857549219000,10.477218994140625,0.1374713033437729,0.08409170806407928,0.15819868445396423
1727009857559257000,10.487257080078125,0.1418604701757431,0.0747554674744606,0.176558256149292
1727009857569294800,10.497294921875,0.10738185048103333,0.013368802145123482,0.12820670008659363
1727009857579333000,10.5073330078125,0.0667172446846962,0.021290641278028488,0.09978518635034561
1727009857589371000,10.517370849609375,0.02058730088174343,0.06991010904312134,-0.024263527244329453
1727009857599409200,10.5274091796875,0.001716673607006669,0.11700145155191422,-0.1430618166923523
1727009857609447000,10.537447021484375,0.016626913100481033,0.16252899169921875,-0.07253758609294891
1727009857619485200,10.547485107421876,0.005558283533900976,0.06951622664928436,0.0366877056658268
1727009857629522200,10.557522216796874,-0.022421685978770256,0.0547063872218132,0.12968342006206512
1727009857639560000,10.567559814453125,-0.02676982805132866,0.09658513218164444,0.15970684587955475
1727009857649598200,10.57759814453125,-0.004779841285198927,0.03699077293276787,-0.09209077805280685
1727009857659636000,10.587635986328126,0.014889201149344444,-0.0009025452891364694,0.10194074362516403
1727009857669674200,10.59767431640625,-0.05351036414504051,-0.08885477483272552,-0.1587505042552948
1727009857679712000,10.6077119140625,-0.08898793160915375,-0.0969822034239769,-0.030601052567362785
1727009857689750000,10.61775,-0.07228458672761917,-0.0060059609822928905,0.04007871076464653
1727009857699788000,10.6277880859375,-0.06425728648900986,0.09768208116292953,-0.12480558454990387
1727009857709826000,10.637825927734376,-0.05543502792716026,0.20821045339107513,0.07073382288217545
1727009857719864000,10.647864013671875,-0.0794530138373375,0.23830950260162354,0.03699210658669472
1727009857729902000,10.657902099609375,-0.0917767882347107,0.2649022340774536,-0.08975092321634293
1727009857739939800,10.66793994140625,-0.0741535872220993,0.19627949595451355,-0.08949126303195953
1727009857749978000,10.67797802734375,-0.08667896687984467,-0.016472449526190758,-0.15914970636367798
1727009857760016000,10.688015869140624,-0.08866781741380692,-0.16025225818157196,0.26233547925949097
1727009857770054100,10.69805419921875,-0.09050673246383667,-0.15109097957611084,0.2103676199913025
1727009857780091100,10.708091064453125,-0.052313804626464844,0.04705352708697319,0.07933317124843597
1727009857790129000,10.71812890625,-0.03196725249290466,0.22855381667613983,-0.1582985669374466
1727009857800167200,10.728167236328124,-0.04549238458275795,0.13589657843112946,-0.46458443999290466
1727009857810205000,10.738204833984375,-0.03273291140794754,-0.04610970616340637,-0.2065446525812149
1727009857820243200,10.7482431640625,-0.047389887273311615,-0.22049295902252197,0.04234852269291878
1727009857830281000,10.758281005859375,-0.07053408771753311,-0.06567434966564178,0.29481059312820435
1727009857840319200,10.7683193359375,-0.05258544534444809,0.27440333366394043,0.12647297978401184
1727009857850357000,10.77835693359375,-0.008829444646835327,0.4276951551437378,-0.11145515739917755
1727009857860395000,10.78839501953125,-0.013094496913254261,0.30232444405555725,0.07978803664445877
1727009857870433000,10.79843310546875,-0.08610399067401886,-0.07258498668670654,0.12512382864952087
1727009857880471000,10.808470947265626,-0.1227022185921669,-0.3612082600593567,0.14787708222866058
1727009857890509000,10.818509033203124,-0.10278390347957611,-0.31498831510543823,-0.013573865406215191
1727009857900547000,10.828547119140625,-0.08618282526731491,-0.07729612290859222,-0.33692237734794617
1727009857910584800,10.838584716796875,-0.06621231138706207,0.30792373418807983,-0.2521558105945587
1727009857920623000,10.848623046875,-0.044256675988435745,0.3606841564178467,0.08823159337043762
1727009857930660000,10.85866015625,-0.019777698442339897,0.04253095015883446,0.3590835928916931
1727009857940698000,10.868697998046875,-0.02984071895480156,-0.2475418895483017,0.24031352996826172
1727009857950736100,10.878736083984375,-0.07287473976612091,-0.3050757646560669,-0.038353513926267624
1727009857960774000,10.88877392578125,-0.09165588766336441,-0.1152229979634285,-0.19377213716506958
1727009857970812200,10.898812255859376,-0.04604712128639221,0.08593408018350601,-0.2200431525707245
1727009857980850000,10.908849853515624,0.01895664632320404,0.13707050681114197,-0.11986994743347168
1727009857990888200,10.91888818359375,0.008402273058891296,0.08991657197475433,-0.0506884790956974
1727009858000926000,10.928926025390625,-0.007201986387372017,-0.03554308041930199,0.08967582136392593
1727009858010964200,10.938964111328126,0.044861748814582825,0.0484309159219265,0.3477260172367096
1727009858021002000,10.949001953125,0.09938783943653107,0.09450999647378922,0.2379302680492401
1727009858031040000,10.9590400390625,0.10123234242200851,-0.033428531140089035,0.0709945484995842
1727009858041078000,10.969078125,0.039632897824048996,-0.13881275057792664,-0.12257358431816101
1727009858051116000,10.979115966796876,-0.05218144506216049,-0.1524454653263092,-0.2917628884315491
1727009858061154000,10.989154052734374,-0.06445702165365219,-0.052384644746780396,-0.25680461525917053
1727009858071192000,10.999192138671875,0.028851887211203575,0.1876109093427658,0.012744557112455368
1727009858081229000,11.00922900390625,0.126180037856102,0.26436081528663635,0.008554605767130852
1727009858091267000,11.01926708984375,0.16106878221035004,0.20691482722759247,0.46440815925598145
1727009858101305000,11.02930517578125,0.07917764037847519,0.05387654900550842,0.2955128848552704
1727009858111343000,11.039343017578124,0.021321799606084824,-0.10247337818145752,0.10188828408718109
1727009858121381000,11.049381103515625,0.021797973662614822,-0.0623461976647377,-0.10730434954166412
1727009858131419000,11.0594189453125,0.005829659756273031,0.07056231796741486,-0.5979260206222534
1727009858141457200,11.06945703125,-0.00028336033574305475,0.16735170781612396,-0.29808202385902405
1727009858151495000,11.079494873046874,-0.005036303773522377,0.10527129471302032,-0.15869776904582977
1727009858161533200,11.089533203125,0.03886137902736664,-0.04581542685627937,0.026312297210097313
1727009858171571000,11.099571044921875,0.0996597483754158,0.03575773164629936,0.5154641270637512
1727009858181609200,11.109609130859376,0.09577179700136185,0.1675431877374649,0.31886160373687744
1727009858191647000,11.11964697265625,0.11309593170881271,0.2747703194618225,0.342650830745697
1727009858201685000,11.12968505859375,0.12808899581432343,0.2751162648200989,0.026311764493584633
1727009858211723000,11.139722900390625,0.08601424098014832,0.20015625655651093,-0.2623506486415863
1727009858221761000,11.149760986328126,0.025490179657936096,0.006354834884405136,-0.2221483737230301
1727009858231798000,11.159798095703126,0.012147476896643639,-0.11450820416212082,-0.05856184661388397
1727009858241836000,11.1698359375,0.06979373097419739,0.07921705394983292,0.05668671429157257
1727009858251874000,11.1798740234375,0.12274056673049927,0.24889451265335083,0.1480264812707901
1727009858261912000,11.189912109375,0.13672003149986267,0.33255743980407715,0.1982710063457489
1727009858271950000,11.1999501953125,0.1301787793636322,0.2328321784734726,0.12758351862430573
1727009858281988000,11.209988037109374,0.14669223129749298,-0.004800880327820778,-0.0004985437262803316
1727009858292026000,11.220026123046875,0.17654068768024445,-0.2101881206035614,0.04862053319811821
1727009858302063900,11.23006396484375,0.14056536555290222,-0.2166883647441864,-0.16332341730594635
1727009858312102100,11.24010205078125,0.07856804877519608,0.031850073486566544,-0.08989260345697403
1727009858322140000,11.250139892578124,0.0437602624297142,0.3121517598628998,0.059967197477817535
1727009858332178200,11.26017822265625,0.05615941062569618,0.45800697803497314,0.143963024020195
1727009858342216000,11.2702158203125,0.06816361099481583,0.39151930809020996,0.04897579923272133
1727009858352254200,11.280254150390626,0.02328934334218502,0.08901642262935638,-0.018008029088377953
1727009858362292000,11.2902919921875,-0.04316265136003494,-0.24955762922763824,0.0611584298312664
1727009858372330000,11.300330078125,-0.07564655691385269,-0.44375932216644287,0.14047960937023163
1727009858382368000,11.310367919921875,-0.06065349280834198,-0.29308512806892395,0.05710829421877861
1727009858392405000,11.320405029296875,-0.05314817279577255,-0.08390848338603973,-0.016327042132616043
1727009858402443000,11.330443115234376,-0.0916162058711052,0.09650949388742447,-0.07950974255800247
1727009858412481000,11.34048095703125,-0.1573861539363861,0.09859581291675568,-0.08536522835493088
1727009858422519000,11.35051904296875,-0.17134618759155273,-0.0017427726415917277,-0.13617780804634094
1727009858432557000,11.36055712890625,-0.12501463294029236,-0.09834042191505432,-0.07807855308055878
1727009858442595000,11.370594970703126,-0.11004234850406647,-0.17316272854804993,0.13029275834560394
1727009858452633000,11.380633056640624,-0.1532531976699829,-0.16822895407676697,0.3088694214820862
1727009858462671000,11.390671142578125,-0.21325235068798065,-0.11371298134326935,0.21198523044586182
1727009858472708900,11.400708984375,-0.21714989840984344,0.011306184343993664,-0.03921717777848244
1727009858482747100,11.4107470703125,-0.1849413514137268,0.10853260010480881,-0.26297491788864136
1727009858492785000,11.420784912109376,-0.18165501952171326,0.006248041987419128,-0.20773188769817352
1727009858502823200,11.4308232421875,-0.20193365216255188,-0.2512175738811493,-0.03167217597365379
1727009858512861000,11.44086083984375,-0.17853938043117523,-0.30556365847587585,0.308547705411911
1727009858522899200,11.450899169921875,-0.1258774995803833,-0.19622276723384857,0.2927359938621521
1727009858532937000,11.46093701171875,-0.09433475881814957,-0.09921100735664368,0.20192167162895203
1727009858542974000,11.470973876953124,-0.13799302279949188,-0.10388032346963882,0.02906281128525734
1727009858553012200,11.48101220703125,-0.2553742527961731,-0.12797501683235168,-0.18676269054412842
1727009858563050000,11.491050048828125,-0.3141286373138428,-0.021501297131180763,-0.34252458810806274
1727009858573088000,11.501087890625,-0.26056501269340515,0.08655379712581635,-0.5141479969024658
1727009858583126000,11.5111259765625,-0.1828334629535675,0.08878073841333389,-0.21381428837776184
1727009858593164000,11.5211640625,-0.18731316924095154,-0.08350421488285065,0.06610578298568726
1727009858603202000,11.5312021484375,-0.24197348952293396,-0.30485257506370544,0.48870229721069336
1727009858613240000,11.541239990234375,-0.2655144929885864,-0.2663035988807678,0.6100969314575195
1727009858623278000,11.551278076171876,-0.2646566927433014,-0.12674462795257568,0.10538315027952194
1727009858633316000,11.561316162109375,-0.2328055500984192,-0.019662916660308838,-0.16140860319137573
1727009858643353900,11.571353759765625,-0.2789197862148285,-0.06943340599536896,-0.46522068977355957
1727009858653392100,11.58139208984375,-0.3514842689037323,-0.18013142049312592,-0.37045714259147644
1727009858663430000,11.591429931640626,-0.35343077778816223,-0.2312031239271164,-0.21549580991268158
1727009858673468200,11.60146826171875,-0.28352946043014526,-0.18599596619606018,0.010239321738481522
1727009858683506000,11.611505859375,-0.22681929171085358,-0.034985680133104324,0.23049286007881165
1727009858693544200,11.621544189453125,-0.23224042356014252,0.02039848268032074,0.25156086683273315
1727009858703581200,11.631581298828126,-0.24340519309043884,-0.005882923025637865,0.34086543321609497
1727009858713619000,11.641618896484376,-0.2612515687942505,-0.14519527554512024,-0.030844731256365776
1727009858723657200,11.6516572265625,-0.2588789761066437,-0.377887099981308,-0.23721414804458618
1727009858733695000,11.661695068359375,-0.24996882677078247,-0.45730656385421753,-0.3569221794605255
1727009858743733000,11.67173291015625,-0.24906867742538452,-0.5278488993644714,-0.40615737438201904
1727009858753771000,11.68177099609375,-0.19197529554367065,-0.3339518904685974,-0.20670364797115326
1727009858763809000,11.69180908203125,-0.11776817589998245,-0.13843803107738495,-0.11551700532436371
1727009858773847000,11.701846923828125,-0.07989563047885895,-0.02149037830531597,0.07069973647594452
1727009858783885000,11.711885009765625,-0.07195914536714554,0.14331455528736115,0.2528596818447113
1727009858793923000,11.721923095703126,-0.03893088921904564,0.14690741896629333,0.24893498420715332
1727009858803961000,11.731961181640624,0.037996117025613785,0.11765819042921066,0.1628381907939911
1727009858813998800,11.741998779296875,0.07252001017332077,-0.07276555150747299,0.01829831302165985
1727009858824037000,11.752037109375,0.0349409393966198,-0.2912597954273224,-0.22620783746242523
1727009858834075000,11.762074951171876,-0.00868962798267603,-0.263790100812912,-0.09100287407636642
1727009858844113200,11.772113037109374,-0.0217130184173584,-0.10013512521982193,-0.05895519629120827
1727009858854151000,11.78215087890625,0.04253973811864853,0.30129459500312805,0.005824067164212465
1727009858864188000,11.79218798828125,0.1402367353439331,0.4763430953025818,-0.06799742579460144
1727009858874226200,11.80222607421875,0.19499719142913818,0.40819334983825684,0.05993630364537239
1727009858884264000,11.812263916015626,0.1815974861383438,0.1383882313966751,0.23983442783355713
1727009858894302200,11.82230224609375,0.19690294563770294,-0.1349535584449768,0.29764047265052795
1727009858904340000,11.832340087890625,0.26868125796318054,-0.3075202703475952,0.09968078881502151
1727009858914378000,11.8423779296875,0.295656681060791,-0.24151967465877533,-0.029289444908499718
1727009858924416000,11.852416015625,0.22433802485466003,0.06440668553113937,-0.30219873785972595
1727009858934454000,11.8624541015625,0.16281208395957947,0.36176273226737976,-0.30974242091178894
1727009858944492000,11.872491943359375,0.1989908665418625,0.4342614412307739,-0.1850915551185608
1727009858954530000,11.882530029296875,0.2856466472148895,0.326741099357605,0.041135452687740326
1727009858964568000,11.892568115234376,0.31463623046875,0.07745297998189926,0.3524547219276428
1727009858974606000,11.902606201171874,0.2833273112773895,-0.09601494669914246,0.4492614269256592
1727009858984643800,11.912643798828125,0.2883116900920868,-0.03232678025960922,0.5823203921318054
1727009858994682000,11.92268212890625,0.3039473593235016,0.17807812988758087,0.17627649009227753
1727009859004719900,11.932719970703126,0.2780105769634247,0.220173642039299,-0.1050097718834877
1727009859014758100,11.942758056640624,0.18663859367370605,0.09313633292913437,-0.23177996277809143
1727009859024795100,11.952795166015624,0.08230739086866379,0.06432732194662094,-0.484659880399704
1727009859034833000,11.9628330078125,0.09779127687215805,0.2802708148956299,-0.0492280013859272
1727009859044871200,11.97287109375,0.17825469374656677,0.5660516619682312,-0.3337151110172272
1727009859054909000,11.982908935546876,0.26643142104148865,0.4379509687423706,0.2408224642276764
1727009859064947200,11.992947265625,0.22111693024635315,0.029023129492998123,0.7860775589942932
1727009859074985000,12.00298486328125,0.0689292699098587,-0.29727375507354736,0.6357975006103516
1727009859085023000,12.01302294921875,0.0272047221660614,-0.26954492926597595,0.4192313551902771
1727009859095061000,12.02306103515625,0.01417440827935934,-0.0793566107749939,-0.7224956154823303
1727009859105099000,12.03309912109375,-0.010210826061666012,0.14820943772792816,-0.5044589042663574
1727009859115137000,12.043136962890625,-0.1086476519703865,0.16218118369579315,-0.6555155515670776
1727009859125175000,12.053175048828125,-0.06831833720207214,-0.05781296640634537,0.23732227087020874
1727009859135213000,12.063213134765626,0.03891677409410477,-0.2378852665424347,0.3695889711380005
1727009859145251000,12.0732509765625,0.04450621455907822,-0.2736499309539795,0.1263534128665924
1727009859155288800,12.083288818359375,-0.05591439828276634,-0.007561246864497662,0.4512811601161957
1727009859165327000,12.0933271484375,-0.1989370733499527,0.21102409064769745,-0.35747718811035156
1727009859175364900,12.10336474609375,-0.13233406841754913,0.389464408159256,0.21227231621742249
1727009859185403100,12.113403076171876,-0.09155335277318954,0.3166775405406952,-0.5825254917144775
1727009859195440000,12.123440185546874,-0.0978061854839325,-0.07411497086286545,-0.4096602201461792
1727009859205478000,12.133477783203125,-0.14379099011421204,-0.5146822333335876,0.08401127904653549
1727009859215516200,12.14351611328125,-0.23139247298240662,-0.6008871793746948,-0.22425280511379242
1727009859225554000,12.153553955078126,-0.2012806534767151,-0.5152140855789185,0.21299110352993011
1727009859235592200,12.16359228515625,-0.1397741436958313,-0.26604554057121277,0.06610605120658875
1727009859245630000,12.1736298828125,-0.11735299229621887,0.08376973122358322,0.24326644837856293
1727009859255668200,12.183668212890625,-0.1376097947359085,0.22062824666500092,0.12453687191009521
1727009859265706000,12.1937060546875,-0.09386763721704483,0.08479158580303192,0.07424333691596985
1727009859275744000,12.203743896484376,-0.02528192102909088,-0.23380343616008759,-0.05793440714478493
1727009859285782000,12.213781982421875,-0.014985873363912106,-0.44415295124053955,-0.08476521819829941
1727009859295820000,12.223820068359375,-0.06777318567037582,-0.4652092456817627,-0.20058290660381317
1727009859305858000,12.233858154296875,-0.08835676312446594,-0.3568233549594879,-0.17224793136119843
1727009859315896000,12.24389599609375,-0.05083335191011429,-0.2587282359600067,-0.015438077971339226
1727009859325933800,12.253933837890624,-0.027367975562810898,-0.040342897176742554,-0.00782782956957817
1727009859335972000,12.26397216796875,-0.03682778775691986,0.09047716856002808,0.016401875764131546
1727009859346009900,12.274009765625,-0.007426757365465164,0.10430483520030975,0.15682369470596313
1727009859356047000,12.284047119140626,0.0645345151424408,-0.09897105395793915,0.017905764281749725
