time,seconds_elapsed,z,y,x
1727009847094716000,0.0227158203125,0.02123706229031086,-0.1049422025680542,0.04022098705172539
1727009847104754000,0.03275390625,0.026680830866098404,-0.08033513277769089,0.05160599946975708
1727009847114792000,0.0427919921875,0.003888198174536228,-0.06219886615872383,0.018506009131669998
1727009847124829700,0.05282958984375,-0.019988905638456345,-0.05946965888142586,-0.029341142624616623
1727009847134868000,0.062867919921875,-0.023620862513780594,-0.05637213587760925,-0.0663510113954544
1727009847144905000,0.072905029296875,-0.014833495020866394,-0.041334062814712524,-0.060145314782857895
1727009847154943000,0.08294287109375,-0.009471612051129341,0.00700842821970582,-0.02669989876449108
1727009847164981000,0.09298095703125,-0.01710156910121441,0.04760245978832245,0.012089841067790985
1727009847175018800,0.103018798828125,-0.0017326853703707457,0.05652811378240585,0.02363583631813526
1727009847185057000,0.11305712890625,0.0013461951166391373,0.055639415979385376,0.00864783301949501
1727009847195094800,0.1230947265625,-0.0011047590523958206,0.07883867621421814,-0.005045468918979168
1727009847205133000,0.133133056640625,0.01657809689640999,0.09316515177488327,-0.014395294710993767
1727009847215170800,0.1431708984375,0.046991195529699326,0.1865062266588211,-0.017857056111097336
1727009847225208800,0.153208740234375,0.08027485013008118,0.20344020426273346,-0.02390589378774166
1727009847235246800,0.163246826171875,0.06940501183271408,0.1995219588279724,-0.020244691520929337
1727009847245284900,0.173284912109375,0.049878716468811035,0.19895817339420319,-0.008851155638694763
1727009847255323000,0.183322998046875,0.09017444401979446,0.21255294978618622,-0.0010562562383711338
1727009847265361000,0.19336083984375,0.13239726424217224,0.22775053977966309,-0.011860700324177742
1727009847275398000,0.20339794921875,0.13628724217414856,0.25314629077911377,-0.023631855845451355
1727009847285436000,0.213435791015625,0.11577051877975464,0.26659607887268066,-0.028679348528385162
1727009847295474000,0.223473876953125,0.0830325186252594,0.21465209126472473,-0.0022369930520653725
1727009847305512000,0.233511962890625,0.07773096114397049,0.09225400537252426,0.047244273126125336
1727009847315550000,0.243550048828125,0.12444723397493362,-0.035819463431835175,0.0986611396074295
1727009847325588000,0.253587890625,0.25084859132766724,-0.10608057677745819,0.18083083629608154
1727009847335626000,0.2636259765625,0.2334090918302536,-0.10427561402320862,0.23365932703018188
1727009847345663700,0.273663818359375,0.06897648423910141,-0.03392288461327553,0.18779756128787994
1727009847355702000,0.283701904296875,-0.004687572363764048,0.021314607933163643,0.09593778848648071
1727009847365739800,0.29373974609375,0.07715775817632675,0.03482695668935776,-0.009470121935009956
1727009847375778000,0.303778076171875,0.13944892585277557,0.007786738686263561,-0.07040779292583466
1727009847385815800,0.31381591796875,0.0853438749909401,-0.04754522442817688,-0.04288189113140106
1727009847395854000,0.32385400390625,-0.014736087992787361,-0.08837396651506424,0.014771990478038788
1727009847405890800,0.333890869140625,-0.023892035707831383,-0.06546758115291595,0.08320164680480957
1727009847415928800,0.3439287109375,0.04762006178498268,-0.0423043817281723,0.07958132773637772
1727009847425967000,0.353967041015625,0.0912008285522461,-0.044608552008867264,0.0538749024271965
1727009847436004900,0.3640048828125,0.042739707976579666,-0.05890047550201416,0.033943869173526764
1727009847446043000,0.37404296875,-0.03818949684500694,-0.03177778050303459,-0.008807058446109295
1727009847456081000,0.384080810546875,-0.036403924226760864,0.02193978801369667,-0.011454004794359207
1727009847466119000,0.394118896484375,0.024727873504161835,0.009140902198851109,-0.037867769598960876
1727009847476157000,0.404156982421875,0.045583367347717285,-0.03817176818847656,-0.004816923290491104
1727009847486195200,0.4141953125,-0.020709101110696793,-0.1128167137503624,0.03606872260570526
1727009847496233200,0.424233154296875,-0.08376215398311615,-0.1397288590669632,-0.002353622578084469
1727009847506271500,0.434271484375,-0.05408841371536255,-0.11692316085100174,-0.04396524652838707
1727009847516309200,0.444309326171875,0.007890161126852036,-0.09096433222293854,-0.0751502737402916
1727009847526346200,0.45434619140625,0.01273764856159687,-0.10227637737989426,-0.08349581807851791
1727009847536384300,0.46438427734375,-0.004154485650360584,-0.1584731936454773,-0.022589683532714844
1727009847546422300,0.47442236328125,0.0017481446266174316,-0.18768221139907837,0.02557145059108734
1727009847556460300,0.484460205078125,0.026794642210006714,-0.14904001355171204,0.008088599890470505
1727009847566498300,0.494498291015625,0.03909125551581383,-0.027391351759433746,0.031219482421875
1727009847576536000,0.5045361328125,0.015392551198601723,0.08365456014871597,0.01338572520762682
1727009847586574300,0.51457421875,-0.00770158227533102,0.11144065111875534,0.00002544419839978218
1727009847596612000,0.524612060546875,0.011107007041573524,0.026399193331599236,-0.04435671493411064
1727009847606650400,0.534650390625,0.0475531667470932,-0.12611205875873566,-0.03701571002602577
1727009847616688000,0.544688232421875,0.049796298146247864,-0.2647477090358734,-0.011061204597353935
1727009847626726400,0.554726318359375,0.016538480296730995,-0.2612464427947998,0.00946297962218523
1727009847636764200,0.56476416015625,-0.0019633937627077103,-0.12238617986440659,-0.00705126766115427
1727009847646802200,0.57480224609375,0.018240144476294518,0.026369741186499596,0.0034138900227844715
1727009847656839400,0.58483935546875,0.030663635581731796,0.08151956647634506,-0.0036273004952818155
1727009847666877200,0.594877197265625,0.009517602622509003,0.05256568267941475,0.005863406229764223
1727009847676915500,0.60491552734375,-0.021778862923383713,-0.041772808879613876,-0.010826436802744865
1727009847686953200,0.614953125,-0.009509680792689323,-0.14828193187713623,-0.047950100153684616
1727009847696991200,0.6249912109375,0.03942402824759483,-0.16835832595825195,-0.070717953145504
1727009847707029200,0.635029296875,0.09053993970155716,-0.13990618288516998,-0.1066325455904007
1727009847717067300,0.6450673828125,0.11789878457784653,-0.13855621218681335,0.04719586670398712
1727009847727105300,0.655105224609375,0.10548179596662521,-0.05430764704942703,-0.006859377957880497
1727009847737143300,0.665143310546875,0.13318733870983124,-0.008011862635612488,0.1726209670305252
1727009847747181000,0.67518115234375,0.14967603981494904,0.137797012925148,0.03369210660457611
1727009847757219300,0.68521923828125,0.14510788023471832,0.2824137210845947,-0.10426535457372665
1727009847767257000,0.695257080078125,0.1991940140724182,0.32589277625083923,-0.08555931597948074
1727009847777295400,0.70529541015625,0.28233158588409424,0.16589155793190002,-0.03621947765350342
1727009847787332400,0.715332275390625,0.32189205288887024,-0.06287290900945663,0.041898228228092194
1727009847797370000,0.7253701171875,0.3223557770252228,-0.1103176549077034,0.12049378454685211
1727009847807408400,0.735408447265625,0.29178962111473083,0.016805410385131836,0.09755544364452362
1727009847817446100,0.745446044921875,0.19200821220874786,0.13262395560741425,0.23908260464668274
1727009847827484400,0.755484375,0.04358784854412079,0.36959388852119446,0.07161877304315567
1727009847837522200,0.765522216796875,0.07205455005168915,0.5032429099082947,-0.07499834150075912
1727009847847560400,0.775560546875,0.2845154106616974,0.21030156314373016,-0.17116960883140564
1727009847857598200,0.78559814453125,0.3897588849067688,-0.26266124844551086,-0.253548800945282
1727009847867636200,0.79563623046875,0.26970329880714417,-0.5141619443893433,-0.13080531358718872
1727009847877674200,0.80567431640625,0.13369788229465485,-0.24245882034301758,-0.059493277221918106
1727009847887712300,0.815712158203125,0.18298527598381042,0.21676121652126312,0.2380598485469818
1727009847897750300,0.825750244140625,0.2829456627368927,0.5289644002914429,0.42605510354042053
1727009847907788300,0.835788330078125,0.2684122622013092,0.594468355178833,0.2619172930717468
1727009847917825300,0.8458251953125,0.1720506101846695,0.3578120768070221,0.05012211576104164
1727009847927863300,0.85586328125,0.14390607178211212,-0.08930471539497375,-0.24162398278713226
1727009847937901300,0.8659013671875,0.21802878379821777,-0.4002123773097992,-0.28524500131607056
1727009847947939300,0.875939208984375,0.24485905468463898,-0.3371913433074951,-0.22422398626804352
1727009847957977300,0.885977294921875,0.17009633779525757,-0.06579121202230453,0.0384213924407959
1727009847968015000,0.89601513671875,0.08047857880592346,0.31125780940055847,0.26629531383514404
1727009847978053400,0.906053466796875,0.05792158842086792,0.5249139070510864,0.3507084846496582
1727009847988091100,0.916091064453125,0.07004962861537933,0.4063824713230133,0.10174049437046051
1727009847998129400,0.92612939453125,0.0669282004237175,0.0754547268152237,-0.06277993321418762
1727009848008167200,0.936167236328125,-0.016755249351263046,-0.28285282850265503,-0.1444913148880005
1727009848018205400,0.946205322265625,-0.1208871528506279,-0.46962684392929077,-0.16319097578525543
1727009848028243200,0.9562431640625,-0.1377638578414917,-0.4106900095939636,-0.07621106505393982
1727009848038281200,0.96628125,-0.1185605451464653,-0.15539538860321045,0.0013636942021548748
1727009848048318500,0.976318359375,-0.17282085120677948,0.12016108632087708,0.06006428971886635
1727009848058356200,0.986356201171875,-0.28695738315582275,0.17108260095119476,0.1386171281337738
1727009848068394200,0.996394287109375,-0.34438765048980713,-0.030010830610990524,0.16951832175254822
1727009848078432300,1.006432373046875,-0.3423421084880829,-0.31660327315330505,0.01697440817952156
1727009848088470300,1.01647021484375,-0.3452971279621124,-0.5522786378860474,-0.13130080699920654
1727009848098508300,1.02650830078125,-0.3998927175998688,-0.6418153047561646,-0.20200836658477783
1727009848108546300,1.03654638671875,-0.4795593023300171,-0.5773370265960693,-0.22011199593544006
1727009848118584300,1.046584228515625,-0.495079904794693,-0.425453782081604,-0.14158901572227478
1727009848128622300,1.056622314453125,-0.4683287441730499,-0.24387013912200928,-0.07449279725551605
1727009848138660000,1.06666015625,-0.4578193724155426,-0.24510538578033447,-0.038579054176807404
1727009848148698400,1.076698486328125,-0.4741477370262146,-0.3699418604373932,0.052169494330883026
1727009848158736100,1.086736083984375,-0.49969345331192017,-0.57840496301651,0.0012223590165376663
1727009848168774400,1.0967744140625,-0.4985027611255646,-0.6869783401489258,-0.08145574480295181
1727009848178811400,1.106811279296875,-0.49870389699935913,-0.6157189011573792,-0.1695319414138794
1727009848188849200,1.11684912109375,-0.5369306206703186,-0.465695321559906,-0.12776850163936615
1727009848198887400,1.126887451171875,-0.5822564959526062,-0.33123764395713806,-0.13096794486045837
1727009848208925200,1.13692529296875,-0.5800689458847046,-0.30847853422164917,-0.018256310373544693
1727009848218963500,1.14696337890625,-0.532493531703949,-0.33449769020080566,0.054862383753061295
1727009848229001200,1.157001220703125,-0.5408532023429871,-0.29295477271080017,0.047043345868587494
1727009848239039200,1.167039306640625,-0.5954223275184631,-0.2390436828136444,-0.07380067557096481
1727009848249077200,1.1770771484375,-0.5926302671432495,-0.2562868297100067,-0.15341933071613312
1727009848259115300,1.187115234375,-0.5212214589118958,-0.279941588640213,-0.0661226212978363
1727009848269153300,1.1971533203125,-0.4806932210922241,-0.34156525135040283,-0.10086382180452347
1727009848279191300,1.20719140625,-0.4733157157897949,-0.4432552456855774,0.04278859123587608
1727009848289229300,1.217229248046875,-0.46876728534698486,-0.4878397583961487,0.0055501400493085384
1727009848299267300,1.227267333984375,-0.4548093378543854,-0.454787939786911,0.016264159232378006
1727009848309304300,1.23730419921875,-0.46806228160858154,-0.24502967298030853,-0.08530614525079727
1727009848319342300,1.24734228515625,-0.46825775504112244,-0.1564629226922989,-0.25520285964012146
1727009848329380400,1.25738037109375,-0.3493582606315613,-0.20966516435146332,-0.2552867531776428
1727009848339418400,1.26741845703125,-0.20042628049850464,-0.28984153270721436,-0.11869806051254272
1727009848349456400,1.277456298828125,-0.17368121445178986,-0.3864985704421997,0.023851366713643074
1727009848359494100,1.287494140625,-0.19340914487838745,-0.47027352452278137,0.17403936386108398
1727009848369532400,1.297532470703125,-0.15243294835090637,-0.3433597683906555,0.17102226614952087
1727009848379570200,1.307570068359375,-0.07930445671081543,-0.17344936728477478,0.12011048942804337
1727009848389608400,1.3176083984375,-0.019462164491415024,-0.07175735384225845,-0.02619771845638752
1727009848399646200,1.327646240234375,0.021056564524769783,-0.11092312633991241,-0.18271507322788239
1727009848409684200,1.337684326171875,0.05122138932347298,-0.18195763230323792,-0.19929857552051544
1727009848419722200,1.34772216796875,0.08648833632469177,-0.2285018265247345,-0.11875829845666885
1727009848429760300,1.35776025390625,0.16463319957256317,-0.2562149465084076,0.013062586076557636
1727009848439797500,1.367797607421875,0.260111927986145,-0.19306553900241852,0.2180320769548416
1727009848449835300,1.377835205078125,0.2895030975341797,-0.029374346137046814,0.1765802502632141
1727009848459873300,1.387873291015625,0.2666211724281311,-0.10665881633758545,-0.19113078713417053
1727009848469911300,1.397911376953125,0.2789100706577301,-0.3560555875301361,-0.3662983477115631
1727009848479949300,1.40794921875,0.3354042172431946,-0.5078107714653015,-0.6346871256828308
1727009848489986300,1.417986328125,0.45955201983451843,0.05911257117986679,0.6400119662284851
1727009848500024300,1.4280244140625,0.41975119709968567,0.9882652759552002,1.1529016494750977
1727009848510062300,1.438062255859375,0.27409863471984863,1.4726756811141968,0.2484406679868698
1727009848520100400,1.448100341796875,0.31711915135383606,1.4650331735610962,-0.24560433626174927
1727009848530138400,1.458138427734375,0.4793964624404907,0.5766592621803284,-0.7238609194755554
1727009848540176400,1.46817626953125,0.5568522810935974,-0.7343153953552246,-0.2917008697986603
1727009848550214700,1.478214599609375,0.4232883155345917,-1.4683228731155396,0.3587202727794647
1727009848560252400,1.48825244140625,0.2851766049861908,-0.8589394688606262,0.4968765676021576
1727009848570289400,1.498289306640625,0.3548305034637451,0.38109496235847473,0.238433837890625
1727009848580327400,1.508327392578125,0.5708432793617249,1.3197057247161865,-0.16641880571842194
1727009848590365400,1.518365478515625,0.7353461980819702,1.455633282661438,-0.12979981303215027
1727009848600403200,1.5284033203125,0.7518678307533264,0.8154682517051697,-0.04221148043870926
1727009848610441500,1.53844140625,0.7291691899299622,-0.16249510645866394,-0.05907940864562988
1727009848620479200,1.548479248046875,0.7234954237937927,-0.8825525641441345,0.035098910331726074
1727009848630517500,1.558517578125,0.6681035757064819,-0.7098926305770874,0.09345356374979019
1727009848640555300,1.56855517578125,0.5341935157775879,0.11529441922903061,0.14508962631225586
1727009848650593500,1.578593505859375,0.4606707990169525,1.099457859992981,0.20016725361347198
1727009848660631300,1.58863134765625,0.5010599493980408,1.544845700263977,0.06332159042358398
1727009848670669300,1.59866943359375,0.6074655055999756,1.2906285524368286,-0.0021546226926147938
1727009848680707300,1.608707275390625,0.6761873960494995,0.5599729418754578,-0.03941049054265022
1727009848690745300,1.618745361328125,0.7000432014465332,-0.23506824672222137,0.07190937548875809
1727009848700783600,1.62878369140625,0.7343354225158691,-0.6493428349494934,0.11996112763881683
1727009848710820400,1.6388203125,0.7691583633422852,-0.37881791591644287,0.0049248263239860535
1727009848720858400,1.6488583984375,0.7925153970718384,0.36456096172332764,-0.10929650068283081
1727009848730896400,1.658896484375,0.8616406321525574,1.1811442375183105,0.009395787492394447
1727009848740934400,1.668934326171875,0.9538490176200867,1.6637704372406006,0.23891665041446686
1727009848750972400,1.678972412109375,1.002540111541748,1.4842537641525269,0.337326318025589
1727009848761010400,1.689010498046875,1.0628381967544556,0.986154317855835,0.2522008717060089
1727009848771048200,1.699048095703125,1.1420917510986328,0.23450611531734467,0.36728140711784363
1727009848781086500,1.70908642578125,1.1601225137710571,-0.13802911341190338,0.3131844401359558
1727009848791124200,1.719124267578125,1.096475601196289,0.10159973055124283,0.13744696974754333
1727009848801162500,1.72916259765625,1.027987003326416,0.6252018809318542,-0.2938474416732788
1727009848811200300,1.7392001953125,1.050411343574524,1.1200742721557617,-0.24847117066383362
1727009848821238500,1.749238525390625,1.0576255321502686,1.238100528717041,0.026421532034873962
1727009848831276500,1.759276611328125,1.0242723226547241,1.0597877502441406,0.2833752930164337
1727009848841313300,1.769313232421875,1.025892734527588,0.7680976390838623,0.557033121585846
1727009848851351600,1.7793515625,1.0166432857513428,0.6050989031791687,0.43100541830062866
1727009848861389300,1.789389404296875,0.9699891209602356,0.5900915265083313,0.24557547271251678
1727009848871427600,1.799427490234375,0.9308989644050598,0.5353933572769165,-0.0031933458521962166
1727009848881465300,1.80946533203125,0.8905048966407776,0.5337022542953491,-0.04403243958950043
1727009848891503400,1.81950341796875,0.780402660369873,0.559998095035553,-0.20406045019626617
1727009848901541400,1.829541259765625,0.6966995000839233,0.5810273289680481,-0.10053050518035889
1727009848911579400,1.839579345703125,0.6634621620178223,0.6563140749931335,0.2681966722011566
1727009848921617400,1.849617431640625,0.604027509689331,0.7782636880874634,0.45913270115852356
1727009848931655400,1.859655517578125,0.5781309604644775,0.715968906879425,0.42376354336738586
1727009848941693200,1.869693115234375,0.5740324258804321,0.43210849165916443,0.35623419284820557
1727009848951731500,1.8797314453125,0.4541704058647156,0.12659330666065216,0.09465852379798889
1727009848961769200,1.889769287109375,0.2909010648727417,0.026910832151770592,-0.16367414593696594
1727009848971807500,1.899807373046875,0.2058793604373932,0.16785916686058044,-0.24858343601226807
1727009848981844500,1.909844482421875,0.1646842658519745,0.3419755697250366,-0.18525537848472595
1727009848991882200,1.91988232421875,0.128745436668396,0.4152441620826721,0.08217766135931015
1727009849001920500,1.92992041015625,0.062029361724853516,0.4068606197834015,0.4153691828250885
1727009849011958300,1.939958251953125,-0.025996103882789612,0.2822822034358978,0.41468504071235657
1727009849021996500,1.94999658203125,-0.05973295122385025,0.1359252631664276,0.30673301219940186
1727009849032034300,1.960034423828125,-0.06656502187252045,0.024307388812303543,0.10681644827127457
1727009849042072600,1.970072509765625,-0.12786909937858582,-0.023297064006328583,-0.1703886091709137
1727009849052110300,1.9801103515625,-0.2199992835521698,-0.0017675370909273624,-0.30859309434890747
1727009849062148400,1.9901484375,-0.25339362025260925,0.022233642637729645,-0.1378525346517563
1727009849072186400,2.000186279296875,-0.23309528827667236,0.07479432970285416,0.027922319248318672
1727009849082224400,2.010224365234375,-0.20765168964862823,0.10586502403020859,0.20930080115795135
1727009849092262400,2.020262451171875,-0.21787182986736298,0.13153469562530518,0.22989477217197418
1727009849102300400,2.030300537109375,-0.231942281126976,0.10901733487844467,0.20665015280246735
1727009849112338400,2.04033837890625,-0.22141534090042114,0.025999145582318306,0.07689667493104935
1727009849122375400,2.05037548828125,-0.1788046807050705,-0.012369660660624504,-0.04240038990974426
1727009849132413400,2.060413330078125,-0.16422174870967865,0.006561418529599905,-0.1128162369132042
1727009849142451500,2.070451416015625,-0.1677960604429245,0.05535939335823059,-0.11771270632743835
1727009849152489500,2.080489501953125,-0.15235131978988647,0.02767982892692089,0.007892357185482979
1727009849162527200,2.09052734375,-0.1019190177321434,-0.0016475128941237926,0.10181502997875214
1727009849172565500,2.1005654296875,-0.05372112989425659,0.02832876145839691,0.10800794512033463
1727009849182603300,2.110603271484375,-0.00530287204310298,0.07860445976257324,0.09250157326459885
1727009849192641500,2.1206416015625,0.02885057032108307,0.05794312059879303,0.018795400857925415
1727009849202679300,2.13067919921875,0.045843541622161865,0.017712868750095367,-0.02230186015367508
1727009849212717600,2.140717529296875,0.047345299273729324,0.08306710422039032,0.06681416928768158
1727009849222755300,2.15075537109375,0.039215825498104095,0.15587860345840454,0.09735661000013351
1727009849232793300,2.16079345703125,0.0654359757900238,0.21714089810848236,0.11103300750255585
1727009849242831400,2.170831298828125,0.09199586510658264,0.26899009943008423,0.12664447724819183
1727009849252868400,2.180868408203125,0.06441350281238556,0.25063878297805786,0.08680704981088638
1727009849262906400,2.19090625,0.027718711644411087,0.2262646108865738,0.07888754457235336
1727009849272944400,2.2009443359375,0.027533620595932007,0.13434827327728271,0.1459808349609375
1727009849282982400,2.210982421875,0.02336110547184944,0.08014655113220215,0.07113790512084961
1727009849293020400,2.2210205078125,-0.023209059610962868,0.10873612016439438,-0.004023958928883076
1727009849303058400,2.231058349609375,-0.07454036176204681,0.1648249626159668,-0.02741309255361557
1727009849313096400,2.241096435546875,-0.08370243012905121,0.15631216764450073,0.008854633197188377
1727009849323134500,2.251134521484375,-0.08392991870641708,-0.04399735480546951,0.07136103510856628
1727009849333172200,2.261172119140625,-0.12831921875476837,-0.14137956500053406,0.18099617958068848
1727009849343210500,2.27121044921875,-0.23481805622577667,-0.21855486929416656,0.10497041046619415
1727009849353248300,2.281248291015625,-0.3255271911621094,-0.18468105792999268,-0.12122304737567902
1727009849363286500,2.29128662109375,-0.3377511203289032,-0.06772079318761826,-0.13472650945186615
1727009849373324300,2.30132421875,-0.3400723338127136,-0.10294589400291443,-0.049261949956417084
1727009849383362600,2.311362548828125,-0.3631306290626526,-0.11917813867330551,0.15705937147140503
1727009849393400300,2.321400390625,-0.436355859041214,-0.10646899789571762,0.18181373178958893
1727009849403437300,2.331437255859375,-0.5027111172676086,-0.047257084399461746,0.02163473702967167
1727009849413475600,2.3414755859375,-0.5406635403633118,0.12492133677005768,-0.12151842564344406
1727009849423513300,2.351513427734375,-0.571195662021637,0.02083277702331543,-0.15045073628425598
1727009849433551400,2.36155126953125,-0.6058801412582397,-0.26609617471694946,-0.0761466696858406
1727009849443589400,2.37158935546875,-0.622567892074585,-0.40855926275253296,0.023840881884098053
1727009849453627400,2.38162744140625,-0.6103661060333252,-0.26218393445014954,0.010478739626705647
1727009849463665400,2.39166552734375,-0.5994584560394287,-0.06171751767396927,-0.03839823976159096
1727009849473703400,2.401703369140625,-0.6165655255317688,-0.025751261040568352,-0.11218324303627014
1727009849483741400,2.411741455078125,-0.6496309638023376,-0.2910861670970917,0.04495437815785408
1727009849493779200,2.421779296875,-0.6856802701950073,-0.606998085975647,0.14451345801353455
1727009849503817000,2.43181689453125,-0.7486786842346191,-0.7536816000938416,0.19911140203475952
1727009849513855200,2.441855224609375,-0.8508026599884033,-0.6024327278137207,-0.07462292909622192
1727009849523893000,2.45189306640625,-0.9207708835601807,-0.32688599824905396,-0.2409035563468933
1727009849533930000,2.461929931640625,-0.9547821283340454,-0.32788655161857605,-0.38466739654541016
1727009849543968300,2.47196826171875,-0.9711693525314331,-0.5683125853538513,-0.24952886998653412
1727009849554006000,2.482006103515625,-1.0631898641586304,-0.922200620174408,0.0063758897595107555
1727009849564044300,2.492044189453125,-1.2084096670150757,-0.9878087639808655,0.1653994619846344
1727009849574082000,2.50208203125,-1.3002547025680542,-0.7788507342338562,0.16743330657482147
1727009849584120000,2.5121201171875,-1.3053717613220215,-0.5448189377784729,-0.10263888537883759
1727009849594158000,2.522157958984375,-1.2966326475143433,-0.5745847821235657,-0.2664065361022949
1727009849604196000,2.532196044921875,-1.369118094444275,-0.8523066639900208,-0.41529232263565063
1727009849614234000,2.542234130859375,-1.45756196975708,-1.1408601999282837,-0.2900731563568115
1727009849624272100,2.552272216796875,-1.456269383430481,-1.3155406713485718,-0.30537158250808716
1727009849634310100,2.56231005859375,-1.355897307395935,-1.176095962524414,-0.12334106117486954
1727009849644348200,2.57234814453125,-1.2901712656021118,-0.9570974111557007,-0.12349081039428711
1727009849654386000,2.582385986328125,-1.2863256931304932,-0.8048983216285706,-0.12599311769008636
1727009849664424200,2.592424072265625,-1.2855454683303833,-0.8000025749206543,-0.1556701362133026
1727009849674461200,2.602461181640625,-1.2284132242202759,-0.7963905334472656,-0.014910615980625153
1727009849684499000,2.6124990234375,-1.105748176574707,-0.8722004294395447,-0.14847050607204437
1727009849694537200,2.622537109375,-0.9701104760169983,-0.8177838325500488,-0.0875357836484909
1727009849704575000,2.632574951171875,-0.9203286170959473,-0.7640966773033142,-0.32069703936576843
1727009849714613200,2.64261328125,-0.8610261082649231,-0.6037576198577881,-0.2847888469696045
1727009849724651000,2.652651123046875,-0.718814492225647,-0.37580761313438416,-0.10331321507692337
1727009849734689300,2.662689208984375,-0.5261869430541992,-0.2983466386795044,0.12544353306293488
1727009849744727000,2.67272705078125,-0.35998785495758057,-0.2857530117034912,0.11938390135765076
1727009849754765000,2.68276513671875,-0.31110793352127075,-0.36638686060905457,0.0010295617394149303
1727009849764803000,2.692802978515625,-0.29763343930244446,-0.3403518497943878,-0.03977680206298828
1727009849774841000,2.702841064453125,-0.2067464292049408,-0.1156710758805275,-0.0854867622256279
1727009849784879000,2.712879150390625,-0.0003210538998246193,0.13027043640613556,0.01829812489449978
1727009849794917000,2.722917236328125,0.16474859416484833,0.13813501596450806,-0.08209079504013062
1727009849804955100,2.732955078125,0.21246683597564697,0.07423941045999527,-0.08203615248203278
1727009849814993200,2.7429931640625,0.2088894098997116,0.006415353622287512,0.05530386418104172
1727009849825030100,2.753030029296875,0.29753777384757996,0.07801502197980881,0.19444897770881653
1727009849835068200,2.763068115234375,0.4895154535770416,0.21809330582618713,0.21281012892723083
1727009849845106200,2.773106201171875,0.6290777325630188,0.364504337310791,0.2140781432390213
1727009849855144000,2.78314404296875,0.6404914855957031,0.39501750469207764,-0.07076531648635864
1727009849865182200,2.79318212890625,0.647419273853302,0.3042096793651581,0.06896935403347015
1727009849875220000,2.803219970703125,0.7113534808158875,0.29524627327919006,0.17732883989810944
1727009849885258200,2.81325830078125,0.7973785400390625,0.4107341170310974,0.2790463864803314
1727009849895296000,2.8232958984375,0.8430871367454529,0.42187729477882385,0.2857322692871094
1727009849905334300,2.833334228515625,0.8167397379875183,0.5042365789413452,0.14216049015522003
1727009849915372000,2.8433720703125,0.7735866904258728,0.5655622482299805,-0.06933896988630295
1727009849925410000,2.85341015625,0.8150924444198608,0.6787853240966797,-0.06899890303611755
1727009849935448000,2.863447998046875,0.8968730568885803,0.6235471367835999,0.02736678533256054
1727009849945486000,2.873486083984375,0.9179158806800842,0.6335809230804443,0.051340263336896896
1727009849955523000,2.883523193359375,0.8936337232589722,0.45044732093811035,0.1304585188627243
1727009849965561000,2.89356103515625,0.8438310623168945,0.2578379809856415,0.2384965717792511
1727009849975599000,2.90359912109375,0.7289854288101196,0.1983615905046463,0.3265875279903412
1727009849985637000,2.91363720703125,0.5784144997596741,0.32785335183143616,0.26954385638237
1727009849995675100,2.923675048828125,0.47684553265571594,0.5792280435562134,0.03318323940038681
1727009850005713200,2.933713134765625,0.4245501756668091,0.5831666588783264,-0.03783440217375755
1727009850015751200,2.943751220703125,0.3438124358654022,0.4286620616912842,-0.05803154781460762
1727009850025789000,2.953788818359375,0.19478453695774078,0.11264508962631226,-0.04151039198040962
1727009850035827200,2.9638271484375,0.06401027739048004,-0.006808868143707514,-0.03127346932888031
1727009850045865000,2.973864990234375,0.007045376114547253,-0.11614705622196198,-0.04988742992281914
1727009850055903200,2.9839033203125,-0.016019463539123535,-0.1567291021347046,0.02182190865278244
1727009850065941000,2.99394091796875,-0.09435669332742691,-0.14995257556438446,0.10925425589084625
1727009850075979300,3.003979248046875,-0.19811850786209106,-0.23519690334796906,0.09560368955135345
1727009850086017000,3.01401708984375,-0.272294819355011,-0.2638046443462372,-0.09090554714202881
1727009850096055000,3.024054931640625,-0.2802398204803467,-0.3343467116355896,-0.10552257299423218
1727009850106092300,3.03409228515625,-0.2955782413482666,-0.3384662866592407,-0.12220288813114166
1727009850116130000,3.044130126953125,-0.366682231426239,-0.3481503427028656,-0.052060555666685104
1727009850126168000,3.05416796875,-0.4352450370788574,-0.36433595418930054,0.0007730997167527676
1727009850136206000,3.0642060546875,-0.4485073387622833,-0.3683461546897888,-0.01405777782201767
1727009850146244000,3.074244140625,-0.4355248212814331,-0.3559435307979584,0.012632844969630241
1727009850156282000,3.0842822265625,-0.43961918354034424,-0.33964207768440247,0.08658163249492645
1727009850166320000,3.094320068359375,-0.4786533713340759,-0.37420326471328735,0.04494892805814743
1727009850176358100,3.104358154296875,-0.4977881610393524,-0.3777655065059662,-0.06937045603990555
1727009850186396200,3.114396240234375,-0.4939282536506653,-0.36683642864227295,-0.0811169371008873
1727009850196434000,3.124433837890625,-0.4817599952220917,-0.3227808177471161,-0.12892495095729828
1727009850206472200,3.13447216796875,-0.45428556203842163,-0.2633539140224457,0.05113067477941513
1727009850216510000,3.144510009765625,-0.44605106115341187,-0.18317335844039917,-0.052463360130786896
1727009850226548200,3.15454833984375,-0.39384493231773376,-0.053125422447919846,-0.1325605809688568
1727009850236586000,3.1645859375,-0.310592383146286,-0.05815133824944496,0.01619667187333107
1727009850246623000,3.174623046875,-0.25664764642715454,-0.05889442563056946,0.10855159163475037
1727009850256661200,3.1846611328125,-0.2000376284122467,-0.11459390819072723,0.1610904186964035
1727009850266699000,3.194698974609375,-0.10830261558294296,-0.15525251626968384,-0.03962918743491173
1727009850276737300,3.2047373046875,0.008239176124334335,-0.30371975898742676,-0.062236759811639786
1727009850286775000,3.214775146484375,0.06865401566028595,-0.4410993158817291,0.11114843934774399
1727009850296813000,3.22481298828125,0.004513915162533522,-0.2787224054336548,0.17176809906959534
1727009850306851000,3.23485107421875,-0.055146265774965286,0.07363579422235489,-0.10742024332284927
1727009850316889000,3.24488916015625,0.053058769553899765,0.33215203881263733,-0.2507089674472809
1727009850326927000,3.254927001953125,0.2434685379266739,0.1908136010169983,-0.16727814078330994
1727009850336965000,3.264965087890625,0.3362610638141632,-0.18048404157161713,0.20923557877540588
1727009850347003100,3.275003173828125,0.2887645363807678,-0.3529835343360901,0.27940112352371216
1727009850357041200,3.285041259765625,0.2780514359474182,-0.22414404153823853,0.06345286220312119
1727009850367079000,3.295078857421875,0.42040300369262695,0.10144118964672089,-0.17485696077346802
1727009850377117200,3.3051171875,0.5786973237991333,0.22017902135849,-0.02303706482052803
1727009850387154200,3.315154296875,0.566134512424469,0.3681648373603821,0.04895877093076706
1727009850397192200,3.325192138671875,0.501802384853363,0.4947672486305237,0.07728894799947739
1727009850407230200,3.335230224609375,0.5568334460258484,0.4803374707698822,0.08465106040239334
1727009850417268000,3.34526806640625,0.7030473947525024,0.4550800621509552,0.049906134605407715
1727009850427306200,3.35530615234375,0.7404535412788391,0.4297010004520416,0.22284486889839172
1727009850437344000,3.365343994140625,0.6683806777000427,0.4441196322441101,-0.05255768820643425
1727009850447382300,3.37538232421875,0.6787401437759399,0.4809374511241913,0.0008128122426569462
1727009850457420000,3.385419921875,0.7636419534683228,0.4317861497402191,-0.14400669932365417
1727009850467458000,3.3954580078125,0.8306439518928528,0.400643914937973,0.09822747111320496
1727009850477496000,3.40549609375,0.7903660535812378,0.42179447412490845,0.13246800005435944
1727009850487534800,3.415534912109375,0.7221545577049255,0.4427005648612976,0.09724856913089752
1727009850497572600,3.425572509765625,0.7291642427444458,0.5086575150489807,-0.013348782435059547
1727009850507610600,3.435610595703125,0.7816360592842102,0.48858729004859924,0.09859003871679306
1727009850517648600,3.445648681640625,0.7710031270980835,0.46201109886169434,0.1720416098833084
1727009850527686700,3.455686767578125,0.6958562135696411,0.5137382745742798,0.01097029447555542
1727009850537724000,3.465723876953125,0.6306117177009583,0.5231879949569702,-0.026907311752438545
1727009850547761700,3.47576171875,0.6365868449211121,0.4797319769859314,-0.0016134688630700111
1727009850557799700,3.485799560546875,0.6741547584533691,0.46179506182670593,0.19914546608924866
1727009850567837700,3.495837646484375,0.6458667516708374,0.4160497188568115,0.20444321632385254
1727009850577875700,3.505875732421875,0.5709397792816162,0.3992305397987366,0.18404899537563324
1727009850587913700,3.515913818359375,0.5168045163154602,0.3499448299407959,0.12827196717262268
1727009850597951700,3.52595166015625,0.47574734687805176,0.32478541135787964,0.05990462750196457
1727009850607989800,3.53598974609375,0.4140680730342865,0.36664828658103943,-0.058880940079689026
1727009850618027800,3.54602783203125,0.32020363211631775,0.4212103486061096,-0.07316108047962189
1727009850628065500,3.5560654296875,0.257603257894516,0.4322945773601532,0.013017863035202026
1727009850638103800,3.566103759765625,0.24823132157325745,0.40984252095222473,0.21098287403583527
1727009850648141600,3.5761416015625,0.21991923451423645,0.3855043947696686,0.13601018488407135
1727009850658179800,3.586179931640625,0.15587100386619568,0.3243001699447632,0.06334450840950012
1727009850668217600,3.596217529296875,0.07102697342634201,0.2698266804218292,-0.050957079976797104
1727009850678254600,3.606254638671875,0.004839964676648378,0.09508708864450455,-0.1350080370903015
1727009850688292900,3.61629296875,-0.036350786685943604,0.048556745052337646,-0.13611912727355957
1727009850698330600,3.62633056640625,-0.06435765326023102,0.005319791380316019,-0.02841769903898239
1727009850708369000,3.636368896484375,-0.09274202585220337,-0.03774586319923401,0.09110219776630402
1727009850718406700,3.64640673828125,-0.11294583231210709,-0.04310041666030884,0.16102828085422516
1727009850728444700,3.656444580078125,-0.1609455943107605,0.03719475865364075,0.13932755589485168
1727009850738482700,3.666482666015625,-0.23328930139541626,0.10362997651100159,0.06493721902370453
1727009850748520700,3.676520751953125,-0.2891729176044464,-0.017514433711767197,0.014916677959263325
1727009850758558700,3.686558837890625,-0.36574652791023254,-0.14040440320968628,0.014188569970428944
1727009850768596700,3.6965966796875,-0.4841093122959137,-0.29861563444137573,-0.0738581195473671
1727009850778634800,3.706634765625,-0.560049831867218,-0.44036582112312317,-0.0709502175450325
1727009850788672800,3.7166728515625,-0.6105870008468628,-0.6568548679351807,-0.006501778960227966
1727009850798710500,3.72671044921875,-0.7159065008163452,-0.7017911672592163,-0.06619147211313248
1727009850808748800,3.736748779296875,-0.818617045879364,-0.4755033552646637,-0.19719934463500977
1727009850818786600,3.74678662109375,-0.8461189866065979,-0.444242388010025,-0.19656844437122345
1727009850828823600,3.756823486328125,-0.8381679654121399,-0.5220448970794678,-0.037535544484853745
1727009850838861800,3.76686181640625,-0.8879531025886536,-0.581436812877655,-0.04290927201509476
1727009850848899600,3.776899658203125,-0.9747726917266846,-0.47999507188796997,-0.04833275452256203
1727009850858937900,3.786937744140625,-0.9819523096084595,-0.5131383538246155,-0.015213151462376118
1727009850868975600,3.7969755859375,-0.9007369875907898,-0.5118498802185059,0.12727536261081696
1727009850879014000,3.807013916015625,-0.8878957629203796,-0.4516288638114929,0.11979800462722778
1727009850889051600,3.8170517578125,-0.9611129760742188,-0.4070208966732025,-0.14993321895599365
1727009850899089700,3.827089599609375,-0.9652693271636963,-0.4343191087245941,-0.2528718411922455
1727009850909127700,3.837127685546875,-0.905164361000061,-0.5903608202934265,-0.16125334799289703
1727009850919165700,3.847165771484375,-0.8640358448028564,-0.6313234567642212,-0.191142275929451
1727009850929203700,3.85720361328125,-0.8023726940155029,-0.6177960634231567,-0.09135212749242783
1727009850939241700,3.86724169921875,-0.7045776844024658,-0.6028655767440796,-0.08900374919176102
1727009850949279700,3.87727978515625,-0.624308705329895,-0.5708836913108826,0.06915973871946335
1727009850959317800,3.88731787109375,-0.5921651124954224,-0.4718027114868164,0.07148601114749908
1727009850969354800,3.897354736328125,-0.5376653671264648,-0.32965654134750366,0.05153382569551468
1727009850979392800,3.907392822265625,-0.4333762526512146,-0.378048837184906,-0.08086895942687988
1727009850989430800,3.9174306640625,-0.3363391160964966,-0.44778263568878174,-0.17808356881141663
1727009850999468500,3.927468505859375,-0.3205455243587494,-0.51396644115448,-0.22557759284973145
1727009851009506800,3.9375068359375,-0.25761863589286804,-0.41758233308792114,-0.05547068268060684
1727009851019544600,3.947544677734375,-0.09555727988481522,-0.2999371886253357,-0.03940916061401367
1727009851029582800,3.957582763671875,0.07045679539442062,-0.13875684142112732,0.13591213524341583
1727009851039620600,3.96762060546875,0.10599934309720993,0.023818502202630043,0.06538683921098709
1727009851049659000,3.977658935546875,0.1017550602555275,0.08084584027528763,0.11691607534885406
1727009851059696600,3.987696533203125,0.1960490643978119,0.17852844297885895,0.06514928489923477
1727009851069734700,3.997734619140625,0.3523589074611664,0.05546538159251213,-0.012410862371325493
1727009851079772700,4.007772705078125,0.45415690541267395,-0.1058846265077591,-0.08105330169200897
1727009851089810700,4.017810791015625,0.4710065424442291,-0.29268091917037964,-0.12371077388525009
1727009851099848700,4.0278486328125,0.5191037654876709,-0.21709266304969788,0.09706953912973404
1727009851109886700,4.03788671875,0.6262064576148987,0.15890607237815857,0.07432536035776138
1727009851119923700,4.047923828125,0.7411061525344849,0.47598257660865784,0.038780685514211655
1727009851129961700,4.057961669921875,0.8088746070861816,0.6057266592979431,0.01716703362762928
1727009851139999700,4.067999755859375,0.8075970411300659,0.4529205858707428,0.16138465702533722
1727009851150037800,4.078037841796875,0.787322998046875,0.36307820677757263,0.22735640406608582
1727009851160075800,4.08807568359375,0.802646815776825,0.2912983000278473,0.09112904965877533
1727009851170113500,4.098113525390625,0.8808616995811462,0.3125678598880768,0.03015429899096489
1727009851180151800,4.10815185546875,0.9349419474601746,0.46954628825187683,-0.04211217537522316
1727009851190189600,4.118189453125,0.8886467814445496,0.5795347690582275,-0.12435159087181091
1727009851200227800,4.128227783203125,0.8498123288154602,0.6411680579185486,-0.035919997841119766
1727009851210265600,4.138265625,0.88553786277771,0.6383075714111328,0.21644257009029388
1727009851220304000,4.148303955078125,0.9265652298927307,0.5871032476425171,0.3494671881198883
1727009851230341600,4.158341552734375,0.9012657403945923,0.512854278087616,0.20797312259674072
1727009851240379600,4.168379638671875,0.8091158270835876,0.4560661017894745,0.12996408343315125
1727009851250417700,4.178417724609375,0.7170531749725342,0.5712742209434509,-0.0422535240650177
1727009851260454700,4.18845458984375,0.6919111013412476,0.6143298149108887,-0.08328910917043686
1727009851270492700,4.19849267578125,0.6891052722930908,0.6045031547546387,-0.11773630976676941
1727009851280530700,4.20853076171875,0.6306057572364807,0.48796430230140686,0.057142555713653564
1727009851290568700,4.218568603515625,0.5310359597206116,0.5013666152954102,0.29981592297554016
1727009851300606700,4.228606689453125,0.43800753355026245,0.5317173004150391,0.15986227989196777
1727009851310644700,4.238644775390625,0.4150233864784241,0.5427355766296387,0.16819126904010773
1727009851320682800,4.248682861328125,0.38736724853515625,0.47310134768486023,0.10848265886306763
1727009851330720800,4.258720703125,0.27642226219177246,0.3947910964488983,-0.024072609841823578
1727009851340758500,4.268758544921875,0.12280100584030151,0.3707883059978485,-0.04850684851408005
1727009851350796800,4.278796875,0.020896241068840027,0.34153860807418823,0.03433974087238312
1727009851360834600,4.28883447265625,0.00996210053563118,0.393183171749115,0.06316259503364563
1727009851370872800,4.298872802734375,-0.015535254962742329,0.3058956265449524,-0.0005959216505289078
1727009851380910600,4.30891064453125,-0.11402907222509384,0.14939898252487183,0.07519125193357468
1727009851390948900,4.318948974609375,-0.2529709041118622,0.07287407666444778,0.06584736704826355
1727009851400985600,4.328985595703125,-0.31563055515289307,0.07454440742731094,0.015672076493501663
1727009851411023600,4.339023681640625,-0.31469786167144775,0.10434895753860474,-0.04591158404946327
1727009851421061600,4.3490615234375,-0.3509991466999054,0.003003431484103203,-0.0009230677969753742
1727009851431099600,4.359099609375,-0.46310117840766907,-0.09024769067764282,0.11397582292556763
1727009851441137700,4.3691376953125,-0.5676870346069336,-0.08978003263473511,0.0986514613032341
1727009851451175700,4.37917578125,-0.5919299125671387,-0.08338984102010727,-0.060761600732803345
1727009851461213700,4.389213623046875,-0.5704144835472107,-0.08059512078762054,-0.11688106507062912
1727009851471251700,4.399251708984375,-0.5885410308837891,-0.17216704785823822,-0.12777601182460785
1727009851481289700,4.409289794921875,-0.6501260995864868,-0.35632169246673584,0.11598924547433853
1727009851491327700,4.41932763671875,-0.6871743202209473,-0.5806186199188232,0.07195328921079636
1727009851501366000,4.429365966796875,-0.6760370135307312,-0.6608176231384277,-0.027753867208957672
1727009851511403800,4.43940380859375,-0.6748710870742798,-0.5794491767883301,-0.07660937309265137
1727009851521441800,4.44944189453125,-0.6825599074363708,-0.4039306342601776,-0.10441863536834717
1727009851531479800,4.459479736328125,-0.6469933986663818,-0.2733946740627289,-0.19194678962230682
1727009851541517800,4.469517822265625,-0.5996098518371582,-0.2962627112865448,-0.13141660392284393
1727009851551554600,4.479554443359375,-0.5968651175498962,-0.2518216371536255,0.054392918944358826
1727009851561592800,4.4895927734375,-0.5989215970039368,-0.2822231948375702,0.03029663860797882
1727009851571630600,4.499630615234375,-0.5334853529930115,-0.2984241247177124,0.1320899873971939
1727009851581668900,4.5096689453125,-0.49431028962135315,-0.27077120542526245,-0.08899553120136261
1727009851591707000,4.519706787109375,-0.5361313819885254,-0.21648365259170532,-0.2143535017967224
1727009851601745000,4.529744873046875,-0.5372507572174072,-0.16467371582984924,-0.14129261672496796
1727009851611783000,4.539782958984375,-0.4595092833042145,-0.2674137055873871,-0.16850244998931885
1727009851621820700,4.549820556640625,-0.35393786430358887,-0.4271942973136902,0.23186306655406952
1727009851631859000,4.55985888671875,-0.3291313052177429,-0.46999114751815796,0.11597823351621628
1727009851641896700,4.569896728515625,-0.3192765414714813,-0.373045951128006,0.2817229926586151
1727009851651935000,4.57993505859375,-0.2991049885749817,-0.29627755284309387,-0.10371328890323639
1727009851661972700,4.58997265625,-0.2431975156068802,-0.17487521469593048,-0.1298881620168686
1727009851672011000,4.600010986328125,-0.2204514443874359,-0.1924755722284317,-0.29576319456100464
1727009851682048800,4.610048828125,-0.17603711783885956,-0.24031740427017212,0.00631117494776845
1727009851692086800,4.620086669921875,-0.10433381795883179,-0.31193968653678894,-0.027433443814516068
1727009851702123800,4.630123779296875,-0.03161700442433357,-0.21343015134334564,0.033117253333330154
1727009851712161800,4.640161865234375,0.03303655982017517,-0.07563632726669312,-0.0382101908326149
1727009851722199600,4.650199462890625,0.09244263172149658,0.07883287966251373,0.06075100973248482
1727009851732237800,4.66023779296875,0.1316235512495041,0.1732148975133896,0.0922192856669426
1727009851742275800,4.67027587890625,0.1906418651342392,0.17938783764839172,0.12422754615545273
1727009851752313900,4.68031396484375,0.2734413743019104,0.10088497400283813,0.08603157103061676
1727009851762351900,4.690351806640625,0.3187779486179352,0.08556541055440903,0.059914480894804
1727009851772390000,4.700389892578125,0.3205011188983917,0.22087331116199493,-0.028809543699026108
1727009851782428000,4.710427978515625,0.3425443768501282,0.17836526036262512,-0.02539004385471344
1727009851792465700,4.720465576171875,0.3918917179107666,0.1233271136879921,-0.026078615337610245
1727009851802504000,4.73050390625,0.41984638571739197,0.10763523727655411,0.11219669878482819
1727009851812541700,4.740541748046875,0.42198124527931213,0.14776605367660522,0.08512885123491287
1727009851822580000,4.750580078125,0.4441467523574829,0.23092246055603027,0.07855723798274994
1727009851832617700,4.76061767578125,0.43516862392425537,0.3550971448421478,0.06844092160463333
1727009851842654700,4.77065478515625,0.4047955572605133,0.3947388231754303,-0.051517706364393234
1727009851852692700,4.780692626953125,0.4124571681022644,0.2230025678873062,0.04507066309452057
1727009851862730800,4.790730712890625,0.39475780725479126,0.07275128364562988,0.07137922942638397
1727009851872768800,4.800768798828125,0.3226678967475891,-0.01242532953619957,0.07408318668603897
1727009851882806800,4.810806884765625,0.2729397416114807,0.09488621354103088,-0.07507220655679703
1727009851892844800,4.8208447265625,0.2649540901184082,0.2371838390827179,-0.07339736074209213
1727009851902882800,4.8308828125,0.2326858937740326,0.35989829897880554,-0.05965172126889229
1727009851912920800,4.8409208984375,0.1747911125421524,0.3028043508529663,0.06195426359772682
1727009851922958800,4.850958740234375,0.1272161453962326,0.13929930329322815,0.12339551001787186
1727009851932996900,4.860996826171875,0.11173395067453384,0.04816317558288574,0.10886471718549728
1727009851943035000,4.871034912109375,0.10035799443721771,0.001414045924320817,-0.001980310771614313
1727009851953073000,4.881072998046875,0.100178062915802,-0.01193309761583805,-0.05817915126681328
1727009851963110700,4.891110595703125,0.08866122364997864,-0.14203864336013794,-0.15402977168560028
1727009851973149000,4.90114892578125,0.04849366843700409,-0.12703026831150055,-0.12867121398448944
1727009851983186700,4.911186767578125,0.010480508208274841,-0.09806759655475616,-0.09855060279369354
1727009851993224000,4.921223876953125,0.006032323464751244,-0.025141529738903046,0.037682853639125824
1727009852003261700,4.93126171875,0.017345964908599854,0.029998157173395157,-0.06126077100634575
1727009852013299700,4.9412998046875,0.037505894899368286,-0.05933177471160889,0.037624605000019073
1727009852023337700,4.951337646484375,0.03186345100402832,-0.11589305102825165,0.0438111312687397
1727009852033375700,4.961375732421875,0.005379912443459034,-0.1500813364982605,-0.023418772965669632
1727009852043413800,4.971413818359375,-0.007047196384519339,-0.11230705678462982,-0.1283121556043625
1727009852053451800,4.98145166015625,0.006714812014251947,-0.10153290629386902,-0.02324843965470791
1727009852063489800,4.99148974609375,0.0010484037920832634,0.013862391002476215,0.00005794735625386238
1727009852073527800,5.00152783203125,-0.013198847882449627,0.12093105912208557,0.040939223021268845
1727009852083565800,5.01156591796875,0.017664259299635887,0.09188396483659744,0.009731237776577473
1727009852093603800,5.021603759765625,0.07771693170070648,0.00042868079617619514,0.08603005111217499
1727009852103641900,5.031641845703125,0.08202566206455231,-0.1553388088941574,-0.01860102079808712
1727009852113680000,5.041679931640625,0.08951974660158157,-0.1971772015094757,-0.13037773966789246
1727009852123718000,5.0517177734375,0.1203269213438034,-0.19415824115276337,-0.15781256556510925
1727009852133754600,5.061754638671875,0.15731260180473328,-0.0009049540385603905,-0.1794854998588562
1727009852143793000,5.07179296875,0.19127322733402252,0.15400898456573486,-0.08679524064064026
1727009852153830700,5.08183056640625,0.22865216434001923,0.19799266755580902,0.22050431370735168
1727009852163869000,5.091868896484375,0.23437263071537018,0.24140965938568115,0.31403133273124695
1727009852173906700,5.10190673828125,0.2188551127910614,0.18272246420383453,0.1324615627527237
1727009852183944700,5.11194482421875,0.23870950937271118,0.013588822446763515,0.011215024627745152
1727009852193982700,5.121982666015625,0.24522921442985535,-0.10389605909585953,-0.1346583366394043
1727009852204020700,5.132020751953125,0.19458892941474915,0.021170776337385178,-0.14787454903125763
1727009852214058800,5.142058837890625,0.16046497225761414,0.17690524458885193,-0.024951579049229622
1727009852224096800,5.1520966796875,0.1778719276189804,0.2603841722011566,0.05514698475599289
1727009852234135000,5.162135009765625,0.2138059139251709,0.2504127025604248,0.14851036667823792
1727009852244172800,5.1721728515625,0.2087818682193756,0.1718055009841919,0.16884759068489075
1727009852254210800,5.1822109375,0.17619232833385468,0.15627168118953705,0.050744593143463135
1727009852264248800,5.192248779296875,0.1528254896402359,0.12706291675567627,-0.01974954828619957
1727009852274286800,5.202286865234375,0.14825332164764404,0.06235422566533089,-0.011657078750431538
1727009852284323600,5.212323486328125,0.12316128611564636,0.05526835471391678,-0.050655610859394073
1727009852294361900,5.22236181640625,0.08253169059753418,0.09009978920221329,0.04354454576969147
1727009852304399600,5.232399658203125,0.049946047365665436,0.15257862210273743,-0.02322942391037941
1727009852314438000,5.24243798828125,0.06324326992034912,0.14833492040634155,0.010686010122299194
1727009852324475600,5.2524755859375,0.05507829040288925,0.05710781365633011,0.01692020520567894
1727009852334514000,5.262513916015625,0.012683626264333725,-0.006219714414328337,0.04049895703792572
1727009852344551700,5.2725517578125,-0.028886720538139343,-0.09620606154203415,0.08594579994678497
1727009852354589700,5.282589599609375,-0.04345487803220749,-0.055501021444797516,0.0023317537270486355
1727009852364627700,5.292627685546875,-0.06646991521120071,0.0837591364979744,-0.027495650574564934
1727009852374665700,5.302665771484375,-0.11819393932819366,0.11301521211862564,-0.1270086020231247
1727009852384704000,5.3127041015625,-0.1674797385931015,-0.028905170038342476,-0.1967938095331192
1727009852394741800,5.32274169921875,-0.18620198965072632,-0.17608170211315155,-0.04383790120482445
1727009852404780000,5.332780029296875,-0.22280234098434448,-0.18922945857048035,-0.017660893499851227
1727009852414817800,5.34281787109375,-0.22183728218078613,-0.09189359098672867,-0.06042148545384407
1727009852424855800,5.352855712890625,-0.15997524559497833,-0.11791373789310455,0.08763536065816879
1727009852434892800,5.362892822265625,-0.13807478547096252,-0.08188875019550323,0.1744777262210846
1727009852444930800,5.372930908203125,-0.18329419195652008,-0.0296282097697258,0.0868045911192894
1727009852454968600,5.382968505859375,-0.20355792343616486,-0.027684632688760757,-0.06589307636022568
1727009852465006800,5.3930068359375,-0.17065510153770447,-0.11569304764270782,-0.11437618732452393
1727009852475044600,5.403044677734375,-0.1476917713880539,-0.06765976548194885,-0.05050892010331154
1727009852485083000,5.413082763671875,-0.13749612867832184,0.056105583906173706,-0.16400590538978577
1727009852495121700,5.42312158203125,-0.07394708693027496,0.10169404000043869,-0.11650758236646652
1727009852505159700,5.43315966796875,-0.002116043120622635,0.09340788424015045,0.05050218105316162
1727009852515197700,5.44319775390625,0.009653220884501934,0.020183026790618896,0.09508337825536728
1727009852525235700,5.453235595703125,0.01731087453663349,0.011660645715892315,0.2707047164440155
1727009852535273500,5.4632734375,0.03461650386452675,0.04685058444738388,0.17259371280670166
1727009852545311700,5.473311767578125,0.04189412295818329,0.12346892803907394,-0.050008464604616165
1727009852555349500,5.483349609375,0.02115473710000515,0.17686302959918976,-0.17144456505775452
1727009852565387800,5.4933876953125,0.008928697556257248,0.19525642693042755,-0.11033860594034195
1727009852575424800,5.5034248046875,0.036623820662498474,0.12544597685337067,-0.1354733109474182
1727009852585462500,5.513462646484375,0.08312847465276718,0.04201553761959076,0.05631263554096222
1727009852595500800,5.523500732421875,0.09009508043527603,0.0219022985547781,0.1302114874124527
1727009852605538600,5.53353857421875,0.07158797979354858,0.06501967459917068,0.06576564908027649
1727009852615576800,5.543576904296875,0.06301084160804749,0.14793066680431366,0.062088560312986374
1727009852625614600,5.553614501953125,0.05041808634996414,0.15445727109909058,0.0505613349378109
1727009852635652900,5.56365283203125,0.025698497891426086,0.14820122718811035,-0.05896957591176033
1727009852645690600,5.573690673828125,-0.006581675726920366,0.04685650020837784,-0.12691932916641235
1727009852655728600,5.583728759765625,-0.05244220420718193,-0.052908580750226974,-0.2353600412607193
1727009852665766700,5.5937666015625,-0.06632073223590851,-0.06281181424856186,-0.16131271421909332
1727009852675804700,5.6038046875,-0.03909807279706001,-0.08052115887403488,0.05385231226682663
1727009852685842700,5.6138427734375,-0.021224800497293472,0.050688523799180984,0.2013283222913742
1727009852695880700,5.623880615234375,-0.05740717798471451,0.21662317216396332,0.2711264491081238
1727009852705918500,5.63391845703125,-0.10526178777217865,0.39050519466400146,0.17500339448451996
1727009852715956700,5.643956787109375,-0.08056528121232986,0.45785465836524963,0.017254652455449104
1727009852725993700,5.65399365234375,-0.011356381699442863,0.21291470527648926,-0.020246382802724838
1727009852736031700,5.66403173828125,-0.023439468815922737,-0.1572815179824829,-0.1464557945728302
1727009852746069800,5.67406982421875,-0.08516088873147964,-0.24996057152748108,-0.1983959674835205
1727009852756107500,5.684107421875,-0.09220387041568756,-0.11201450973749161,0.17527638375759125
1727009852766145800,5.694145751953125,-0.020872168242931366,0.16451749205589294,0.17757602035999298
1727009852776183600,5.70418359375,0.029589064419269562,0.3552049398422241,0.03673791140317917
1727009852786221800,5.714221923828125,-0.002070328453555703,0.2424919754266739,0.10938708484172821
1727009852796259600,5.724259521484375,-0.03869015723466873,0.14465630054473877,0.060479555279016495
1727009852806297900,5.7342978515625,-0.0413740873336792,-0.009228328242897987,0.02145972102880478
1727009852816335600,5.744335693359375,-0.013272413052618504,-0.1225556880235672,-0.07778484374284744
1727009852826373600,5.75437353515625,0.006534581072628498,-0.03142843768000603,0.10751550644636154
1727009852836411600,5.76441162109375,-0.029441358521580696,0.12368249893188477,0.03757798671722412
1727009852846449700,5.77444970703125,-0.08347343653440475,0.21624305844306946,0.07964713871479034
1727009852856487700,5.78448779296875,-0.08872026950120926,0.13066205382347107,-0.06551655381917953
1727009852866525700,5.794525634765625,-0.05380303040146828,-0.09362882375717163,0.060921281576156616
1727009852876562700,5.804562744140625,-0.05751057341694832,-0.25988560914993286,0.058600276708602905
1727009852886600700,5.8146005859375,-0.10594255477190018,-0.2804476022720337,-0.11676142364740372
1727009852896638700,5.824638671875,-0.11646606773138046,-0.16391845047473907,-0.15478621423244476
1727009852906676700,5.8346767578125,-0.08481492847204208,-0.04734363034367561,-0.15128788352012634
1727009852916714800,5.84471484375,-0.061324894428253174,0.03605930879712105,0.004323344212025404
1727009852926752500,5.85475244140625,-0.0950852558016777,0.06960394978523254,0.022077307105064392
1727009852936790800,5.864790771484375,-0.11295869946479797,0.03275340050458908,0.21715064346790314
1727009852946828500,5.87482861328125,-0.09664177894592285,-0.03097524680197239,0.04983329027891159
1727009852956866800,5.88486669921875,-0.04807203263044357,0.006144896149635315,0.044161051511764526
1727009852966904600,5.894904541015625,-0.020452655851840973,-0.036279525607824326,0.002939846832305193
1727009852976942800,5.90494287109375,-0.02070959471166134,-0.020650658756494522,-0.0748818963766098
1727009852986980600,5.914980712890625,-0.02463189885020256,0.043794114142656326,-0.06482473760843277
1727009852997018600,5.9250185546875,-0.015789899975061417,-0.054406989365816116,-0.08577299863100052
1727009853007056600,5.935056640625,0.052021369338035583,-0.1331002116203308,0.007181182503700256
1727009853017094700,5.9450947265625,0.0950593426823616,-0.047539032995700836,0.0864630937576294
1727009853027131600,5.955131591796875,0.09857817739248276,0.13915733993053436,-0.09968600422143936
1727009853037169700,5.965169677734375,0.12672275304794312,0.3123578131198883,-0.04919735714793205
1727009853047207700,5.975207763671875,0.16383737325668335,0.35385677218437195,0.12821683287620544
1727009853057245700,5.98524560546875,0.16479502618312836,0.16281658411026,0.1684625893831253
1727009853067283700,5.99528369140625,0.14921872317790985,-0.011002345010638237,0.22935549914836884
1727009853077321700,6.00532177734375,0.07904274016618729,-0.10255268961191177,0.07330411672592163
1727009853087359700,6.01535986328125,0.026829073205590248,-0.012909891083836555,-0.13230577111244202
1727009853097397500,6.0253974609375,0.028965460136532784,0.09174786508083344,-0.3272733688354492
1727009853107435800,6.035435791015625,0.04434467852115631,0.19406092166900635,0.11086774617433548
1727009853117473500,6.0454736328125,-0.013055396266281605,0.16748932003974915,-0.18208931386470795
1727009853127511800,6.05551171875,-0.02610914781689644,0.030286189168691635,0.13572540879249573
1727009853137549600,6.065549560546875,-0.05650411918759346,-0.014365186914801598,0.07917465269565582
1727009853147587800,6.075587890625,-0.07085349410772324,-0.06577431410551071,-0.07601040601730347
1727009853157625600,6.08562548828125,-0.04864172637462616,0.0029154778458178043,-0.31583693623542786
1727009853167662600,6.09566259765625,-0.06172583997249603,-0.02811460942029953,0.04460034891963005
1727009853177700900,6.105700927734375,-0.09682416170835495,-0.15906789898872375,0.26996979117393494
1727009853187738600,6.115738525390625,-0.061023812741041183,-0.11879663914442062,0.20759986340999603
1727009853197776600,6.125776611328125,-0.00459641357883811,-0.06590339541435242,0.005457192659378052
1727009853207814700,6.135814697265625,-0.01712099462747574,-0.04854331165552139,-0.22136104106903076
1727009853217852700,6.145852783203125,-0.05375836789608002,-0.09054024517536163,-0.14187073707580566
1727009853227890700,6.155890625,-0.08788304775953293,-0.0871279388666153,-0.04598788917064667
1727009853237928700,6.1659287109375,-0.08833638578653336,-0.1804797202348709,-0.036107636988162994
1727009853247966700,6.175966796875,-0.039651401340961456,-0.1653953194618225,0.0726713091135025
1727009853258004700,6.186004638671875,-0.04258914664387703,-0.12417463213205338,0.0906149297952652
1727009853268042500,6.19604248046875,-0.09912220388650894,-0.13506004214286804,-0.023532146587967873
1727009853278080800,6.206080810546875,-0.12943138182163239,-0.25446227192878723,-0.0020864619873464108
1727009853288118500,6.216118408203125,-0.15153002738952637,-0.31514880061149597,-0.054350998252630234
1727009853298156800,6.22615673828125,-0.17807666957378387,-0.18918980658054352,-0.08190356940031052
1727009853308194600,6.236194580078125,-0.18650929629802704,-0.06850598752498627,-0.13574311137199402
1727009853318231600,6.2462314453125,-0.16691286861896515,0.022833382710814476,-0.12174741178750992
1727009853328269800,6.256269775390625,-0.16655121743679047,-0.0700874999165535,0.004300801549106836
1727009853338307600,6.2663076171875,-0.15948866307735443,-0.1578519642353058,0.10972245037555695
1727009853348345900,6.276345947265625,-0.15059876441955566,-0.2336130291223526,0.07989159226417542
1727009853358383600,6.286383544921875,-0.1389227658510208,-0.35065239667892456,0.1717967987060547
1727009853368421600,6.296421630859375,-0.15440532565116882,-0.27850523591041565,-0.11673964560031891
1727009853378459600,6.306459716796875,-0.18029552698135376,-0.09237336367368698,-0.17037832736968994
1727009853388497700,6.31649755859375,-0.16723351180553436,-0.09652656316757202,-0.30262476205825806
1727009853398535700,6.32653564453125,-0.09271547943353653,-0.24106402695178986,-0.1946166753768921
1727009853408573700,6.33657373046875,-0.05728371813893318,-0.3296056091785431,-0.049668267369270325
1727009853418611700,6.34661181640625,-0.07378731667995453,-0.307779997587204,0.06285183876752853
1727009853428649700,6.356649658203125,-0.04016650468111038,-0.17289038002490997,0.13994422554969788
1727009853438687500,6.3666875,0.040428631007671356,-0.001782878302037716,0.22381256520748138
1727009853448725800,6.376725830078125,0.06024041771888733,0.0452224463224411,0.14233048260211945
1727009853458762800,6.3867626953125,0.022189097478985786,0.031558312475681305,-0.06139577925205231
1727009853468800800,6.39680078125,0.0034742639400064945,0.04445626959204674,-0.01954074203968048
1727009853478838800,6.4068388671875,0.03420134261250496,0.012537270784378052,-0.18935446441173553
1727009853488876500,6.41687646484375,0.11857667565345764,-0.029561977833509445,-0.11561925709247589
1727009853498913800,6.426913818359375,0.15285220742225647,-0.07994493842124939,0.20765909552574158
1727009853508951800,6.436951904296875,0.1024140790104866,-0.08440626412630081,0.06348194926977158
1727009853518989800,6.44698974609375,0.07862050086259842,-0.02932801842689514,0.17326198518276215
1727009853529027800,6.45702783203125,0.09986933320760727,0.003875208552926779,0.17620398104190826
1727009853539065900,6.46706591796875,0.11509210616350174,0.05861642584204674,-0.01123264990746975
1727009853549103900,6.477103759765625,0.10188069194555283,0.12044570595026016,0.018874386325478554
1727009853559142000,6.487141845703125,0.05110618472099304,0.15155628323554993,-0.11160954087972641
1727009853569179600,6.4971796875,0.04514602944254875,-0.005241850391030312,-0.14786848425865173
1727009853579218000,6.507218017578125,0.06511705368757248,-0.1498575508594513,0.008476166985929012
1727009853589256000,6.517255859375,0.02469506859779358,-0.23344218730926514,0.1503848433494568
1727009853599294000,6.5272939453125,-0.045006245374679565,-0.15050363540649414,0.058346521109342575
1727009853609331000,6.5373310546875,-0.034781843423843384,0.027475949376821518,0.013241360895335674
1727009853619368700,6.54736865234375,-0.0022716359235346317,0.03633393719792366,-0.2737193703651428
1727009853629407000,6.557406982421875,-0.014167975634336472,-0.09906063973903656,-0.18749581277370453
1727009853639444700,6.56744482421875,-0.07790252566337585,-0.1303100734949112,0.10628348588943481
1727009853649483000,6.57748291015625,-0.11136327683925629,-0.09346790611743927,0.10343683511018753
1727009853659520800,6.587520751953125,-0.019483204931020737,-0.06971758604049683,-0.004766463302075863
1727009853669558800,6.597558837890625,0.0631331130862236,0.07700154930353165,0.04316164553165436
1727009853679596800,6.6075966796875,0.011088946834206581,0.11856736987829208,-0.08277136087417603
1727009853689634800,6.617634765625,-0.04583345726132393,0.03392705321311951,-0.11330157518386841
1727009853699672800,6.6276728515625,0.00575370853766799,0.026209473609924316,0.05619382858276367
1727009853709710800,6.6377109375,0.08797534555196762,-0.01626128889620304,-0.14841976761817932
1727009853719748900,6.647748779296875,0.15177655220031738,-0.014136876910924911,-0.07157249748706818
1727009853729787000,6.657786865234375,0.13519278168678284,-0.05696476995944977,0.03645143657922745
1727009853739825000,6.667824951171875,0.0854777917265892,0.046239521354436874,0.0670841634273529
1727009853749863000,6.67786279296875,0.11146944016218185,0.15915141999721527,0.15665720403194427
1727009853759900000,6.68789990234375,0.14496926963329315,0.22168782353401184,-0.00694428663700819
1727009853769938000,6.69793798828125,0.1411857157945633,0.19536460936069489,-0.08503216505050659
1727009853779976000,6.707975830078125,0.13530273735523224,0.16014450788497925,-0.12647853791713715
1727009853790013700,6.718013671875,0.16056281328201294,0.07734949886798859,-0.12404333800077438
1727009853800052000,6.728052001953125,0.20855572819709778,-0.1529524326324463,0.01711808145046234
1727009853810089700,6.73808984375,0.2120005339384079,-0.12041019648313522,0.2875775396823883
1727009853820128000,6.7481279296875,0.14612506330013275,0.05732530727982521,0.3394845128059387
1727009853830165800,6.758165771484375,0.11839517205953598,0.3828381597995758,0.10876527428627014
1727009853840203800,6.768203857421875,0.1350647658109665,0.5874181985855103,-0.27461719512939453
1727009853850241800,6.77824169921875,0.1316061168909073,0.44152116775512695,-0.3093107342720032
1727009853860279800,6.78827978515625,0.14548560976982117,0.07760801911354065,-0.15491341054439545
1727009853870317800,6.79831787109375,0.18769192695617676,-0.20269474387168884,0.08213268220424652
1727009853880355800,6.80835595703125,0.21023307740688324,-0.2578153610229492,0.21836303174495697
1727009853890393900,6.818393798828125,0.21900367736816406,-0.03570640832185745,0.12348391860723495
1727009853900432000,6.828431884765625,0.22374381124973297,0.4397268295288086,0.28671202063560486
1727009853910468900,6.83846875,0.1967068761587143,0.6358600854873657,0.14824390411376953
1727009853920507000,6.8485068359375,0.21293368935585022,0.5406668782234192,-0.030107975006103516
1727009853930545000,6.858544921875,0.2452881783246994,0.22422555088996887,-0.13292676210403442
1727009853940583000,6.8685830078125,0.19307732582092285,-0.18306997418403625,-0.07538729161024094
1727009853950621000,6.878620849609375,0.11448611319065094,-0.13433599472045898,-0.009165395051240921
1727009853960658700,6.88865869140625,0.12763459980487823,0.16525471210479736,0.25677379965782166
1727009853970697000,6.898697021484375,0.18302835524082184,0.3477337062358856,0.15045827627182007
1727009853980734700,6.908734619140625,0.1928170919418335,0.26645341515541077,-0.04810599610209465
1727009853990773000,6.91877294921875,0.09522901475429535,0.07444830983877182,0.23607486486434937
1727009854000810800,6.928810791015625,-0.033674951642751694,-0.025909308344125748,-0.10459548979997635
1727009854010848800,6.938848876953125,-0.008480649441480637,0.03889046236872673,-0.19566042721271515
1727009854020886800,6.94888671875,0.07716403901576996,0.12178100645542145,-0.16760244965553284
1727009854030924800,6.9589248046875,0.0443032942712307,0.007843253202736378,-0.22493018209934235
1727009854040962800,6.968962890625,-0.017897387966513634,-0.06045018881559372,0.27309074997901917
1727009854051000800,6.979000732421875,-0.06463799625635147,-0.10558464378118515,0.2781933546066284
1727009854061037800,6.989037841796875,-0.023303819820284843,-0.01152550894767046,0.28057700395584106
1727009854071075800,6.999075927734375,0.025502601638436317,0.21940703690052032,-0.012880709022283554
1727009854081113900,7.00911376953125,0.0035875411704182625,0.303264319896698,-0.13902373611927032
1727009854091152000,7.01915185546875,-0.051914066076278687,0.22001336514949799,-0.21317999064922333
1727009854101190000,7.02918994140625,-0.021612070500850677,-0.0025359359569847584,-0.10341812670230865
1727009854111228000,7.039227783203125,0.053311705589294434,-0.15363916754722595,0.026242928579449654
1727009854121266000,7.049265869140625,0.04754073917865753,-0.14578454196453094,-0.17839522659778595
1727009854131303700,7.0593037109375,0.012102058157324791,0.10466819256544113,0.008339502848684788
1727009854141342000,7.069342041015625,0.014133848249912262,0.2946622967720032,0.02547276020050049
1727009854151379700,7.079379638671875,0.07767926901578903,0.30487367510795593,0.0431675985455513
1727009854161418000,7.08941796875,0.1156633198261261,0.1611381471157074,0.09647659212350845
1727009854171455700,7.099455810546875,0.07770662009716034,-0.03288406506180763,0.09755118191242218
1727009854181493800,7.10949365234375,0.038676224648952484,-0.07470647245645523,0.08012876659631729
1727009854191531800,7.11953173828125,0.05568157508969307,-0.0005278508178889751,-0.011356941424310207
1727009854201569800,7.12956982421875,0.08322355151176453,0.1370893269777298,-0.06755764782428741
1727009854211607000,7.13960693359375,0.06513402611017227,0.22613424062728882,-0.0508367195725441
1727009854221644800,7.149644775390625,0.04422058165073395,0.16362302005290985,0.1793469339609146
1727009854231682800,7.159682861328125,0.03591444715857506,0.09172539412975311,0.13571077585220337
1727009854241720800,7.169720947265625,0.030783383175730705,0.05505218729376793,-0.02169230952858925
1727009854251758800,7.1797587890625,0.0201664250344038,0.05420343577861786,-0.0026850625872612
1727009854261796900,7.189796875,-0.02244562655687332,0.09881570935249329,-0.02376675419509411
1727009854271835000,7.1998349609375,-0.06077384203672409,0.11154375225305557,-0.03641357272863388
1727009854281873000,7.209872802734375,-0.05394995957612991,-0.036350369453430176,0.08629564195871353
1727009854291911000,7.219910888671875,-0.050707560032606125,-0.12545548379421234,-0.1609298586845398
1727009854301948700,7.22994873046875,-0.07464148104190826,-0.25097471475601196,-0.13642369210720062
1727009854311987000,7.239987060546875,-0.12495312094688416,-0.2723524570465088,0.008206717669963837
1727009854322024700,7.250024658203125,-0.1256861388683319,-0.07505488395690918,-0.07502765208482742
1727009854332063000,7.26006298828125,-0.05158767104148865,0.12077107280492783,0.025498153641819954
1727009854342100700,7.270100830078125,-0.010958690196275711,0.14720775187015533,0.01141197420656681
1727009854352137700,7.2801376953125,-0.07753052562475204,0.05914420261979103,0.020656071603298187
1727009854362176000,7.290176025390625,-0.15739116072654724,-0.0487443245947361,0.13738448917865753
1727009854372213800,7.3002138671875,-0.1240912601351738,-0.14977745711803436,0.04436293616890907
1727009854382252000,7.310251953125,-0.03989890217781067,-0.1291850507259369,-0.14636914432048798
1727009854392289800,7.320289794921875,-0.06349770724773407,-0.1611885130405426,-0.1736076921224594
1727009854402327800,7.330327880859375,-0.1693747192621231,-0.2675488293170929,-0.17224964499473572
1727009854412365800,7.34036572265625,-0.20826859772205353,-0.20993506908416748,-0.024259643629193306
1727009854422403800,7.35040380859375,-0.15200795233249664,-0.005772961303591728,-0.012129304930567741
1727009854432441900,7.36044189453125,-0.06308341026306152,0.19820865988731384,-0.1521655023097992
1727009854442479900,7.37047998046875,-0.04370197653770447,0.14548359811306,-0.03538886830210686
1727009854452518000,7.380517822265625,-0.09996498376131058,-0.06605367362499237,0.26136156916618347
1727009854462556000,7.390555908203125,-0.1370612233877182,-0.2529519200325012,0.3152160048484802
1727009854472593700,7.40059375,-0.08345897495746613,-0.28933870792388916,0.26187556982040405
1727009854482632000,7.4106318359375,-0.023024553433060646,-0.1761488914489746,0.011482173576951027
1727009854492669700,7.420669677734375,-0.07636580616235733,0.007400158792734146,-0.25579240918159485
1727009854502706700,7.430706787109375,-0.1674063503742218,-0.003828637767583132,-0.04299907013773918
1727009854512744700,7.44074462890625,-0.16649022698402405,-0.1193605586886406,0.037552230060100555
1727009854522782700,7.45078271484375,-0.10122792422771454,-0.17055369913578033,0.08307836204767227
1727009854532820700,7.46082080078125,-0.08195356279611588,-0.19441403448581696,-0.08415031433105469
1727009854542858800,7.470858642578125,-0.10588482767343521,-0.10176999121904373,-0.28439363837242126
1727009854552896800,7.480896728515625,-0.10976877808570862,-0.17864559590816498,-0.09680511057376862
1727009854562934500,7.4909345703125,-0.09482099115848541,-0.2503347098827362,0.20086094737052917
1727009854572972800,7.500972900390625,-0.06576696783304214,-0.04945831745862961,0.23305749893188477
1727009854583010600,7.511010498046875,-0.020319612696766853,0.13717079162597656,0.2850472331047058
1727009854593048800,7.521048828125,-0.01289498619735241,0.08008221536874771,-0.09776938706636429
1727009854603086600,7.531086669921875,-0.0227048359811306,-0.08158431202173233,-0.13668933510780334
1727009854613124900,7.541124755859375,-0.07494807243347168,-0.26260122656822205,-0.05687253922224045
1727009854623162600,7.55116259765625,-0.09759735316038132,-0.33899977803230286,-0.3029606342315674
1727009854633200600,7.56120068359375,-0.05409009009599686,-0.13091476261615753,-0.12811797857284546
1727009854643238700,7.57123876953125,-0.06082138419151306,0.09642791748046875,0.006038435269147158
1727009854653275600,7.581275634765625,-0.06949049979448318,0.25865545868873596,0.030983997508883476
1727009854663314000,7.59131396484375,-0.033983565866947174,0.28730279207229614,0.24636104702949524
1727009854673351700,7.6013515625,-0.024742398411035538,0.03315066918730736,0.24218814074993134
1727009854683389700,7.6113896484375,-0.072133868932724,-0.21275348961353302,-0.006598545704036951
1727009854693427700,7.621427734375,-0.12911832332611084,-0.2544380724430084,0.018609605729579926
1727009854703465700,7.6314658203125,-0.16825513541698456,-0.1457507610321045,-0.24945175647735596
1727009854713503700,7.641503662109375,-0.10154188424348831,-0.001232190988957882,-0.296556681394577
1727009854723541800,7.651541748046875,-0.012681598775088787,-0.03310777246952057,-0.12287786602973938
1727009854733579500,7.66157958984375,-0.02747892029583454,-0.16585862636566162,0.08065954595804214
1727009854743617800,7.67161767578125,-0.07494442909955978,-0.23386166989803314,0.365270733833313
1727009854753655600,7.681655517578125,-0.05957905575633049,-0.22888101637363434,0.2695801556110382
1727009854763693800,7.69169384765625,0.006510674022138119,-0.10248977690935135,0.025964800268411636
1727009854773731600,7.701731689453125,0.0039053037762641907,-0.021754983812570572,-0.2810385525226593
1727009854783769900,7.711769775390625,-0.05783670395612717,-0.03213725611567497,-0.44522300362586975
1727009854793808000,7.721807861328125,-0.048921506851911545,0.022125717252492905,-0.24327708780765533
1727009854803844600,7.7318447265625,0.045704808086156845,0.01444324105978012,-0.034851521253585815
1727009854813883000,7.7418828125,0.12556235492229462,-0.13657769560813904,0.07248425483703613
1727009854823920600,7.751920654296875,0.13653747737407684,-0.16344965994358063,0.33380037546157837
1727009854833959000,7.761958984375,0.08138447254896164,-0.06727386265993118,0.33615007996559143
1727009854843996700,7.77199658203125,0.07296122610569,0.15802769362926483,0.06952086091041565
1727009854854034700,7.78203466796875,0.12425930798053741,0.38663050532341003,-0.25617921352386475
1727009854864072700,7.79207275390625,0.13272929191589355,0.3998313248157501,-0.37183865904808044
1727009854874110700,7.80211083984375,0.08662624657154083,0.28642672300338745,-0.28581616282463074
1727009854884148700,7.812148681640625,0.07703820616006851,0.05412125959992409,-0.12845759093761444
1727009854894186800,7.822186767578125,0.15579481422901154,-0.10959763079881668,0.1822454333305359
1727009854904224500,7.832224609375,0.2526496648788452,0.051409777253866196,0.2937989830970764
1727009854914262800,7.8422626953125,0.3068141043186188,0.21438591182231903,0.290843665599823
1727009854924300500,7.852300537109375,0.3078232407569885,0.24740444123744965,0.1773984730243683
1727009854934338800,7.8623388671875,0.28329524397850037,0.26743993163108826,0.11857376247644424
1727009854944376800,7.872376953125,0.2504160702228546,0.2123880684375763,-0.17773307859897614
1727009854954413600,7.88241357421875,0.2664293944835663,0.0965363010764122,-0.1793655902147293
1727009854964451800,7.892451904296875,0.29729509353637695,0.0855768695473671,-0.06555254757404327
1727009854974489600,7.902489501953125,0.31876710057258606,0.11021935939788818,0.044658638536930084
1727009854984528000,7.91252783203125,0.3538658618927002,0.19257935881614685,0.12453063577413559
1727009854994565600,7.922565673828125,0.35963931679725647,0.20943637192249298,0.138482928276062
1727009855004604000,7.93260400390625,0.327470064163208,0.2090301811695099,0.22316491603851318
1727009855014641700,7.9426416015625,0.2851599156856537,0.26723968982696533,0.10539726912975311
1727009855024679700,7.9526796875,0.26303380727767944,0.3220495283603668,0.029396817088127136
1727009855034717700,7.9627177734375,0.25426799058914185,0.2652117908000946,-0.05929656699299812
1727009855044755700,7.972755615234375,0.2187531441450119,0.24477636814117432,-0.026153212413191795
1727009855054793700,7.982793701171875,0.14791437983512878,0.2610333561897278,-0.011046698316931725
1727009855064831700,7.992831787109375,0.098166823387146,0.30572593212127686,-0.04720634967088699
1727009855074869800,8.002869873046874,0.13088694214820862,0.31265708804130554,0.13589370250701904
1727009855084907800,8.01290771484375,0.14187656342983246,0.23739242553710938,0.1419769674539566
1727009855094945800,8.02294580078125,0.08758880943059921,0.23190924525260925,0.19656139612197876
1727009855104982800,8.032982666015625,-0.0022403495386242867,0.21613965928554535,0.054746273905038834
1727009855115020800,8.043020751953126,-0.037279292941093445,0.17520101368427277,-0.24271364510059357
1727009855125058600,8.05305859375,-0.0072143953293561935,0.11928176879882812,-0.10328924655914307
1727009855135096800,8.063096923828125,-0.0332513228058815,-0.04182056710124016,-0.0010941680520772934
1727009855145134600,8.073134521484375,-0.08835389465093613,-0.23774515092372894,0.13766929507255554
1727009855155172900,8.0831728515625,-0.10877981036901474,-0.28267133235931396,0.16119912266731262
1727009855165210600,8.093210693359374,-0.10154959559440613,-0.08386795967817307,-0.174552783370018
1727009855175249000,8.103248779296875,-0.07489801198244095,0.2772292494773865,-0.08241114020347595
1727009855185286700,8.11328662109375,-0.07947341352701187,0.46430253982543945,-0.1441064476966858
1727009855195324700,8.12332470703125,-0.09875443577766418,0.15662728250026703,0.06157560274004936
1727009855205362700,8.13336279296875,-0.1393907219171524,-0.283004492521286,0.2649816870689392
1727009855215400700,8.143400634765625,-0.23594442009925842,-0.5224072337150574,-0.13547782599925995
1727009855225438700,8.153438720703125,-0.27314087748527527,-0.4234568774700165,-0.19993136823177338
1727009855235476700,8.163476806640626,-0.24089372158050537,-0.019675318151712418,-0.12687313556671143
1727009855245513700,8.173513671875,-0.20691601932048798,0.270969420671463,-0.027337851002812386
1727009855255551700,8.1835517578125,-0.19059430062770844,0.19967927038669586,0.19588804244995117
1727009855265589800,8.19358984375,-0.21482375264167786,-0.21922099590301514,0.10663460195064545
1727009855275627800,8.203627685546875,-0.2423648238182068,-0.5699105858802795,0.02823779359459877
1727009855285665800,8.213665771484376,-0.2593114376068115,-0.5163690447807312,-0.13334348797798157
1727009855295703600,8.22370361328125,-0.24020488560199738,-0.1507127583026886,-0.34795433282852173
1727009855305741800,8.233741943359375,-0.16956572234630585,0.19530710577964783,-0.2845233082771301
1727009855315779600,8.243779541015625,-0.13196827471256256,0.2659141719341278,-0.04960746690630913
1727009855325817900,8.25381787109375,-0.1550961285829544,0.08328919112682343,0.27224987745285034
1727009855335855600,8.263855712890624,-0.13718530535697937,-0.0893065482378006,0.27494898438453674
1727009855345894000,8.273893798828125,-0.049573056399822235,-0.13425718247890472,0.17039215564727783
1727009855355931600,8.283931640625,0.014518843032419682,-0.20383651554584503,-0.07220930606126785
1727009855365969700,8.2939697265625,-0.003721941728144884,-0.16127578914165497,-0.19609610736370087
1727009855376007700,8.304007568359374,-0.046255819499492645,-0.061796870082616806,-0.2855873703956604
1727009855386045700,8.314045654296875,-0.019193904474377632,0.053246572613716125,-0.2962230443954468
1727009855396082700,8.324082763671875,0.07081800699234009,0.14788280427455902,-0.05043644830584526
1727009855406120700,8.33412060546875,0.1381841003894806,0.12172387540340424,0.20267249643802643
1727009855416158700,8.34415869140625,0.13879315555095673,0.015011541545391083,0.1962343007326126
1727009855426196700,8.35419677734375,0.10937926918268204,-0.09746039658784866,0.19514185190200806
1727009855436234800,8.36423486328125,0.0846337080001831,-0.07924384623765945,0.02809719368815422
1727009855446272800,8.374272705078125,0.08641082048416138,0.042281053960323334,-0.09673550724983215
1727009855456310800,8.384310791015626,0.08479560911655426,0.250367671251297,-0.0031379088759422302
1727009855466348500,8.3943486328125,0.08973671495914459,0.3799474537372589,-0.010161621496081352
1727009855476386800,8.40438671875,0.12573440372943878,0.27981099486351013,0.1540968269109726
1727009855486424600,8.414424560546875,0.14246264100074768,0.04119623452425003,0.20729197561740875
1727009855496462300,8.42446240234375,0.09277339279651642,-0.09120574593544006,-0.08761076629161835
1727009855506500600,8.43450048828125,0.05872981250286102,-0.07446139305830002,-0.19222788512706757
1727009855516538400,8.444538330078124,0.07803133875131607,-0.15288935601711273,-0.2995620667934418
1727009855526576400,8.454576416015625,0.1187787726521492,-0.18502677977085114,-0.11807481199502945
1727009855536614400,8.464614501953125,0.09619490057229996,-0.15227815508842468,0.021952059119939804
1727009855546651400,8.4746513671875,0.05213117599487305,0.017243163660168648,0.1213836818933487
1727009855556689200,8.484689208984374,0.062213100492954254,0.14038453996181488,0.13343635201454163
1727009855566727400,8.4947275390625,0.09915871173143387,0.1713002771139145,0.14605088531970978
1727009855576765200,8.50476513671875,0.12821006774902344,0.1018863171339035,0.0358135960996151
1727009855586803500,8.514803466796875,0.12346486747264862,0.02913748472929001,-0.12819935381412506
1727009855596841200,8.52484130859375,0.058186788111925125,-0.04858394339680672,-0.023458031937479973
1727009855606879500,8.53487939453125,-0.0017483998090028763,-0.04116883501410484,0.014491340145468712
1727009855616917200,8.544917236328125,0.005538541823625565,0.1579677015542984,0.17957909405231476
1727009855626955300,8.554955322265625,0.027600308880209923,0.25326380133628845,-0.15972667932510376
1727009855636993500,8.56499365234375,0.05032026767730713,0.11219216883182526,-0.3042633831501007
1727009855647031300,8.57503125,0.017412496730685234,-0.2042890340089798,-0.13081493973731995
1727009855657069600,8.585069580078125,-0.036733560264110565,-0.3651634156703949,0.0863216295838356
1727009855667107300,8.595107421875,-0.04798447713255882,-0.1286928653717041,0.21649332344532013
1727009855677145600,8.6051455078125,-0.01921514794230461,0.2758399546146393,0.09237910807132721
1727009855687183400,8.615183349609374,-0.0077443802729249,0.47829699516296387,-0.1248280480504036
1727009855697220400,8.625220458984375,-0.03642236441373825,0.3810900151729584,-0.01955036073923111
1727009855707258400,8.63525830078125,-0.10668710619211197,0.04056132957339287,-0.05966450646519661
1727009855717296400,8.64529638671875,-0.13749615848064423,-0.225102037191391,0.10701422393321991
1727009855727334100,8.655334228515626,-0.14722058176994324,-0.2680288851261139,-0.02287113294005394
1727009855737372400,8.665372314453125,-0.1497761607170105,-0.14158731698989868,-0.02221040427684784
1727009855747410200,8.67541015625,-0.1693272888660431,0.14718809723854065,0.08410908281803131
1727009855757448400,8.685448486328125,-0.2222573459148407,0.21392184495925903,-0.034472960978746414
1727009855767486200,8.695486328125,-0.25284069776535034,0.1788107305765152,-0.07280691713094711
1727009855777524500,8.7055244140625,-0.27272170782089233,0.04229309782385826,0.14034663140773773
1727009855787562500,8.7155625,-0.2887314260005951,-0.24101921916007996,0.03470202162861824
1727009855797600300,8.725600341796875,-0.26522716879844666,-0.2648555636405945,-0.0028243139386177063
1727009855807638500,8.735638427734376,-0.25294774770736694,-0.23680458962917328,-0.036661166697740555
1727009855817676300,8.74567626953125,-0.24244424700737,-0.08566780388355255,-0.11691499501466751
1727009855827714600,8.755714599609375,-0.26549413800239563,0.002487858757376671,-0.03242235630750656
1727009855837751300,8.765751220703125,-0.3015783727169037,-0.045674875378608704,-0.1442628800868988
1727009855847789300,8.775789306640625,-0.27934175729751587,0.10572781413793564,0.12107350677251816
1727009855857827300,8.785827392578126,-0.25628411769866943,0.09671993553638458,-0.2807498276233673
1727009855867865300,8.795865234375,-0.22136446833610535,-0.23540689051151276,-0.08797083795070648
1727009855877903400,8.8059033203125,-0.26886942982673645,-0.40163370966911316,0.09587063640356064
1727009855887941400,8.81594140625,-0.3374936878681183,-0.4546225965023041,0.21465998888015747
1727009855897979100,8.825979248046876,-0.26096802949905396,-0.13682277500629425,0.12433888763189316
1727009855908017400,8.836017333984374,-0.16103719174861908,0.10983001440763474,-0.16334420442581177
1727009855918055200,8.84605517578125,-0.18289722502231598,-0.0829881802201271,-0.30004453659057617
1727009855928093400,8.856093505859375,-0.25141453742980957,-0.2555040717124939,0.22775015234947205
1727009855938131500,8.86613134765625,-0.2640083432197571,-0.2134159952402115,0.2688818871974945
1727009855948169500,8.87616943359375,-0.14966215193271637,-0.03355145454406738,0.02122969925403595
1727009855958207500,8.88620751953125,-0.062011659145355225,0.20464299619197845,-0.09869829565286636
1727009855968245200,8.896245361328125,-0.12767259776592255,0.2076006382703781,0.0030597378499805927
1727009855978283500,8.906283447265626,-0.1730525940656662,0.009388212114572525,0.30231595039367676
1727009855988320300,8.9163203125,-0.06801407039165497,-0.1991644650697708,0.37880486249923706
1727009855998358500,8.926358642578125,0.05029766261577606,-0.36247482895851135,0.07588174939155579
1727009856008396300,8.936396240234375,0.0017109191976487637,-0.31013453006744385,-0.26412659883499146
1727009856018434300,8.946434326171875,-0.13568314909934998,-0.15721821784973145,-0.18296782672405243
1727009856028472300,8.956472412109376,-0.13884475827217102,-0.03394867479801178,-0.10942602902650833
1727009856038510300,8.96651025390625,0.024802766740322113,0.06587032973766327,-0.056441642343997955
1727009856048548400,8.97654833984375,0.113763228058815,0.054646626114845276,0.06166486069560051
1727009856058586400,8.98658642578125,0.02776177041232586,0.010286351665854454,0.07239552587270737
1727009856068624400,8.996624267578126,-0.0075703030452132225,-0.08922655880451202,0.23886843025684357
1727009856078662400,9.006662353515624,0.11186102032661438,-0.12333658337593079,0.2901180386543274
1727009856088700400,9.016700439453125,0.1923375129699707,-0.08850332349538803,0.13617125153541565
1727009856098738400,9.026738525390625,0.1007881611585617,0.01115402951836586,-0.2811655104160309
1727009856108776400,9.0367763671875,-0.02368413656949997,0.11835692077875137,-0.298003226518631
1727009856118814500,9.046814453125,-0.05019909888505936,0.16425678133964539,-0.18014661967754364
1727009856128852500,9.0568525390625,0.045544564723968506,0.09397374093532562,-0.1278647929430008
1727009856138889200,9.06688916015625,0.14687757194042206,0.13180634379386902,0.15118522942066193
1727009856148927500,9.076927490234375,0.10522371530532837,0.10320135205984116,-0.015286637470126152
1727009856158965200,9.08696533203125,0.03488484025001526,-0.0657099038362503,0.09536530822515488
1727009856169003500,9.09700341796875,0.056078024208545685,-0.15268076956272125,0.32109612226486206
1727009856179041300,9.107041259765625,0.10951488465070724,-0.14415065944194794,-0.09972301125526428
1727009856189079300,9.117079345703125,0.14609485864639282,-0.05496666952967644,-0.13756823539733887
1727009856199117300,9.127117431640626,0.10691789537668228,0.054623205214738846,-0.06474222987890244
1727009856209155300,9.1371552734375,0.06497073918581009,0.09053158760070801,-0.02641650103032589
1727009856219193300,9.147193359375,0.1361865997314453,0.09228634834289551,0.24006232619285583
1727009856229231400,9.1572314453125,0.19470475614070892,0.1334494650363922,0.10045520216226578
1727009856239269400,9.167269287109375,0.14541763067245483,0.050594259053468704,0.13871923089027405
1727009856249307400,9.177307373046874,0.0787053182721138,-0.03639790415763855,0.05716456472873688
1727009856259345400,9.187345458984375,0.08336718380451202,-0.018635686486959457,-0.26737329363822937
1727009856269383400,9.197383544921875,0.12880241870880127,-0.09870349615812302,-0.27271515130996704
1727009856279421400,9.20742138671875,0.12997713685035706,-0.15687359869480133,-0.1399613469839096
1727009856289458200,9.217458251953126,0.09531746059656143,-0.05740545690059662,0.06767003983259201
1727009856299496400,9.227496337890624,0.0854957178235054,0.03742837533354759,0.3275756537914276
1727009856309534200,9.2375341796875,0.13395638763904572,0.07109697163105011,0.22390861809253693
1727009856319572500,9.247572509765625,0.16412121057510376,0.12939037382602692,0.24333825707435608
1727009856329610200,9.2576103515625,0.03263022005558014,0.17901860177516937,0.005192489363253117
1727009856339648500,9.2676484375,-0.10499102622270584,0.1475328505039215,-0.11613154411315918
1727009856349686300,9.277686279296875,-0.055121906101703644,0.06549622863531113,-0.19395551085472107
1727009856359724300,9.287724365234375,0.034095052629709244,-0.15367580950260162,-0.22854384779930115
1727009856369762300,9.29776220703125,-0.011213541030883789,-0.2880036532878876,-0.12050695717334747
1727009856379800300,9.30780029296875,-0.11855331063270569,-0.1922616809606552,-0.08619558811187744
1727009856389838300,9.31783837890625,-0.12213870882987976,0.07553263008594513,0.064537413418293
1727009856399876400,9.32787646484375,-0.05347016453742981,0.2605528235435486,0.05588134750723839
1727009856409914400,9.337914306640625,-0.04279331862926483,0.13848456740379333,0.15709194540977478
1727009856419952400,9.347952392578126,-0.10215464234352112,-0.05640636011958122,0.1618531495332718
1727009856429990400,9.357990478515624,-0.16646741330623627,-0.2621242105960846,0.13469792902469635
1727009856440027400,9.36802734375,-0.15747497975826263,-0.3317618668079376,-0.28939956426620483
1727009856450065400,9.3780654296875,-0.09564705938100815,-0.3027045726776123,-0.17526862025260925
1727009856460103200,9.388103271484376,-0.09892114996910095,-0.22319775819778442,-0.23966306447982788
1727009856470141400,9.398141357421874,-0.11340304464101791,-0.24417753517627716,0.02434561401605606
1727009856480179200,9.40817919921875,-0.14240193367004395,-0.22451142966747284,0.05284995958209038
1727009856490217500,9.418217529296875,-0.14495722949504852,-0.13252858817577362,-0.055236343294382095
1727009856500259300,9.42825927734375,-0.0958181768655777,-0.04290015622973442,-0.2775261402130127
1727009856510297600,9.438297607421875,-0.020573673769831657,0.0207916758954525,-0.32460492849349976
1727009856520335400,9.44833544921875,0.03731599450111389,-0.26989689469337463,0.09483414888381958
1727009856530373400,9.458373291015626,0.0275651253759861,-0.4211736023426056,0.3413040339946747
1727009856540411400,9.468411376953124,0.012567799538373947,-0.335099458694458,0.48906952142715454
1727009856550449400,9.478449462890625,0.03674892336130142,-0.12282348424196243,0.028519008308649063
1727009856560487400,9.4884873046875,0.08043195307254791,0.05981210991740227,-0.24105174839496613
1727009856570525400,9.498525390625,0.04404658451676369,0.08439410477876663,-0.4050866663455963
1727009856580562400,9.5085625,-0.013537616468966007,0.07921452075242996,-0.3099806606769562
1727009856590600400,9.518600341796875,0.009323707781732082,-0.0469125397503376,0.07295700162649155
1727009856600638500,9.528638427734375,0.0873575210571289,-0.10411058366298676,0.24430985748767853
1727009856610676500,9.538676513671875,0.15747542679309845,-0.05313534289598465,0.33617135882377625
1727009856620714500,9.548714599609376,0.1640728861093521,0.04445912316441536,0.247889444231987
1727009856630752300,9.558752197265624,0.13538376986980438,-0.007979514077305794,-0.11349554359912872
1727009856640790500,9.56879052734375,0.09375961869955063,-0.08268757164478302,-0.034868378192186356
1727009856650828300,9.578828369140625,0.03518921881914139,-0.06841577589511871,-0.1335272192955017
1727009856660866600,9.588866455078126,0.03983776643872261,0.07694408297538757,-0.29869404435157776
1727009856670904300,9.598904296875,0.14851175248622894,0.22901783883571625,-0.1771339774131775
1727009856680942600,9.608942626953125,0.23327404260635376,0.2109818458557129,-0.002768842037767172
1727009856690980400,9.61898046875,0.2181645631790161,-0.04677392169833183,0.15184585750102997
1727009856701018400,9.629018310546876,0.14219549298286438,-0.2587636709213257,0.43485331535339355
1727009856711056400,9.639056396484374,0.07360339164733887,-0.094314806163311,0.22260791063308716
1727009856721094400,9.649094482421875,0.08594022691249847,0.1724119484424591,-0.20290610194206238
1727009856731131400,9.65913134765625,0.15555794537067413,0.3194390535354614,-0.37758374214172363
1727009856741169400,9.66916943359375,0.1317942887544632,0.3275100290775299,-0.18487685918807983
1727009856751207400,9.67920751953125,0.051304325461387634,0.16768544912338257,-0.0605226531624794
1727009856761245400,9.689245361328124,0.06077985092997551,-0.05094968527555466,0.08254315704107285
1727009856771283500,9.699283447265625,0.1137942522764206,-0.27158719301223755,0.43660932779312134
1727009856781321500,9.709321533203125,0.06412390619516373,-0.22857794165611267,0.320004403591156
1727009856791359500,9.719359375,-0.012250198982656002,0.09213203936815262,0.07070927321910858
1727009856801397200,9.729397216796874,-0.0006598555482923985,0.24986708164215088,-0.1856791079044342
1727009856811435500,9.739435546875,0.06355512887239456,0.14874421060085297,-0.4680669903755188
1727009856821473300,9.749473388671875,0.07446077466011047,-0.1367035061120987,-0.4232547879219055
1727009856831511600,9.759511474609376,0.02529219537973404,-0.4199691116809845,-0.05679032951593399
1727009856841549300,9.76954931640625,0.004178122151643038,-0.3384343087673187,0.21212422847747803
1727009856851587600,9.779587646484375,0.062032897025346756,0.04674265533685684,0.39910900592803955
1727009856861625300,9.789625244140625,0.09471335262060165,0.49291056394577026,0.1702558696269989
1727009856871663400,9.799663330078126,0.06411081552505493,0.5718461871147156,-0.02744240313768387
1727009856881700600,9.80970068359375,0.0411226823925972,0.23509052395820618,0.015363384038209915
1727009856891738400,9.81973828125,0.056366272270679474,-0.14307190477848053,0.06252127885818481
1727009856901776400,9.8297763671875,0.10614368319511414,-0.375696063041687,-0.17494213581085205
1727009856911814400,9.839814453125,0.14868222177028656,-0.4721582233905792,-0.269723117351532
1727009856921852400,9.849852294921876,0.11745773255825043,-0.1767910271883011,-0.08696717023849487
1727009856931890400,9.859890380859374,0.06834594160318375,0.17747721076011658,-0.05288165062665939
1727009856941928400,9.869928466796875,0.12412238121032715,0.5075036287307739,0.12046802788972855
1727009856951966500,9.879966552734375,0.196793332695961,0.6163943409919739,0.22594058513641357
1727009856962004500,9.89000439453125,0.18320375680923462,0.43604665994644165,0.2909238338470459
1727009856972042200,9.900042236328124,0.12015681713819504,0.19066885113716125,0.2835769057273865
1727009856982080500,9.91008056640625,0.08170689642429352,0.0028915058355778456,-0.028432395309209824
1727009856992118300,9.9201181640625,0.07387888431549072,-0.10430213063955307,-0.22250200808048248
1727009857002156500,9.930156494140626,0.05930766835808754,-0.04251972585916519,-0.24524541199207306
1727009857012194300,9.9401943359375,0.05289009213447571,0.05922241881489754,-0.15504208207130432
1727009857022231300,9.950231201171874,0.08152572810649872,0.18801288306713104,0.07654774188995361
1727009857032269600,9.96026953125,0.10654116421937943,0.14993809163570404,0.3055758476257324
1727009857042307300,9.970307373046875,0.08780050277709961,-0.006657922174781561,0.16645683348178864
1727009857052345600,9.980345703125,0.02265535295009613,-0.05885307863354683,0.10886908322572708
1727009857062383400,9.99038330078125,-0.060660578310489655,-0.11821866780519485,-0.1541268527507782
1727009857072421400,10.00042138671875,-0.052040375769138336,-0.11053550988435745,-0.15247434377670288
1727009857082459400,10.01045947265625,-0.0032254341058433056,-0.09053463488817215,0.0598541684448719
1727009857092497400,10.020497314453126,-0.045562613755464554,-0.04920569807291031,-0.035884276032447815
1727009857102535400,10.030535400390624,-0.0965333878993988,0.08965497463941574,0.21410639584064484
1727009857112573400,10.040573486328125,-0.1319078505039215,0.17980556190013885,-0.1254802942276001
1727009857122611500,10.050611572265625,-0.1259216070175171,0.13646315038204193,-0.03824713081121445
1727009857132649500,10.0606494140625,-0.14650161564350128,-0.060708049684762955,0.018179381266236305
1727009857142687200,10.070687255859376,-0.1808721125125885,-0.20454618334770203,-0.11705859750509262
1727009857152725500,10.0807255859375,-0.15187391638755798,-0.2029908299446106,0.1259843409061432
1727009857162763300,10.09076318359375,-0.1152876615524292,-0.07649199664592743,-0.1313324123620987
1727009857172800300,10.10080029296875,-0.08030856400728226,-0.15353548526763916,0.08802580833435059
1727009857182838500,10.110838623046876,-0.10259922593832016,-0.3341790437698364,0.31544750928878784
1727009857192876300,10.120876220703124,-0.18937256932258606,-0.3354942202568054,-0.1436910331249237
1727009857202914600,10.13091455078125,-0.18442973494529724,-0.11283662170171738,-0.15224669873714447
1727009857212952300,10.140952392578125,-0.14097021520137787,0.20765458047389984,-0.46803611516952515
1727009857222990600,10.150990478515626,-0.10545403510332108,0.3034711182117462,-0.4211503565311432
1727009857233028400,10.1610283203125,-0.0574754998087883,0.09012329578399658,0.4204742908477783
1727009857243066400,10.17106640625,-0.05045221000909805,-0.2562335729598999,0.3825857639312744
1727009857253104400,10.1811044921875,-0.011001192033290863,-0.3896137475967407,0.2111300826072693
1727009857263142400,10.191142333984375,0.018900781869888306,-0.2550863027572632,0.04200417548418045
1727009857273180400,10.201180419921876,0.007343320641666651,-0.04787293076515198,-0.3290807902812958
1727009857283218400,10.211218505859375,0.02598731219768524,0.13350112736225128,-0.24997426569461823
1727009857293256400,10.22125634765625,0.06589377671480179,0.18979822099208832,-0.045470308512449265
1727009857303294500,10.23129443359375,0.10317643731832504,0.16583669185638428,0.11715162545442581
1727009857313332200,10.241332275390626,0.15851327776908875,0.05065010488033295,0.10380011796951294
1727009857323370500,10.25137060546875,0.21882694959640503,-0.10156606137752533,0.15037161111831665
1727009857333407500,10.261407470703125,0.24707692861557007,-0.14760826528072357,0.09194648265838623
1727009857343445200,10.2714453125,0.23425781726837158,0.004299519117921591,-0.047636713832616806
1727009857353483500,10.2814833984375,0.21686111390590668,0.2524443566799164,-0.18668019771575928
1727009857363521300,10.291521240234376,0.24934183061122894,0.4351270794868469,-0.14648057520389557
1727009857373559600,10.3015595703125,0.32086601853370667,0.3651554584503174,-0.019314495846629143
1727009857383597300,10.311597412109375,0.3581111431121826,0.24618057906627655,0.2655670642852783
1727009857393635600,10.321635498046875,0.3391149938106537,0.13033387064933777,0.33935174345970154
1727009857403673300,10.33167333984375,0.31240907311439514,0.04872504249215126,0.1107523962855339
1727009857413711400,10.34171142578125,0.3147054612636566,0.012297520413994789,-0.013789879158139229
1727009857423749400,10.351749267578125,0.28633400797843933,0.05225345864892006,-0.3037037253379822
1727009857433787400,10.361787353515625,0.25653430819511414,0.06805021315813065,-0.20999188721179962
1727009857443825400,10.371825439453126,0.2531733810901642,0.06487119942903519,0.005988086573779583
1727009857453863400,10.381863525390624,0.2692703902721405,0.08751107007265091,0.13498426973819733
1727009857463901400,10.3919013671875,0.29732465744018555,0.19374430179595947,0.21543703973293304
1727009857473938400,10.4019384765625,0.3143296241760254,0.2553631067276001,0.2587539553642273
1727009857483976400,10.4119765625,0.29793787002563477,0.17208020389080048,0.18959671258926392
1727009857494009900,10.422009765625,0.25282004475593567,0.10013290494680405,0.2057170271873474
1727009857504048000,10.432048095703125,0.1731283962726593,0.05705814063549042,-0.18735675513744354
1727009857514086000,10.4420859375,0.1391250193119049,0.015536053106188774,-0.31156325340270996
1727009857524124200,10.452124267578125,0.12188663333654404,0.07028425484895706,-0.3064875304698944
1727009857534162000,10.462161865234375,0.09667829424142838,0.05426529049873352,-0.04406992718577385
1727009857544200000,10.472199951171875,0.11379416286945343,0.0590139739215374,0.10785754770040512
1727009857554238200,10.48223828125,0.14606256783008575,0.0768536701798439,0.18590082228183746
1727009857564276000,10.49227587890625,0.1206245869398117,0.01842604950070381,0.1326676905155182
1727009857574314200,10.502314208984375,0.08598440140485764,0.0037952782586216927,0.13674584031105042
1727009857584352000,10.51235205078125,0.037616066634655,0.03112969547510147,0.030470261350274086
1727009857594390300,10.522390380859376,0.00620918907225132,0.09916724264621735,-0.09008505940437317
1727009857604428000,10.532427978515624,0.0059468671679496765,0.15731683373451233,-0.1493622362613678
1727009857614466000,10.542466064453125,0.011355258524417877,0.14699187874794006,-0.013381630182266235
1727009857624504000,10.552504150390625,-0.01353517733514309,0.09680380672216415,0.03064708039164543
1727009857634541000,10.562541015625,-0.02581501007080078,0.10468218475580215,0.21824467182159424
1727009857644578800,10.572578857421876,-0.028247274458408356,0.10097292810678482,-0.03480064123868942
1727009857654617000,10.5826171875,0.009183719754219055,0.021083960309624672,0.022725503891706467
1727009857664654800,10.59265478515625,-0.018007686361670494,-0.027209004387259483,-0.03763078153133392
1727009857674693000,10.602693115234375,-0.08660576492547989,-0.07403064519166946,-0.15556322038173676
1727009857684731000,10.61273095703125,-0.08232074230909348,-0.030460264533758163,0.03839294612407684
1727009857694769200,10.62276904296875,-0.07049240916967392,0.04694085940718651,-0.03543971851468086
1727009857704807200,10.63280712890625,-0.06521561741828918,0.10749927908182144,-0.09883573651313782
1727009857714845000,10.642844970703125,-0.06448341906070709,0.23859915137290955,0.14882038533687592
1727009857724883200,10.65288330078125,-0.10064009577035904,0.24504508078098297,-0.10382518172264099
1727009857734921000,10.6629208984375,-0.09017712622880936,0.27908506989479065,-0.05990547314286232
1727009857744959200,10.672959228515625,-0.08678452670574188,0.1406334489583969,-0.21429318189620972
1727009857754997000,10.6829970703125,-0.0928560346364975,-0.061074770987033844,0.0798535868525505
1727009857765035300,10.69303515625,-0.09649977087974548,-0.13436442613601685,0.2753058969974518
1727009857775072000,10.703072021484376,-0.08083012700080872,-0.06802461296319962,0.1139216497540474
1727009857785110000,10.713110107421874,-0.039409711956977844,0.17088569700717926,-0.013933518901467323
1727009857795148000,10.72314794921875,-0.0470820888876915,0.213026762008667,-0.3661520481109619
1727009857805186000,10.73318603515625,-0.04547593370079994,0.04730891436338425,-0.36636775732040405
1727009857815223800,10.743223876953126,-0.039580948650836945,-0.16027949750423431,-0.0794462189078331
1727009857825262000,10.753261962890624,-0.06871514022350311,-0.19477994740009308,0.18503418564796448
1727009857835300000,10.763300048828125,-0.0718991607427597,0.14160405099391937,0.2763788402080536
1727009857845338000,10.773338134765625,-0.036528922617435455,0.4167783558368683,-0.07326968759298325
1727009857855376100,10.783376220703126,-0.005784953013062477,0.44628283381462097,-0.03836734592914581
1727009857865414100,10.7934140625,-0.04947730526328087,0.15882442891597748,0.11034224182367325
1727009857875452200,10.8034521484375,-0.12186241894960403,-0.27406951785087585,0.12127701193094254
1727009857885490000,10.813489990234375,-0.12231142818927765,-0.3939080536365509,0.12005595117807388
1727009857895528200,10.823528076171876,-0.09827952831983566,-0.2361268699169159,-0.22957706451416016
1727009857905566000,10.83356591796875,-0.08386436849832535,0.15210102498531342,-0.3377719819545746
1727009857915604200,10.843604248046875,-0.06377366930246353,0.39388135075569153,-0.09932155907154083
1727009857925641000,10.853640869140625,-0.03534602373838425,0.244614377617836,0.22243037819862366
1727009857935679000,10.863678955078125,-0.02311798185110092,-0.10783315449953079,0.35888421535491943
1727009857945717000,10.873717041015626,-0.05555155500769615,-0.2999386787414551,0.08935952186584473
1727009857955755000,10.883755126953124,-0.0974181741476059,-0.21210208535194397,-0.15257896482944489
1727009857965793000,10.89379296875,-0.08297558128833771,0.02226300537586212,-0.22018250823020935
1727009857975831000,10.9038310546875,-0.018649712204933167,0.11038827896118164,-0.2185395061969757
1727009857985869000,10.913869140625,0.018649190664291382,0.13856132328510284,-0.07402732968330383
1727009857995907000,10.923906982421874,-0.008424301631748676,0.015627941116690636,0.0009075580164790154
1727009858005945000,10.933945068359375,0.006090458948165178,-0.012822873890399933,0.22154885530471802
1727009858015983000,10.943983154296875,0.06611660867929459,0.07562541961669922,0.31597229838371277
1727009858026021000,10.954021240234376,0.10282482206821442,0.07536523044109344,0.1334165781736374
1727009858036059100,10.96405908203125,0.08082101494073868,-0.07645425200462341,0.013617917895317078
1727009858046097200,10.97409716796875,-0.012264455668628216,-0.16905103623867035,-0.25085341930389404
1727009858056135000,10.984135009765625,-0.07766996324062347,-0.11747651547193527,-0.34005558490753174
1727009858066173200,10.994173095703125,-0.031175434589385986,0.08714134246110916,-0.07819174230098724
1727009858076211000,11.0042109375,0.07554037123918533,0.30009588599205017,-0.03123147040605545
1727009858086248200,11.014248291015624,0.1547241359949112,0.2960532307624817,0.23123876750469208
1727009858096286000,11.024285888671875,0.1228802427649498,0.11935121566057205,0.4791850447654724
1727009858106324000,11.034323974609375,0.02545088715851307,-0.06740722060203552,0.07315311580896378
1727009858116362000,11.044362060546876,0.01895473152399063,-0.10178577154874802,0.11915948241949081
1727009858126400000,11.05439990234375,0.012612679973244667,0.02725795842707157,-0.44796252250671387
1727009858136438000,11.06443798828125,-0.0004909788258373737,0.1449514478445053,-0.5015476942062378
1727009858146476000,11.07447607421875,-0.011634976603090763,0.13379094004631042,-0.19083747267723083
1727009858156514000,11.08451416015625,0.005984589457511902,0.04433581233024597,-0.13134939968585968
1727009858166552000,11.094552001953126,0.07127038389444351,-0.032665230333805084,0.3230556547641754
1727009858176590000,11.104590087890625,0.0950508862733841,0.05873125419020653,0.4195289611816406
1727009858186628000,11.114628173828125,0.09198053181171417,0.23830074071884155,0.3072706162929535
1727009858196666000,11.124666015625,0.1255064457654953,0.28021684288978577,0.2582407593727112
1727009858206704000,11.1347041015625,0.10659347474575043,0.24504289031028748,-0.17633572220802307
1727009858216742100,11.1447421875,0.04589185118675232,0.08249283581972122,-0.28544220328330994
1727009858226780000,11.15477978515625,0.0024849879555404186,-0.06337621808052063,-0.16272933781147003
1727009858236817200,11.164817138671875,0.03436383232474327,-0.0026546474546194077,0.019381875172257423
1727009858246855000,11.17485498046875,0.09474381804466248,0.22030599415302277,0.09420232474803925
1727009858256893200,11.18489306640625,0.13219605386257172,0.3458927273750305,0.16502422094345093
1727009858266931000,11.194930908203125,0.13027937710285187,0.3157862424850464,0.21640485525131226
1727009858276969000,11.204968994140625,0.121593177318573,0.08019886910915375,-0.001373188104480505
1727009858287007000,11.215007080078125,0.1614881306886673,-0.14444968104362488,0.038520168513059616
1727009858297045000,11.225044921875,0.16460268199443817,-0.26327773928642273,-0.04636804386973381
1727009858307083000,11.2350830078125,0.10322533547878265,-0.11683743447065353,-0.18396851420402527
1727009858317121000,11.24512109375,0.04888313263654709,0.1523788571357727,-0.015351652167737484
1727009858327159000,11.255158935546875,0.04148221015930176,0.3925267457962036,0.11914650350809097
1727009858337197000,11.265197021484376,0.06209072098135948,0.4492735266685486,0.11267583817243576
1727009858347235000,11.275235107421874,0.05292358621954918,0.2773105502128601,-0.01080322265625
1727009858357273000,11.285273193359375,-0.020068349316716194,-0.08221401274204254,-0.01303517073392868
1727009858367311000,11.29531103515625,-0.07426740229129791,-0.3460123538970947,0.10794717818498611
1727009858377349000,11.30534912109375,-0.07023091614246368,-0.36486247181892395,0.13402904570102692
1727009858387386000,11.31538623046875,-0.0575723797082901,-0.1665632426738739,-0.017336785793304443
1727009858397423900,11.325423828125,-0.06985735893249512,0.010290698148310184,-0.05145479738712311
1727009858407462100,11.335462158203125,-0.12999659776687622,0.11397848278284073,-0.10704109072685242
1727009858417500000,11.3455,-0.17629821598529816,0.050925347954034805,-0.10566239058971405
1727009858427538200,11.3555380859375,-0.1515558511018753,-0.04904412850737572,-0.11586256325244904
1727009858437576000,11.365575927734374,-0.11873380839824677,-0.11638794839382172,-0.02155899442732334
1727009858447614000,11.375614013671875,-0.12707003951072693,-0.17187677323818207,0.24323059618473053
1727009858457652000,11.38565185546875,-0.18710565567016602,-0.1036812886595726,0.27444860339164734
1727009858467690000,11.39568994140625,-0.2254684865474701,-0.023563018068671227,0.10786175727844238
1727009858477728300,11.405728271484374,-0.20385397970676422,0.07960477471351624,-0.1833411604166031
1727009858487766000,11.41576611328125,-0.18273964524269104,0.06452862173318863,-0.28062963485717773
1727009858497804000,11.425803955078125,-0.20256876945495605,-0.14510628581047058,-0.16742733120918274
1727009858507842000,11.435842041015626,-0.20424123108386993,-0.333891361951828,0.1745140254497528
1727009858517880000,11.445880126953124,-0.15456242859363556,-0.23096418380737305,0.3361031711101532
1727009858527918000,11.45591796875,-0.10993397235870361,-0.1134956106543541,0.2444549947977066
1727009858537956000,11.4659560546875,-0.10995553433895111,-0.06483754515647888,0.10550903528928757
1727009858547992800,11.475992919921875,-0.2016894519329071,-0.12463776022195816,-0.11098625510931015
1727009858558031000,11.486031005859376,-0.3043785095214844,-0.04465991631150246,-0.25698721408843994
1727009858568068900,11.49606884765625,-0.30098775029182434,0.025638215243816376,-0.4624157249927521
1727009858578107100,11.506107177734375,-0.2220277041196823,0.09958023577928543,-0.42914173007011414
1727009858588145000,11.516144775390625,-0.1740596443414688,0.0229504331946373,-0.0565527118742466
1727009858598183200,11.52618310546875,-0.2183467149734497,-0.23889648914337158,0.2374744713306427
1727009858608221000,11.536220947265624,-0.25758811831474304,-0.30055850744247437,0.6512253284454346
1727009858618259000,11.546259033203125,-0.2842993140220642,-0.19413875043392181,0.3461416959762573
1727009858628297200,11.556297119140625,-0.2507312297821045,-0.04980394244194031,-0.07230322062969208
1727009858638335000,11.5663349609375,-0.24253591895103455,0.03100336715579033,-0.31734058260917664
1727009858648373200,11.576373291015624,-0.32825028896331787,-0.14156493544578552,-0.45562466979026794
1727009858658411000,11.586410888671875,-0.37055397033691406,-0.23795419931411743,-0.3314215838909149
1727009858668449300,11.59644921875,-0.32913222908973694,-0.25350895524024963,-0.1367892473936081
1727009858678487000,11.606487060546876,-0.24684269726276398,-0.09712696075439453,0.18024207651615143
1727009858688525000,11.616525146484374,-0.22455576062202454,-0.005006893537938595,0.2541692852973938
1727009858698562000,11.62656201171875,-0.24541254341602325,-0.05916208773851395,0.2730776369571686
1727009858708600000,11.63660009765625,-0.2559352517127991,-0.05580969899892807,0.1926315277814865
1727009858718637800,11.646637939453125,-0.26547688245773315,-0.28963714838027954,-0.17363761365413666
1727009858728676000,11.656676025390626,-0.25437813997268677,-0.43377089500427246,-0.28615614771842957
1727009858738713900,11.6667138671875,-0.26082322001457214,-0.5153948068618774,-0.4368438124656677
1727009858748752100,11.676752197265625,-0.23341847956180573,-0.43736791610717773,-0.31130534410476685
1727009858758790100,11.6867900390625,-0.15373817086219788,-0.2202490121126175,-0.15424691140651703
1727009858768828200,11.696828125,-0.10063393414020538,-0.10461589694023132,-0.0670693963766098
1727009858778866200,11.7068662109375,-0.07912643253803253,0.07536210864782333,0.2033860981464386
1727009858788904000,11.716904052734375,-0.06663860380649567,0.11539234966039658,0.2560693025588989
1727009858798942200,11.726942138671875,-0.0050666495226323605,0.12209973484277725,0.22483938932418823
1727009858808980000,11.73697998046875,0.060715559870004654,0.02797536738216877,0.06486062705516815
1727009858819018200,11.747018310546874,0.05302045866847038,-0.17761437594890594,-0.11000711470842361
1727009858829056000,11.757055908203125,0.0024941707961261272,-0.27955323457717896,-0.19768477976322174
1727009858839094300,11.76709423828125,-0.027097854763269424,-0.20017917454242706,-0.07723358273506165
1727009858849132000,11.777132080078125,0.0014770650304853916,0.1316339075565338,-0.028603462502360344
1727009858859170000,11.787170166015626,0.0871911346912384,0.4134436845779419,-0.041495997458696365
1727009858869207000,11.79720703125,0.1750035434961319,0.46800678968429565,-0.03062470629811287
1727009858879245000,11.8072451171875,0.1887749880552292,0.28176167607307434,0.13845521211624146
1727009858889282800,11.81728271484375,0.17804564535617828,0.004292778670787811,0.2925366759300232
1727009858899321000,11.827321044921876,0.22408276796340942,-0.23065634071826935,0.1977272629737854
1727009858909359000,11.837359130859374,0.2893690764904022,-0.3007802963256836,0.0523676797747612
1727009858919397000,11.847397216796875,0.2612650394439697,-0.15382374823093414,-0.18560348451137543
1727009858929435100,11.85743505859375,0.178265780210495,0.2007998526096344,-0.3424586057662964
1727009858939473200,11.86747314453125,0.1582830250263214,0.44102203845977783,-0.26742109656333923
1727009858949511200,11.87751123046875,0.23631256818771362,0.44979128241539,-0.07786689698696136
1727009858959549000,11.887548828125,0.30572709441185,0.23849758505821228,0.18875356018543243
1727009858969587200,11.897587158203125,0.29632213711738586,-0.027208130806684494,0.40534019470214844
1727009858979625000,11.907625,0.27223512530326843,-0.05427205562591553,0.4874330163002014
1727009858989663200,11.917663330078126,0.30056077241897583,0.13882790505886078,0.49776849150657654
1727009858999701000,11.927700927734374,0.29190465807914734,0.20281991362571716,-0.07305113226175308
1727009859009739300,11.9377392578125,0.23634417355060577,0.1691407859325409,-0.12859348952770233
1727009859019777000,11.947777099609375,0.11960800737142563,0.06942791491746902,-0.44034427404403687
1727009859029814000,11.95781396484375,0.06933924555778503,0.17267999053001404,-0.28483137488365173
1727009859039852000,11.96785205078125,0.13047567009925842,0.3999442458152771,-0.14212404191493988
1727009859049890000,11.97789013671875,0.22353769838809967,0.5056416392326355,-0.2077917456626892
1727009859059928000,11.987927978515625,0.26551884412765503,0.18466408550739288,0.6601075530052185
1727009859069966000,11.997966064453125,0.13555976748466492,-0.09252304583787918,0.6582174897193909
1727009859080004000,12.008004150390626,0.03411620855331421,-0.25772327184677124,0.7095412015914917
1727009859090042000,12.0180419921875,0.014851167798042297,-0.11468701809644699,-0.2665709853172302
1727009859100080000,12.028080078125,0.008150145411491394,0.14935916662216187,-0.7344881892204285
1727009859110118100,12.0381181640625,-0.06424948573112488,0.2567753493785858,-0.5617408752441406
1727009859120156200,12.04815625,-0.12172261625528336,0.12843090295791626,-0.38109976053237915
1727009859130194000,12.05819384765625,-0.005957935471087694,-0.1992926299571991,0.6263176202774048
1727009859140232200,12.068232177734375,0.040028996765613556,-0.3181473910808563,-0.037214573472738266
1727009859150270000,12.07827001953125,0.00830995012074709,-0.16069704294204712,0.505860447883606
1727009859160308200,12.08830810546875,-0.15093308687210083,0.13719451427459717,-0.07110052555799484
1727009859170346000,12.098345947265624,-0.19337455928325653,0.3141508996486664,-0.10704387724399567
1727009859180384300,12.10838427734375,-0.10074558109045029,0.46237248182296753,-0.05038663372397423
1727009859190422000,12.118422119140625,-0.10209421068429947,0.22670215368270874,-0.7500179409980774
1727009859200459000,12.128458984375,-0.11583703011274338,-0.35307925939559937,-0.016671480610966682
1727009859210497000,12.1384970703125,-0.20185500383377075,-0.5566025376319885,-0.1261569708585739
1727009859220535000,12.14853515625,-0.24090707302093506,-0.6188270449638367,-0.022230561822652817
1727009859230573000,12.158572998046875,-0.17667242884635925,-0.4379616677761078,0.1656045913696289
1727009859240611000,12.168611083984375,-0.1253889501094818,-0.08197071403265,0.1300845742225647
1727009859250649000,12.178649169921876,-0.13335366547107697,0.19339773058891296,0.23255474865436554
1727009859260687000,12.18868701171875,-0.13398206233978271,0.16636911034584045,0.05310739576816559
1727009859270725000,12.19872509765625,-0.05991128832101822,-0.012134051881730556,0.008264023810625076
1727009859280763100,12.20876318359375,-0.012055620551109314,-0.3411118686199188,-0.0665857121348381
1727009859290801200,12.21880126953125,-0.040413759648799896,-0.4471890330314636,-0.1537640243768692
1727009859300839000,12.2288388671875,-0.0909617468714714,-0.38892099261283875,-0.24309273064136505
1727009859310877200,12.238877197265625,-0.07904436439275742,-0.33928048610687256,-0.10292842984199524
1727009859320915000,12.2489150390625,-0.03830324485898018,-0.14761632680892944,-0.009556377306580544
1727009859330953200,12.258953125,-0.034255508333444595,0.02879626676440239,-0.009665034711360931
1727009859340991000,12.268990966796874,-0.03578527644276619,0.10822737216949463,0.09983470290899277
1727009859351029200,12.279029296875,0.021817300468683243,0.005740680266171694,0.08144424110651016
