time,seconds_elapsed,z,y,x
1726226130235035600,0.02603564453125,-0.9089202880859375,-0.34442138671875,-0.0085601806640625
1726226130245030700,0.03603076171875,-0.9003448486328125,-0.343231201171875,-0.0138702392578125
1726226130255024600,0.046024658203125,-0.897491455078125,-0.300872802734375,-0.038360595703125
1726226130265019600,0.05601953125,-0.9225616455078125,-0.300994873046875,0.0033721923828125
1726226130275014700,0.0660146484375,-0.9716033935546875,-0.29803466796875,0.0243988037109375
1726226130285008600,0.076008544921875,-0.9790191650390625,-0.2920989990234375,0.022918701171875
1726226130295003600,0.086003662109375,-1.0144805908203125,-0.22320556640625,-0.040557861328125
1726226130304998700,0.09599853515625,-1.02288818359375,-0.192962646484375,0.0406036376953125
1726226130314992600,0.10599267578125,-0.983917236328125,-0.2640533447265625,0.0415191650390625
1726226130324987600,0.115987548828125,-0.9800567626953125,-0.340576171875,0.04864501953125
1726226130334982700,0.125982666015625,-0.9249114990234375,-0.45587158203125,0.2060546875
1726226130344976600,0.1359765625,-0.822540283203125,-0.638275146484375,0.325592041015625
1726226130354971600,0.1459716796875,-0.659942626953125,-0.5095977783203125,0.145751953125
1726226130364966700,0.155966552734375,-0.5914459228515625,-0.3404388427734375,0.0072784423828125
1726226130374960600,0.165960693359375,-0.625579833984375,-0.3559722900390625,0.0135955810546875
1726226130384955600,0.17595556640625,-0.63018798828125,-0.4278717041015625,0.1346893310546875
1726226130394950700,0.18595068359375,-0.734130859375,-0.4405670166015625,0.2639312744140625
1726226130404944600,0.195944580078125,-0.7778778076171875,-0.4539947509765625,0.3027191162109375
1726226130414939600,0.205939697265625,-0.7984161376953125,-0.47686767578125,0.3486175537109375
1726226130424934700,0.2159345703125,-0.8593597412109375,-0.5009613037109375,0.403717041015625
1726226130434928600,0.2259287109375,-1.018341064453125,-0.5259246826171875,0.41326904296875
1726226130444923600,0.235923583984375,-1.062652587890625,-0.5048065185546875,0.321624755859375
1726226130454918700,0.245918701171875,-0.9488677978515625,-0.397369384765625,0.0749664306640625
1726226130464912600,0.25591259765625,-0.88323974609375,-0.4049835205078125,0.000244140625
1726226130474907600,0.26590771484375,-0.83294677734375,-0.4137115478515625,0.0057373046875
1726226130484903000,0.27590283203125,-0.759765625,-0.3982086181640625,-0.054107666015625
1726226130494896600,0.285896728515625,-0.6995849609375,-0.3831024169921875,-0.092193603515625
1726226130504891600,0.2958916015625,-0.688995361328125,-0.3603057861328125,-0.1046905517578125
1726226130514887000,0.305886962890625,-0.69598388671875,-0.3519287109375,-0.12078857421875
1726226130524880600,0.315880615234375,-0.6849365234375,-0.31207275390625,-0.197296142578125
1726226130534875600,0.325875732421875,-0.954132080078125,-0.2931976318359375,-0.345977783203125
1726226130544871000,0.335870849609375,-1.1311187744140625,-0.2611846923828125,-0.421173095703125
1726226130554864600,0.34586474609375,-1.073455810546875,-0.2186431884765625,-0.4360198974609375
1726226130564859600,0.355859619140625,-1.06036376953125,-0.14227294921875,-0.43414306640625
1726226130574855000,0.36585498046875,-0.987884521484375,-0.086700439453125,-0.475006103515625
1726226130584848600,0.3758486328125,-0.9482879638671875,-0.0564727783203125,-0.4456329345703125
1726226130594843600,0.38584375,-0.872772216796875,-0.0048980712890625,-0.3787841796875
1726226130604839000,0.3958388671875,-0.8138427734375,-0.042022705078125,-0.4601898193359375
1726226130614832600,0.40583251953125,-0.5617218017578125,-0.17791748046875,-0.503173828125
1726226130624827600,0.41582763671875,-0.4815826416015625,-0.2059173583984375,-0.572479248046875
1726226130634823000,0.425822998046875,-0.4626007080078125,-0.1784210205078125,-0.600433349609375
1726226130644816600,0.435816650390625,-0.49053955078125,-0.07379150390625,-0.5217132568359375
1726226130654812000,0.44581201171875,-0.4868316650390625,-0.056915283203125,-0.5190277099609375
1726226130664807000,0.455806884765625,-0.46417236328125,-0.052886962890625,-0.611175537109375
1726226130674800600,0.465800537109375,-0.4933624267578125,-0.0494842529296875,-0.65106201171875
1726226130684796000,0.4757958984375,-0.5745849609375,-0.010894775390625,-0.601409912109375
1726226130694791000,0.485791015625,-0.6610565185546875,-0.0742645263671875,-0.7203369140625
1726226130704784600,0.49578466796875,-0.7930908203125,0.0156097412109375,-0.7352447509765625
1726226130714780200,0.5057802734375,-0.99261474609375,0.0708770751953125,-0.6739044189453125
1726226130724775200,0.515775146484375,-1.118255615234375,0.0921783447265625,-0.6184234619140625
1726226130734769200,0.52576904296875,-1.1733856201171875,0.1115264892578125,-0.5920257568359375
1726226130744764200,0.53576416015625,-1.1875457763671875,0.15460205078125,-0.5422210693359375
1726226130754759200,0.54575927734375,-1.1470184326171875,0.1835784912109375,-0.441864013671875
1726226130764753200,0.555753173828125,-1.0264129638671875,0.1894989013671875,-0.371246337890625
1726226130774748200,0.565748046875,-0.8664703369140625,0.213592529296875,-0.342803955078125
1726226130784743200,0.5757431640625,-0.72039794921875,0.263458251953125,-0.2732696533203125
1726226130794737200,0.585737060546875,-0.6335906982421875,0.341583251953125,-0.1853790283203125
1726226130804732200,0.595732177734375,-0.60675048828125,0.4525146484375,-0.1277313232421875
1726226130814727200,0.60572705078125,-0.6158294677734375,0.64569091796875,-0.069793701171875
1726226130824721200,0.61572119140625,-0.60528564453125,0.8079681396484375,-0.03863525390625
1726226130834716200,0.625716064453125,-0.4937591552734375,0.8743438720703125,-0.17230224609375
1726226130844711200,0.635711181640625,-0.336090087890625,0.8783111572265625,-0.4781341552734375
1726226130854705200,0.645705078125,-0.3913116455078125,0.8361358642578125,-0.7506103515625
1726226130864700200,0.6557001953125,-0.593017578125,0.854583740234375,-0.8534393310546875
1726226130874695200,0.665695068359375,-0.74481201171875,0.9805755615234375,-0.8959503173828125
1726226130884689200,0.675689208984375,-0.7919769287109375,1.152191162109375,-0.89544677734375
1726226130894684200,0.68568408203125,-0.72869873046875,1.3334197998046875,-0.916595458984375
1726226130904679200,0.69567919921875,-0.6390380859375,1.513214111328125,-1.03271484375
1726226130914673200,0.705673095703125,-0.599212646484375,1.567596435546875,-1.28863525390625
1726226130924668200,0.715668212890625,-0.4733123779296875,1.4754638671875,-1.65484619140625
1726226130934662100,0.725662109375,-0.2791290283203125,1.3044586181640625,-1.8915863037109375
1726226130944657200,0.7356572265625,-0.1223297119140625,1.261199951171875,-1.9641876220703125
1726226130954652200,0.745652099609375,-0.00994873046875,1.3105010986328125,-1.9631500244140625
1726226130964646100,0.755646240234375,0.05865478515625,1.3017425537109375,-1.961029052734375
1726226130974641200,0.76564111328125,0.084014892578125,1.1624908447265625,-2.0491485595703125
1726226130984636200,0.77563623046875,0.0237884521484375,1.0712127685546875,-2.18646240234375
1726226130994630100,0.785630126953125,0.006988525390625,0.9593505859375,-2.4670257568359375
1726226131004625200,0.795625244140625,0.0579986572265625,0.67022705078125,-2.6764068603515625
1726226131014620200,0.8056201171875,0.235504150390625,0.3858642578125,-2.6985015869140625
1726226131024614100,0.8156142578125,0.4988555908203125,0.26806640625,-2.61016845703125
1726226131034609200,0.825609130859375,0.78692626953125,0.14508056640625,-2.527099609375
1726226131044604200,0.835604248046875,1.0792083740234375,0.1428070068359375,-2.394775390625
1726226131054598100,0.84559814453125,1.2999267578125,0.2858123779296875,-2.102630615234375
1726226131064593200,0.85559326171875,1.30853271484375,0.3944091796875,-1.771942138671875
1726226131074588200,0.865588134765625,1.1681671142578125,0.60882568359375,-1.3722076416015625
1726226131084582100,0.87558203125,1.0245208740234375,1.0414886474609375,-0.762786865234375
1726226131094577200,0.8855771484375,0.7605133056640625,1.2781524658203125,-0.4207611083984375
1726226131104572200,0.895572265625,0.569915771484375,1.31341552734375,-0.160675048828125
1726226131114566100,0.905566162109375,0.5036163330078125,1.3720703125,0.1473388671875
1726226131124561200,0.91556103515625,0.40777587890625,1.3814849853515625,0.206329345703125
1726226131134556200,0.92555615234375,0.4295501708984375,1.4081268310546875,0.392120361328125
1726226131144550100,0.935550048828125,0.3861083984375,1.5128631591796875,0.614532470703125
1726226131154545200,0.945545166015625,0.1907501220703125,1.553863525390625,0.7144775390625
1726226131164540200,0.9555400390625,0.0433197021484375,1.4722137451171875,0.5186004638671875
1726226131174534100,0.9655341796875,-0.085723876953125,1.270721435546875,0.0891571044921875
1726226131184529200,0.975529052734375,-0.0294189453125,0.9315643310546875,-0.3983917236328125
1726226131194523100,0.985523193359375,0.1857757568359375,0.8916778564453125,-0.5421600341796875
1726226131204518100,0.99551806640625,0.4022216796875,1.0075225830078125,-0.5834808349609375
1726226131214513200,1.00551318359375,0.5249786376953125,1.1153106689453125,-0.56231689453125
1726226131224507100,1.015507080078125,0.1807098388671875,1.1980438232421875,-0.4549407958984375
1726226131234502100,1.025502197265625,-0.20245361328125,1.138458251953125,-0.4319305419921875
1726226131244497200,1.0354970703125,-0.2012786865234375,1.07073974609375,-0.6058349609375
1726226131254491100,1.0454912109375,-0.1687774658203125,1.0507659912109375,-0.815765380859375
1726226131264486100,1.055486083984375,-0.2386016845703125,0.98687744140625,-0.9482574462890625
1726226131274481200,1.065481201171875,-0.1592864990234375,0.8544464111328125,-1.0911407470703125
1726226131284475100,1.07547509765625,-0.2329559326171875,0.7081756591796875,-1.2342071533203125
1726226131294470100,1.08547021484375,-0.06036376953125,0.607696533203125,-1.3305206298828125
1726226131304465200,1.095465087890625,0.1825408935546875,0.54052734375,-1.36663818359375
1726226131314459100,1.105459228515625,0.1927337646484375,0.4916534423828125,-1.34368896484375
1726226131324454100,1.1154541015625,0.2463531494140625,0.45135498046875,-1.3159942626953125
1726226131334449200,1.12544921875,0.2071075439453125,0.4053497314453125,-1.22991943359375
1726226131344443100,1.135443115234375,-0.1472930908203125,0.4235076904296875,-1.0962982177734375
1726226131354438100,1.145438232421875,-0.410308837890625,0.570526123046875,-0.8023681640625
1726226131364432100,1.15543212890625,-0.477935791015625,0.6234893798828125,-0.5582427978515625
1726226131374427100,1.16542724609375,-0.425201416015625,0.582489013671875,-0.4578399658203125
1726226131384422100,1.175422119140625,-0.372314453125,0.4878997802734375,-0.4669342041015625
1726226131394416000,1.185416015625,-0.3422698974609375,0.414520263671875,-0.4629974365234375
1726226131404411100,1.1954111328125,-0.296905517578125,0.356170654296875,-0.4626007080078125
1726226131414406100,1.20540625,-0.2384490966796875,0.30438232421875,-0.469696044921875
1726226131424400100,1.215400146484375,-0.120758056640625,0.2056732177734375,-0.5787811279296875
1726226131434395100,1.22539501953125,0.0682830810546875,0.150421142578125,-0.6582183837890625
1726226131444390100,1.23539013671875,0.173095703125,0.2353363037109375,-0.592559814453125
1726226131454384000,1.245384033203125,0.2624664306640625,0.36798095703125,-0.4626007080078125
1726226131464379100,1.255379150390625,0.1829986572265625,0.4276123046875,-0.2939605712890625
1726226131474374100,1.2653740234375,0.372955322265625,0.3968963623046875,-0.32232666015625
1726226131484368100,1.2753681640625,0.7177734375,0.26641845703125,-0.50714111328125
1726226131494363100,1.285363037109375,0.6563873291015625,0.27056884765625,-0.5562286376953125
1726226131504357000,1.295357177734375,0.514801025390625,0.4077301025390625,-0.47601318359375
1726226131514352000,1.30535205078125,0.5297393798828125,0.274078369140625,-0.6834869384765625
1726226131524347100,1.31534716796875,0.29278564453125,0.5125885009765625,-0.58935546875
1726226131534341000,1.325341064453125,0.224334716796875,0.45281982421875,-0.6953277587890625
1726226131544336100,1.335336181640625,0.0439300537109375,0.4315948486328125,-0.8633270263671875
1726226131554331100,1.3453310546875,-0.131072998046875,0.4091033935546875,-1.0397186279296875
1726226131564325000,1.3553251953125,-0.2611236572265625,0.4027252197265625,-1.210357666015625
1726226131574320000,1.365320068359375,0.106231689453125,0.38671875,-1.2024993896484375
1726226131584315100,1.375315185546875,0.2793731689453125,0.4271240234375,-1.0602264404296875
1726226131594309000,1.38530908203125,0.0795745849609375,0.7400054931640625,-0.708343505859375
1726226131604304100,1.39530419921875,0.0987548828125,0.9419708251953125,-0.565643310546875
1726226131614299100,1.405299072265625,0.261383056640625,0.9746551513671875,-0.6077117919921875
1726226131624293000,1.415293212890625,0.2152099609375,0.9261016845703125,-0.652008056640625
1726226131634288000,1.4252880859375,0.009429931640625,0.825927734375,-0.71905517578125
1726226131644282000,1.4352822265625,-0.1670379638671875,0.776824951171875,-0.797607421875
1726226131654277000,1.445277099609375,-0.3108367919921875,0.718170166015625,-0.8915252685546875
1726226131664272100,1.455272216796875,-0.370208740234375,0.709136962890625,-1.0005035400390625
1726226131674266000,1.46526611328125,-0.4757843017578125,0.7381591796875,-1.1038665771484375
1726226131684261000,1.47526123046875,-0.4239654541015625,0.64813232421875,-1.1073150634765625
1726226131694256000,1.485256103515625,-0.1320648193359375,0.36279296875,-0.8926544189453125
1726226131704250000,1.49525,0.1400146484375,0.2825469970703125,-0.789154052734375
1726226131714245000,1.5052451171875,0.296417236328125,0.2794952392578125,-0.715087890625
1726226131724240100,1.515240234375,0.3759002685546875,0.4449310302734375,-0.64105224609375
1726226131734234000,1.525234130859375,0.338043212890625,0.567718505859375,-0.5967559814453125
1726226131744229000,1.53522900390625,0.378753662109375,0.628021240234375,-0.6390838623046875
1726226131754223000,1.54522314453125,0.426605224609375,0.8277130126953125,-0.800079345703125
1726226131764218000,1.555218017578125,0.3588409423828125,0.9138031005859375,-0.837432861328125
1726226131774213000,1.565213134765625,0.3912200927734375,0.557281494140625,-0.5833740234375
1726226131784207000,1.57520703125,0.4637603759765625,0.3966522216796875,-0.3823394775390625
1726226131794202000,1.5852021484375,0.6327362060546875,0.4597015380859375,-0.38690185546875
1726226131804197000,1.595197021484375,0.5959320068359375,0.6272735595703125,-0.3117828369140625
1726226131814191000,1.605191162109375,0.4056396484375,1.065673828125,-0.29541015625
1726226131824186000,1.61518603515625,0.4597015380859375,1.726226806640625,-0.279815673828125
1726226131834181000,1.62518115234375,0.1717376708984375,2.073883056640625,-0.21905517578125
1726226131844175000,1.635175048828125,-0.1157379150390625,2.04827880859375,-0.3731689453125
1726226131854170000,1.645170166015625,-0.0523834228515625,1.7230682373046875,-0.327545166015625
1726226131864163800,1.655163818359375,0.0257110595703125,1.3114166259765625,-0.2766265869140625
1726226131874159000,1.6651591796875,0.2030487060546875,1.0309295654296875,-0.2301788330078125
1726226131884154000,1.675154052734375,0.2195587158203125,0.7891693115234375,-0.1746978759765625
1726226131894147800,1.68514794921875,0.0151824951171875,0.714111328125,-0.0330352783203125
1726226131904143000,1.69514306640625,0.0081787109375,0.7108917236328125,0.0267181396484375
1726226131914138000,1.70513818359375,0.043731689453125,0.7272796630859375,-0.100250244140625
1726226131924132000,1.715132080078125,0.0063629150390625,0.788909912109375,-0.2042999267578125
1726226131934127000,1.725127197265625,-0.03619384765625,0.8287200927734375,-0.1646575927734375
1726226131944122000,1.7351220703125,-0.0755157470703125,0.9522705078125,-0.169891357421875
1726226131954116000,1.7451162109375,-0.1262054443359375,1.082489013671875,-0.2591094970703125
1726226131964111000,1.755111083984375,-0.1636199951171875,1.1206512451171875,-0.1531219482421875
1726226131974104800,1.765104736328125,-0.2025604248046875,1.0547637939453125,-0.0277557373046875
1726226131984100000,1.77510009765625,-0.19500732421875,0.9792327880859375,0.093597412109375
1726226131994095000,1.78509521484375,-0.1730194091796875,0.9622039794921875,0.2410125732421875
1726226132004088800,1.7950888671875,-0.1136016845703125,0.9719696044921875,0.3668212890625
1726226132014084000,1.805083984375,-0.0063018798828125,0.9908447265625,0.46160888671875
1726226132024079000,1.8150791015625,0.263336181640625,0.9861907958984375,0.5355224609375
1726226132034072800,1.82507275390625,1.3974761962890625,1.019622802734375,0.77349853515625
1726226132044068000,1.835068115234375,1.6985321044921875,1.0501708984375,0.7559967041015625
1726226132054063000,1.84506298828125,0.937164306640625,0.976104736328125,0.572662353515625
1726226132064056800,1.855056884765625,0.453582763671875,0.8974456787109375,0.46856689453125
1726226132074052000,1.865052001953125,0.2102508544921875,0.820526123046875,0.3802642822265625
1726226132084045800,1.8750458984375,0.1327972412109375,0.7727508544921875,0.3258209228515625
1726226132094041000,1.885041015625,0.2208404541015625,0.771331787109375,0.3148345947265625
1726226132104036000,1.8950361328125,0.356109619140625,0.814910888671875,0.28985595703125
1726226132114029800,1.90502978515625,0.4337005615234375,0.855224609375,0.264495849609375
1726226132124025000,1.915025146484375,0.4300384521484375,0.8663177490234375,0.2103118896484375
1726226132134020000,1.92502001953125,0.3993377685546875,0.9205474853515625,0.298919677734375
1726226132144013800,1.935013916015625,0.3676910400390625,0.92755126953125,0.3099517822265625
1726226132154009000,1.945009033203125,0.29229736328125,0.907379150390625,0.2888336181640625
1726226132164004000,1.955004150390625,0.290618896484375,0.90167236328125,0.2930755615234375
1726226132173997800,1.964997802734375,0.2967376708984375,0.89190673828125,0.3100128173828125
1726226132183993000,1.9749931640625,0.2944183349609375,0.894256591796875,0.3200531005859375
1726226132193986800,1.98498681640625,0.296600341796875,0.9002685546875,0.319427490234375
1726226132203981800,1.99498193359375,0.310150146484375,0.909271240234375,0.336090087890625
1726226132213977000,2.00497705078125,0.318572998046875,0.9215850830078125,0.366729736328125
1726226132223970800,2.014970703125,0.31390380859375,0.924102783203125,0.36480712890625
1726226132233965800,2.0249658203125,0.305633544921875,0.912200927734375,0.3768768310546875
1726226132243961000,2.034961181640625,0.2849273681640625,0.9354095458984375,0.3959503173828125
1726226132253954800,2.044954833984375,0.28948974609375,0.96026611328125,0.37530517578125
1726226132263950000,2.0549501953125,0.2852630615234375,0.9346923828125,0.372711181640625
1726226132273943800,2.06494384765625,0.2978057861328125,0.9612579345703125,0.3802032470703125
1726226132283938800,2.074938720703125,0.3263092041015625,0.953094482421875,0.34930419921875
1726226132293934000,2.08493408203125,0.3407135009765625,0.9408416748046875,0.3362274169921875
1726226132303927800,2.094927734375,0.34716796875,0.9409942626953125,0.3163299560546875
1726226132313922800,2.1049228515625,0.3404083251953125,0.9298553466796875,0.30584716796875
1726226132323918000,2.11491796875,0.336395263671875,0.940521240234375,0.2894134521484375
1726226132333911800,2.124911865234375,0.3277435302734375,0.9404449462890625,0.2852935791015625
1726226132343906800,2.13490673828125,0.32794189453125,0.9407958984375,0.27020263671875
1726226132353900800,2.14490087890625,0.33203125,0.9300537109375,0.2743682861328125
1726226132363895800,2.154895751953125,0.3318634033203125,0.941314697265625,0.2893524169921875
1726226132373890800,2.164890869140625,0.330596923828125,0.95355224609375,0.30352783203125
1726226132383884800,2.174884765625,0.3294219970703125,0.9347381591796875,0.3185272216796875
1726226132393879800,2.1848798828125,0.3277740478515625,0.9137725830078125,0.334991455078125
1726226132403874800,2.194874755859375,0.3379974365234375,0.894805908203125,0.3510894775390625
1726226132413868800,2.204868896484375,0.3370361328125,0.8568878173828125,0.3533782958984375
1726226132423863800,2.21486376953125,0.326568603515625,0.811004638671875,0.362152099609375
1726226132433859000,2.224859130859375,0.3327484130859375,0.785675048828125,0.378387451171875
1726226132443852800,2.234852783203125,0.350982666015625,0.769989013671875,0.3884124755859375
1726226132453847800,2.244847900390625,0.3936920166015625,0.7606658935546875,0.381072998046875
1726226132463841800,2.254841796875,0.469635009765625,0.764312744140625,0.3665008544921875
1726226132473836800,2.2648369140625,0.512420654296875,0.7875213623046875,0.3824920654296875
1726226132483831800,2.274831787109375,0.5156402587890625,0.799530029296875,0.3974456787109375
1726226132493825800,2.28482568359375,0.50640869140625,0.81866455078125,0.4241943359375
1726226132503820800,2.29482080078125,0.5178985595703125,0.8300628662109375,0.4608612060546875
1726226132513815800,2.30481591796875,0.5050811767578125,0.80389404296875,0.495941162109375
1726226132523809800,2.314809814453125,0.4243316650390625,0.7630157470703125,0.48590087890625
1726226132533804800,2.3248046875,0.3620758056640625,0.721221923828125,0.4995574951171875
1726226132543799000,2.334799072265625,0.2892913818359375,0.702423095703125,0.494537353515625
1726226132553793800,2.344793701171875,0.232421875,0.7108612060546875,0.461334228515625
1726226132563788800,2.354788818359375,0.225555419921875,0.7412261962890625,0.41455078125
1726226132573783000,2.364782958984375,0.2628936767578125,0.7783966064453125,0.411895751953125
1726226132583777800,2.37477783203125,0.3647613525390625,0.8095245361328125,0.4030303955078125
1726226132593772800,2.384772705078125,0.4875335693359375,0.82476806640625,0.368865966796875
1726226132603767000,2.39476708984375,0.56787109375,0.82452392578125,0.3740692138671875
1726226132613761800,2.40476171875,0.5673065185546875,0.801971435546875,0.4136810302734375
1726226132623756000,2.414756103515625,0.50347900390625,0.7614898681640625,0.4259796142578125
1726226132633751000,2.4247509765625,0.41455078125,0.7248382568359375,0.4142303466796875
1726226132643745800,2.434745849609375,0.37347412109375,0.7256622314453125,0.4296112060546875
1726226132653740000,2.444739990234375,0.384765625,0.7490997314453125,0.463653564453125
1726226132663735000,2.454735107421875,0.4060516357421875,0.7799530029296875,0.51177978515625
1726226132673729800,2.464729736328125,0.42657470703125,0.79376220703125,0.562164306640625
1726226132683724000,2.47472412109375,0.445281982421875,0.7830657958984375,0.5826416015625
1726226132693718800,2.48471875,0.4679412841796875,0.757598876953125,0.58782958984375
1726226132703713000,2.494713134765625,0.5150909423828125,0.7303009033203125,0.601531982421875
1726226132713706000,2.5047060546875,0.567169189453125,0.709228515625,0.609771728515625
1726226132723701000,2.514700927734375,0.5961151123046875,0.6815338134765625,0.5843048095703125
1726226132733696000,2.524696044921875,0.5876007080078125,0.64202880859375,0.562530517578125
1726226132743690000,2.53468994140625,0.569305419921875,0.6113433837890625,0.551727294921875
1726226132753685000,2.54468505859375,0.54547119140625,0.586639404296875,0.557464599609375
1726226132763680000,2.554679931640625,0.5148162841796875,0.5803985595703125,0.58380126953125
1726226132773674000,2.564674072265625,0.502532958984375,0.5825653076171875,0.621826171875
1726226132783669000,2.5746689453125,0.521575927734375,0.5919342041015625,0.6413116455078125
1726226132793663000,2.5846630859375,0.5213470458984375,0.583984375,0.637420654296875
1726226132803658000,2.594657958984375,0.499359130859375,0.5714569091796875,0.607452392578125
1726226132813653000,2.604653076171875,0.500823974609375,0.5605926513671875,0.564361572265625
1726226132823647000,2.61464697265625,0.5257415771484375,0.562286376953125,0.5389251708984375
1726226132833642000,2.62464208984375,0.556365966796875,0.5968780517578125,0.5294036865234375
1726226132843637000,2.634636962890625,0.5701141357421875,0.6372528076171875,0.546630859375
1726226132853631000,2.644630859375,0.611175537109375,0.69793701171875,0.5517730712890625
1726226132863626000,2.6546259765625,0.654449462890625,0.7205657958984375,0.5939788818359375
1726226132873620000,2.664619873046875,0.707061767578125,0.7471923828125,0.6341400146484375
1726226132883615000,2.674614990234375,0.7017974853515625,0.744293212890625,0.6675872802734375
1726226132893610000,2.68460986328125,0.647705078125,0.709197998046875,0.66497802734375
1726226132903604000,2.69460400390625,0.5965576171875,0.6976470947265625,0.6394805908203125
1726226132913599000,2.704598876953125,0.578643798828125,0.6775360107421875,0.6059417724609375
1726226132923594000,2.714593994140625,0.5980224609375,0.6703338623046875,0.582550048828125
1726226132933588000,2.724587890625,0.612579345703125,0.6522064208984375,0.51800537109375
1726226132943583000,2.7345830078125,0.6208038330078125,0.6545562744140625,0.470733642578125
1726226132953577000,2.744576904296875,0.603912353515625,0.6488037109375,0.4372100830078125
1726226132963572000,2.754572021484375,0.58056640625,0.6514129638671875,0.41876220703125
1726226132973567000,2.76456689453125,0.56488037109375,0.661895751953125,0.429229736328125
1726226132983561000,2.77456103515625,0.543975830078125,0.6645660400390625,0.424468994140625
1726226132993556000,2.784555908203125,0.5308685302734375,0.663604736328125,0.415802001953125
1726226133003551000,2.794551025390625,0.528533935546875,0.667816162109375,0.403289794921875
1726226133013545000,2.804544921875,0.5335845947265625,0.6641082763671875,0.3788604736328125
1726226133023540000,2.8145400390625,0.52740478515625,0.668670654296875,0.381317138671875
1726226133033534000,2.824533935546875,0.516204833984375,0.670318603515625,0.391357421875
1726226133043529000,2.834529052734375,0.515869140625,0.662628173828125,0.38861083984375
1726226133053524000,2.84452392578125,0.5186920166015625,0.6602020263671875,0.3880157470703125
1726226133063518000,2.85451806640625,0.548370361328125,0.6914825439453125,0.3845367431640625
1726226133073513000,2.864512939453125,0.58453369140625,0.7186431884765625,0.4122772216796875
1726226133083507000,2.8745068359375,0.6034393310546875,0.733795166015625,0.4404296875
1726226133093502000,2.884501953125,0.6218109130859375,0.7261962890625,0.4503936767578125
1726226133103497000,2.8944970703125,0.6313323974609375,0.702972412109375,0.4402313232421875
1726226133113491000,2.904490966796875,0.6098785400390625,0.6546783447265625,0.4234466552734375
1726226133123486000,2.91448583984375,0.57452392578125,0.63525390625,0.44793701171875
1726226133133481000,2.92448095703125,0.5227203369140625,0.622314453125,0.4688568115234375
1726226133143475000,2.934474853515625,0.4519195556640625,0.6174468994140625,0.4719696044921875
1726226133153470000,2.944469970703125,0.389373779296875,0.6226348876953125,0.48077392578125
1726226133163464200,2.954464111328125,0.3514251708984375,0.641204833984375,0.481719970703125
1726226133173459000,2.964458984375,0.34442138671875,0.6816558837890625,0.4758758544921875
1726226133183454000,2.974453857421875,0.366668701171875,0.734161376953125,0.46978759765625
1726226133193448200,2.9844482421875,0.4028472900390625,0.80401611328125,0.462646484375
1726226133203443000,2.99444287109375,0.44049072265625,0.8362579345703125,0.431396484375
1726226133213438000,3.00443798828125,0.4757843017578125,0.8182525634765625,0.4031524658203125
1726226133223432200,3.01443212890625,0.4840087890625,0.7635040283203125,0.3269500732421875
1726226133233427000,3.024427001953125,0.4807281494140625,0.7097320556640625,0.260772705078125
1726226133243421200,3.034421142578125,0.47479248046875,0.691741943359375,0.22607421875
1726226133253416000,3.044416015625,0.48370361328125,0.6821441650390625,0.21002197265625
1726226133263411000,3.054410888671875,0.498077392578125,0.7137451171875,0.2277374267578125
1726226133273405200,3.0644052734375,0.509307861328125,0.7557525634765625,0.237060546875
1726226133283400000,3.07439990234375,0.5073089599609375,0.8017578125,0.251190185546875
1726226133293395000,3.08439501953125,0.5077362060546875,0.8533172607421875,0.276580810546875
1726226133303389200,3.09438916015625,0.5201263427734375,0.90570068359375,0.305694580078125
1726226133313384000,3.104384033203125,0.550201416015625,0.954071044921875,0.355804443359375
1726226133323378200,3.114378173828125,0.6029052734375,0.977874755859375,0.4185791015625
1726226133333373200,3.124373291015625,0.65948486328125,0.946990966796875,0.4718475341796875
1726226133343368000,3.134367919921875,0.6598663330078125,0.882476806640625,0.5035247802734375
1726226133353362200,3.144362060546875,0.6265869140625,0.8278961181640625,0.497100830078125
1726226133363357200,3.154357177734375,0.6206512451171875,0.800262451171875,0.4709930419921875
1726226133373351200,3.16435107421875,0.6457366943359375,0.787017822265625,0.452178955078125
1726226133383346200,3.17434619140625,0.654388427734375,0.7212982177734375,0.45611572265625
1726226133393341200,3.184341064453125,0.6171112060546875,0.6343536376953125,0.4491424560546875
1726226133403335200,3.194335205078125,0.55242919921875,0.5845947265625,0.4452972412109375
1726226133413330200,3.204330078125,0.495147705078125,0.5623779296875,0.4827880859375
1726226133423325200,3.2143251953125,0.44158935546875,0.5584716796875,0.546478271484375
1726226133433319200,3.224319091796875,0.38043212890625,0.559173583984375,0.609710693359375
1726226133443314200,3.234314208984375,0.3188018798828125,0.560028076171875,0.6635894775390625
1726226133453308200,3.24430810546875,0.2640380859375,0.5690765380859375,0.6956787109375
1726226133463303200,3.25430322265625,0.2328643798828125,0.580718994140625,0.7394561767578125
1726226133473298200,3.264298095703125,0.2275543212890625,0.5748443603515625,0.7220306396484375
1726226133483292200,3.274292236328125,0.246002197265625,0.5472564697265625,0.6676025390625
1726226133493287200,3.284287109375,0.2849273681640625,0.506103515625,0.5860443115234375
1726226133503282200,3.2942822265625,0.3167877197265625,0.4676055908203125,0.468292236328125
1726226133513276200,3.304276123046875,0.3359375,0.458465576171875,0.378662109375
1726226133523271200,3.314271240234375,0.3542633056640625,0.491607666015625,0.334075927734375
1726226133533265000,3.324264892578125,0.3625030517578125,0.55340576171875,0.3266754150390625
1726226133543260200,3.33426025390625,0.3541717529296875,0.6147918701171875,0.3388671875
1726226133553255200,3.344255126953125,0.33453369140625,0.6828460693359375,0.3655853271484375
1726226133563249000,3.354248779296875,0.3111419677734375,0.7599334716796875,0.4012603759765625
1726226133573244200,3.364244140625,0.2856597900390625,0.8289947509765625,0.408416748046875
1726226133583238000,3.37423779296875,0.2584381103515625,0.87335205078125,0.400299072265625
1726226133593233200,3.384233154296875,0.2473907470703125,0.90582275390625,0.398590087890625
1726226133603228200,3.394228271484375,0.2588043212890625,0.907958984375,0.395416259765625
1726226133613222000,3.404221923828125,0.283721923828125,0.891082763671875,0.39862060546875
1726226133623217200,3.414217041015625,0.3088226318359375,0.9058380126953125,0.368560791015625
1726226133633212200,3.424212158203125,0.3242645263671875,0.9969024658203125,0.317962646484375
1726226133643206000,3.434205810546875,0.3717193603515625,1.157745361328125,0.3144989013671875
1726226133653201200,3.444201171875,0.4701385498046875,1.2430419921875,0.4365081787109375
1726226133663195000,3.45419482421875,0.5222625732421875,1.169921875,0.6449432373046875
1726226133673190000,3.46418994140625,0.5226898193359375,1.094696044921875,0.8610076904296875
1726226133683185200,3.47418505859375,0.510650634765625,1.0104522705078125,0.9722137451171875
1726226133693179000,3.484178955078125,0.4809112548828125,0.8986053466796875,0.911102294921875
1726226133703174000,3.494173828125,0.4310150146484375,0.7804412841796875,0.81036376953125
1726226133713168100,3.504168212890625,0.4019927978515625,0.686614990234375,0.69464111328125
1726226133723163100,3.5141630859375,0.407073974609375,0.64764404296875,0.6019439697265625
1726226133733158400,3.524158447265625,0.4029388427734375,0.6337127685546875,0.5139617919921875
1726226133743152000,3.534152099609375,0.388397216796875,0.61920166015625,0.4579925537109375
1726226133753147100,3.544147216796875,0.3832855224609375,0.6298675537109375,0.412322998046875
1726226133763142400,3.554142333984375,0.3953094482421875,0.66241455078125,0.424163818359375
1726226133773136100,3.56413623046875,0.3912811279296875,0.7111358642578125,0.45263671875
1726226133783131100,3.574131103515625,0.3599395751953125,0.798614501953125,0.4764251708984375
1726226133793125000,3.584125,0.292205810546875,0.8865509033203125,0.53668212890625
1726226133803120000,3.5941201171875,0.2299346923828125,0.8903045654296875,0.5867919921875
1726226133813115400,3.604115478515625,0.191436767578125,0.8428802490234375,0.611663818359375
1726226133823109000,3.614109130859375,0.1669921875,0.8141021728515625,0.645233154296875
1726226133833104100,3.624104248046875,0.1509552001953125,0.8203125,0.6760101318359375
1726226133843098000,3.63409814453125,0.135406494140625,0.83306884765625,0.6881561279296875
1726226133853093000,3.644093017578125,0.1312408447265625,0.839447021484375,0.6829986572265625
1726226133863088000,3.654088134765625,0.1325225830078125,0.849578857421875,0.6696319580078125
1726226133873082000,3.66408203125,0.1264801025390625,0.84454345703125,0.65802001953125
1726226133883077000,3.6740771484375,0.1175079345703125,0.82763671875,0.64373779296875
1726226133893072100,3.684072021484375,0.10858154296875,0.8135223388671875,0.6248016357421875
1726226133903066000,3.694066162109375,0.0990753173828125,0.818695068359375,0.5800933837890625
1726226133913061000,3.70406103515625,0.09112548828125,0.8253021240234375,0.53936767578125
1726226133923055000,3.71405517578125,0.0994720458984375,0.8571624755859375,0.51141357421875
1726226133933050000,3.724050048828125,0.122161865234375,0.8956298828125,0.478546142578125
1726226133943045000,3.734045166015625,0.1491851806640625,0.9186859130859375,0.4275665283203125
1726226133953039000,3.7440390625,0.175018310546875,0.93280029296875,0.3875579833984375
1726226133963034000,3.7540341796875,0.1954498291015625,0.9452056884765625,0.370147705078125
1726226133973028000,3.764028076171875,0.2135009765625,0.93829345703125,0.364776611328125
1726226133983023000,3.774023193359375,0.2276153564453125,0.919952392578125,0.4032745361328125
1726226133993018000,3.78401806640625,0.243988037109375,0.901519775390625,0.4510345458984375
1726226134003012000,3.79401220703125,0.2564697265625,0.9114227294921875,0.52593994140625
1726226134013007000,3.804007080078125,0.2520599365234375,0.9276123046875,0.6077117919921875
1726226134023002000,3.814002197265625,0.2418365478515625,0.9295654296875,0.6669464111328125
1726226134032996000,3.82399609375,0.231414794921875,0.9155731201171875,0.698028564453125
1726226134042991000,3.8339912109375,0.2123870849609375,0.899871826171875,0.7353363037109375
1726226134052985000,3.843985107421875,0.205322265625,0.863677978515625,0.765960693359375
1726226134062980000,3.85397998046875,0.20361328125,0.8389434814453125,0.7868804931640625
1726226134072975000,3.86397509765625,0.190093994140625,0.820892333984375,0.8117523193359375
1726226134082969000,3.873968994140625,0.1656951904296875,0.7886810302734375,0.8109130859375
1726226134092964000,3.883964111328125,0.1239776611328125,0.7479400634765625,0.804595947265625
1726226134102958000,3.8939580078125,0.0943756103515625,0.69293212890625,0.7722625732421875
1726226134112953000,3.903953125,0.0887298583984375,0.6468963623046875,0.78338623046875
1726226134122948000,3.913947998046875,0.09564208984375,0.6297607421875,0.801910400390625
1726226134132942000,3.923942138671875,0.11138916015625,0.627197265625,0.81158447265625
1726226134142937000,3.93393701171875,0.1149139404296875,0.6351165771484375,0.8179779052734375
1726226134152931300,3.943931396484375,0.103485107421875,0.6260833740234375,0.8167724609375
1726226134162926000,3.953926025390625,0.08892822265625,0.616973876953125,0.798370361328125
1726226134172921000,3.963921142578125,0.0738067626953125,0.6225433349609375,0.79638671875
1726226134182915300,3.973915283203125,0.05181884765625,0.632293701171875,0.8050689697265625
1726226134192910000,3.98391015625,0.0356903076171875,0.6509552001953125,0.826324462890625
1726226134202905000,3.993905029296875,0.0203857421875,0.6668243408203125,0.861663818359375
1726226134212899300,4.0038994140625,0.0102691650390625,0.667022705078125,0.8909149169921875
1726226134222894000,4.01389404296875,0.0113067626953125,0.64532470703125,0.8779144287109375
1726226134232888300,4.023888427734375,0.0196075439453125,0.627655029296875,0.8521270751953125
1726226134242883300,4.03388330078125,0.021697998046875,0.60302734375,0.810821533203125
1726226134252878000,4.043878173828125,0.02557373046875,0.5973052978515625,0.7669219970703125
1726226134262872300,4.053872314453125,0.0369873046875,0.613555908203125,0.729339599609375
1726226134272867300,4.063867431640625,0.0540008544921875,0.6436614990234375,0.7014923095703125
1726226134282861300,4.073861328125,0.0789794921875,0.6876373291015625,0.678558349609375
1726226134292856300,4.083856201171875,0.098724365234375,0.7308197021484375,0.66253662109375
1726226134302851300,4.093851318359375,0.1152191162109375,0.7679290771484375,0.6456451416015625
1726226134312845300,4.10384521484375,0.1250457763671875,0.7946929931640625,0.6265106201171875
1726226134322840300,4.11384033203125,0.1327667236328125,0.81109619140625,0.6009674072265625
1726226134332834300,4.123834228515625,0.133514404296875,0.814544677734375,0.57513427734375
1726226134342829300,4.133829345703125,0.1307830810546875,0.8176422119140625,0.5692901611328125
1726226134352824300,4.14382421875,0.1184844970703125,0.800933837890625,0.53692626953125
1726226134362818300,4.153818359375,0.115264892578125,0.7993316650390625,0.5321197509765625
1726226134372813300,4.163813232421875,0.1194305419921875,0.7836761474609375,0.532440185546875
1726226134382808300,4.173808349609375,0.1183624267578125,0.7646026611328125,0.54364013671875
1726226134392802300,4.18380224609375,0.1119384765625,0.753631591796875,0.5558929443359375
1726226134402797300,4.19379736328125,0.1035308837890625,0.7501068115234375,0.5757598876953125
1726226134412791300,4.203791259765625,0.100677490234375,0.766845703125,0.6333465576171875
1726226134422786300,4.213786376953125,0.1085205078125,0.777130126953125,0.7113494873046875
1726226134432781300,4.22378125,0.1197357177734375,0.7983551025390625,0.729278564453125
1726226134442775300,4.233775390625,0.129486083984375,0.8220977783203125,0.720611572265625
1726226134452770300,4.243770263671875,0.13043212890625,0.8582916259765625,0.72674560546875
1726226134462764300,4.253764404296875,0.132537841796875,0.883331298828125,0.7286834716796875
1726226134472759300,4.26375927734375,0.1316070556640625,0.8892822265625,0.7270050048828125
1726226134482754300,4.27375439453125,0.1325836181640625,0.87457275390625,0.72021484375
1726226134492748300,4.283748291015625,0.1343994140625,0.8614349365234375,0.7175445556640625
1726226134502743300,4.293743408203125,0.1328582763671875,0.8428497314453125,0.70745849609375
1726226134512737300,4.3037373046875,0.1286773681640625,0.8174896240234375,0.7070770263671875
1726226134522732300,4.313732177734375,0.117919921875,0.7928924560546875,0.7194976806640625
1726226134532727300,4.323727294921875,0.1009521484375,0.752288818359375,0.70465087890625
1726226134542721300,4.33372119140625,0.0823516845703125,0.6998443603515625,0.6772613525390625
1726226134552716300,4.34371630859375,0.0717010498046875,0.6498565673828125,0.65283203125
1726226134562711300,4.353711181640625,0.0703277587890625,0.603729248046875,0.6101531982421875
1726226134572705300,4.363705322265625,0.0750885009765625,0.570587158203125,0.5759735107421875
1726226134582700300,4.3737001953125,0.0884552001953125,0.5643157958984375,0.55682373046875
1726226134592694300,4.3836943359375,0.101287841796875,0.57061767578125,0.542236328125
1726226134602689300,4.393689208984375,0.118316650390625,0.5793304443359375,0.5113525390625
1726226134612684300,4.403684326171875,0.1409149169921875,0.6029052734375,0.5044708251953125
1726226134622678300,4.41367822265625,0.1584930419921875,0.6316986083984375,0.5061187744140625
1726226134632673300,4.42367333984375,0.1659393310546875,0.6628265380859375,0.5117645263671875
1726226134642667300,4.433667236328125,0.1627655029296875,0.694183349609375,0.5247650146484375
1726226134652662300,4.443662353515625,0.149932861328125,0.7162322998046875,0.531890869140625
1726226134662657300,4.4536572265625,0.1405792236328125,0.7335205078125,0.5271759033203125
1726226134672651300,4.4636513671875,0.126556396484375,0.75335693359375,0.54095458984375
1726226134682646300,4.473646240234375,0.1032562255859375,0.7780303955078125,0.57830810546875
1726226134692640300,4.48364013671875,0.0914306640625,0.816253662109375,0.6352691650390625
1726226134702635300,4.49363525390625,0.0814971923828125,0.8401641845703125,0.6774444580078125
1726226134712630300,4.50363037109375,0.0700531005859375,0.849212646484375,0.7111968994140625
1726226134722623500,4.51362353515625,0.0587158203125,0.85009765625,0.75152587890625
1726226134732618500,4.523618408203125,0.043701171875,0.82476806640625,0.772552490234375
1726226134742613500,4.533613525390625,0.0328521728515625,0.8020477294921875,0.7773284912109375
1726226134752607500,4.543607421875,0.0335693359375,0.798583984375,0.7812042236328125
1726226134762602500,4.5536025390625,0.0388336181640625,0.7977447509765625,0.77703857421875
1726226134772596500,4.563596435546875,0.0650787353515625,0.7990875244140625,0.7602386474609375
1726226134782591500,4.573591552734375,0.108978271484375,0.81488037109375,0.749542236328125
1726226134792586500,4.58358642578125,0.158477783203125,0.8336029052734375,0.745513916015625
1726226134802580500,4.59358056640625,0.1892852783203125,0.8272705078125,0.716583251953125
1726226134812575500,4.603575439453125,0.20458984375,0.8038787841796875,0.670074462890625
1726226134822569700,4.61356982421875,0.208038330078125,0.78564453125,0.6271209716796875
1726226134832564500,4.623564453125,0.2044830322265625,0.7756195068359375,0.5916900634765625
1726226134842559500,4.6335595703125,0.2028045654296875,0.7838592529296875,0.5778961181640625
1726226134852553700,4.6435537109375,0.2000732421875,0.79486083984375,0.5702972412109375
1726226134862548500,4.653548583984375,0.1990509033203125,0.78656005859375,0.5542144775390625
1726226134872542700,4.663542724609375,0.19512939453125,0.77569580078125,0.5445404052734375
1726226134882537700,4.673537841796875,0.1810760498046875,0.7689208984375,0.53619384765625
1726226134892532500,4.683532470703125,0.158416748046875,0.772003173828125,0.5480194091796875
1726226134902526700,4.693526611328125,0.1232757568359375,0.7832489013671875,0.5712127685546875
1726226134912521700,4.703521728515625,0.0915985107421875,0.794403076171875,0.6041259765625
1726226134922515700,4.713515625,0.066497802734375,0.8027801513671875,0.6414031982421875
1726226134932510700,4.7235107421875,0.046600341796875,0.791046142578125,0.666046142578125
1726226134942505500,4.73350537109375,0.032989501953125,0.7715911865234375,0.6771240234375
1726226134952499700,4.743499755859375,0.0179290771484375,0.7482757568359375,0.676116943359375
1726226134962494700,4.75349462890625,0.0072479248046875,0.734283447265625,0.677032470703125
1726226134972489500,4.763489501953125,0.0032958984375,0.74102783203125,0.686004638671875
1726226134982483700,4.773483642578125,0.011871337890625,0.7529449462890625,0.699249267578125
1726226134992478700,4.783478759765625,0.0298919677734375,0.7599945068359375,0.7132720947265625
1726226135002472700,4.79347265625,0.0573577880859375,0.77337646484375,0.719146728515625
1726226135012467700,4.8034677734375,0.086273193359375,0.7839202880859375,0.714019775390625
1726226135022462700,4.813462646484375,0.111419677734375,0.790252685546875,0.7098388671875
1726226135032456700,4.823456787109375,0.1401519775390625,0.797943115234375,0.696563720703125
1726226135042451700,4.83345166015625,0.16168212890625,0.8061981201171875,0.677764892578125
1726226135052445700,4.84344580078125,0.1869659423828125,0.8211517333984375,0.66363525390625
1726226135062440700,4.853440673828125,0.212677001953125,0.841156005859375,0.65814208984375
1726226135072435700,4.863435791015625,0.2310028076171875,0.849090576171875,0.6465301513671875
1726226135082429700,4.8734296875,0.24615478515625,0.8502197265625,0.6237030029296875
1726226135092424700,4.8834248046875,0.2454376220703125,0.8384857177734375,0.6035614013671875
1726226135102418700,4.893418701171875,0.2377777099609375,0.8267059326171875,0.5872039794921875
1726226135112413700,4.90341357421875,0.2357330322265625,0.837738037109375,0.597259521484375
1726226135122408700,4.91340869140625,0.22882080078125,0.870635986328125,0.622406005859375
1726226135132402700,4.923402587890625,0.213226318359375,0.8980560302734375,0.65692138671875
1726226135142397700,4.933397705078125,0.181854248046875,0.9011688232421875,0.6752471923828125
1726226135152391700,4.9433916015625,0.1381072998046875,0.8683013916015625,0.664459228515625
1726226135162386700,4.95338671875,0.1010589599609375,0.8282928466796875,0.6483154296875
1726226135172381700,4.963381591796875,0.078094482421875,0.8099517822265625,0.63861083984375
1726226135182375700,4.973375732421875,0.078369140625,0.8084716796875,0.638671875
1726226135192370700,4.98337060546875,0.089569091796875,0.8094329833984375,0.646881103515625
1726226135202364700,4.99336474609375,0.1070709228515625,0.7932281494140625,0.6358184814453125
1726226135212359700,5.003359619140625,0.1221466064453125,0.7702178955078125,0.62451171875
1726226135222354700,5.013354736328125,0.1384735107421875,0.750457763671875,0.6133880615234375
1726226135232348700,5.0233486328125,0.1695404052734375,0.7851104736328125,0.628143310546875
1726226135242343700,5.03334375,0.200927734375,0.8430633544921875,0.6639556884765625
1726226135252338700,5.043338623046875,0.2168121337890625,0.8463592529296875,0.67608642578125
1726226135262332700,5.053332763671875,0.2178802490234375,0.8050994873046875,0.659271240234375
1726226135272327700,5.06332763671875,0.2079315185546875,0.746185302734375,0.6096649169921875
1726226135282321700,5.07332177734375,0.1990203857421875,0.7062530517578125,0.5454254150390625
1726226135292316700,5.083316650390625,0.1944732666015625,0.67706298828125,0.4830780029296875
1726226135302311700,5.093311767578125,0.1967315673828125,0.66998291015625,0.4424591064453125
1726226135312305700,5.1033056640625,0.2189483642578125,0.6893768310546875,0.42919921875
1726226135322300700,5.11330078125,0.2505950927734375,0.7224273681640625,0.4490814208984375
1726226135332294700,5.123294677734375,0.2709503173828125,0.75396728515625,0.478973388671875
1726226135342289700,5.13328955078125,0.268798828125,0.7794952392578125,0.4981689453125
1726226135352284700,5.14328466796875,0.2420501708984375,0.786376953125,0.495941162109375
1726226135362278700,5.153278564453125,0.1934051513671875,0.771331787109375,0.4866485595703125
1726226135372273700,5.163273681640625,0.1459808349609375,0.770904541015625,0.49761962890625
1726226135382267600,5.173267578125,0.1178436279296875,0.78179931640625,0.5145263671875
1726226135392262700,5.1832626953125,0.10089111328125,0.79119873046875,0.5172119140625
1726226135402257700,5.193257568359375,0.0870513916015625,0.798828125,0.524810791015625
1726226135412251600,5.203251708984375,0.082550048828125,0.7940216064453125,0.526275634765625
1726226135422246700,5.21324658203125,0.080078125,0.7710418701171875,0.510162353515625
1726226135432240600,5.22324072265625,0.08880615234375,0.74517822265625,0.4893951416015625
1726226135442235600,5.233235595703125,0.10943603515625,0.7420654296875,0.476104736328125
1726226135452230700,5.243230712890625,0.1301727294921875,0.7491607666015625,0.4781646728515625
1726226135462224600,5.253224609375,0.132354736328125,0.75494384765625,0.4791412353515625
1726226135472219600,5.2632197265625,0.1341705322265625,0.7432098388671875,0.46795654296875
1726226135482213600,5.273213623046875,0.1274261474609375,0.71978759765625,0.4628753662109375
1726226135492208600,5.283208740234375,0.1139984130859375,0.689361572265625,0.4573822021484375
1726226135502203600,5.29320361328125,0.1013031005859375,0.66583251953125,0.465118408203125
1726226135512197600,5.30319775390625,0.0939483642578125,0.668060302734375,0.499176025390625
1726226135522192600,5.313192626953125,0.091094970703125,0.6949310302734375,0.5559844970703125
1726226135532186600,5.3231865234375,0.082672119140625,0.719329833984375,0.6168365478515625
1726226135542181600,5.333181640625,0.0661468505859375,0.725921630859375,0.6562042236328125
1726226135552176600,5.3431767578125,0.04351806640625,0.707122802734375,0.664520263671875
1726226135562170600,5.353170654296875,0.0313568115234375,0.6831207275390625,0.6678009033203125
1726226135572165600,5.36316552734375,0.033935546875,0.6582183837890625,0.6834564208984375
1726226135582160600,5.37316064453125,0.04656982421875,0.626922607421875,0.6938629150390625
1726226135592154600,5.383154541015625,0.0754241943359375,0.6121826171875,0.7006378173828125
1726226135602149600,5.393149658203125,0.13104248046875,0.6396484375,0.7111663818359375
1726226135612143600,5.4031435546875,0.2061767578125,0.68548583984375,0.7384185791015625
1726226135622138600,5.413138671875,0.3398284912109375,0.721923828125,0.716552734375
1726226135632133600,5.423133544921875,0.9705047607421875,0.806915283203125,0.529449462890625
1726226135642127600,5.433127685546875,1.208740234375,0.8343505859375,0.5174407958984375
1726226135652122600,5.44312255859375,0.7575225830078125,0.7790679931640625,0.630889892578125
1726226135662116600,5.45311669921875,0.5068359375,0.7381439208984375,0.666839599609375
1726226135672111600,5.463111572265625,0.33526611328125,0.7055206298828125,0.6688995361328125
1726226135682106600,5.473106689453125,0.2960052490234375,0.7483978271484375,0.643829345703125
1726226135692100600,5.4831005859375,0.336029052734375,0.8108978271484375,0.621856689453125
1726226135702095600,5.493095703125,0.390411376953125,0.835052490234375,0.6082611083984375
1726226135712089600,5.503089599609375,0.4235992431640625,0.8409423828125,0.5879058837890625
1726226135722086700,5.513086669921875,0.4061279296875,0.8353271484375,0.559814453125
1726226135732081700,5.52308154296875,0.3674468994140625,0.813140869140625,0.5557861328125
1726226135742075600,5.53307568359375,0.315338134765625,0.77008056640625,0.5583343505859375
1726226135752070700,5.543070556640625,0.2705535888671875,0.752105712890625,0.575836181640625
1726226135762064600,5.553064697265625,0.2395172119140625,0.7504425048828125,0.60595703125
1726226135772059600,5.5630595703125,0.224334716796875,0.7408599853515625,0.6454925537109375
1726226135782054700,5.5730546875,0.22064208984375,0.7374267578125,0.681732177734375
1726226135792048600,5.583048583984375,0.202972412109375,0.7249298095703125,0.6950836181640625
1726226135802043600,5.593043701171875,0.185882568359375,0.7138214111328125,0.698760986328125
1726226135812037600,5.60303759765625,0.1844024658203125,0.71588134765625,0.7154388427734375
1726226135822032600,5.61303271484375,0.1922454833984375,0.724517822265625,0.7508544921875
1726226135832027600,5.623027587890625,0.2139129638671875,0.736297607421875,0.789947509765625
1726226135842021600,5.633021728515625,0.239898681640625,0.7475128173828125,0.8231658935546875
1726226135852016600,5.6430166015625,0.26458740234375,0.7351531982421875,0.832916259765625
1726226135862010600,5.6530107421875,0.2832794189453125,0.7005615234375,0.8151092529296875
1726226135872005600,5.663005615234375,0.3039398193359375,0.663177490234375,0.7708282470703125
1726226135882000600,5.673000732421875,0.313568115234375,0.6322021484375,0.7153778076171875
1726226135891994600,5.68299462890625,0.330810546875,0.6537628173828125,0.70855712890625
1726226135901989600,5.69298974609375,0.3424530029296875,0.711578369140625,0.7149810791015625
1726226135911983600,5.702983642578125,0.338226318359375,0.753753662109375,0.693084716796875
1726226135921978600,5.712978515625,0.3029632568359375,0.7577362060546875,0.660186767578125
1726226135931973600,5.7229736328125,0.244537353515625,0.7311553955078125,0.6283416748046875
1726226135941967600,5.732967529296875,0.2035980224609375,0.7211456298828125,0.5998382568359375
1726226135951962600,5.742962646484375,0.17437744140625,0.72833251953125,0.578338623046875
1726226135961957600,5.75295751953125,0.1576080322265625,0.74072265625,0.5728607177734375
1726226135971951600,5.76295166015625,0.1538238525390625,0.760162353515625,0.5721893310546875
1726226135981946600,5.772946533203125,0.15228271484375,0.7750396728515625,0.562286376953125
1726226135991940900,5.78294091796875,0.13397216796875,0.7644500732421875,0.5459136962890625
1726226136001935600,5.792935546875,0.120086669921875,0.7589263916015625,0.5360870361328125
1726226136011930600,5.8029306640625,0.115692138671875,0.770263671875,0.54498291015625
1726226136021924600,5.812924560546875,0.1093597412109375,0.7889556884765625,0.5630645751953125
1726226136031919600,5.822919677734375,0.1112213134765625,0.8112335205078125,0.5827484130859375
1726226136041913900,5.832913818359375,0.1291046142578125,0.845977783203125,0.609283447265625
1726226136051908600,5.84290869140625,0.143218994140625,0.84771728515625,0.617645263671875
1726226136061903600,5.852903564453125,0.1492767333984375,0.813232421875,0.6103973388671875
1726226136071897900,5.86289794921875,0.1747283935546875,0.819244384765625,0.6319122314453125
1726226136081892600,5.872892578125,0.216064453125,0.848541259765625,0.6645660400390625
1726226136091886800,5.882886962890625,0.2651519775390625,0.8715362548828125,0.69024658203125
1726226136101881900,5.8928818359375,0.3175811767578125,0.875518798828125,0.7044219970703125
1726226136111876600,5.902876708984375,0.349517822265625,0.8379669189453125,0.6990509033203125
1726226136121870800,5.912870849609375,0.370574951171875,0.77471923828125,0.681640625
1726226136131865900,5.922865966796875,0.3919677734375,0.7134246826171875,0.657501220703125
1726226136141859800,5.93285986328125,0.4129638671875,0.6753692626953125,0.6420440673828125
1726226136151854800,5.942854736328125,0.44378662109375,0.65380859375,0.6372528076171875
1726226136161849900,5.952849853515625,0.48248291015625,0.6408843994140625,0.625946044921875
1726226136171843800,5.96284375,0.50775146484375,0.6131134033203125,0.6082000732421875
1726226136181838800,5.9728388671875,0.492401123046875,0.5661163330078125,0.579803466796875
1726226136191832600,5.98283251953125,0.4430694580078125,0.5226287841796875,0.5384979248046875
1726226136201827800,5.992827880859375,0.39117431640625,0.497314453125,0.505279541015625
1726226136211822800,6.00282275390625,0.36883544921875,0.49859619140625,0.478973388671875
1726226136221816600,6.012816650390625,0.3731842041015625,0.5198516845703125,0.466827392578125
1726226136231811800,6.022811767578125,0.38897705078125,0.5455780029296875,0.4739532470703125
1726226136241805600,6.0328056640625,0.4041900634765625,0.5703887939453125,0.495208740234375
1726226136251800800,6.04280078125,0.384735107421875,0.5586395263671875,0.494232177734375
1726226136261795800,6.0527958984375,0.3686370849609375,0.5490875244140625,0.4747314453125
1726226136271789600,6.06278955078125,0.37823486328125,0.57391357421875,0.4813232421875
1726226136281784800,6.072784912109375,0.39422607421875,0.6120452880859375,0.5011444091796875
1726226136291778600,6.082778564453125,0.425811767578125,0.6778106689453125,0.52777099609375
1726226136301773600,6.092773681640625,0.4628143310546875,0.7344512939453125,0.5377960205078125
1726226136311768800,6.102768798828125,0.466644287109375,0.753509521484375,0.5310516357421875
1726226136321762600,6.112762451171875,0.4526824951171875,0.760528564453125,0.5270843505859375
1726226136331757600,6.122757568359375,0.442901611328125,0.7801513671875,0.544647216796875
1726226136341751600,6.13275146484375,0.434967041015625,0.802032470703125,0.56719970703125
1726226136351746600,6.14274658203125,0.4183197021484375,0.824737548828125,0.6035614013671875
1726226136361741600,6.152741455078125,0.412872314453125,0.86553955078125,0.65618896484375
1726226136371735600,6.162735595703125,0.405029296875,0.8938751220703125,0.707061767578125
1726226136381730600,6.17273046875,0.38299560546875,0.89447021484375,0.7316131591796875
1726226136391724500,6.182724609375,0.3634033203125,0.907135009765625,0.7657928466796875
1726226136401719600,6.192719482421875,0.3503875732421875,0.9284210205078125,0.8022918701171875
1726226136411714600,6.202714599609375,0.3350982666015625,0.936065673828125,0.83660888671875
1726226136421708500,6.21270849609375,0.3172149658203125,0.9187774658203125,0.86041259765625
1726226136431703600,6.22270361328125,0.2982177734375,0.87835693359375,0.858673095703125
1726226136441698600,6.232698486328125,0.29931640625,0.84063720703125,0.84161376953125
1726226136451692500,6.242692626953125,0.3197174072265625,0.7957916259765625,0.821624755859375
1726226136461687600,6.2526875,0.3403778076171875,0.7415008544921875,0.773712158203125
1726226136471681500,6.262681640625,0.3662261962890625,0.7057037353515625,0.7261810302734375
1726226136481676500,6.272676513671875,0.3929595947265625,0.6712799072265625,0.683441162109375
1726226136491671600,6.282671630859375,0.4300994873046875,0.6454315185546875,0.652679443359375
1726226136501665500,6.29266552734375,0.45452880859375,0.6244659423828125,0.6241302490234375
1726226136511660500,6.30266064453125,0.47723388671875,0.60552978515625,0.58746337890625
1726226136521654500,6.312654541015625,0.4876708984375,0.58837890625,0.575531005859375
1726226136531649500,6.3226494140625,0.484893798828125,0.56719970703125,0.539276123046875
1726226136541644500,6.33264453125,0.4789276123046875,0.5443572998046875,0.49981689453125
1726226136551638500,6.342638427734375,0.4724578857421875,0.534393310546875,0.453216552734375
1726226136561633500,6.352633544921875,0.46697998046875,0.54742431640625,0.4388580322265625
1726226136571627500,6.36262744140625,0.445953369140625,0.5538482666015625,0.4546051025390625
1726226136581622500,6.37262255859375,0.4178009033203125,0.5534820556640625,0.4607696533203125
1726226136591617500,6.382617431640625,0.4034576416015625,0.573455810546875,0.4824066162109375
1726226136601611500,6.392611572265625,0.39398193359375,0.59600830078125,0.5045928955078125
1726226136611606500,6.4026064453125,0.381866455078125,0.6246185302734375,0.5435943603515625
1726226136621600500,6.4126005859375,0.379913330078125,0.6457977294921875,0.6036224365234375
1726226136631595500,6.422595458984375,0.38238525390625,0.6490020751953125,0.658050537109375
1726226136641590500,6.432590576171875,0.37396240234375,0.6482391357421875,0.6831207275390625
1726226136651584500,6.44258447265625,0.36236572265625,0.6682891845703125,0.708251953125
1726226136661579500,6.45257958984375,0.337493896484375,0.6849822998046875,0.738037109375
1726226136671573800,6.46257373046875,0.31170654296875,0.67926025390625,0.7649078369140625
1726226136681568500,6.472568603515625,0.29962158203125,0.6602020263671875,0.7772674560546875
1726226136691563500,6.4825634765625,0.2850341796875,0.6216278076171875,0.74298095703125
1726226136701557800,6.492557861328125,0.2838897705078125,0.6159820556640625,0.781951904296875
1726226136711552500,6.502552490234375,0.282135009765625,0.6224212646484375,0.8038330078125
1726226136721545000,6.512544921875,0.2743682861328125,0.58880615234375,0.7798919677734375
1726226136731540000,6.5225400390625,0.2588653564453125,0.551116943359375,0.7696533203125
1726226136741535000,6.532534912109375,0.2572174072265625,0.541717529296875,0.7873382568359375
1726226136751529000,6.542529052734375,0.2650299072265625,0.5376129150390625,0.79345703125
1726226136761524000,6.55252392578125,0.27630615234375,0.5313873291015625,0.7877960205078125
1726226136771518000,6.56251806640625,0.2879180908203125,0.5191497802734375,0.77313232421875
1726226136781513000,6.572512939453125,0.2927398681640625,0.4960174560546875,0.7532501220703125
1726226136791508000,6.582508056640625,0.2926025390625,0.4753875732421875,0.7412261962890625
1726226136801502000,6.592501953125,0.3007354736328125,0.4682159423828125,0.72625732421875
1726226136811497000,6.6024970703125,0.3058319091796875,0.469512939453125,0.714385986328125
1726226136821491000,6.612490966796875,0.32745361328125,0.490447998046875,0.6842803955078125
1726226136831486000,6.62248583984375,0.3319244384765625,0.48095703125,0.6468658447265625
1726226136841481000,6.63248095703125,0.3325347900390625,0.482147216796875,0.5770111083984375
1726226136851475000,6.642474853515625,0.3458709716796875,0.4950714111328125,0.5391387939453125
1726226136861470000,6.652469970703125,0.3659820556640625,0.5102691650390625,0.527313232421875
1726226136871464000,6.6624638671875,0.3741455078125,0.5180511474609375,0.495697021484375
1726226136881459000,6.672458984375,0.3865814208984375,0.5379791259765625,0.47943115234375
1726226136891454000,6.682453857421875,0.394805908203125,0.5916900634765625,0.5030517578125
1726226136901448000,6.692447998046875,0.39227294921875,0.6520233154296875,0.5160980224609375
1726226136911443000,6.70244287109375,0.3768768310546875,0.69232177734375,0.5273895263671875
1726226136921438000,6.71243798828125,0.3662261962890625,0.7245635986328125,0.5381317138671875
1726226136931432000,6.722431884765625,0.371307373046875,0.75396728515625,0.5671844482421875
1726226136941427000,6.732427001953125,0.38104248046875,0.7913360595703125,0.5843658447265625
1726226136951421000,6.7424208984375,0.3880615234375,0.82366943359375,0.6087799072265625
1726226136961416000,6.752416015625,0.3889007568359375,0.8560638427734375,0.61614990234375
1726226136971411000,6.762410888671875,0.3662567138671875,0.85186767578125,0.6219940185546875
1726226136981405000,6.772405029296875,0.331939697265625,0.8165435791015625,0.6103057861328125
1726226136991400000,6.78239990234375,0.30084228515625,0.7841796875,0.6013031005859375
1726226137001394000,6.792393798828125,0.2774810791015625,0.7746124267578125,0.592498779296875
1726226137011389000,6.802388916015625,0.2724456787109375,0.7821807861328125,0.5898590087890625
1726226137021384000,6.812384033203125,0.2823333740234375,0.7919158935546875,0.567291259765625
1726226137031378000,6.8223779296875,0.282257080078125,0.7904052734375,0.5513153076171875
1726226137041373000,6.832373046875,0.2874908447265625,0.793060302734375,0.5399169921875
1726226137051367200,6.8423671875,0.2954254150390625,0.8006744384765625,0.5272216796875
1726226137061362000,6.85236181640625,0.2902069091796875,0.8049774169921875,0.5284576416015625
1726226137071357000,6.86235693359375,0.2784881591796875,0.8192596435546875,0.5390472412109375
1726226137081351200,6.87235107421875,0.26654052734375,0.83721923828125,0.5554046630859375
1726226137091346000,6.882345947265625,0.2608795166015625,0.846099853515625,0.571197509765625
1726226137101340200,6.892340087890625,0.2594451904296875,0.839263916015625,0.5729217529296875
1726226137111335000,6.9023349609375,0.2727508544921875,0.8300628662109375,0.575927734375
1726226137121330000,6.912329833984375,0.2978057861328125,0.8344573974609375,0.583404541015625
1726226137131324200,6.92232421875,0.324951171875,0.8369903564453125,0.5845489501953125
1726226137141319000,6.93231884765625,0.345245361328125,0.8324737548828125,0.5866546630859375
1726226137151313200,6.942313232421875,0.3509979248046875,0.8111724853515625,0.5753936767578125
1726226137161308200,6.95230810546875,0.354278564453125,0.7681121826171875,0.5609283447265625
1726226137171303000,6.962302978515625,0.369598388671875,0.7379150390625,0.557891845703125
1726226137181297200,6.972297119140625,0.3834228515625,0.72320556640625,0.5600738525390625
1726226137191292200,6.982292236328125,0.3909149169921875,0.710296630859375,0.5613250732421875
1726226137201286100,6.9922861328125,0.3828887939453125,0.688079833984375,0.571014404296875
1726226137211281200,7.00228125,0.35198974609375,0.6644744873046875,0.5953216552734375
1726226137221276200,7.012276123046875,0.320281982421875,0.644866943359375,0.6548309326171875
1726226137231270100,7.022270263671875,0.3023681640625,0.6280670166015625,0.7265167236328125
1726226137241265200,7.03226513671875,0.2826995849609375,0.6056671142578125,0.814971923828125
1726226137251259100,7.042259033203125,0.2724761962890625,0.5876617431640625,0.926361083984375
1726226137261254100,7.052254150390625,0.26580810546875,0.5670166015625,0.989593505859375
1726226137271249200,7.062249267578125,0.24615478515625,0.522308349609375,0.9999237060546875
1726226137281243100,7.0722431640625,0.2297210693359375,0.4878082275390625,1.0110931396484375
1726226137291238100,7.082238037109375,0.2418365478515625,0.4652557373046875,0.985687255859375
1726226137301232000,7.092232177734375,0.29351806640625,0.4652557373046875,0.9456939697265625
1726226137311227100,7.10222705078125,0.376556396484375,0.4929962158203125,0.8525543212890625
1726226137321222100,7.11222216796875,0.4492340087890625,0.5421142578125,0.7541961669921875
1726226137331216100,7.122216064453125,0.4763641357421875,0.590850830078125,0.6511688232421875
1726226137341211100,7.132211181640625,0.47332763671875,0.63702392578125,0.5994873046875
1726226137351205000,7.142205078125,0.4470062255859375,0.674224853515625,0.5813446044921875
1726226137361200000,7.1522001953125,0.40643310546875,0.6932220458984375,0.556304931640625
1726226137371195100,7.162195068359375,0.36761474609375,0.7068023681640625,0.544464111328125
1726226137381189000,7.172189208984375,0.340667724609375,0.72747802734375,0.5462799072265625
1726226137391184100,7.18218408203125,0.3220977783203125,0.7658538818359375,0.558837890625
1726226137401177900,7.192177734375,0.3067779541015625,0.797882080078125,0.5667572021484375
1726226137411173000,7.202173095703125,0.286651611328125,0.824615478515625,0.5859832763671875
1726226137421168000,7.212168212890625,0.2614288330078125,0.8481597900390625,0.6112518310546875
1726226137431161900,7.222161865234375,0.2416839599609375,0.8715057373046875,0.6303253173828125
1726226137441157000,7.2321572265625,0.2251434326171875,0.8884124755859375,0.6435394287109375
1726226137451150800,7.24215087890625,0.216888427734375,0.913543701171875,0.666168212890625
1726226137461145900,7.252145751953125,0.2185516357421875,0.9350433349609375,0.6717529296875
1726226137471141000,7.26214111328125,0.2234954833984375,0.9416351318359375,0.6494140625
1726226137481134800,7.272134765625,0.235595703125,0.9334259033203125,0.6214447021484375
1726226137491129900,7.2821298828125,0.2579345703125,0.91607666015625,0.5930938720703125
1726226137501123800,7.292123779296875,0.2815093994140625,0.9022064208984375,0.56695556640625
1726226137511118800,7.302118896484375,0.3109283447265625,0.9080657958984375,0.55023193359375
1726226137521113900,7.31211376953125,0.3261566162109375,0.90740966796875,0.5298614501953125
1726226137531107800,7.32210791015625,0.3356170654296875,0.8968505859375,0.5136566162109375
1726226137541102800,7.332102783203125,0.334014892578125,0.87646484375,0.4999542236328125
1726226137551096800,7.342096923828125,0.3282318115234375,0.854095458984375,0.4768218994140625
1726226137561091800,7.352091796875,0.3240509033203125,0.83685302734375,0.461212158203125
1726226137571086800,7.3620869140625,0.3315582275390625,0.8323974609375,0.4670257568359375
1726226137581080800,7.372080810546875,0.3438873291015625,0.8153228759765625,0.452880859375
1726226137591075800,7.382075927734375,0.348602294921875,0.798828125,0.4471588134765625
1726226137601069800,7.39206982421875,0.35418701171875,0.8056640625,0.4514923095703125
1726226137611064800,7.40206494140625,0.36370849609375,0.8026275634765625,0.4583587646484375
1726226137621059800,7.412059814453125,0.3564605712890625,0.792755126953125,0.4561309814453125
1726226137631053800,7.4220537109375,0.35015869140625,0.7858123779296875,0.4467010498046875
1726226137641048800,7.432048828125,0.3549957275390625,0.7856597900390625,0.4439697265625
1726226137651042800,7.442042724609375,0.36883544921875,0.799285888671875,0.4398345947265625
1726226137661037800,7.452037841796875,0.37200927734375,0.810302734375,0.4417572021484375
1726226137671032800,7.46203271484375,0.3629608154296875,0.815948486328125,0.4535369873046875
1726226137681026800,7.47202685546875,0.35162353515625,0.8152313232421875,0.4589691162109375
1726226137691021800,7.482021728515625,0.355438232421875,0.8256072998046875,0.4694366455078125
1726226137701016000,7.49201611328125,0.353515625,0.839111328125,0.491546630859375
1726226137711010800,7.5020107421875,0.3505859375,0.8453216552734375,0.5150909423828125
1726226137721006600,7.512006591796875,0.3526153564453125,0.8539276123046875,0.54693603515625
1726226137731000600,7.52200048828125,0.3408050537109375,0.849365234375,0.579925537109375
1726226137740995600,7.53199560546875,0.3289642333984375,0.8390045166015625,0.6111907958984375
1726226137750990600,7.541990478515625,0.3031158447265625,0.8348846435546875,0.664642333984375
1726226137760984600,7.551984619140625,0.2891998291015625,0.841033935546875,0.721527099609375
1726226137770979600,7.5619794921875,0.2840576171875,0.8409271240234375,0.76568603515625
1726226137780973600,7.5719736328125,0.2760162353515625,0.826202392578125,0.7794952392578125
1726226137790968600,7.581968505859375,0.2898406982421875,0.8121185302734375,0.7764129638671875
1726226137800963600,7.591963623046875,0.3261260986328125,0.7991790771484375,0.7650146484375
1726226137810957600,7.60195751953125,0.36663818359375,0.777679443359375,0.73162841796875
1726226137820952600,7.61195263671875,0.4059906005859375,0.7697296142578125,0.69482421875
1726226137830946600,7.621946533203125,0.44195556640625,0.768157958984375,0.6671295166015625
1726226137840941600,7.631941650390625,0.470916748046875,0.759521484375,0.6394500732421875
1726226137850935800,7.641935791015625,0.4822845458984375,0.7478485107421875,0.6014404296875
1726226137860930600,7.6519306640625,0.480194091796875,0.74224853515625,0.5785980224609375
1726226137870925600,7.661925537109375,0.4755401611328125,0.7470855712890625,0.574798583984375
1726226137880919800,7.671919921875,0.4864044189453125,0.75628662109375,0.5730743408203125
1726226137890914600,7.68191455078125,0.5018310546875,0.7847747802734375,0.6094970703125
1726226137900909600,7.69190966796875,0.4972381591796875,0.8040924072265625,0.645904541015625
1726226137910903800,7.70190380859375,0.460723876953125,0.7764892578125,0.6556549072265625
1726226137920898600,7.711898681640625,0.4185028076171875,0.7288055419921875,0.6551971435546875
1726226137930892800,7.721892822265625,0.3810882568359375,0.682403564453125,0.6441192626953125
1726226137940887800,7.7318876953125,0.345611572265625,0.641357421875,0.624481201171875
1726226137950882600,7.741882568359375,0.3330078125,0.6163330078125,0.598968505859375
1726226137960876800,7.751876708984375,0.3268280029296875,0.5929107666015625,0.58355712890625
1726226137970871800,7.761871826171875,0.31890869140625,0.5704345703125,0.5783538818359375
1726226137980865800,7.77186572265625,0.312042236328125,0.5458221435546875,0.570709228515625
1726226137990860800,7.78186083984375,0.3125152587890625,0.5189361572265625,0.55322265625
1726226138000855800,7.791855712890625,0.3216552734375,0.5028228759765625,0.5446319580078125
1726226138010849800,7.801849853515625,0.337554931640625,0.5048065185546875,0.544403076171875
1726226138020844800,7.8118447265625,0.3443603515625,0.509765625,0.5265655517578125
1726226138030838800,7.8218388671875,0.35113525390625,0.5076751708984375,0.48626708984375
1726226138040833800,7.831833740234375,0.359832763671875,0.5149688720703125,0.457305908203125
1726226138050828800,7.841828857421875,0.3641815185546875,0.5231170654296875,0.4352874755859375
1726226138060822800,7.85182275390625,0.3589324951171875,0.5341033935546875,0.4313507080078125
1726226138070817800,7.86181787109375,0.363037109375,0.5635528564453125,0.437164306640625
1726226138080811800,7.871811767578125,0.3832244873046875,0.6282196044921875,0.4593505859375
1726226138090806800,7.881806884765625,0.412689208984375,0.7264862060546875,0.504638671875
1726226138100801800,7.8918017578125,0.4322662353515625,0.82763671875,0.5439453125
1726226138110795800,7.901795654296875,0.4432830810546875,0.9219818115234375,0.584442138671875
1726226138120790800,7.911790771484375,0.4407958984375,0.989532470703125,0.6113433837890625
1726226138130784800,7.92178466796875,0.4156494140625,1.0194854736328125,0.6213226318359375
1726226138140779800,7.93177978515625,0.389434814453125,1.013916015625,0.5789947509765625
1726226138150774800,7.94177490234375,0.3754730224609375,0.9946441650390625,0.515289306640625
1726226138160768800,7.951768798828125,0.3897247314453125,0.9994659423828125,0.45849609375
1726226138170763800,7.961763671875,0.423736572265625,1.0303955078125,0.4110107421875
1726226138180757800,7.9717578125,0.4546661376953125,1.042572021484375,0.395416259765625
1726226138190752800,7.981752685546875,0.447601318359375,1.0106964111328125,0.384521484375
1726226138200747800,7.991747802734375,0.4112701416015625,0.9512176513671875,0.33123779296875
1726226138210741800,8.00174169921875,0.39105224609375,0.9112091064453125,0.278106689453125
1726226138220736800,8.01173681640625,0.37786865234375,0.8665924072265625,0.237823486328125
1726226138230730800,8.021730712890625,0.3675994873046875,0.8169403076171875,0.1985626220703125
1726226138240725800,8.031725830078125,0.365447998046875,0.7892303466796875,0.1728668212890625
1726226138250720800,8.041720703125,0.377227783203125,0.787567138671875,0.15625
1726226138260714800,8.05171484375,0.3807830810546875,0.79595947265625,0.170501708984375
1726226138270709800,8.061709716796875,0.351898193359375,0.7725677490234375,0.2139892578125
1726226138280703500,8.071703369140625,0.3142852783203125,0.73675537109375,0.250518798828125
1726226138290698800,8.08169873046875,0.278961181640625,0.7113189697265625,0.2729644775390625
1726226138300693800,8.09169384765625,0.2442169189453125,0.7042999267578125,0.2995147705078125
1726226138310687500,8.1016875,0.2194366455078125,0.6964569091796875,0.3279876708984375
1726226138320682800,8.111682861328125,0.2256011962890625,0.70404052734375,0.3681793212890625
1726226138330676500,8.121676513671876,0.2423858642578125,0.72613525390625,0.4144439697265625
1726226138340671500,8.13167138671875,0.263214111328125,0.7537994384765625,0.4649200439453125
1726226138350666800,8.141666748046875,0.2759246826171875,0.7763214111328125,0.513214111328125
1726226138360660500,8.151660400390625,0.294342041015625,0.818023681640625,0.5656585693359375
1726226138370655700,8.16165576171875,0.3118438720703125,0.8660736083984375,0.61932373046875
1726226138380649500,8.1716494140625,0.321258544921875,0.893402099609375,0.666412353515625
1726226138390644500,8.18164453125,0.3401031494140625,0.9026947021484375,0.6930999755859375
1726226138400639700,8.1916396484375,0.3838043212890625,0.9092254638671875,0.7240753173828125
1726226138410633500,8.201633544921876,0.4444122314453125,0.918731689453125,0.7688140869140625
1726226138420628500,8.21162841796875,0.5166015625,0.9066009521484375,0.8014984130859375
1726226138430622500,8.22162255859375,0.58599853515625,0.8552093505859375,0.779388427734375
1726226138440617500,8.231617431640625,0.6429901123046875,0.7952423095703125,0.7766571044921875
1726226138450612500,8.241612548828124,0.7085723876953125,0.7374420166015625,0.7335052490234375
1726226138460606500,8.2516064453125,0.759521484375,0.6800994873046875,0.71624755859375
1726226138470601500,8.2616015625,0.8949432373046875,0.635528564453125,0.629638671875
1726226138480595700,8.271595703125,0.89471435546875,0.639373779296875,0.5297393798828125
1726226138490590500,8.281590576171874,0.6960906982421875,0.6381378173828125,0.5457916259765625
1726226138500585500,8.29158544921875,0.5334625244140625,0.601165771484375,0.5885467529296875
1726226138510579700,8.301579833984375,0.4468994140625,0.5742645263671875,0.6002044677734375
1726226138520574500,8.311574462890626,0.4101104736328125,0.5778350830078125,0.5952911376953125
1726226138530568700,8.321568603515624,0.3835906982421875,0.5876922607421875,0.5833892822265625
1726226138540563500,8.3315634765625,0.362060546875,0.5899200439453125,0.58056640625
1726226138550558500,8.341558349609375,0.3275909423828125,0.6012725830078125,0.58001708984375
1726226138560552700,8.351552734375,0.3270263671875,0.6293792724609375,0.5757598876953125
1726226138570547500,8.36154736328125,0.3610076904296875,0.6598052978515625,0.553497314453125
1726226138580541700,8.371541748046875,0.3946380615234375,0.6666717529296875,0.5438995361328125
1726226138590536700,8.38153662109375,0.411651611328125,0.65972900390625,0.5131683349609375
1726226138600531500,8.391531494140626,0.396759033203125,0.6287078857421875,0.4801177978515625
1726226138610525700,8.401525634765624,0.3677520751953125,0.6025543212890625,0.459991455078125
1726226138620520700,8.411520751953125,0.3419189453125,0.58758544921875,0.451019287109375
1726226138630514700,8.4215146484375,0.3373260498046875,0.596343994140625,0.46966552734375
1726226138640509700,8.431509765625,0.3522186279296875,0.61700439453125,0.483154296875
1726226138650504700,8.441504638671875,0.3499908447265625,0.6139068603515625,0.4870452880859375
1726226138660498700,8.451498779296875,0.355712890625,0.6163482666015625,0.49261474609375
1726226138670493700,8.46149365234375,0.368072509765625,0.639495849609375,0.511016845703125
1726226138680487700,8.47148779296875,0.368377685546875,0.673736572265625,0.542449951171875
1726226138690482700,8.481482666015625,0.369140625,0.7048492431640625,0.5572662353515625
1726226138700477700,8.491477783203125,0.3716888427734375,0.7311248779296875,0.5886077880859375
1726226138710471700,8.5014716796875,0.38232421875,0.759002685546875,0.621795654296875
1726226138720466000,8.5114658203125,0.37249755859375,0.7543182373046875,0.6410064697265625
1726226138730460000,8.5214599609375,0.36712646484375,0.7507781982421875,0.659423828125
1726226138740455000,8.531454833984375,0.390350341796875,0.777008056640625,0.682342529296875
1726226138750450000,8.541449951171876,0.42431640625,0.8008270263671875,0.6923675537109375
1726226138760444000,8.55144384765625,0.4435577392578125,0.8205108642578125,0.68743896484375
1726226138770439000,8.56143896484375,0.4540863037109375,0.837310791015625,0.6726531982421875
1726226138780433000,8.571432861328125,0.4645233154296875,0.863739013671875,0.6670684814453125
1726226138790428000,8.581427978515626,0.4819793701171875,0.8958740234375,0.6625823974609375
1726226138800423000,8.5914228515625,0.4857177734375,0.914337158203125,0.654266357421875
1726226138810417000,8.6014169921875,0.46722412109375,0.9021453857421875,0.631744384765625
1726226138820412000,8.611411865234375,0.4326019287109375,0.8667755126953125,0.6100006103515625
1726226138830406000,8.621406005859376,0.3966522216796875,0.81646728515625,0.5738677978515625
1726226138840401000,8.63140087890625,0.380523681640625,0.7653656005859375,0.5221099853515625
1726226138850396000,8.64139599609375,0.3741607666015625,0.7341461181640625,0.48455810546875
1726226138860390000,8.651389892578125,0.3697357177734375,0.7205963134765625,0.4664459228515625
1726226138870385000,8.661385009765626,0.35125732421875,0.7080078125,0.461181640625
1726226138880379000,8.67137890625,0.3366241455078125,0.6986083984375,0.466400146484375
1726226138890374000,8.681373779296875,0.315277099609375,0.6920013427734375,0.475341796875
1726226138900369000,8.691368896484375,0.279449462890625,0.6849212646484375,0.4926300048828125
1726226138910363000,8.70136279296875,0.2474365234375,0.6811370849609375,0.5106353759765625
1726226138920358000,8.71135791015625,0.232574462890625,0.673919677734375,0.52130126953125
1726226138930351900,8.721351806640625,0.2217559814453125,0.666107177734375,0.53228759765625
1726226138940347000,8.731346923828125,0.207550048828125,0.652191162109375,0.5395965576171875
1726226138950342000,8.741341796875,0.2106781005859375,0.6482391357421875,0.5593109130859375
1726226138960336000,8.7513359375,0.2253875732421875,0.6554412841796875,0.5678863525390625
1726226138970331000,8.761330810546875,0.24871826171875,0.654266357421875,0.58502197265625
1726226138980324900,8.771324951171875,0.26385498046875,0.6600799560546875,0.601104736328125
1726226138990319900,8.78131982421875,0.2983551025390625,0.6734619140625,0.604034423828125
1726226139000315000,8.79131494140625,0.3304290771484375,0.679443359375,0.5981597900390625
1726226139010308900,8.801308837890625,0.337066650390625,0.6649017333984375,0.5820465087890625
1726226139020304000,8.811303955078126,0.3258514404296875,0.6348724365234375,0.547760009765625
1726226139030297900,8.8212978515625,0.31646728515625,0.6080169677734375,0.5221710205078125
1726226139040292900,8.83129296875,0.3282012939453125,0.6000518798828125,0.521759033203125
1726226139050287900,8.841287841796875,0.3385772705078125,0.6015777587890625,0.509857177734375
1726226139060281900,8.85128173828125,0.3384552001953125,0.6092681884765625,0.497833251953125
1726226139070276900,8.86127685546875,0.3449859619140625,0.6321563720703125,0.5046539306640625
1726226139080272000,8.87127197265625,0.34124755859375,0.6573333740234375,0.513641357421875
1726226139090265900,8.881265869140625,0.318817138671875,0.679840087890625,0.5214691162109375
1726226139100260900,8.8912607421875,0.2808990478515625,0.7369842529296875,0.5115509033203125
1726226139110254800,8.9012548828125,0.2757568359375,0.8078765869140625,0.49481201171875
1726226139120249900,8.911249755859375,0.3156890869140625,0.88629150390625,0.490234375
1726226139130244900,8.921244873046875,0.4021148681640625,0.978546142578125,0.504974365234375
1726226139140238800,8.93123876953125,0.507904052734375,0.9270172119140625,0.4694671630859375
1726226139150233900,8.94123388671875,0.5550384521484375,0.8507232666015625,0.42413330078125
1726226139160227800,8.951227783203125,0.5427703857421875,0.7949066162109375,0.402099609375
1726226139170222800,8.961222900390625,0.5353546142578125,0.773834228515625,0.378143310546875
1726226139180216800,8.971216796875,0.5139923095703125,0.7408905029296875,0.3902435302734375
1726226139190211800,8.9812119140625,0.47265625,0.72137451171875,0.4268951416015625
1726226139200206800,8.991206787109375,0.4393310546875,0.6970672607421875,0.4819793701171875
1726226139210200800,9.001200927734375,0.4295501708984375,0.6833953857421875,0.53179931640625
1726226139220195800,9.01119580078125,0.429901123046875,0.6841888427734375,0.5613250732421875
1726226139230190800,9.02119091796875,0.4157867431640625,0.7079620361328125,0.5730438232421875
1726226139240184800,9.031184814453125,0.383056640625,0.7566986083984375,0.5833740234375
1726226139250179800,9.041179931640626,0.3480987548828125,0.8170928955078125,0.5927276611328125
1726226139260173800,9.051173828125,0.3324432373046875,0.8674774169921875,0.5844268798828125
1726226139270168800,9.0611689453125,0.3280487060546875,0.89447021484375,0.5766143798828125
1726226139280163800,9.071163818359375,0.3336944580078125,0.91375732421875,0.5786895751953125
1726226139290157800,9.08115771484375,0.3280487060546875,0.9273681640625,0.581329345703125
1726226139300152800,9.09115283203125,0.3173828125,0.931121826171875,0.5756072998046875
1726226139310146800,9.101146728515625,0.2990875244140625,0.9232025146484375,0.5578460693359375
1726226139320141800,9.111141845703125,0.2785797119140625,0.905853271484375,0.5326690673828125
1726226139330136800,9.12113671875,0.2658538818359375,0.88360595703125,0.513458251953125
1726226139340130800,9.131130859375,0.257720947265625,0.8626556396484375,0.5054779052734375
1726226139350125800,9.141125732421875,0.2512359619140625,0.84906005859375,0.497283935546875
1726226139360119800,9.151119873046875,0.2450408935546875,0.8417816162109375,0.49407958984375
1726226139370114800,9.16111474609375,0.2479095458984375,0.83624267578125,0.488037109375
1726226139380109800,9.17110986328125,0.2507171630859375,0.82672119140625,0.479522705078125
1726226139390103800,9.181103759765625,0.2481231689453125,0.816192626953125,0.47088623046875
1726226139400098800,9.191098876953125,0.26031494140625,0.8026580810546875,0.4617462158203125
1726226139410092800,9.2010927734375,0.2883148193359375,0.785858154296875,0.448516845703125
1726226139420087800,9.211087890625,0.3097381591796875,0.7564239501953125,0.4314727783203125
1726226139430082800,9.221082763671875,0.3336181640625,0.7368316650390625,0.418426513671875
1726226139440076800,9.231076904296875,0.3619537353515625,0.7357177734375,0.41473388671875
1726226139450071800,9.24107177734375,0.381378173828125,0.737701416015625,0.4158782958984375
1726226139460065800,9.251065673828125,0.38916015625,0.7465362548828125,0.424224853515625
1726226139470060800,9.261060791015625,0.39422607421875,0.7662811279296875,0.4379730224609375
1726226139480055800,9.271055908203126,0.40277099609375,0.7969512939453125,0.45294189453125
1726226139490049800,9.2810498046875,0.4175262451171875,0.8237762451171875,0.4758453369140625
1726226139500044800,9.291044921875,0.4231719970703125,0.837127685546875,0.4899139404296875
1726226139510038800,9.301038818359375,0.4184722900390625,0.8504638671875,0.5015716552734375
1726226139520033800,9.31103369140625,0.4052276611328125,0.8548736572265625,0.509765625
1726226139530028800,9.32102880859375,0.3956298828125,0.8616180419921875,0.5144195556640625
1726226139540022800,9.331022705078125,0.365936279296875,0.8525543212890625,0.5028228759765625
1726226139550017800,9.341017822265625,0.346405029296875,0.8536834716796875,0.5013427734375
1726226139560011800,9.35101171875,0.3499298095703125,0.884796142578125,0.5123748779296875
1726226139570006800,9.3610068359375,0.35321044921875,0.91900634765625,0.53436279296875
1726226139580001800,9.371001708984375,0.3476104736328125,0.9437255859375,0.543182373046875
1726226139589995800,9.380995849609375,0.32830810546875,0.9500732421875,0.548370361328125
1726226139599990800,9.39099072265625,0.317230224609375,0.936187744140625,0.5476531982421875
1726226139609984800,9.40098486328125,0.3262939453125,0.9193267822265625,0.5278778076171875
1726226139619979800,9.410979736328125,0.320159912109375,0.9035186767578125,0.51385498046875
1726226139629974800,9.420974853515625,0.3172760009765625,0.882781982421875,0.4926910400390625
1726226139639968800,9.43096875,0.31793212890625,0.8651275634765625,0.4645233154296875
1726226139649963800,9.4409638671875,0.3219451904296875,0.8416748046875,0.463470458984375
1726226139659957800,9.450957763671875,0.3260040283203125,0.8269195556640625,0.4517822265625
1726226139669952800,9.460952880859375,0.3307952880859375,0.830322265625,0.448486328125
1726226139679947800,9.47094775390625,0.338470458984375,0.8435821533203125,0.451019287109375
1726226139689941800,9.480941650390625,0.336151123046875,0.8418121337890625,0.4495086669921875
1726226139699936800,9.490936767578125,0.329193115234375,0.8306732177734375,0.4491729736328125
1726226139709931000,9.500930908203125,0.3231048583984375,0.8244781494140625,0.4611053466796875
1726226139719926800,9.5109267578125,0.3193359375,0.8337554931640625,0.476409912109375
1726226139729921800,9.520921875,0.3252410888671875,0.83123779296875,0.4473419189453125
1726226139739915800,9.530915771484375,0.339599609375,0.8309478759765625,0.43450927734375
1726226139749910800,9.540910888671876,0.33935546875,0.81768798828125,0.4460906982421875
1726226139759904500,9.550904541015624,0.33599853515625,0.796112060546875,0.4294281005859375
1726226139769899800,9.560899658203125,0.341552734375,0.7854461669921875,0.4112091064453125
1726226139779894800,9.570894775390625,0.3470916748046875,0.792236328125,0.40948486328125
1726226139789888800,9.580888671875,0.3614349365234375,0.7994537353515625,0.418243408203125
1726226139799883800,9.5908837890625,0.368316650390625,0.8011474609375,0.4242706298828125
1726226139809877800,9.600877685546875,0.374267578125,0.8256988525390625,0.44000244140625
1726226139819872800,9.610872802734375,0.3856658935546875,0.8673553466796875,0.467620849609375
1726226139829867800,9.62086767578125,0.3921051025390625,0.89208984375,0.497100830078125
1726226139839861500,9.630861572265625,0.389312744140625,0.8905181884765625,0.5188751220703125
1726226139849856800,9.640856689453125,0.377960205078125,0.8848724365234375,0.5236663818359375
1726226139859850800,9.650850830078125,0.37554931640625,0.9043121337890625,0.541839599609375
1726226139869845500,9.660845458984374,0.3734130859375,0.926116943359375,0.5655364990234375
1726226139879840800,9.6708408203125,0.3684844970703125,0.928558349609375,0.5813751220703125
1726226139889834800,9.680834716796875,0.353912353515625,0.912384033203125,0.5898590087890625
1726226139899829500,9.69082958984375,0.3379364013671875,0.8807525634765625,0.5758209228515625
1726226139909823700,9.70082373046875,0.2974395751953125,0.8328399658203125,0.551605224609375
1726226139919818800,9.71081884765625,0.2588348388671875,0.7933807373046875,0.5273895263671875
1726226139929813500,9.7208134765625,0.2572784423828125,0.7702178955078125,0.5131378173828125
1726226139939807700,9.730807861328126,0.2691802978515625,0.7733001708984375,0.522369384765625
1726226139949802800,9.740802734375,0.301116943359375,0.8057708740234375,0.5303497314453125
1726226139959796700,9.750796630859375,0.349334716796875,0.835052490234375,0.5388641357421875
1726226139969791700,9.760791748046875,0.36614990234375,0.8226470947265625,0.5421600341796875
1726226139979786800,9.770786865234374,0.36273193359375,0.775360107421875,0.52178955078125
1726226139989780700,9.78078076171875,0.3386383056640625,0.712066650390625,0.4677581787109375
1726226139999775700,9.790775634765625,0.3258819580078125,0.6613006591796875,0.4288787841796875
1726226140009769700,9.800769775390625,0.3260345458984375,0.6240386962890625,0.4096527099609375
1726226140019764700,9.8107646484375,0.33612060546875,0.6073760986328125,0.406982421875
1726226140029759700,9.820759765625,0.3509368896484375,0.6036224365234375,0.4254150390625
1726226140039753700,9.830753662109375,0.357818603515625,0.59710693359375,0.4597625732421875
1726226140049748700,9.840748779296876,0.3519439697265625,0.596649169921875,0.4895477294921875
1726226140059742700,9.85074267578125,0.3345184326171875,0.60302734375,0.4960174560546875
1726226140069737700,9.86073779296875,0.3367156982421875,0.6148834228515625,0.501251220703125
1726226140079732700,9.870732666015625,0.352264404296875,0.6280517578125,0.5182037353515625
1726226140089726700,9.880726806640626,0.364471435546875,0.656951904296875,0.5395965576171875
1726226140099721700,9.8907216796875,0.389984130859375,0.712890625,0.5363616943359375
1726226140109715700,9.9007158203125,0.395904541015625,0.744873046875,0.5250701904296875
1726226140119710700,9.910710693359375,0.3841552734375,0.74749755859375,0.5135650634765625
1726226140129705700,9.920705810546876,0.36907958984375,0.74420166015625,0.506927490234375
1726226140139699700,9.93069970703125,0.36669921875,0.7481231689453125,0.4901885986328125
1726226140149694700,9.94069482421875,0.3585052490234375,0.751953125,0.47406005859375
1726226140159688700,9.950688720703125,0.3586273193359375,0.7546234130859375,0.463653564453125
1726226140169683700,9.96068359375,0.3724212646484375,0.7772216796875,0.4661407470703125
1726226140179678700,9.9706787109375,0.388702392578125,0.8172760009765625,0.4814910888671875
1726226140189672700,9.980672607421875,0.387847900390625,0.8436126708984375,0.4956207275390625
1726226140199667700,9.990667724609375,0.3730621337890625,0.837646484375,0.4885406494140625
1726226140209661700,10.00066162109375,0.358001708984375,0.8394775390625,0.484405517578125
1726226140219656700,10.01065673828125,0.358184814453125,0.8687591552734375,0.4908599853515625
1726226140229651700,10.020651611328125,0.35894775390625,0.8914642333984375,0.5057830810546875
1726226140239645700,10.030645751953125,0.3490753173828125,0.88153076171875,0.51702880859375
1726226140249640700,10.040640625,0.3381195068359375,0.8579559326171875,0.51007080078125
1726226140259634700,10.050634765625,0.3181915283203125,0.8264312744140625,0.494903564453125
1726226140269629700,10.060629638671875,0.28692626953125,0.7832489013671875,0.4835052490234375
1726226140279624700,10.070624755859376,0.266632080078125,0.7302703857421875,0.4804534912109375
1726226140289618700,10.08061865234375,0.2593536376953125,0.678558349609375,0.4798126220703125
1726226140299613700,10.09061376953125,0.276031494140625,0.662841796875,0.4846649169921875
1726226140309607700,10.100607666015625,0.302886962890625,0.6749267578125,0.4827423095703125
1726226140319602700,10.110602783203126,0.3334808349609375,0.6689605712890625,0.4678802490234375
1726226140329597700,10.12059765625,0.3650054931640625,0.672576904296875,0.482666015625
1726226140339591700,10.130591796875,0.3788299560546875,0.68511962890625,0.4889068603515625
1726226140349586700,10.140586669921875,0.3875732421875,0.6949920654296875,0.496978759765625
1726226140359580700,10.15058056640625,0.3852081298828125,0.691375732421875,0.4918365478515625
1726226140369575700,10.16057568359375,0.3878326416015625,0.7059783935546875,0.4882659912109375
1726226140379570700,10.17057080078125,0.3956451416015625,0.736968994140625,0.4912567138671875
1726226140389564700,10.180564697265625,0.405853271484375,0.7480010986328125,0.4861602783203125
1726226140399559700,10.1905595703125,0.4261627197265625,0.75750732421875,0.4780731201171875
1726226140409553700,10.2005537109375,0.4633941650390625,0.8022613525390625,0.4670867919921875
1726226140419548700,10.210548583984375,0.5149688720703125,0.8650970458984375,0.4624481201171875
1726226140429543700,10.220543701171875,0.588226318359375,0.9045562744140625,0.431243896484375
1726226140439537700,10.23053759765625,0.699432373046875,0.9045562744140625,0.3897857666015625
1726226140449532700,10.24053271484375,0.8745269775390625,0.932525634765625,0.280029296875
1726226140459526700,10.250526611328125,1.3303375244140625,0.9940185546875,0.1121063232421875
1726226140469521700,10.260521728515625,1.40399169921875,0.983612060546875,-0.0114593505859375
1726226140479516700,10.2705166015625,0.78802490234375,0.8842926025390625,0.2588958740234375
1726226140489510700,10.2805107421875,0.59332275390625,0.81463623046875,0.40277099609375
1726226140499505700,10.290505615234375,0.593963623046875,0.80645751953125,0.42755126953125
1726226140509500000,10.3005,0.5222320556640625,0.8548736572265625,0.452728271484375
1726226140519494700,10.31049462890625,0.463104248046875,0.921051025390625,0.51165771484375
1726226140529489700,10.32048974609375,0.4760894775390625,0.99395751953125,0.5685272216796875
1726226140539484000,10.33048388671875,0.469757080078125,1.0294342041015625,0.576080322265625
1726226140549478700,10.340478759765626,0.44195556640625,1.0057830810546875,0.5935516357421875
1726226140559473000,10.350472900390624,0.4117279052734375,0.9228668212890625,0.601226806640625
1726226140569468000,10.360468017578125,0.399322509765625,0.8158721923828125,0.57879638671875
1726226140579462700,10.370462646484375,0.385009765625,0.7386932373046875,0.5537261962890625
1726226140589457000,10.380456787109376,0.371673583984375,0.6842803955078125,0.5366058349609375
1726226140599452000,10.390451904296874,0.3756103515625,0.6544036865234375,0.52484130859375
1726226140609446700,10.40044677734375,0.396087646484375,0.63519287109375,0.5143585205078125
1726226140619441000,10.41044091796875,0.4240875244140625,0.61676025390625,0.4999237060546875
1726226140629436000,10.420435791015626,0.441253662109375,0.5983428955078125,0.5146942138671875
1726226140639430000,10.430429931640624,0.4549560546875,0.585968017578125,0.5202789306640625
1726226140649425000,10.4404248046875,0.4758148193359375,0.576995849609375,0.4989013671875
1726226140659419600,10.450419677734375,0.48675537109375,0.56121826171875,0.4632720947265625
1726226140669414000,10.460413818359376,0.5115814208984375,0.5732879638671875,0.487518310546875
1726226140679409000,10.470408935546875,0.515472412109375,0.5852203369140625,0.4996337890625
1726226140689403000,10.48040283203125,0.49609375,0.5810089111328125,0.488861083984375
1726226140699398000,10.49039794921875,0.48101806640625,0.579833984375,0.4790802001953125
1726226140709393000,10.500392822265624,0.466827392578125,0.5919647216796875,0.5098724365234375
1726226140719387000,10.510386962890625,0.4580841064453125,0.611541748046875,0.5339813232421875
1726226140729380900,10.520380859375,0.44744873046875,0.6255340576171875,0.5437469482421875
1726226140739374600,10.53037451171875,0.4427490234375,0.6380615234375,0.5496368408203125
1726226140749369900,10.540369873046876,0.444488525390625,0.6510162353515625,0.5404815673828125
1726226140759364900,10.55036474609375,0.4529876708984375,0.6770782470703125,0.54083251953125
1726226140769358600,10.560358642578125,0.471710205078125,0.736907958984375,0.530853271484375
1726226140779353900,10.570353759765625,0.5147857666015625,0.8146514892578125,0.4978179931640625
1726226140789347600,10.58034765625,0.5395965576171875,0.8863372802734375,0.48687744140625
1726226140799342600,10.590342529296874,0.5472259521484375,0.94097900390625,0.4822845458984375
1726226140809337900,10.600337890625,0.5396881103515625,0.955780029296875,0.4317779541015625
1726226140819331600,10.61033154296875,0.5191802978515625,0.9613800048828125,0.4163818359375
1726226140829326600,10.62032666015625,0.5105438232421875,0.94293212890625,0.39862060546875
1726226140839320600,10.630320556640624,0.478118896484375,0.8926239013671875,0.367431640625
1726226140849315600,10.640315673828125,0.433135986328125,0.8495330810546875,0.342193603515625
1726226140859310600,10.650310546875,0.4085235595703125,0.817535400390625,0.3285369873046875
1726226140869304600,10.6603046875,0.3885040283203125,0.796234130859375,0.3227996826171875
1726226140879299600,10.670299560546875,0.387603759765625,0.789093017578125,0.29559326171875
1726226140889293600,10.68029345703125,0.399444580078125,0.7863311767578125,0.2807769775390625
1726226140899288600,10.69028857421875,0.396484375,0.781036376953125,0.270263671875
1726226140909283600,10.70028369140625,0.3763275146484375,0.78350830078125,0.2715301513671875
1726226140919277600,10.710277587890625,0.3660736083984375,0.7803955078125,0.2529754638671875
1726226140929272600,10.7202724609375,0.33441162109375,0.7642364501953125,0.267730712890625
1726226140939266600,10.7302666015625,0.3059234619140625,0.7271728515625,0.278961181640625
1726226140949261600,10.740261474609374,0.2624969482421875,0.6870880126953125,0.2780914306640625
1726226140959256600,10.750256591796875,0.2560882568359375,0.679473876953125,0.2735137939453125
1726226140969250600,10.76025048828125,0.282989501953125,0.7127227783203125,0.2965545654296875
1726226140979245600,10.77024560546875,0.33038330078125,0.772247314453125,0.32879638671875
1726226140989239800,10.78023974609375,0.383514404296875,0.84674072265625,0.3704986572265625
1726226140999234600,10.790234619140625,0.4135284423828125,0.9076385498046875,0.4144439697265625
1726226141009229600,10.8002294921875,0.4051361083984375,0.9210052490234375,0.4451904296875
1726226141019223800,10.810223876953126,0.3883514404296875,0.9142913818359375,0.465728759765625
1726226141029218600,10.820218505859375,0.3804779052734375,0.8985443115234375,0.46533203125
1726226141039212800,10.830212890625,0.381439208984375,0.8643646240234375,0.4430084228515625
1726226141049207800,10.840207763671875,0.3848114013671875,0.80987548828125,0.423553466796875
1726226141059202600,10.85020263671875,0.401275634765625,0.7379302978515625,0.407012939453125
1726226141069196800,10.86019677734375,0.4336700439453125,0.661865234375,0.392547607421875
1726226141079191800,10.87019189453125,0.4622344970703125,0.6019439697265625,0.3675537109375
1726226141089185800,10.880185791015625,0.4723358154296875,0.564117431640625,0.34942626953125
1726226141099180800,10.890180908203124,0.4665679931640625,0.5385894775390625,0.346527099609375
1726226141109175800,10.90017578125,0.4494781494140625,0.523040771484375,0.3702392578125
1726226141119169800,10.910169677734375,0.4352569580078125,0.529296875,0.4148101806640625
1726226141129164800,10.920164794921876,0.43096923828125,0.5539398193359375,0.469146728515625
1726226141139159600,10.93015966796875,0.434600830078125,0.580413818359375,0.5256805419921875
1726226141149153800,10.94015380859375,0.4408111572265625,0.6136016845703125,0.5728759765625
1726226141159148800,10.950148681640625,0.4399566650390625,0.643524169921875,0.6145782470703125
1726226141169142800,10.960142822265626,0.4526824951171875,0.6806793212890625,0.647552490234375
1726226141179137800,10.9701376953125,0.4911041259765625,0.7386627197265625,0.62530517578125
1726226141189132800,10.9801328125,0.5477142333984375,0.81298828125,0.574127197265625
1726226141199126800,10.990126708984375,0.599884033203125,0.889129638671875,0.533355712890625
1726226141209121800,11.000121826171876,0.66497802734375,0.986572265625,0.4757843017578125
1726226141219115800,11.01011572265625,0.7449188232421875,1.09271240234375,0.4110565185546875
1726226141229110800,11.02011083984375,0.7855987548828125,1.1650848388671875,0.3414154052734375
1726226141239105800,11.030105712890625,0.7704010009765625,1.1784515380859375,0.283721923828125
1726226141249099800,11.040099853515626,0.708953857421875,1.1514739990234375,0.26373291015625
1726226141259094800,11.0500947265625,0.651885986328125,1.1176910400390625,0.3130035400390625
1726226141269088800,11.0600888671875,0.60089111328125,1.0718994140625,0.3978271484375
1726226141279083800,11.070083740234375,0.5475921630859375,1.014251708984375,0.45904541015625
1726226141289078800,11.080078857421874,0.47998046875,0.9682159423828125,0.5109100341796875
1726226141299072800,11.09007275390625,0.40948486328125,0.9299468994140625,0.54046630859375
1726226141309067800,11.10006787109375,0.35650634765625,0.9027252197265625,0.54608154296875
1726226141319061800,11.110061767578125,0.3243255615234375,0.8619537353515625,0.535308837890625
1726226141329056800,11.120056884765624,0.302764892578125,0.8117828369140625,0.50927734375
1726226141339051800,11.1300517578125,0.31005859375,0.768218994140625,0.47760009765625
1726226141349045800,11.140045654296875,0.325103759765625,0.736572265625,0.457061767578125
1726226141359040800,11.150040771484376,0.3320770263671875,0.7098846435546875,0.4388427734375
1726226141369034800,11.16003466796875,0.340850830078125,0.6940155029296875,0.407958984375
1726226141379029800,11.17002978515625,0.3751678466796875,0.6878662109375,0.375091552734375
1726226141389024800,11.180024658203125,0.4113006591796875,0.6988372802734375,0.3587646484375
1726226141399018800,11.190018798828126,0.44464111328125,0.7005157470703125,0.3415374755859375
1726226141409013800,11.200013671875,0.466094970703125,0.6810302734375,0.312957763671875
1726226141419007700,11.2100078125,0.471710205078125,0.657073974609375,0.284423828125
1726226141429002800,11.220002685546875,0.48150634765625,0.63885498046875,0.2639312744140625
1726226141438997800,11.229997802734376,0.501068115234375,0.6425933837890625,0.2552642822265625
1726226141448991700,11.23999169921875,0.53912353515625,0.678466796875,0.260223388671875
1726226141458986800,11.24998681640625,0.565277099609375,0.7428436279296875,0.2784881591796875
1726226141468980700,11.259980712890625,0.57611083984375,0.815948486328125,0.3018646240234375
1726226141478975700,11.269975830078126,0.57135009765625,0.8712615966796875,0.324005126953125
1726226141488970800,11.279970703125,0.5272064208984375,0.8785247802734375,0.330963134765625
1726226141498964700,11.28996484375,0.4738311767578125,0.864044189453125,0.3210906982421875
1726226141508959700,11.299959716796875,0.44525146484375,0.87469482421875,0.3178558349609375
1726226141518953700,11.30995361328125,0.44976806640625,0.925811767578125,0.3389129638671875
1726226141528948700,11.31994873046875,0.4706878662109375,0.9962158203125,0.3794097900390625
1726226141538943700,11.32994384765625,0.4729766845703125,1.0502471923828125,0.4190826416015625
1726226141548937700,11.339937744140625,0.445770263671875,1.0839385986328125,0.4478759765625
1726226141558932700,11.3499326171875,0.407928466796875,1.074676513671875,0.4553985595703125
1726226141568927700,11.359927734375,0.3859405517578125,1.03497314453125,0.44122314453125
1726226141578921700,11.369921630859375,0.38525390625,1.004425048828125,0.4296112060546875
1726226141588916700,11.379916748046876,0.3794403076171875,0.9767608642578125,0.4047393798828125
1726226141598910700,11.38991064453125,0.38525390625,0.9438934326171875,0.3846893310546875
1726226141608905700,11.39990576171875,0.3840484619140625,0.88677978515625,0.3454437255859375
1726226141618900700,11.409900634765625,0.368438720703125,0.83428955078125,0.3093719482421875
1726226141628894700,11.419894775390626,0.3824615478515625,0.791015625,0.2908782958984375
1726226141638889700,11.4298896484375,0.404754638671875,0.74700927734375,0.273681640625
1726226141648883700,11.4398837890625,0.409515380859375,0.7157745361328125,0.2674407958984375
1726226141658878700,11.449878662109375,0.4274749755859375,0.7062835693359375,0.266693115234375
1726226141668873700,11.459873779296874,0.447357177734375,0.7118072509765625,0.2708740234375
1726226141678867700,11.46986767578125,0.4601898193359375,0.724212646484375,0.2875518798828125
1726226141688862700,11.47986279296875,0.4547271728515625,0.730224609375,0.3040924072265625
1726226141698856700,11.489856689453125,0.4434356689453125,0.74273681640625,0.3231353759765625
1726226141708851700,11.499851806640624,0.41534423828125,0.74560546875,0.3488616943359375
1726226141718846700,11.5098466796875,0.3934478759765625,0.731689453125,0.362030029296875
1726226141728840700,11.5198408203125,0.3824005126953125,0.7072906494140625,0.36822509765625
1726226141738835700,11.529835693359376,0.379486083984375,0.694793701171875,0.3705902099609375
1726226141748830000,11.539829833984374,0.39569091796875,0.71356201171875,0.3881988525390625
1726226141758824700,11.54982470703125,0.4134063720703125,0.7322235107421875,0.4149169921875
1726226141768819700,11.55981982421875,0.417083740234375,0.726837158203125,0.4388427734375
1726226141778814000,11.56981396484375,0.42364501953125,0.718841552734375,0.450286865234375
1726226141788808700,11.57980859375,0.435577392578125,0.720428466796875,0.4552764892578125
1726226141798803000,11.589802978515625,0.4490966796875,0.736114501953125,0.4632720947265625
1726226141808798000,11.5997978515625,0.4779205322265625,0.78717041015625,0.48028564453125
1726226141818792700,11.609792724609376,0.5159149169921875,0.8572998046875,0.50537109375
1726226141828787000,11.619786865234374,0.5352630615234375,0.89630126953125,0.5326385498046875
1726226141838782000,11.629781982421875,0.533050537109375,0.9078216552734375,0.550628662109375
1726226141848776000,11.63977587890625,0.534088134765625,0.92926025390625,0.5721893310546875
1726226141858771000,11.64977099609375,0.5332794189453125,0.9545135498046875,0.5970916748046875
1726226141868766000,11.659765869140625,0.521697998046875,0.9550933837890625,0.6072540283203125
1726226141878760000,11.669760009765625,0.495391845703125,0.9164581298828125,0.59405517578125
1726226141888755000,11.6797548828125,0.452911376953125,0.8522491455078125,0.5746917724609375
1726226141898749000,11.6897490234375,0.4164276123046875,0.7911529541015625,0.5473175048828125
1726226141908744000,11.699743896484375,0.397308349609375,0.734161376953125,0.511566162109375
1726226141918739000,11.709739013671875,0.380401611328125,0.6796112060546875,0.4925689697265625
1726226141928733000,11.71973291015625,0.3737030029296875,0.6375579833984375,0.4721832275390625
1726226141938728000,11.72972802734375,0.3855133056640625,0.611541748046875,0.454864501953125
1726226141948723000,11.739722900390625,0.399749755859375,0.58349609375,0.423583984375
1726226141958717000,11.749717041015625,0.4153594970703125,0.5736541748046875,0.3905181884765625
1726226141968712000,11.7597119140625,0.4339447021484375,0.5760040283203125,0.3561248779296875
1726226141978706000,11.769705810546874,0.4384613037109375,0.587249755859375,0.3365325927734375
1726226141988701000,11.779700927734375,0.43817138671875,0.6241455078125,0.337738037109375
1726226141998696000,11.789696044921875,0.4297637939453125,0.647735595703125,0.335235595703125
1726226142008690000,11.79968994140625,0.4154052734375,0.6412200927734375,0.3208770751953125
1726226142018685000,11.809684814453124,0.3954925537109375,0.640350341796875,0.315673828125
1726226142028679000,11.819678955078125,0.404449462890625,0.668792724609375,0.334075927734375
1726226142038674000,11.829673828125,0.422149658203125,0.699951171875,0.361328125
1726226142048669000,11.8396689453125,0.4138641357421875,0.704925537109375,0.39019775390625
1726226142058663000,11.849662841796874,0.3982696533203125,0.6979827880859375,0.4119720458984375
1726226142068658000,11.859657958984375,0.39599609375,0.7073211669921875,0.440185546875
1726226142078652000,11.86965185546875,0.40118408203125,0.7330474853515625,0.475738525390625
1726226142088647000,11.87964697265625,0.3948211669921875,0.748016357421875,0.5046539306640625
1726226142098642000,11.889641845703125,0.3731231689453125,0.745086669921875,0.529510498046875
1726226142108636000,11.899635986328125,0.3614044189453125,0.736297607421875,0.5446624755859375
1726226142118631000,11.909630859375,0.340301513671875,0.7304534912109375,0.5460357666015625
1726226142128625000,11.919625,0.3467559814453125,0.732025146484375,0.54736328125
1726226142138620000,11.929619873046875,0.3574676513671875,0.726531982421875,0.531005859375
1726226142148615000,11.939614990234375,0.3917236328125,0.72119140625,0.52288818359375
1726226142158609000,11.94960888671875,0.4434356689453125,0.730682373046875,0.5157470703125
1726226142168604000,11.95960400390625,0.4971160888671875,0.7460174560546875,0.508636474609375
1726226142178599000,11.969598876953125,0.5482330322265625,0.7694244384765625,0.50042724609375
1726226142188593000,11.979593017578125,0.5904998779296875,0.8101654052734375,0.5015411376953125
1726226142198588000,11.989587890625,0.6308135986328125,0.872589111328125,0.522125244140625
1726226142208582000,11.999581787109374,0.6388702392578125,0.91925048828125,0.5475006103515625
1726226142218577000,12.009576904296875,0.619140625,0.9296722412109375,0.5503692626953125
1726226142228572000,12.019572021484375,0.5897064208984375,0.91876220703125,0.536407470703125
1726226142238566000,12.02956591796875,0.55767822265625,0.8930816650390625,0.5241546630859375
1726226142248561000,12.039560791015624,0.5380401611328125,0.8488006591796875,0.51580810546875
1726226142258555000,12.049554931640625,0.5211334228515625,0.79229736328125,0.4970245361328125
1726226142268550000,12.0595498046875,0.4993743896484375,0.7227935791015625,0.4819183349609375
1726226142278545000,12.069544921875,0.4749908447265625,0.6560516357421875,0.479156494140625
1726226142288539000,12.079538818359374,0.4785919189453125,0.6211090087890625,0.4806060791015625
1726226142298534000,12.089533935546875,0.521453857421875,0.59613037109375,0.4227142333984375
1726226142308527900,12.09952783203125,0.55487060546875,0.5521087646484375,0.4283294677734375
1726226142318523000,12.10952294921875,0.5802459716796875,0.52484130859375,0.4372406005859375
1726226142328518000,12.119517822265625,0.6084747314453125,0.518341064453125,0.45660400390625
1726226142338512000,12.129511962890625,0.634857177734375,0.567626953125,0.4835968017578125
1726226142348507000,12.1395068359375,0.628753662109375,0.639007568359375,0.4941864013671875
1726226142358500900,12.1495009765625,0.6051788330078125,0.69921875,0.5248870849609375
1726226142368495900,12.159495849609375,0.5625152587890625,0.73614501953125,0.5458984375
1726226142378491000,12.169490966796875,0.513397216796875,0.7396697998046875,0.57275390625
1726226142388484900,12.17948486328125,0.4591217041015625,0.7333526611328125,0.6024169921875
1726226142398480000,12.18947998046875,0.4385528564453125,0.73223876953125,0.6146697998046875
1726226142408473900,12.199473876953125,0.4483489990234375,0.732574462890625,0.625946044921875
1726226142418468900,12.20946875,0.4636688232421875,0.728668212890625,0.6239776611328125
1726226142428463900,12.2194638671875,0.4860992431640625,0.72576904296875,0.610687255859375
1726226142438457900,12.229457763671874,0.49395751953125,0.741546630859375,0.6004638671875
1726226142448452900,12.239452880859375,0.5042572021484375,0.7817840576171875,0.613983154296875
1726226142458448000,12.24944775390625,0.50164794921875,0.7967071533203125,0.6243743896484375
1726226142468441900,12.25944189453125,0.47564697265625,0.77154541015625,0.611541748046875
1726226142478436900,12.269436767578124,0.4350433349609375,0.7306671142578125,0.5753631591796875
1726226142488431000,12.27943115234375,0.426025390625,0.6957855224609375,0.5389404296875
1726226142498425900,12.28942578125,0.4435882568359375,0.682098388671875,0.5124664306640625
1726226142508420900,12.2994208984375,0.45654296875,0.676483154296875,0.500244140625
1726226142518414800,12.309414794921874,0.4502716064453125,0.6800384521484375,0.491668701171875
1726226142528409900,12.319409912109375,0.4602508544921875,0.70208740234375,0.488067626953125
1726226142538404000,12.329404052734375,0.4876861572265625,0.7436370849609375,0.508697509765625
1726226142548398800,12.33939892578125,0.481689453125,0.7686309814453125,0.5048675537109375
1726226142558393900,12.349393798828125,0.4637603759765625,0.75408935546875,0.4883575439453125
1726226142568388000,12.35938818359375,0.4438323974609375,0.7319488525390625,0.4782562255859375
1726226142578382800,12.3693828125,0.4406585693359375,0.7301025390625,0.47186279296875
1726226142588377000,12.379377197265624,0.4434051513671875,0.7430267333984375,0.45318603515625
1726226142598372000,12.3893720703125,0.4523162841796875,0.760040283203125,0.4440155029296875
1726226142608366800,12.399366943359375,0.471343994140625,0.775054931640625,0.44091796875
1726226142618361000,12.409361083984376,0.4760284423828125,0.783111572265625,0.434814453125
1726226142628356000,12.419356201171874,0.4773406982421875,0.8040924072265625,0.4246826171875
1726226142638350000,12.42935009765625,0.4783172607421875,0.817718505859375,0.429290771484375
1726226142648345000,12.439344970703125,0.4642486572265625,0.8263092041015625,0.4378662109375
1726226142658340000,12.449340087890626,0.443695068359375,0.8223419189453125,0.4295806884765625
1726226142668334000,12.459333984375,0.4311370849609375,0.7995758056640625,0.4154205322265625
1726226142678329000,12.4693291015625,0.4288482666015625,0.759246826171875,0.4095306396484375
1726226142688324000,12.479323974609375,0.4366302490234375,0.7132568359375,0.3956451416015625
1726226142698318000,12.489318115234376,0.4418487548828125,0.669921875,0.3958587646484375
1726226142708313000,12.49931298828125,0.4448699951171875,0.6576385498046875,0.4035186767578125
1726226142718307000,12.50930712890625,0.4458465576171875,0.6462860107421875,0.4121246337890625
1726226142728302600,12.519302490234375,0.4499969482421875,0.647979736328125,0.4261932373046875
1726226142738297300,12.52929736328125,0.4607391357421875,0.6800994873046875,0.4431610107421875
1726226142748291600,12.53929150390625,0.4688720703125,0.741455078125,0.490692138671875
1726226142758286600,12.54928662109375,0.4522247314453125,0.768157958984375,0.4970855712890625
1726226142768280600,12.559280517578125,0.438690185546875,0.7574920654296875,0.484222412109375
1726226142778275600,12.569275634765624,0.4349365234375,0.7311859130859375,0.4703521728515625
1726226142788270600,12.5792705078125,0.4258575439453125,0.6875457763671875,0.4446868896484375
1726226142798264600,12.5892646484375,0.4176177978515625,0.6489105224609375,0.4192047119140625
1726226142808259600,12.599259521484376,0.412811279296875,0.627349853515625,0.3981170654296875
1726226142818253600,12.609253662109374,0.409759521484375,0.623687744140625,0.387542724609375
1726226142828248600,12.61924853515625,0.40985107421875,0.649627685546875,0.3861236572265625
1726226142838243600,12.62924365234375,0.403350830078125,0.6762542724609375,0.392547607421875
1726226142848237600,12.639237548828126,0.3860931396484375,0.6979217529296875,0.3841705322265625
1726226142858232600,12.649232666015624,0.3712921142578125,0.703460693359375,0.383331298828125
1726226142868226600,12.6592265625,0.374237060546875,0.7195892333984375,0.3900909423828125
1726226142878221600,12.6692216796875,0.3744354248046875,0.72125244140625,0.3898468017578125
1726226142888216600,12.679216552734376,0.363494873046875,0.7160186767578125,0.3989105224609375
1726226142898210600,12.68921044921875,0.356719970703125,0.7121429443359375,0.413116455078125
1726226142908205600,12.69920556640625,0.3631744384765625,0.7174072265625,0.442962646484375
1726226142918199600,12.709199462890625,0.382049560546875,0.7028961181640625,0.4622344970703125
1726226142928194600,12.719194580078126,0.396148681640625,0.686004638671875,0.4563751220703125
1726226142938189600,12.729189453125,0.4106903076171875,0.699737548828125,0.4468231201171875
1726226142948183600,12.73918359375,0.4407806396484375,0.75018310546875,0.446044921875
1726226142958178600,12.749178466796875,0.48138427734375,0.8372802734375,0.4425201416015625
1726226142968173600,12.759173583984374,0.538360595703125,0.9451141357421875,0.4250946044921875
1726226142978167600,12.76916748046875,0.5935516357421875,1.044921875,0.4130706787109375
1726226142988162600,12.77916259765625,0.62109375,1.1114349365234375,0.4119110107421875
1726226142998156500,12.789156494140625,0.6136932373046875,1.1312255859375,0.3838043212890625
1726226143008151600,12.799151611328124,0.5954742431640625,1.120849609375,0.337493896484375
1726226143018146600,12.809146484375,0.573455810546875,1.095947265625,0.293304443359375
1726226143028140500,12.819140625,0.5587921142578125,1.0660858154296875,0.2790679931640625
1726226143038135600,12.829135498046876,0.54852294921875,1.044281005859375,0.32098388671875
1726226143048129500,12.839129638671874,0.54364013671875,1.018524169921875,0.3727874755859375
1726226143058124500,12.84912451171875,0.508056640625,0.9814910888671875,0.4249725341796875
1726226143068119600,12.85911962890625,0.4185333251953125,0.904876708984375,0.4594268798828125
1726226143078113500,12.869113525390626,0.3713531494140625,0.8291168212890625,0.486419677734375
1726226143088108500,12.879108642578124,0.34130859375,0.7413482666015625,0.462646484375
1726226143098102500,12.8891025390625,0.2828216552734375,0.6751251220703125,0.4451141357421875
1726226143108097500,12.89909765625,0.2685699462890625,0.6266632080078125,0.4259033203125
1726226143118092500,12.909092529296874,0.298675537109375,0.600006103515625,0.425994873046875
1726226143128086500,12.91908642578125,0.3424530029296875,0.6062164306640625,0.432830810546875
1726226143138081500,12.92908154296875,0.374114990234375,0.636138916015625,0.4496917724609375
1726226143148075500,12.939075439453125,0.4109344482421875,0.668914794921875,0.4695281982421875
1726226143158070500,12.949070556640624,0.4455108642578125,0.6978912353515625,0.4849700927734375
1726226143168065500,12.9590654296875,0.457763671875,0.7086334228515625,0.4857940673828125
1726226143178059500,12.9690595703125,0.4514312744140625,0.6963958740234375,0.4674530029296875
1726226143188054500,12.979054443359376,0.450653076171875,0.68402099609375,0.43743896484375
1726226143198049500,12.989049560546874,0.45733642578125,0.683807373046875,0.4117279052734375
1726226143208043500,12.99904345703125,0.4738311767578125,0.6926422119140625,0.391204833984375
1726226143218038500,13.00903857421875,0.49517822265625,0.7164154052734375,0.3783111572265625
1726226143228032500,13.019032470703126,0.5184478759765625,0.7592926025390625,0.37579345703125
1726226143238027500,13.029027587890624,0.5330963134765625,0.7996978759765625,0.3722076416015625
1726226143248022500,13.0390224609375,0.533355712890625,0.8389434814453125,0.3752593994140625
1726226143258016500,13.0490166015625,0.52520751953125,0.874481201171875,0.3804779052734375
1726226143268011500,13.059011474609376,0.5248565673828125,0.912384033203125,0.39862060546875
1726226143278005500,13.069005615234374,0.51611328125,0.94049072265625,0.4109039306640625
1726226143288000500,13.07900048828125,0.5087738037109375,0.9431915283203125,0.40655517578125
1726226143297995500,13.08899560546875,0.483123779296875,0.943603515625,0.3963623046875
1726226143307989500,13.098989501953126,0.442138671875,0.931365966796875,0.392333984375
1726226143317984500,13.108984619140625,0.4067535400390625,0.8892059326171875,0.3916168212890625
