time,seconds_elapsed,z,y,x
1726226130248778800,0.03977880859375,0.228513572075963,0.30814123554229733,-1.1673592603523284
1726226130258772700,0.049772705078125,0.2358469837039709,0.707394820639491,-1.475590000808984
1726226130268767700,0.059767822265625,-0.0783744485348463,0.6841741040498018,-1.0873198012147098
1726226130278762800,0.0697626953125,-0.5440776510953903,0.7164695229768753,-1.0367195678554475
1726226130288756700,0.0797568359375,-0.5974111818760633,0.7988952927291393,-1.1498265993364154
1726226130298751700,0.089751708984375,-1.0197060353428125,1.5946861897021531,-1.802685819929093
1726226130308746800,0.099746826171875,-1.0290127928704023,1.7654989756986499,-0.9747614165924489
1726226130318740700,0.10974072265625,-0.7223042204797268,1.0533932008892297,-1.1832489764668046
1726226130328735700,0.11973583984375,-0.6413146210104227,0.5080082665875554,-1.053880253753811
1726226130338730800,0.129730712890625,-0.22253975836336612,-0.9134925627678632,0.6551629674904048
1726226130348724700,0.139724853515625,0.9212883312106132,-2.1940835769593714,1.282821111331135
1726226130358719700,0.1497197265625,2.4178771347761154,-0.692508509413898,-0.6155865977749229
1726226130368714800,0.15971484375,2.9057214419960973,0.8239277349159121,-1.8421246808700262
1726226130378708700,0.169708740234375,2.5971815625250336,0.4314201169475913,-1.6750912672817706
1726226130388703700,0.179703857421875,2.499883802333474,-0.28852205057591196,-0.4978874161981046
1726226130398698800,0.18969873046875,1.4517910459399221,-0.4708168923124671,0.588681639714539
1726226130408692700,0.199692626953125,1.1595301010966301,-0.7258265493869781,0.845030436438322
1726226130418687700,0.209687744140625,0.9544172783523798,-1.056153020991385,1.3115225974194704
1726226130428682800,0.219682861328125,0.2986532762289047,-1.4018869050860405,1.8207713655874131
1726226130438676700,0.2296767578125,-1.2465841151714325,-1.7087246568143366,1.8741015353672206
1726226130448671700,0.239671630859375,-1.3816285454332828,-1.3984516699403524,0.8107789150074124
1726226130458666800,0.249666748046875,-0.20387772799134254,-0.4141548016309738,-1.4829004699528217
1726226130468660700,0.25966064453125,0.3755845402181148,-0.6262891935750842,-1.8482298658773302
1726226130478655700,0.26965576171875,0.9800701905250548,-0.669766516251862,-1.7514187201589344
1726226130488650800,0.279650634765625,1.7249223428994416,-0.5821285648092627,-2.1550074118509888
1726226130498644700,0.289644775390625,2.372811666125059,-0.4987497321158647,-2.2237691056489943
1726226130508639700,0.2996396484375,2.4456080222666263,-0.40630730300098655,-2.01822037570551
1726226130518634800,0.309634765625,2.528928110510111,-0.4232762657195329,-1.8178721370145678
1726226130528628700,0.319628662109375,2.605589909908175,-0.1703904689311981,-2.3096342022001743
1726226130538623700,0.329623779296875,-0.49227322957813735,-0.1425841781169176,-3.4686458323806524
1726226130548618800,0.33961865234375,-1.5220885710030794,0.06327566360235214,-3.8433945062965154
1726226130558612700,0.34961279296875,-1.0551917747437953,0.38368689039200543,-3.828297182668745
1726226130568607700,0.359607666015625,-0.8216630048543214,1.0695376954823732,-3.687477091614902
1726226130578602800,0.369602783203125,-0.1358224288970232,1.5359512382693588,-3.890503463473916
1726226130588596700,0.3795966796875,0.24718027862310407,1.8255417948596178,-3.2354543316215274
1726226130598591700,0.389591796875,0.9603197803944349,2.3648836496047676,-2.443696343426406
1726226130608586800,0.399586669921875,1.5973849272668361,1.8249400295741856,-3.0513617928132413
1726226130618580700,0.409580810546875,3.996853714171052,0.6533338523671031,-2.9348294630587097
1726226130628575700,0.41957568359375,4.416268043765426,0.5147121481403708,-3.1265979433223605
1726226130638570800,0.42957080078125,4.354156163245439,1.0428896347925067,-2.6801749030321833
1726226130648564700,0.439564697265625,3.800075004529953,2.052864549715817,-1.305809918861091
1726226130658559700,0.449559814453125,3.59360492195785,2.285919856874645,-0.849094324876368
1726226130668554800,0.4595546875,3.452604798161983,2.366362343855202,-1.2417241079196333
1726226130678548700,0.469548828125,2.7464976792454716,2.5388158827960488,-0.9563286649316549
1726226130688543700,0.479543701171875,1.6404320418328047,2.7241902781084177,-0.2102753200739622
1726226130698538800,0.489538818359375,0.5567354726165533,2.1559031916469333,-1.092580132895708
1726226130708532700,0.49953271484375,-1.027700541228056,3.008508447253704,-0.8378209434509277
1726226130718528300,0.5095283203125,-3.0779882261931895,3.350027928523719,-0.03250584680736065
1726226130728523300,0.519523193359375,-4.289754125961661,3.425252973116934,0.6175707573294639
1726226130738517000,0.52951708984375,-4.88933563761413,3.5475352447003123,1.016786348503828
1726226130748512300,0.53951220703125,-5.121313670930266,3.9053003428503867,1.744597349706292
1726226130758507300,0.54950732421875,-4.850758361938595,4.112642239820957,2.9437101041287184
1726226130768501000,0.5595009765625,-3.882203837162256,4.142875465521216,3.817756207171082
1726226130778496300,0.569496337890625,-2.6407465634852647,4.396261028525233,4.371888803812861
1726226130788491300,0.5794912109375,-1.6671756718516348,4.856726330432296,5.422809477108717
1726226130798485000,0.589485107421875,-1.308232469832897,5.546548084980249,6.542877336388826
1726226130808480300,0.599480224609375,-1.56503807041347,6.566905862230062,7.352758133512735
1726226130818475300,0.609475341796875,-2.0965379794865844,8.252530213963984,8.219125372490286
1726226130828469200,0.61946923828125,-2.399285831552744,9.403038219693302,8.633661866915226
1726226130838464300,0.62946435546875,-1.6212749214202165,9.514089779949188,7.2963991174310445
1726226130848459300,0.639459228515625,-0.7779957125633955,8.956773877096175,4.384108233916759
1726226130858453200,0.649453369140625,-2.167069897827506,7.98498694626987,2.0710171692609785
1726226130868448300,0.6594482421875,-4.738244327914715,7.700875405612588,1.233270460090041
1726226130878443300,0.669443359375,-6.620284985718131,8.362747076961398,0.8635586112976074
1726226130888437200,0.679437255859375,-7.431599030515551,9.352980934104323,0.783531719380617
1726226130898432300,0.689432373046875,-7.031199782514571,10.371197607672213,0.2767588398069143
1726226130908427300,0.69942724609375,-6.452993067324162,11.206847636824845,-1.304081195372343
1726226130918421200,0.709421142578125,-6.079843645298481,10.69586678416729,-4.432874895173311
1726226130928416300,0.719416259765625,-4.635958842438459,8.812490493845939,-8.429989306107164
1726226130938410000,0.729409912109375,-2.576699915510416,6.512309179645777,-11.132933674830198
1726226130948405200,0.7394052734375,-0.924405001926422,5.544191292721033,-12.212392460346221
1726226130958400300,0.749400146484375,0.3627116877067834,5.529200059816241,-12.849195156890152
1726226130968394000,0.75939404296875,1.2007511692792177,4.706089194241166,-13.486292452466486
1726226130978389200,0.76938916015625,1.6049574083477258,2.9370646747648714,-15.123155988162756
1726226130988384300,0.77938427734375,1.2462450924754143,1.8169769417405128,-17.146083372515438
1726226130998378200,0.789378173828125,1.4926130318023263,0.3498883734256029,-20.45704799541235
1726226131008373200,0.799373291015625,2.436221769762039,-2.7485458439469337,-22.6229704767704
1726226131018368300,0.8093681640625,4.693219775795936,-5.3103427893579,-22.80264782948494
1726226131028362200,0.8193623046875,7.654967640918493,-6.3184086557894945,-21.958913862597942
1726226131038357200,0.829357177734375,10.798587153929471,-7.3992282082647085,-21.069669021379948
1726226131048352300,0.839352294921875,13.841643182951211,-7.033157346323132,-19.422893163478374
1726226131058346200,0.84934619140625,15.968385162043571,-5.4040626910626886,-16.16033046017885
1726226131068341200,0.85934130859375,15.815061563247442,-4.214485826748609,-12.60184653596282
1726226131078336300,0.869336181640625,14.443376904201507,-1.5701993986994027,-8.068431537675856
1726226131088330200,0.879330322265625,12.897868294644354,2.843393288376927,-1.8466992953091859
1726226131098325200,0.8893251953125,10.184264000219105,4.985077985057234,1.4503975457549094
1726226131108320300,0.8993203125,8.450037822401523,5.472861502000689,4.505671251314878
1726226131118314200,0.909314208984375,7.652226233255862,6.17139730888009,7.45409318639636
1726226131128309200,0.919309326171875,6.622143180805445,6.302706059744954,8.223515716403723
1726226131138304300,0.92930419921875,6.763894415229559,6.759314101701975,10.354527043378353
1726226131148298200,0.93929833984375,5.8464557451844215,7.79939949272871,12.546590512686967
1726226131158293200,0.949293212890625,3.7009295706450938,8.042379397052526,13.352424080246687
1726226131168288300,0.959288330078125,2.0123915234215555,7.1089522997587915,11.087529183483124
1726226131178282200,0.9692822265625,0.6018791210703551,4.834386488330364,6.683923052892088
1726226131188277200,0.97927734375,1.1578402483135461,1.6682845098763703,2.2651795589238404
1726226131198271200,0.989271240234375,3.118454676616192,1.6481518224298952,1.1894693122863769
1726226131208266200,0.999266357421875,4.897765027785301,2.766950100165605,0.8284130636364221
1726226131218261200,1.00926123046875,5.457950933116674,3.792148303183913,1.113414246609807
1726226131228255200,1.019255126953125,1.3067173890948294,4.38694141151607,2.165277169191837
1726226131238250200,1.029250244140625,-2.1763398304760453,3.614521453258395,2.0154472577303646
1726226131248245200,1.039245361328125,-1.984241387605667,2.9263199933886526,0.06348316887319087
1726226131258239200,1.0492392578125,-2.0233459020256994,2.6374703182935715,-2.0536557000935076
1726226131268234200,1.059234130859375,-2.646128256523609,1.855990270745754,-3.353344213464856
1726226131278229200,1.069229248046875,-2.0825708289325235,0.46170448831319805,-4.9005835923373695
1726226131288223200,1.07922314453125,-2.7399253151178358,-0.962173299306631,-6.27561405467987
1726226131298218200,1.08921826171875,-0.8963257393896579,-1.8862293416649103,-7.12890963063836
1726226131308213200,1.099213134765625,1.4293183712385593,-2.4797686505436896,-7.390583129516243
1726226131318207200,1.109207275390625,1.043214848158881,-2.843794270393252,-7.01173169645667
1726226131328202200,1.1192021484375,1.8489140487492084,-3.1844717478811737,-6.6134396498680115
1726226131338197200,1.129197265625,0.8684194222670047,-3.413623033338785,-5.515785282447934
1726226131348191200,1.139191162109375,-2.6969746466636657,-3.0121511876702307,-3.9209932942837473
1726226131358186200,1.149186279296875,-5.002872584944964,-1.3374766844958066,-0.8210317212134599
1726226131368180200,1.15918017578125,-5.50693269842863,-0.885998991164565,1.6005419299930332
1726226131378175200,1.16917529296875,-4.898111064743995,-1.2136235103338957,2.479382281574607
1726226131388170200,1.179170166015625,-4.436224205601215,-2.0289152265906334,2.5639889024972913
1726226131398164200,1.189164306640625,-4.061643873989582,-2.5586878734797236,2.6931810995995997
1726226131408159200,1.1991591796875,-3.5351159081101415,-2.9872078850716353,2.8734318682879207
1726226131418154200,1.209154296875,-2.845590506160259,-3.353303296932578,2.825433853316307
1726226131428148200,1.219148193359375,-1.5090017104148863,-4.19143345246315,1.8661767337173223
1726226131438143200,1.229143310546875,0.4547474722495302,-4.349065562108159,1.375037476605177
1726226131448138200,1.23913818359375,1.3226409344136714,-3.1573014168828726,2.3755378762185573
1726226131458132200,1.24913232421875,2.5632220097780225,-1.7526660898715256,3.754785079473257
1726226131468127200,1.259127197265625,1.3918319595396518,-0.935778044334054,5.633028098559379
1726226131478122200,1.269122314453125,4.24689873457551,-1.2402473133653402,5.041450445142388
1726226131488116200,1.2791162109375,7.417523743411898,-2.5552517615512014,3.2130817562937737
1726226131498111200,1.289111328125,6.297226751551031,-1.7219111783847212,3.4202620329618454
1726226131508105000,1.29910498046875,5.494595194903016,-0.7615656790271401,3.750305303710699
1726226131518100200,1.309100341796875,4.95162813539803,-1.4197913950890302,2.105475903701782
1726226131528095200,1.31909521484375,2.8222727589368817,0.8320619415327906,3.0686008046448228
1726226131538089200,1.329089111328125,1.807159312081337,0.21173428671061992,1.8285481370687484
1726226131548084200,1.339084228515625,-0.1892261023044586,0.22099399022608995,0.31476679116189477
1726226131558079200,1.349079345703125,-2.1053800421118734,0.0695928839251399,-1.5259306333839893
1726226131568073200,1.3590732421875,-3.2001907105386254,0.23627193111777303,-2.818347109925747
1726226131578068200,1.369068115234375,0.704783761358261,0.07837152592539787,-2.7640105395823715
1726226131588063200,1.379063232421875,1.6592086384952067,0.9212214034542441,-0.8387801438719034
1726226131598057200,1.38905712890625,-0.24864976665377617,4.120115059919655,2.4846850641578433
1726226131608052200,1.39905224609375,0.4075777613282203,5.781195045244694,3.5585774477183816
1726226131618047200,1.409047119140625,1.9452175372064113,5.90048777962327,3.0431477989584206
1726226131628041200,1.419041259765625,1.3088684296488762,5.197911172920465,2.6001608705967665
1726226131638036200,1.4290361328125,-0.620099399024248,4.094484944100678,1.8374328697919844
1726226131648030000,1.439030029296875,-2.2432465440571305,3.5489486186295744,0.9454998124033213
1726226131658025200,1.449025146484375,-3.505830192393064,2.6688863240376115,0.018586042526364324
1726226131668020200,1.459020263671875,-4.093876749074459,2.571602592371404,-1.2707605250507592
1726226131678014000,1.469013916015625,-5.0766193736791605,2.6166174998790024,-2.269216267094016
1726226131688009200,1.47900927734375,-4.336193805575371,1.1411483489707113,-2.1262106486946344
1726226131698004200,1.489004150390625,-1.5438567506968974,-1.7575410024315117,-0.23980887307226656
1726226131707998200,1.498998291015625,0.6320844358503818,-2.740878085798025,0.4721574932664633
1726226131717993000,1.508992919921875,1.68033325958848,-2.904733600002527,0.8690057707875967
1726226131727988000,1.518988037109375,1.797356879991293,-1.5919295844703911,1.1777817971020936
1726226131737982000,1.52898193359375,0.9735551095426082,-0.9611234979927539,1.091950018298626
1726226131747977000,1.53897705078125,1.0068287258520723,-0.5914654252141713,-0.14443945059478283
1726226131757972000,1.548971923828125,1.0094447535693645,1.0728986963480711,-2.2090800705611704
1726226131767966000,1.558966064453125,0.3304290551960468,1.0891180097430944,-2.7205285407304762
1726226131777961000,1.5689609375,0.60680766351372,-2.768867916485667,-0.4601385541707277
1726226131787955000,1.578954833984375,1.6827081720262764,-4.184277150967717,0.8777189463362097
1726226131797950000,1.588949951171875,3.151994542646408,-3.585580605456233,0.558966592669487
1726226131807945000,1.598945068359375,2.6933918197408317,-1.969804281452298,1.0688874148800969
1726226131817939000,1.60893896484375,0.8996905396476388,2.7174171307116746,0.8225339424699545
1726226131827934000,1.618933837890625,1.4734206939458847,8.849680699077249,0.7090826275959611
1726226131837929000,1.628928955078125,-1.7797922894671558,11.6583019492805,0.7398565360441803
1726226131847923000,1.6389228515625,-3.9963174153372645,10.74774777805209,-1.2993801780745386
1726226131857918000,1.64891796875,-3.121027741974592,7.139848957803845,-1.1401890024192631
1726226131867912000,1.658911865234375,-2.1382973923295734,3.1232541858524083,-1.2235102597065268
1726226131877907000,1.668906982421875,-0.28247619454041123,0.30464696368575095,-1.3502207229956984
1726226131887902000,1.67890185546875,-0.36668694801330565,-1.9400749136209487,-1.2717204561240971
1726226131897896000,1.68889599609375,-2.1358348016083237,-2.6137416521817443,-0.4707254877019673
1726226131907891000,1.698890869140625,-1.7936261690303683,-2.5764152533501385,-0.6701660369634628
1726226131917886000,1.708885986328125,-1.3623102431096137,-2.3623294350773096,-2.5763670302942394
1726226131927880000,1.7188798828125,-1.5858162161566316,-1.6882079384863375,-3.920209450429678
1726226131937875000,1.728875,-1.78917474257946,-1.2074264092594384,-3.786230311311781
1726226131947870000,1.738869873046875,-2.139437794536352,0.16450608706772327,-4.42495900748223
1726226131957864000,1.748864013671875,-2.604430803000927,1.4082505948990582,-5.325324085390568
1726226131967859000,1.75885888671875,-3.070537910187244,1.7066256387084722,-4.252787792614102
1726226131977853200,1.768853271484375,-3.5824200955986973,1.0068892238676548,-3.0789988645404573
1726226131987848000,1.778847900390625,-3.637250586938858,0.35377661303579805,-1.803479454524815
1726226131997843000,1.788843017578125,-3.5756592231616375,0.24103461547493935,-0.29164544329345227
1726226132007837200,1.798837158203125,-3.0728187146008015,0.3636725686281919,1.0068921464771032
1726226132017832000,1.80883203125,-2.0538591137111184,0.5348036267936229,1.9776321985989809
1726226132027827000,1.818826904296875,1.1110310047350824,0.4951864866763353,2.8009166671752928
1726226132037821000,1.828821044921875,12.64936348941922,0.9815408475995063,5.193858682659268
1726226132047816000,1.83881591796875,13.071944758611917,1.2459195137828587,4.37149951223433
1726226132057811000,1.84881103515625,5.391256985503435,0.598301408714056,2.586172384993732
1726226132067805000,1.858804931640625,0.7530582551836967,-0.03216039437055587,1.447531927190721
1726226132077800000,1.868800048828125,-1.5287845615103839,-0.6978542543560267,0.6006091011345386
1726226132087794200,1.878794189453125,-2.2014500140741466,-1.0747884556174279,0.03532295005470514
1726226132097789000,1.888788818359375,-1.1375649375259875,-1.0091256046175956,0.005935527528822422
1726226132107784000,1.898783935546875,0.1961822050526738,-0.5987737024009228,-0.3659516194760799
1726226132117778200,1.908778076171875,0.9997115873232483,-0.2541115391910076,-0.5939271391525864
1726226132127773000,1.91877294921875,0.9327768166914582,-0.17658464739620686,-1.0918132401764393
1726226132137768000,1.928767822265625,0.8036322581231594,0.3453361169487238,-0.14434066639542578
1726226132147762200,1.93876220703125,0.3869040988728404,0.30141046598255633,-0.18233575826883314
1726226132157757000,1.9487568359375,-0.23684447030872105,0.13677344601154326,-0.3052341159239411
1726226132167751200,1.958751220703125,-0.2137479646205902,0.05194996746778488,-0.23391981503367423
1726226132177746200,1.96874609375,-0.1499170052230358,-0.034975451791286465,-0.07292407417446374
1726226132187741000,1.978740966796875,-0.16711247017383574,0.0017769465446472166,-0.013979717774689197
1726226132197735200,1.988735107421875,-0.12294248905777931,0.07143266657292842,-0.025658465130627153
1726226132207730200,1.998730224609375,0.03541413546949625,0.16864567109048365,0.13740677547901867
1726226132217725000,2.008724853515625,0.07936521313786506,0.3027145343184471,0.38747809936851263
1726226132227719200,2.01871923828125,0.030536592561006545,0.3080833678752184,0.3202838010177016
1726226132237714200,2.028714111328125,-0.09451748182326555,0.231937701305747,0.4542600175261497
1726226132247709000,2.038708984375,-0.3046048781096935,0.5226274513095617,0.5508785632818937
1726226132257703200,2.048703125,-0.27075609226077796,0.7330418875932693,0.3084200524836778
1726226132267698200,2.0586982421875,-0.35770372335165734,0.5178951620906591,0.30797172419428825
1726226132277692200,2.068692138671875,-0.20810849742889403,0.8177624902844428,0.26846125932186843
1726226132287687200,2.078687255859375,0.015353344215452671,0.7327204005539417,-0.05403554157018661
1726226132297682000,2.088681884765625,0.10714549272805451,0.6594955898672342,-0.23241204081922767
1726226132307676200,2.09867626953125,0.12175737092643975,0.6761860279053449,-0.44787528492510315
1726226132317671200,2.108671142578125,-0.0012695815443992614,0.6208487560868263,-0.6161953773230314
1726226132327666000,2.118666015625,-0.06360328812152147,0.7693576480776071,-0.8044248698055744
1726226132337660200,2.12866015625,-0.19160539865642784,0.7944301300138235,-0.8993360271215438
1726226132347655200,2.1386552734375,-0.20548750127553939,0.8252256657719612,-1.093553361842036
1726226132357649200,2.148649169921875,-0.21642039870023727,0.754689655777812,-1.0583528691232205
1726226132367644200,2.15864404296875,-0.23923545709848404,0.9299129516929387,-0.9578072130516171
1726226132377639200,2.16863916015625,-0.29001375043839217,1.0490560484677554,-0.8611343067601323
1726226132387633200,2.178633056640625,-0.3363803648158908,0.8738830214351415,-0.7482695596024393
1726226132397628200,2.188628173828125,-0.38834114593863484,0.7151631165534258,-0.6278066124007106
1726226132407623200,2.198623046875,-0.31867402773350473,0.5463549483776092,-0.516541409394145
1726226132417617200,2.2086171875,-0.3774900815784931,0.19503800345361233,-0.5405658435821533
1726226132427612200,2.218612060546875,-0.503868682564795,-0.2113432415664196,-0.4906871294304728
1726226132437607200,2.228607177734375,-0.4617161787509918,-0.40708442485332486,-0.37017508239001035
1726226132447601200,2.23860107421875,-0.3134071932464838,-0.5151216057240963,-0.32400574415028094
1726226132457596200,2.24859619140625,0.09284750278443098,-0.5349129323869943,-0.4454296453386545
1726226132467590100,2.258590087890625,0.728999041943252,-0.4208499153554439,-0.5929255608946085
1726226132477585200,2.268585205078125,0.9697077864646911,-0.12531915506124497,-0.42168665844053027
1726226132487580200,2.278580078125,0.8236059556156397,0.06815875946879386,-0.2873205658316612
1726226132497574100,2.28857421875,0.5977256546527147,0.35646599825024605,-0.008342296409606932
1726226132507569200,2.298569091796875,0.5522209178015589,0.5330108981579542,0.33699352827817197
1726226132517564200,2.308564208984375,0.19124299508482218,0.36083880650699135,0.6202735865473746
1726226132527558100,2.31855810546875,-0.7763903231933712,0.06233575240373611,0.46890755155980585
1726226132537553200,2.32855322265625,-1.46160516846776,-0.2337111407190561,0.5458046210184693
1726226132547547100,2.338547119140625,-2.259799619451165,-0.2982961333543062,0.3940709217622876
1726226132557542100,2.348542236328125,-2.7866502414137124,-0.12261866393089293,-0.03768324944525957
1726226132567537200,2.358537109375,-2.804509723231196,0.22944296188056468,-0.5061477334126829
1726226132577531100,2.36853125,-2.360137477990985,0.6027057811528443,-0.5034755915939808
1726226132587526100,2.378526123046875,-1.2936492332071066,0.8850853834509849,-0.6810933814302086
1726226132597521200,2.388521240234375,-0.08215396707355975,1.0263321754842996,-0.9752478849351406
1726226132607515100,2.39851513671875,0.6109849491983652,0.983643372836709,-0.8691331965595483
1726226132617510100,2.40851025390625,0.5319809705883264,0.7486410232633351,-0.5123065483033656
1726226132627504000,2.418504150390625,-0.11562544404268264,0.33069442813396455,-0.4791317161932587
1726226132637499100,2.4284990234375,-0.9191174169123172,0.0055693245649337765,-0.6227203951776027
1726226132647494100,2.438494140625,-1.1784867305010556,0.03720131114721298,-0.47957799865603445
1726226132657488100,2.448488037109375,-0.9706775082796811,0.2665782220542431,-0.1661480090558529
1726226132667483100,2.458483154296875,-0.7070864853426814,0.5436567953348159,0.29102175843715666
1726226132677478100,2.46847802734375,-0.44312546004951,0.6363420932948589,0.7235726329803467
1726226132687472000,2.47847216796875,-0.2078752731949091,0.47488487240374083,0.8667059694126248
1726226132697467100,2.488467041015625,0.09927812035381793,0.20229718080163,0.8816235525593161
1726226132707459800,2.4984599609375,0.6424468399107456,-0.06788578774631022,1.0047206476569175
1726226132717454800,2.508454833984375,1.1992749592468142,-0.26767244703173637,0.9866174202114343
1726226132727448800,2.51844873046875,1.489837575739622,-0.5618769271582364,0.6632546501398087
1726226132737443800,2.52844384765625,1.426405260270834,-0.9402665879249572,0.4049035736829042
1726226132747438800,2.53843896484375,1.2812374954015016,-1.2125146723091602,0.2618757434517145
1726226132757432800,2.548432861328125,1.0610983684390782,-1.4170675230830907,0.29608605608940125
1726226132767427800,2.558427734375,0.7703969279974698,-1.4371557868659495,0.541702154135704
1726226132777421800,2.568421875,0.7036477430656551,-1.3781933102875947,0.860759920489788
1726226132787416800,2.578416748046875,0.8716682679951191,-1.2542384293168782,0.9915735813140869
1726226132797411800,2.588411865234375,0.7754699934780597,-1.3166612754821776,0.9157178376019001
1726226132807405800,2.59840576171875,0.519967292189598,-1.392415312385559,0.5725701706081628
1726226132817400800,2.60840087890625,0.5015887549340725,-1.4461445644855497,0.17925474338829517
1726226132827395800,2.618395751953125,0.6849053409337997,-1.3667910417854785,-0.04127952037155628
1726226132837389800,2.628389892578125,0.8882657670527696,-0.9676327337563038,-0.10014262822866439
1726226132847384800,2.638384765625,0.9302847076147794,-0.5009282451987266,0.1288163495272398
1726226132857379000,2.648379150390625,1.2629048431143164,0.1220277123004198,0.18918810838162897
1726226132867373800,2.658373779296875,1.5278525413572788,0.36033027246296406,0.7473539060622453
1726226132877368800,2.668368896484375,1.9105536355823278,0.7167115150392055,1.1302502305984496
1726226132887363000,2.678363037109375,1.6024790355354546,0.6722896049886942,1.5170646053612231
1726226132897357800,2.68835791015625,0.8932365412026643,0.3932745106875896,1.537749665993452
1726226132907352800,2.698352783203125,0.31903321643471716,0.3587795358896255,1.3023925116330384
1726226132917347000,2.70834716796875,0.07840192106366158,0.21094284407198427,1.0572130514383316
1726226132927341800,2.718341796875,0.1737596531033516,0.1814537147372961,0.8639420576572417
1726226132937336000,2.728336181640625,0.22123978168070316,0.04282441172599792,0.2961614594131708
1726226132947331000,2.7383310546875,0.1684048480719328,0.08629705822765826,-0.0651575318261981
1726226132957325800,2.748325927734375,-0.08386310907900332,0.06313830095827579,-0.299081730774045
1726226132967320000,2.758320068359375,-0.3833019827276468,0.11354220802783965,-0.3654612056106329
1726226132977315000,2.768315185546875,-0.5775415292799473,0.2128460473448038,-0.20064327611476182
1726226132987309800,2.778309814453125,-0.8471686175107955,0.23496435565054416,-0.19815730451792476
1726226132997304000,2.788303955078125,-0.9841694425374269,0.2349883210480213,-0.22236703214496373
1726226133007299000,2.798299072265625,-1.0404787742584942,0.24721184280514716,-0.28390257408171893
1726226133017293000,2.80829296875,-1.0140548777133225,0.20205226612985133,-0.4502817615449428
1726226133027288000,2.8182880859375,-1.1147469565182924,0.22306232093274592,-0.30565614072829483
1726226133037282800,2.82828271484375,-1.2273702961355446,0.1944762779176235,-0.16660539743453262
1726226133047277000,2.838277099609375,-1.2172832018852233,0.0684182871878147,-0.14261281968951225
1726226133057272000,2.84827197265625,-1.129027995327115,0.01917407154738903,-0.0989545874878764
1726226133067266800,2.858266845703125,-0.789507286658883,0.2843547017633915,-0.07533230435997247
1726226133077261000,2.868260986328125,-0.3961474357753992,0.4731558566540479,0.27683044373840093
1726226133087256000,2.878256103515625,-0.17650690598487853,0.5190104298561811,0.5792994788631797
1726226133097250000,2.88825,0.059202130553126335,0.3505588200330734,0.7121703644782305
1726226133107245000,2.8982451171875,0.17056641001999376,0.010384031370282173,0.641935090996325
1726226133117240000,2.908239990234375,-0.014641688814759253,-0.5272498504132032,0.5523641256645322
1726226133127234000,2.918234130859375,-0.3129460054755211,-0.7504489494681358,0.8552528475061059
1726226133137229000,2.92822900390625,-0.7930027275592089,-0.9232774592012166,1.0288991033628583
1726226133147224000,2.93822412109375,-1.4469383452117441,-0.9978063382238149,1.0230193976745008
1726226133157218000,2.948218017578125,-1.958271080046892,-0.9532657702296972,1.0579393198862672
1726226133167213000,2.958213134765625,-2.2640344805419446,-0.7681395044595003,1.0287976888149977
1726226133177207000,2.96820703125,-2.2433061652898787,-0.3567126664876938,0.9097136287510394
1726226133187202000,2.9782021484375,-1.9825468586474655,0.16723112811744212,0.8693485928758978
1726226133197197000,2.988197021484375,-1.607102019160986,0.8368962298214435,0.7484364406019449
1726226133207191000,2.99819091796875,-1.2048954294770955,1.0472305866062641,0.4674018231719732
1726226133217186000,3.00818603515625,-0.8467284725278615,0.7892682172060013,0.17373510318398475
1726226133227181000,3.01818115234375,-0.7415624631792307,0.18138357211053371,-0.6287590908199548
1726226133237175000,3.028175048828125,-0.7270598905742168,-0.33161972628533837,-1.2522671292439103
1726226133247170000,3.038170166015625,-0.7047013437718153,-0.5272995347738265,-1.5912129606336354
1726226133257164000,3.0481640625,-0.538731029370427,-0.6273509775876999,-1.7302824086278676
1726226133267159000,3.058158935546875,-0.3306248700290918,-0.30895138288140295,-1.5693024498596786
1726226133277154000,3.068154052734375,-0.18968904364109038,0.09524024313986301,-1.532242300748825
1726226133287148000,3.07814794921875,-0.1605307536959648,0.5200169765502214,-1.4035525002107023
1726226133297143000,3.08814306640625,-0.09157178376019,1.0239882427066564,-1.1833937917649746
1726226133307137000,3.098136962890625,0.09072773415148258,1.5133505532741545,-0.9028802755996584
1726226133317132000,3.108132080078125,0.45683308288455005,1.957254596480727,-0.3985860610991716
1726226133327127000,3.118126953125,1.0466372968882323,2.0939140607237814,0.20747253761291504
1726226133337121000,3.12812109375,1.5993293393328785,1.694296318489313,0.7241197454690933
1726226133347116000,3.138115966796875,1.5824024621903896,1.0377233380705118,0.9776844644322991
1726226133357111000,3.148111083984375,1.3031582353085278,0.49635260784626006,0.8973033522501588
1726226133367105000,3.15810498046875,1.3231097209692,0.23069383872449398,0.6661392656654119
1726226133377100000,3.16810009765625,1.6012886567071078,0.02762625807225704,0.5413274756044149
1726226133387094000,3.178093994140625,1.6792036710366607,-0.7229355041205883,0.6315858386784792
1726226133397089000,3.188089111328125,1.2945038042098282,-1.5788906546771526,0.5642082927152514
1726226133407084000,3.198083984375,0.6769353849679232,-2.04123051828444,0.5906628766596317
1726226133417078000,3.208078125,0.13537410060763358,-2.2518507062733173,1.008970121794939
1726226133427073000,3.218072998046875,-0.4075263234019279,-2.26092833122015,1.6424389977410434
1726226133437067000,3.22806689453125,-1.046038746473193,-2.232203171995282,2.239433707770705
1726226133447062000,3.23806201171875,-1.6646715800762175,-2.1894974182128903,2.693579451267421
1726226133457057000,3.24805712890625,-2.206104269620776,-2.074889626780152,3.0401530010566113
1726226133467051000,3.258051025390625,-2.4950579896122216,-1.9564438646197317,3.39584976850003
1726226133477046000,3.2680458984375,-2.513916127078235,-2.0354460896641013,3.1557752302289006
1726226133487041000,3.278041015625,-2.2983768951267,-2.3261463610619306,2.573555187743902
1726226133497035000,3.288034912109375,-1.8773089531064033,-2.7408564584881066,1.6979302910774945
1726226133507030000,3.298030029296875,-1.542204891836643,-3.0930180375427008,0.47993455700874327
1726226133517024000,3.30802392578125,-1.3256366090983152,-3.1298832486033437,-0.3748667473375797
1726226133527019000,3.31801904296875,-1.1282406443417072,-2.733523046860099,-0.8489505324915051
1726226133537014000,3.328013916015625,-1.0340881964385509,-2.095157338783145,-0.968090998917818
1726226133547008000,3.338008056640625,-1.1241256102383137,-1.4317904604405163,-0.9140101569011807
1726226133557003000,3.3480029296875,-1.3228396718561648,-0.7055880634784698,-0.734530664846301
1726226133566998000,3.357998046875,-1.5318886650055645,0.11444412530362605,-0.525364767318964
1726226133576992000,3.367991943359375,-1.7777099302351473,0.8349047637432813,-0.6173851716294885
1726226133586987000,3.377987060546875,-2.008561589869857,1.318870768225193,-0.8136877881914377
1726226133596981000,3.38798095703125,-2.051787568134069,1.674357692310214,-0.9788432790786027
1726226133606976000,3.39797607421875,-1.8719237529367208,1.707640368708968,-1.1155161873251198
1726226133616971000,3.407970947265625,-1.5476839077696203,1.6024761129260061,-1.2335749959945679
1726226133626965000,3.417965087890625,-1.252797290597856,1.855059711897373,-1.6847972532600164
1726226133636960000,3.4279599609375,-0.9864084536358714,2.8741970074415204,-2.2646225095629693
1726226133646954000,3.4379541015625,-0.3168827604025602,4.446455092236399,-2.2528058150410653
1726226133656949000,3.447948974609375,0.8416095220789312,5.03297955391705,-0.9920330155193805
1726226133666944000,3.457944091796875,1.4619903683930635,4.202707710671425,0.9824076935619115
1726226133676938000,3.46793798828125,1.6385869984880088,3.484853455337882,2.9399919603884217
1726226133686933000,3.47793310546875,1.7039344999283552,2.6323937456816435,3.6728964853376147
1726226133696928000,3.487927978515625,1.5657888887807725,1.5320190133869647,2.8349346721112725
1726226133706922000,3.497921875,1.3020163717970252,0.3791162214756012,1.7207406733006239
1726226133716917200,3.507917236328125,1.3052841414213179,-0.4611895245283842,0.4896329442024231
1726226133726911200,3.5179111328125,1.587459745579958,-0.7859744363576173,-0.5198983186066151
1726226133736906200,3.52790625,1.716062744617462,-0.8734984060317278,-1.4693290407180786
1726226133746901200,3.5379013671875,1.7170727984428404,-0.9582833061307668,-2.0939958937883376
1726226133756895200,3.547895263671875,1.7916636367857455,-0.7606757444500922,-2.596426944765448
1726226133766890200,3.55789013671875,1.9693933625638484,-0.3528454696655273,-2.4899925229161974
1726226133776884200,3.56788427734375,1.9441478621482848,0.23520342510342596,-2.3502964674562214
1726226133786879200,3.577879150390625,1.6186298137389123,1.2340806074291466,-2.1440280449360607
1726226133796874200,3.587874267578125,0.9367159097060561,2.098219648963213,-1.6243033293306826
1726226133806868200,3.5978681640625,0.32291707213073967,2.1261784999907016,-1.2531208234637976
1726226133816863200,3.60786328125,-0.08634995745867491,1.7436077541470527,-1.0801152035981416
1726226133826858200,3.617858154296875,-0.37112025428563356,1.6148317366302012,-0.8224106083512306
1726226133836852200,3.627852294921875,-0.5853422661587595,1.798766746789217,-0.6180249308377505
1726226133846847200,3.63784716796875,-0.7632207527577877,2.0235043074578045,-0.5946271041154861
1726226133856841200,3.64784130859375,-0.787427850036323,2.1843547946274278,-0.7442576936125754
1726226133866836200,3.657836181640625,-0.7525595118813216,2.3580004659622906,-0.954299204930663
1726226133876831200,3.667831298828125,-0.7489581263884901,2.361653727772832,-1.1446253774315118
1726226133886825200,3.6778251953125,-0.7738695725440978,2.2568553826928137,-1.3480810806185006
1726226133896820200,3.6878203125,-0.7793802987895906,2.2068103720635173,-1.6253046153277158
1726226133906814500,3.697814453125,-0.8050994080662727,2.2956840027809142,-2.125278920802474
1726226133916809200,3.707809326171875,-0.7858990330338478,2.410963409864902,-2.55578572229743
1726226133926804200,3.71780419921875,-0.5893219834446907,2.771447411584854,-2.842321275231242
1726226133936798200,3.727798095703125,-0.26765739559307694,3.1463889777243135,-3.2282799099475143
1726226133946793200,3.737793212890625,0.11266790941134094,3.3647593414485453,-3.7503228393673895
1726226133956788200,3.747788330078125,0.468599508523941,3.4933804606646297,-4.122790708869696
1726226133966782200,3.7577822265625,0.7787433160603046,3.5921570612370965,-4.294702103757858
1726226133976777200,3.767777099609375,1.052891096585989,3.483023317301273,-4.300515758472681
1726226133986771500,3.777771484375,1.2762930247366429,3.2693682916611433,-3.8919349575817583
1726226133996766200,3.78776611328125,1.5172504833221434,3.0650375592052934,-3.385198318365216
1726226134006761200,3.79776123046875,1.6795663668692111,3.1426088746637104,-2.5832991676449772
1726226134016755500,3.80775537109375,1.6733026302993297,3.228478647390008,-1.7634511032581328
1726226134026750200,3.817750244140625,1.6080162113964556,3.169027510511875,-1.183266365993023
1726226134036744400,3.827744384765625,1.5138672706246374,2.970526799383759,-0.8409861294835805
1726226134046739500,3.837739501953125,1.3167664894223212,2.7344273022234438,-0.4196528145253658
1726226134056734200,3.847734130859375,1.2751672355771064,2.31193663392365,-0.08466039693653583
1726226134066728400,3.857728515625,1.2407108392238617,2.0321715980380772,0.16629647761583327
1726226134076723500,3.867723388671875,1.0759410597186534,1.7979332185745238,0.4390332222998142
1726226134086717200,3.87771728515625,0.8013922971766442,1.4039941064983605,0.4488549436122179
1726226134096712400,3.88771240234375,0.32153497012257576,0.9577753566086292,0.4117407262265682
1726226134106707500,3.89770751953125,0.03755553141236305,0.3688151922136545,0.1449713655143976
1726226134116701200,3.907701171875,-0.04614208490662276,-0.07874678897857666,0.33538170916736126
1726226134126696400,3.917696533203125,0.004658785591274499,-0.26214462352097034,0.5362596708208323
1726226134136691500,3.92769140625,0.12084420160427689,-0.290189399266243,0.643954906386137
1726226134146685200,3.937685302734375,0.111670495871827,-0.23605390445291993,0.7283230423778295
1726226134156680400,3.947680419921875,-0.04419920721054077,-0.34149873074293136,0.6904314108788967
1726226134166674200,3.957674072265625,-0.19955577313899991,-0.4109229801028967,0.5148848743587732
1726226134176669400,3.96766943359375,-0.3930440629325807,-0.3503858015537262,0.5296405449420213
1726226134186664400,3.97766455078125,-0.6300024419445545,-0.25237024848163125,0.6274982771039008
1726226134196658200,3.987658203125,-0.8110475028157234,-0.06747720694541931,0.8625374515563249
1726226134206653400,3.9976533203125,-0.9751087687253951,0.07333470080196856,1.2232289585471152
1726226134216647200,4.007647216796875,-1.0745441254675387,0.046262569481134413,1.4831822095036507
1726226134226642200,4.01764208984375,-1.0507681130826472,-0.1767132422119379,1.3172656711161135
1726226134236637400,4.027637451171875,-0.9653414079487324,-0.3594558277159929,1.0419739812523126
1726226134246631200,4.037631103515625,-0.9194869808770716,-0.5877163018137216,0.629419016033411
1726226134256626200,4.047626220703125,-0.8438544514615088,-0.6178899062812327,0.18816402603089807
1726226134266620200,4.0576201171875,-0.6895511939782649,-0.4395779967010021,-0.17155951271057127
1726226134276615200,4.067615234375,-0.4812262042544782,-0.1244154842197895,-0.4189052110284567
1726226134286610200,4.077610107421875,-0.21120646344423294,0.3140478292375803,-0.666719111379981
1726226134296604200,4.087604248046875,0.007461933378502726,0.7211158874779939,-0.7890005061805248
1726226134306599200,4.09759912109375,0.18213599791303275,1.0636012911707162,-0.9655968440145254
1726226134316594200,4.10759423828125,0.30071079328060146,1.3048884201020001,-1.1435346595853566
1726226134326588200,4.117588134765625,0.395192911529541,1.4384271219760179,-1.4102788858562707
1726226134336583200,4.127583251953125,0.4014660735148936,1.45164608451128,-1.6222738693296908
1726226134346577200,4.1375771484375,0.37162506200261414,1.460124574521184,-1.6812901219218968
1726226134356572200,4.147572265625,0.24295652344822882,1.2736024704784155,-1.9797960986346006
1726226134366567200,4.157567138671875,0.23311200578212737,1.2501169654726982,-1.9974632727503776
1726226134376561200,4.16756103515625,0.2772434815187007,1.0534165817648171,-1.9706851559400558
1726226134386556200,4.17755615234375,0.2841664857149124,0.8604057002246379,-1.834229689836502
1726226134396550100,4.187550048828125,0.22503734733276068,0.7479711611777543,-1.6939461898773907
1726226134406545200,4.197545166015625,0.16838782387189566,0.7067261275976896,-1.4677712898820638
1726226134416540200,4.2075400390625,0.1787210749030113,0.8667793269097804,-0.8351596152871846
1726226134426534100,4.2175341796875,0.2755073053758591,0.9464876543968915,-0.07561667425930499
1726226134436529200,4.227529052734375,0.36902262441925704,1.1568950764179229,0.019730536386370658
1726226134446524200,4.237524169921875,0.43080549218058584,1.3841712156534194,-0.023443419429659842
1726226134456518100,4.24751806640625,0.404237730185315,1.7216402524888514,0.07367839967310429
1726226134466513200,4.25751318359375,0.38387766372375187,1.906262075868249,0.09788286660313605
1726226134476507100,4.267507080078125,0.3700444417476654,1.9257763391554354,0.11052315246760845
1726226134486502100,4.277502197265625,0.3871932180125266,1.727321805256605,0.05680968245863914
1726226134496497200,4.2874970703125,0.4563736486792564,1.5985644924402236,0.05829670614600181
1726226134506491100,4.2974912109375,0.5070096109390259,1.3759464081436394,-0.03534720771312713
1726226134516486100,4.307486083984375,0.536561795572564,1.106426287418604,0.003859598037600517
1726226134526480100,4.317480224609375,0.495867381612584,0.8320265779584646,0.10995090553760528
1726226134536475100,4.32747509765625,0.40898525350596754,0.41043841145634646,-0.06427811864316463
1726226134546470100,4.33747021484375,0.30491935088634486,-0.12095453011095524,-0.3087240038663149
1726226134556464000,4.347464111328125,0.26430910807847974,-0.6196499016910791,-0.5686415989875793
1726226134566459100,4.357459228515625,0.30704697403218595,-1.064659275791049,-0.9877747735530138
1726226134576453000,4.367453125,0.3930582010557875,-1.3570049763083458,-1.3026245668232441
1726226134586448100,4.3774482421875,0.5557727650642394,-1.3971288969039917,-1.4707184492498635
1726226134596443100,4.387443115234375,0.69463996848464,-1.3354068924844265,-1.6419056215167045
1726226134606437000,4.39743701171875,0.8791068935632705,-1.2343255221009253,-1.931595839089155
1726226134616432000,4.40743212890625,1.1034311972558497,-0.9858949511557817,-1.97315768353343
1726226134626426000,4.417426025390625,1.2537398321449755,-0.6974024189352989,-1.951570121103525
1726226134636421000,4.427421142578125,1.2886895649731158,-0.3979635452866554,-1.8968372449189423
1726226134646416100,4.437416015625,1.2131202369868754,-0.09143032946288585,-1.766499969434738
1726226134656410000,4.44741015625,1.021118824750185,0.11937807457447051,-1.7184955247223377
1726226134666405000,4.457405029296875,0.8896985032696276,0.2975362548977136,-1.7523083624750375
1726226134676400000,4.467400146484375,0.6800970638692379,0.483672574493289,-1.5866215411901472
1726226134686394000,4.47739404296875,0.4052572094261646,0.7509937238693237,-1.1787836676210164
1726226134696389000,4.48738916015625,0.25359949801564213,1.1170943964272737,-0.6152946290910244
1726226134706383000,4.497383056640625,0.11479776104688644,1.323555711171031,-0.22148761896193025
1726226134716377900,4.5073779296875,-0.03642974225282669,1.4119541255921124,0.11915244912505149
1726226134726372600,4.51737255859375,-0.1630021122455597,1.3986059837192295,0.5087117386817932
1726226134736366600,4.52736669921875,-0.3317676103234291,1.1200883175462484,0.6829454390376806
1726226134746361900,4.53736181640625,-0.419445966841653,0.9201187029093504,0.7353618549734353
1726226134756355600,4.54735546875,-0.4279435999434441,0.8972112900525331,0.7760919247686863
1726226134766350600,4.5573505859375,-0.34360651667714115,0.8718143984675407,0.7189391279608011
1726226134776345900,4.567345947265625,-0.0735820266265422,0.893149447441101,0.5704775822430849
1726226134786339600,4.577339599609375,0.3595861030321568,1.0449866070717573,0.4932464585244655
1726226134796334600,4.58733447265625,0.8118038741409778,1.2009013914048672,0.45600072371363637
1726226134806328600,4.59732861328125,1.066719642386958,1.093635779428482,0.15761457398831843
1726226134816323600,4.607323486328125,1.1796143462914972,0.8499550333589315,-0.29754443820416926
1726226134826318600,4.617318603515625,1.1792938821654766,0.6650783584356308,-0.6898533187299967
1726226134836312600,4.6273125,1.1323579434674234,0.5714309374451637,-1.012170379140973
1726226134846307600,4.6373076171875,1.0936533150851726,0.6600578999251127,-1.0895394500255584
1726226134856302600,4.647302490234375,1.044169956926629,0.7314701082319021,-1.166968142142892
1726226134866296600,4.657296630859375,1.017163803514093,0.6103571726888418,-1.294821199595928
1726226134876291600,4.66729150390625,0.9399554761491715,0.49200084237754343,-1.3647650889158247
1726226134886285600,4.67728564453125,0.7769570171654224,0.4104021710991859,-1.4067121332854031
1726226134896280600,4.687280517578125,0.5287596704542636,0.43707975014448164,-1.241838381949067
1726226134906275600,4.697275634765625,0.1699988392651081,0.5249556019961834,-0.9730003982692956
1726226134916269600,4.70726953125,-0.13668328351005912,0.6006874270677566,-0.6153016433537006
1726226134926264600,4.7172646484375,-0.3682429452836513,0.6444914974808692,-0.22333120100200174
1726226134936258600,4.727258544921875,-0.5501099900621921,0.4744990879565477,0.028283845198154446
1726226134946253600,4.737253662109375,-0.6767093211270868,0.24656419255137443,0.16012451098263264
1726226134956248600,4.74724853515625,-0.819037917047739,-0.0009358195453882217,0.17458441348969936
1726226134966242600,4.75724267578125,-0.9144693719107657,-0.1443745686650276,0.21563070962727068
1726226134976237600,4.767237548828125,-0.9442928477663546,-0.0828536397755146,0.3379582816570997
1726226134986231600,4.7772314453125,-0.8607190770227462,0.0034749826341867445,0.5153413859546184
1726226134996226600,4.7872265625,-0.7020527289591729,0.045165421894192696,0.6671469814032316
1726226135006221600,4.7972216796875,-0.4820715690374374,0.1653098046660423,0.7522896088987588
1726226135016215600,4.807215576171875,-0.2608347830314189,0.23369769671559332,0.7228349663555622
1726226135026210600,4.81721044921875,-0.09109539842009544,0.2825064435482025,0.7362760472089052
1726226135036204500,4.82720458984375,0.1066026180230081,0.32828853603601454,0.6345125397801399
1726226135046199600,4.837199462890625,0.24238953721523285,0.38716742598414416,0.5028513222157955
1726226135056194600,4.847194580078125,0.41030294850841165,0.5159750076830387,0.4226864831328392
1726226135066188500,4.8571884765625,0.5823765482209623,0.6783242089778184,0.4330091397047043
1726226135076183600,4.86718359375,0.6790213974617422,0.709869686320424,0.35892040566504
1726226135086177500,4.877177490234375,0.7526080271981657,0.6752776808887719,0.19501929875314233
1726226135096172500,4.887172607421875,0.6701097767315805,0.5160492419630289,0.05333177721500396
1726226135106167600,4.89716748046875,0.5573498051226139,0.39710780524015427,-0.03985211791694164
1726226135116161500,4.90716162109375,0.49976504663825033,0.49919689136147494,0.1447410638898611
1726226135126156500,4.917156494140625,0.38388825818300243,0.8025292653173208,0.4620779978007078
1726226135136151600,4.927151611328125,0.18476883063465355,1.0323673639953135,0.8300117310047149
1726226135146145500,4.9371455078125,-0.174941264103353,0.9975415498077869,1.0205495004296303
1726226135156140500,4.947140625,-0.6270061096727848,0.6122691437900066,0.9358569547891616
1726226135166134500,4.957134521484375,-0.9932200333468616,0.2153039618909359,0.8225181603789329
1726226135176129500,4.967129638671875,-1.213230273232609,0.035953356912732125,0.7846265288800001
1726226135186124500,4.97712451171875,-1.2120203129209577,0.010156652355194092,0.8483850075632333
1726226135196118500,4.987118408203125,-1.11870957653895,-0.02181318787932396,0.9666507369816303
1726226135206113500,4.997113525390625,-0.9691817167639731,-0.22584055347442625,0.8975842150181531
1726226135216107500,5.007107421875,-0.8612209621302783,-0.4811912790715694,0.8368968143433332
1726226135226102500,5.0171025390625,-0.7245028995677828,-0.6642009910792112,0.7820487873464822
1726226135236097500,5.02709765625,-0.4505927271902561,-0.25756314094960686,1.0293144061654806
1726226135246091500,5.037091552734375,-0.18625921532288192,0.24541209990680216,1.3894897803276776
1726226135256086500,5.04708642578125,-0.10135025045275688,0.19509704016447066,1.5231144069194793
1726226135266080500,5.05708056640625,-0.13255290570706127,-0.24278701210021972,1.320678109908104
1726226135276075500,5.067075439453125,-0.26526772397756576,-0.8158814988434314,0.8302128065347671
1726226135286070500,5.077070556640625,-0.36484935732260343,-1.1804413717001676,0.18815116654932498
1726226135296064500,5.087064453125,-0.42580783002376554,-1.4545879831820725,-0.38517712894976136
1726226135306059500,5.0970595703125,-0.41476621152758597,-1.491134045290947,-0.7510287951827049
1726226135316053500,5.107053466796875,-0.22094547490924596,-1.2669102793633937,-0.8133727308928966
1726226135326048500,5.117048583984375,0.05083937587738037,-0.9373013083785772,-0.5868453641980886
1726226135336043500,5.12704345703125,0.16254910778105258,-0.6235995160996913,-0.28723697920143604
1726226135346037500,5.13703759765625,0.05977554652690887,-0.36251872241795063,-0.11275836417376994
1726226135356032500,5.147032470703125,-0.299557239331305,-0.3257236539840698,-0.16887597271502017
1726226135366026800,5.15702685546875,-0.8199296051904559,-0.4366273302018642,-0.2357680732488632
1726226135376021500,5.167021484375,-1.2963362803339957,-0.41130642646253107,-0.12486030537784099
1726226135386016500,5.1770166015625,-1.5585387715220451,-0.2812649190545082,0.011374211451411247
1726226135396010800,5.1870107421875,-1.7135551457107066,-0.19313713826835155,-0.0044195700079202645
1726226135406005500,5.197005615234375,-1.810320114199817,-0.10488426979780197,0.0667453855395317
1726226135416000500,5.20700048828125,-1.8319670056015251,-0.1696463725656271,0.015683891344070434
1726226135425994800,5.216994873046875,-1.7986428281486033,-0.4080284277051687,-0.17451602442860603
1726226135435989500,5.226989501953125,-1.6671888235941528,-0.6277706643044948,-0.4013572793781757
1726226135445983700,5.236983642578125,-1.4149951007232069,-0.6397241369485854,-0.5520937842905521
1726226135455978800,5.246978759765625,-1.2030983169272542,-0.5542167677938937,-0.5312877276271581
1726226135465973500,5.256973388671875,-1.1587097246244549,-0.5114747736543417,-0.5732271732121705
1726226135475967700,5.2669677734375,-1.130026066453755,-0.6341606576025486,-0.7012333754003047
1726226135485962800,5.276962646484375,-1.174069498580694,-0.8653069162696599,-0.7681704841196536
1726226135495956700,5.286956787109375,-1.267263915106654,-1.1642688200563192,-0.8504699971437454
1726226135505951700,5.29695166015625,-1.3456689049102366,-1.3629758674114942,-0.7752636572510003
1726226135515946800,5.30694677734375,-1.3617315664388239,-1.297158118110895,-0.42759880509376524
1726226135525940700,5.316940673828125,-1.3404057236850262,-1.0134136572003365,0.11316285332143305
1726226135535935700,5.326935791015625,-1.3689970273971557,-0.7802022826969623,0.665447191748023
1726226135545929700,5.3369296875,-1.4692191506028174,-0.7434563141018152,0.9686416185379028
1726226135555924700,5.3469248046875,-1.6182812925621866,-0.935802009731531,0.9883177943885326
1726226135565919700,5.356919677734375,-1.6296595956668256,-1.1613321820825337,0.9900199221313
1726226135575913700,5.366913818359375,-1.5032057374872267,-1.4095143312245606,1.1073439867854118
1726226135585908700,5.37690869140625,-1.2656500501692294,-1.7003104642122984,1.143494912096858
1726226135595902700,5.38690283203125,-0.8649990193642675,-1.778639320039749,1.1756909623026848
1726226135605897700,5.396897705078125,-0.1899078009583056,-1.4541595286369322,1.2350976755172014
1726226135615892700,5.406892822265625,0.6330581031881273,-0.9937070862114429,1.4772890598118305
1726226135625886700,5.41688671875,2.245067914265394,-0.6327139659255743,1.0903986972033977
1726226135635881700,5.4268818359375,8.86562470266223,0.30128304021060465,-0.847106073668599
1726226135645875700,5.436875732421875,9.606614918911456,0.38229426698982716,-0.5391460399121045
1726226135655870700,5.44687060546875,5.105853651469945,-0.08105740400850772,0.4722936868667602
1726226135665865700,5.45686572265625,2.6426974052920937,-0.4603928211927414,0.7553507500350475
1726226135675859700,5.466859619140625,0.9818972598217427,-0.6607686785429716,0.7214952421844005
1726226135685854700,5.476854736328125,0.6905018457666039,-0.11133037719726561,0.43065527005493637
1726226135695848700,5.4868486328125,1.0820005789533256,0.48909810667335984,0.19693068533241748
1726226135705843700,5.49684375,1.5959741836860775,0.7145289103031158,0.04258826488256454
1726226135715840500,5.506840576171875,1.8471058302834629,0.7858107702285051,-0.19678513938188552
1726226135725834500,5.51683447265625,1.6103285799920557,0.7460515912920236,-0.48946460189819335
1726226135735829500,5.52682958984375,1.2240028655290602,0.5235147555381059,-0.5425748453170061
1726226135745824500,5.536824462890625,0.7013549559533596,0.1402659643024206,-0.5486223087877035
1726226135755818500,5.546818603515625,0.3265045752286911,0.03634147944748401,-0.417007852974534
1726226135765813500,5.5568134765625,0.09583791677206754,0.045430794832110405,-0.16000702208280562
1726226135775807700,5.566807861328125,0.03524053246825933,-0.02512450438439846,0.16684125201702116
1726226135785802500,5.576802490234375,0.07331380414441227,-0.0248527017056942,0.44746787316799164
1726226135795797500,5.586797607421875,-0.03427914009019732,-0.13006430376172065,0.48031449623703953
1726226135805791700,5.596791748046875,-0.10920417882353067,-0.18753917213082313,0.470457119089365
1726226135815786500,5.606786376953125,-0.03420417515784502,-0.12691840695142745,0.5957528932750225
1726226135825780700,5.61678076171875,0.1153881281554699,-0.0038145898520946502,0.9153548495084047
1726226135835775500,5.626775390625,0.38503041395545,0.14568915839493274,1.2653519440054892
1726226135845770500,5.6367705078125,0.6683702395878732,0.25755086598992344,1.5309019920557736
1726226135855764700,5.6467646484375,0.9203601104497909,0.11664952639341354,1.5576719255596398
1726226135865759500,5.656759521484375,1.1038273569665848,-0.19580255808532238,1.345372406181693
1726226135875753700,5.666753662109375,1.2659868809081614,-0.5499737233966588,0.8307803772896528
1726226135885748700,5.676748779296875,1.3224493573643266,-0.7787713731110095,0.32366555241048334
1726226135895743500,5.686743408203125,1.4430547817766666,-0.4741828616142273,0.2720961086928844
1726226135905737700,5.69673779296875,1.4615560686290263,0.13646949462890623,0.32070611808300015
1726226135915732700,5.706732666015625,1.3038238596104084,0.545007040899992,0.03844809633791446
1726226135925726700,5.716726806640625,0.8286401503905654,0.5700058730781078,-0.2836784099370241
1726226135935721700,5.7267216796875,0.17911825752705335,0.3488730589032173,-0.6135381408125162
1726226135945716700,5.736716796875,-0.257684136980772,0.3109066086024046,-0.8948644346654414
1726226135955710700,5.746710693359375,-0.5732160672962665,0.41687399746179576,-1.1048410640537738
1726226135965705700,5.756705810546875,-0.7550362772583961,0.5716922187298537,-1.1497031190872191
1726226135975699700,5.76669970703125,-0.7961255357548594,0.7828776393860578,-1.1784399687498808
1726226135985694700,5.77669482421875,-0.8416706046164035,0.922368527662754,-1.2980278866827488
1726226135995689700,5.786689697265625,-1.0234032824255526,0.8143412836641073,-1.4694313320487737
1726226136005683700,5.79668359375,-1.1492787561953066,0.7796230215042829,-1.5426654950857162
1726226136015678700,5.8066787109375,-1.1890556169189512,0.9168044637948274,-1.455225112041831
1726226136025672700,5.816672607421875,-1.2506421583905816,1.1001380009293555,-1.2686357879817485
1726226136035667700,5.826667724609375,-1.2195548000790177,1.3509540057063103,-1.0714689558058976
1726226136045662700,5.836662841796875,-1.0699245028428732,1.6859247959852217,-0.8318155655562877
1726226136055656700,5.84665673828125,-1.0107156502880155,1.654137326580286,-0.7695955484867095
1726226136065651700,5.856651611328125,-1.0060261772975325,1.357801095122099,-0.8218179031550884
1726226136075645700,5.866645751953125,-0.7943877521768212,1.488854994443059,-0.5627659849524498
1726226136085640700,5.876640625,-0.4580164474502206,1.797546849605441,-0.2585205878049135
1726226136095635700,5.8866357421875,-0.008346972584724426,2.0291560496091843,0.0037841947138309477
1726226136105629700,5.896629638671875,0.4510489465251565,2.0473966396987437,0.10635083521902561
1726226136115624700,5.906624755859375,0.7233683425799011,1.6365215903908013,0.029059505745768547
1726226136125619700,5.91661962890625,0.9229448662459849,1.0291104080259799,-0.1547235287219286
1726226136135613700,5.92661376953125,1.1311343199566006,0.4620604621440172,-0.422837874302268
1726226136145608700,5.936608642578125,1.3339900114238261,0.12276947057843207,-0.5560679486185311
1726226136155602700,5.946602783203125,1.6363628926977514,-0.051612113815546035,-0.6152624803870916
1726226136165597700,5.95659765625,1.9860110276266931,-0.16759119360148905,-0.7342559395581484
1726226136175591700,5.966591796875,2.1734394328594204,-0.45438393616676326,-0.9236346020758152
1726226136185586700,5.976586669921875,1.9545321857795117,-0.9117395816206931,-1.2269430106341839
1726226136195581700,5.986581787109375,1.432723941898346,-1.2922750222444535,-1.6539947032392024
1726226136205575700,5.99657568359375,0.9402174880862235,-1.496447349268198,-1.9749562573879955
1726226136215570700,6.00657080078125,0.741580583357811,-1.4294780918449164,-2.2304870157271623
1726226136225565700,6.016565673828125,0.7531257674619555,-1.1996043373316525,-2.337615849581361
1726226136235559700,6.0265595703125,0.8647624341294169,-0.9149772483676671,-2.2230080581486225
1726226136245554700,6.0365546875,0.9046244889184832,-0.6725526398390531,-2.0138357308804986
1726226136255548700,6.046548583984375,0.6022749885201454,-0.8145873673796653,-2.0411714815735817
1726226136265543700,6.056543701171875,0.40856355749517675,-0.8298603398352861,-2.215843573346734
1726226136275538700,6.06653857421875,0.44293870530575513,-0.550975009393692,-2.1042314565986393
1726226136285532700,6.07653271484375,0.5469514529660344,-0.12095453011095524,-1.8768921889990566
1726226136295527700,6.086527587890625,0.8217705568820237,0.5493716658502816,-1.6194494595587252
1726226136305521700,6.096521728515625,1.1037854175209998,1.0929010354131459,-1.516665961432457
1726226136315516700,6.1065166015625,1.0611424998417496,1.2370318584501743,-1.5945236926168203
1726226136325511700,6.11651171875,0.8846762181282043,1.336826696154475,-1.6039017618149518
1726226136335505700,6.126505615234375,0.7810016163811088,1.5486124207913874,-1.4109405646353959
1726226136345500700,6.136500732421875,0.6658449588939547,1.7724264368742704,-1.1865057863056658
1726226136355494700,6.14649462890625,0.4758256603851914,2.014884947672486,-0.7925415397882462
1726226136365489700,6.15648974609375,0.39756197874844074,2.440220484009385,-0.25769816550612445
1726226136375484700,6.166484619140625,0.2579980252355337,2.6892759088546034,0.23351532588601112
1726226136385478700,6.176478759765625,-0.011507482442259787,2.699653510484099,0.4800643208682537
1726226136395473700,6.1864736328125,-0.2374626022070646,2.857445194604993,0.8572580498486757
1726226136405467600,6.196467529296875,-0.40801410691887136,3.0550948418617248,1.222371464934945
1726226136415462700,6.206462646484375,-0.6073299338221549,3.114509153860807,1.5798545312732457
1726226136425457700,6.216457763671875,-0.8201639984682202,2.911822681480646,1.7971429449796676
1726226136435451600,6.22645166015625,-1.0154635754674672,2.501211836066842,1.7547236069232224
1726226136445446700,6.23644677734375,-0.976026760353148,2.1426018115252257,1.6013392178505659
1726226136455440600,6.246440673828125,-0.7834384881392121,1.6756623451679944,1.3914648797929285
1726226136465435600,6.256435546875,-0.5692489172309637,1.1541951698094606,0.9114502432852983
1726226136475430700,6.2664306640625,-0.3296457958638668,0.8046446500360965,0.4533271205902099
1726226136485424600,6.276424560546875,-0.058546296992897984,0.4636299034178257,0.05592354727387428
1726226136495419600,6.286419677734375,0.29273382305204865,0.21139000331759453,-0.22206688015460968
1726226136505414000,6.296413818359375,0.5050251591235398,0.006340308937430382,-0.49334991889894003
1726226136515408600,6.30640869140625,0.6999082642763853,-0.1850093613922596,-0.8113952933400869
1726226136525403600,6.316403564453125,0.7459352714359759,-0.3552116142749786,-0.9237316327095031
1726226136535398000,6.32639794921875,0.6930836789533495,-0.5657540608525276,-1.2831915520787238
1726226136545392600,6.336392578125,0.6056216685995459,-0.7846078241795301,-1.660776910725236
1726226136555386600,6.34638671875,0.5267097521871328,-0.8495569739520549,-2.082796454381943
1726226136565382000,6.3563818359375,0.4200204787939787,-0.7174515197515487,-2.145812590265274
1726226136575376600,6.366376708984375,0.17252718869894743,-0.6885241159528493,-1.9631226117312908
1726226136585370600,6.37637060546875,-0.13239654610157012,-0.6735141783475875,-1.8690403064548968
1726226136595366000,6.386365966796875,-0.28588556459248066,-0.4777326630502939,-1.6297826375246047
1726226136605360600,6.396360595703125,-0.42526919310241934,-0.2569090609550476,-1.3631798655509948
1726226136615355000,6.40635498046875,-0.5964034661382437,0.017367898908257483,-0.9029699997097254
1726226136625350000,6.416349853515625,-0.6509539714932442,0.19934183812737463,-0.24966157404482364
1726226136635343600,6.426343505859375,-0.6828437322288751,0.17752105146348476,0.2961176202714443
1726226136645339000,6.4363388671875,-0.8127449543833732,0.1875175448209047,0.5610165109366179
1726226136655332600,6.44633251953125,-0.9723878193289041,0.3899848214924335,0.8517465929508209
1726226136665327600,6.45632763671875,-1.2668430593460798,0.5215232894599438,1.1807973455309868
1726226136675323000,6.466322998046875,-1.536637905359268,0.4297323099911213,1.476087282806635
1726226136685316600,6.476316650390625,-1.6870894558504224,0.20724925025105476,1.5943576884001494
1726226136695311600,6.4863115234375,-1.844889907799661,-0.18598609746992587,1.2726198891818523
1726226136705307000,6.496306884765625,-1.8516560409337282,-0.20005495483279226,1.7840344570815563
1726226136715298800,6.506298828125,-1.8802330238595604,-0.19289280811846254,1.9404320564955473
1726226136725293800,6.5162939453125,-1.9849726244896648,-0.5779717373907566,1.705046260562539
1726226136735287800,6.526287841796875,-2.116120047312975,-0.9365379227906465,1.6665630929112434
1726226136745282800,6.53628271484375,-2.0946318536043167,-1.03604809833467,1.8588865767091511
1726226136755278000,6.546278076171875,-1.9811098115816712,-1.0997703366607428,1.8966899454027413
1726226136765271800,6.556271728515625,-1.8460171582639215,-1.1913725155591963,1.8570026626586913
1726226136775266800,6.566266845703125,-1.701578876712918,-1.3518167600154876,1.6967343592911959
1726226136785260800,6.5762607421875,-1.622296081161499,-1.6250012484669685,1.5106892251104116
1726226136795255800,6.586255859375,-1.5935317589700222,-1.8403098865330219,1.3799357700407504
1726226136805250800,6.596250732421875,-1.4397610009282826,-1.9245470896214245,1.2470143232822417
1726226136815244800,6.606244873046875,-1.3269395083904265,-1.8985253441363572,1.0839356386691332
1726226136825239800,6.61623974609375,-1.0605383964687585,-1.7441800010770558,0.7804916210323571
1726226136835234000,6.626234130859375,-0.9608028877362609,-1.8793097715348004,0.34364567964375015
1726226136845228800,6.636228759765625,-0.8706739962607621,-1.8791256471395492,-0.35012101313769817
1726226136855223800,6.646223876953125,-0.6371197996690869,-1.7763088312655686,-0.6797416745603084
1726226136865218000,6.656218017578125,-0.3786079796925187,-1.6634043366193771,-0.8242045060306787
1726226136875212800,6.666212890625,-0.2336900979310274,-1.6370049899935721,-1.151085513356328
1726226136885207000,6.67620703125,-0.05454933631122112,-1.426470142200589,-1.26290747346282
1726226136895202000,6.6862021484375,0.05477583854347467,-0.8942407498091459,-1.0063760136485098
1726226136905196800,6.69619677734375,0.028036592438817023,-0.32859365646243094,-0.902129457232356
1726226136915191000,6.70619091796875,-0.11440145520567893,0.03392740404307842,-0.7708212908893823
1726226136925185800,6.716185791015625,-0.2069891380101442,0.3293716550976038,-0.6559463729530572
1726226136935180000,6.726179931640625,-0.1356909114718437,0.6173948162406683,-0.343082785063982
1726226136945175000,6.736175048828125,-0.041776363977789874,0.9664362174481153,-0.16710428686738013
1726226136955169800,6.746169677734375,0.01864507923722267,1.2873141849666834,0.07525602425336837
1726226136965164000,6.7561640625,-0.00376841262280941,1.5605582946509122,0.1444973182618618
1726226136975159000,6.766158935546875,-0.2566208916634321,1.4781857163906096,0.19677870964109898
1726226136985153000,6.776153076171875,-0.595298719766736,1.100640689754486,0.08503565998971462
1726226136995148000,6.78614794921875,-0.8668380713596939,0.8048620921790599,-0.027768881413340565
1726226137005143000,6.79614306640625,-1.0418231746047735,0.7288911976546049,-0.10877309392988681
1726226137015137000,6.806136962890625,-1.0025772058874367,0.7994827372282743,-0.16504560077190397
1726226137025132000,6.816132080078125,-0.8443076751217246,0.8688134630858898,-0.4285620971679687
1726226137035126000,6.8261259765625,-0.7631006335094571,0.8192407461434602,-0.5752987187892198
1726226137045121000,6.83612109375,-0.5960860707521438,0.8290344104051589,-0.7436743407666683
1726226137055116000,6.846115966796875,-0.4365373138308525,0.8747638959228992,-0.8520049516260624
1726226137065110000,6.856110107421875,-0.38550299990326165,0.8941945725798607,-0.8719622825056313
1726226137075105000,6.86610498046875,-0.40972880188226696,1.0283721568793058,-0.7670125462561845
1726226137085099000,6.87609912109375,-0.43011341826319693,1.179582709044218,-0.6420493650257587
1726226137095094000,6.886093994140625,-0.4002633466616273,1.233483226057887,-0.5133095878660678
1726226137105089000,6.896089111328125,-0.3225216430723667,1.134106321504712,-0.5296715246021747
1726226137115083000,6.9060830078125,-0.08656886090636252,1.0488117183178662,-0.5119412221223115
1726226137125078000,6.916078125,0.258422680388391,1.0751643031924962,-0.45953532758057114
1726226137135072000,6.926072021484375,0.6040341071471571,1.0809563305974006,-0.46842824361026286
1726226137145067000,6.93606689453125,0.8580325413525104,1.0049877741605042,-0.47762160389125347
1726226137155062000,6.94606201171875,0.9924439344078302,0.7605565019845962,-0.6276736336708069
1726226137165056000,6.956055908203125,1.1052663037285209,0.3274661137372255,-0.7734756047904491
1726226137175051000,6.966051025390625,1.3355202897310257,0.04265431585609913,-0.8126099298268556
1726226137185045000,6.976044921875,1.5484467088356613,-0.09903905090093612,-0.8026169436007737
1726226137195040000,6.9860400390625,1.6800433367311953,-0.2443471010237932,-0.8118588191986084
1726226137205035000,6.996034912109375,1.6648993974827229,-0.46828854287862776,-0.7305570850402117
1726226137215029000,7.006029052734375,1.416572725303471,-0.6994839013844728,-0.46810091135203835
1726226137225024000,7.01602392578125,1.202997779162228,-0.8740437649548053,0.1063292079091072
1726226137235018000,7.02601806640625,1.093161001523584,-1.0416799667418002,0.7981868521988391
1726226137245013000,7.036012939453125,0.9544342294871807,-1.2442074491679667,1.652934380531311
1726226137255008000,7.046008056640625,0.9216589180886745,-1.3821096069484948,2.7154993143916126
1726226137265002000,7.056001953125,0.8697533742845058,-1.5990753645718097,3.1833027041018007
1726226137274997000,7.0659970703125,0.6865840878009796,-2.014851629924774,3.257666163429618
1726226137284992000,7.075991943359375,0.5709152430079877,-2.3029086933374403,3.2985850337952374
1726226137294986000,7.085986083984375,0.750239690631628,-2.488990067875385,2.999106412658095
1726226137304981000,7.09598095703125,1.3218306409440934,-2.4278262818604706,2.5371780524611474
1726226137314975000,7.10597509765625,2.1726094117760657,-2.107460355517268,1.5616320613622665
1726226137324970000,7.115969970703125,2.830527377063036,-1.592340503358841,0.5673299318671227
1726226137334965000,7.125965087890625,3.011065145999193,-1.0918109020888804,-0.4326367992609739
1726226137344959000,7.135958984375,2.9096038363873955,-0.6190899297207594,-0.8802093018472195
1726226137354954000,7.1459541015625,2.560228088659048,-0.24819325505793094,-1.0751058510035276
1726226137364948000,7.155947998046875,2.0840815257564187,-0.05440379036068916,-1.3215578153520822
1726226137374943000,7.16594287109375,1.6467688436388968,0.10357727885246276,-1.4245546639680862
1726226137384938000,7.17593798828125,1.330336749613285,0.3593985445708036,-1.3910615596890448
1726226137394932000,7.185931884765625,1.0848892861321568,0.7642337291926146,-1.2818880682647227
1726226137404927000,7.195927001953125,0.877301743837446,1.0879764384925366,-1.2086585814028978
1726226137414921000,7.2059208984375,0.6228302852928638,1.3694623068213463,-0.9973784682005643
1726226137424916000,7.215916015625,0.33095512489676476,1.6200398266673086,-0.7633838343650102
1726226137434911000,7.225910888671875,0.10911766958385705,1.855761138164997,-0.5913011745631694
1726226137444905000,7.235905029296875,-0.07854220631718635,2.0450223117828368,-0.4645043481647968
1726226137454900000,7.24589990234375,-0.18081497844234107,2.3074714712083337,-0.2430319267719984
1726226137464894000,7.25589404296875,-0.20279519345164299,2.518776134330034,-0.23304829289615153
1726226137474889000,7.265888916015625,-0.19548516269922256,2.5739754589825865,-0.4526373847603798
1726226137484884000,7.275884033203125,-0.11814838664904236,2.4915146179169416,-0.7279115389674902
1726226137494878000,7.2858779296875,0.054471594899892804,2.316652556529641,-0.9811322667986154
1726226137504873000,7.295873046875,0.25109277589172124,2.2058856584340334,-1.2044371643155813
1726226137514867000,7.305866943359375,0.4675380167722702,2.274395131036639,-1.347880589610338
1726226137524862000,7.315862060546875,0.5450929656177759,2.2514058851152656,-1.5377788920879363
1726226137534857000,7.32585693359375,0.5793327966108918,2.125250279229879,-1.6506003846257924
1726226137544851000,7.335850830078125,0.5017582662820815,1.909290483778715,-1.7747773839145897
1726226137554846000,7.345845947265625,0.3981722196012735,1.692186778989434,-1.9878584090590476
1726226137564840200,7.355840087890625,0.32846623069047926,1.5297721112430094,-2.0736708986401555
1726226137574835000,7.3658349609375,0.35777386597841976,1.4771943672657013,-1.990060303017497
1726226137584830000,7.375829833984375,0.4363955672726035,1.2612614598214626,-2.1061206313461063
1726226137594824200,7.38582421875,0.42403322156667705,1.1176748266637324,-2.0990257046490908
1726226137604819000,7.39581884765625,0.4482923412933945,1.1686860519766806,-2.0010230110585687
1726226137614813200,7.405813232421875,0.48799189899712797,1.0977788705825806,-1.8965537518024445
1726226137624808200,7.41580810546875,0.3527300265923142,0.9760030872166157,-1.8866928675234316
1726226137634803000,7.425802978515625,0.26389731240719555,0.8828606931388377,-1.9209926120102405
1726226137644797200,7.435797119140625,0.2805176078185439,0.8602817815840244,-1.8917671020478009
1726226137654792200,7.445792236328125,0.37209114514440295,0.9670938045740127,-1.8700071056604384
1726226137664786200,7.4557861328125,0.34697248597890135,1.0430115076065063,-1.7723136241495607
1726226137674781200,7.46578125,0.198481421905756,1.0420359405726194,-1.5923901877194642
1726226137684776200,7.475776123046875,0.06204582954645157,0.9981330859601497,-1.475735985150933
1726226137694770200,7.485770263671875,0.0723614718556404,1.0709767883747816,-1.277571958631277
1726226137704765200,7.49576513671875,-0.0010623685345053672,1.1545528972059487,-0.9779390237152575
1726226137714759000,7.505759033203125,-0.05194850616306066,1.1593068137347697,-0.6621539954215288
1726226137724754700,7.515754638671875,-0.075308923484385,1.1843950777620076,-0.24261165553331374
1726226137734749400,7.52574951171875,-0.23478490743041036,1.0643576624959707,0.16448562880158424
1726226137744743700,7.53574365234375,-0.37547669592946764,0.9072229809790849,0.5647504367679357
1726226137754738700,7.54573876953125,-0.6537769199594855,0.8250538163363933,1.2176391757160425
1726226137764732700,7.555732666015625,-0.7771224368602037,0.8364379646599293,1.8350380836099385
1726226137774727700,7.565727783203125,-0.8426645840898156,0.7525088046073913,2.3518700003832578
1726226137784722700,7.57572265625,-0.9150456374287604,0.5511176327347755,2.5255828917354344
1726226137794716700,7.585716552734375,-0.7615002125754952,0.36153614112138743,2.5962422358483073
1726226137804711700,7.595711669921875,-0.401640187972784,0.15868541809022427,2.5481857686877247
1726226137814705700,7.60570556640625,-0.02203092228323221,-0.11129822849333286,2.3183953085437414
1726226137824700700,7.61570068359375,0.3385524481579661,-0.22588322357237337,2.054682997314632
1726226137834695700,7.62569580078125,0.6793579359397292,-0.29258476997017857,1.9118708556607364
1726226137844689700,7.635689697265625,0.9233455560013651,-0.4416951349854469,1.7047002236038444
1726226137854684700,7.6456845703125,1.0070637036517263,-0.5871791261970997,1.4147081004753708
1726226137864678700,7.6556787109375,0.9608782910600304,-0.6681780780166388,1.303851770530641
1726226137874673700,7.665673583984375,0.9228110107332468,-0.6396750371098519,1.3386702781945465
1726226137884668700,7.675668701171875,1.026866428491473,-0.5674608647704125,1.4079241394236683
1726226137894662700,7.68566259765625,1.1608145879492162,-0.29221944378912446,1.8516694849371909
1726226137904657700,7.69565771484375,1.05543464358896,-0.1691752479225397,2.2322826669722793
1726226137914651600,7.705651611328125,0.6508002422362565,-0.5008218622148036,2.3282965248331426
1726226137924646700,7.715646728515625,0.23105624229609964,-0.9749778358221054,2.362650337594747
1726226137934641700,7.7256416015625,-0.1379997729361057,-1.4415969841837881,2.254510573132336
1726226137944635600,7.7356357421875,-0.46813247553408144,-1.8300585416316986,2.0709096172332764
1726226137954630700,7.745630615234375,-0.5734656581431627,-2.071195448437333,1.8586983606606722
1726226137964624600,7.755624755859375,-0.6512456479161978,-2.314127421966195,1.7451143593177199
1726226137974619600,7.76561962890625,-0.75012395529747,-2.544959207856655,1.7372703678190706
1726226137984614700,7.77561474609375,-0.8384183248221874,-2.7851597105950114,1.6788400984212755
1726226137994608600,7.785608642578125,-0.8648246857106685,-3.0472336069673296,1.5291720995232463
1726226138004603600,7.795603759765625,-0.7916171184197067,-3.1821634709388014,1.4968714198991655
1726226138014597600,7.80559765625,-0.6874100172311067,-3.126974667680263,1.5124483437374234
1726226138024592600,7.815592529296875,-0.6623033407643437,-3.0815041253596545,1.3104051376968622
1726226138034587600,7.825587646484375,-0.6456462204739452,-3.078796035444736,0.9394666697189211
1726226138044581600,7.83558154296875,-0.5998603285938501,-2.9922254209727046,0.6806275174841284
1726226138054576600,7.84557666015625,-0.6316404914751649,-2.8908482825130224,0.5020362064406275
1726226138064570600,7.855570556640625,-0.7514543271183968,-2.7352929791420695,0.49897068139016626
1726226138074565600,7.865565673828125,-0.7601122653484345,-2.3841315170407293,0.5877078262463211
1726226138084560600,7.875560546875,-0.6136901165038346,-1.6749632569879291,0.8402452479884028
1726226138094554600,7.8855546875,-0.4120809179663658,-0.6409422805666923,1.2999074168190359
1726226138104549600,7.895549560546875,-0.3284560015574097,0.3947293856710195,1.6789537879288197
1726226138114543600,7.905543701171875,-0.3156885821819305,1.3568611839234828,2.073759453706443
1726226138124538600,7.91553857421875,-0.45860710681974887,2.028117354211211,2.318961417993903
1726226138134533600,7.92553369140625,-0.790991972258687,2.3368624008655545,2.3360347178697585
1726226138144527600,7.935527587890625,-1.1049106221586464,2.305155010959506,1.830464199823141
1726226138154522600,7.945522705078125,-1.264572776326537,2.1752841839432717,1.1541703276291488
1726226138164516600,7.9555166015625,-1.1137708049625157,2.3200123883515595,0.5667421951070427
1726226138174511600,7.96551171875,-0.8060223681300878,2.6602269245028496,0.07567892584055662
1726226138184506600,7.975506591796875,-0.5378086538285016,2.7762024971574544,-0.10694821659028529
1726226138194500600,7.98550048828125,-0.6784492966622114,2.4546260259807107,-0.3229384071797132
1726226138204495600,7.99549560546875,-1.0147709170281887,1.9184148704767225,-0.9615203883558511
1726226138214489600,8.005489501953125,-1.1574094556808472,1.5750456696867943,-1.5482997015804052
1726226138224484600,8.015484619140626,-1.244665714329481,1.136170852819085,-2.0536706054016944
1726226138234479600,8.025479736328125,-1.2559049012243746,0.6896557503312826,-2.530018536095321
1726226138244473600,8.0354736328125,-1.1890835278391838,0.458386742067337,-2.8871321845993396
1726226138254468600,8.045468505859375,-0.9605407296687364,0.49672728637754915,-3.117339116589725
1726226138264462600,8.055462646484376,-0.8875745699182153,0.5539876352131367,-3.041037674936652
1726226138274457600,8.06545751953125,-1.0897112994611262,0.2959089459568262,-2.6969372372627256
1726226138284452600,8.07545263671875,-1.360894677223265,-0.05519523299932479,-2.4561446138501166
1726226138294446600,8.085446533203125,-1.5819973885208367,-0.28395488879084585,-2.3419190997332335
1726226138304441600,8.095441650390624,-1.812448066139221,-0.3425859414577484,-2.1601538348287344
1726226138314435800,8.105435791015625,-1.8958947033718228,-0.4256798197299242,-1.9512702613741157
1726226138324430600,8.1154306640625,-1.7068837051227688,-0.33878654917478557,-1.6035294213712215
1726226138334425600,8.125425537109376,-1.4564944013252854,-0.12315174789428711,-1.2037275547415018
1726226138344419800,8.135419921875,-1.1978250526994465,0.12978607134222983,-0.7270680738806724
1726226138354414600,8.14541455078125,-1.0261167791679502,0.3646761927127838,-0.2862064671099186
1726226138364408800,8.155408935546875,-0.8074740282431244,0.7934615772426128,0.2172077496856451
1726226138374403800,8.16540380859375,-0.6238666426032782,1.2492273231565951,0.7213742461532354
1726226138384398600,8.175398681640624,-0.508436136610806,1.4819365933567286,1.1511714380741118
1726226138394392800,8.185392822265625,-0.26095307564884423,1.5570412264406681,1.383765557461977
1726226138404387800,8.195387939453125,0.24592121847271917,1.6213555854409931,1.677522293820977
1726226138414382600,8.205382568359376,0.9142506876587867,1.6994284206807613,2.100199424603581
1726226138424376800,8.215376953125,1.7144903807342051,1.5272446385920047,2.3163398373186586
1726226138434371600,8.22537158203125,2.4671909085214137,0.9771551798611878,2.028397340196371
1726226138444365800,8.23536572265625,3.129457424406707,0.39982174037396906,1.9542741193652151
1726226138454360800,8.24536083984375,3.8720027611434458,-0.1797539250820875,1.459003461536765
1726226138464355600,8.25535546875,4.5330514256715775,-0.7483025850892067,1.2340344301998614
1726226138474349800,8.265349853515625,6.013491058468818,-1.1482312929689884,0.22058862429559228
1726226138484344800,8.2753447265625,5.717378114372491,-1.0575561657875776,-0.686195380744338
1726226138494338800,8.2853388671875,3.7561177893817423,-1.1236223368912934,-0.4237427141875028
1726226138504333800,8.295333740234375,2.2387594617709516,-1.4745330391019582,-0.06911269919276238
1726226138514327800,8.305327880859375,1.4721093190863728,-1.6810580667316912,-0.00393792397081852
1726226138524322800,8.31532275390625,1.1381284166276455,-1.5983727692604064,-0.10199906975030898
1726226138534317800,8.32531787109375,0.8936091739073395,-1.4902216066211462,-0.23646365429759025
1726226138544311800,8.335311767578125,0.692969112662971,-1.4438368720650672,-0.287246331551671
1726226138554306800,8.345306884765625,0.3802966634318232,-1.312495972496271,-0.32541327286064625
1726226138564301800,8.3553017578125,0.4440086726248264,-0.9926689753353595,-0.40842297998070715
1726226138574295800,8.3652958984375,0.7716928130269051,-0.7076677923619746,-0.628441695433855
1726226138584290800,8.375290771484375,1.0786883856654166,-0.6434492949515581,-0.7389625098139048
1726226138594284800,8.385284912109375,1.1871963989183305,-0.7242670449852943,-1.0710369941294193
1726226138604279800,8.39527978515625,0.9781924139544367,-1.0177595774501562,-1.3998159440308808
1726226138614274800,8.40527490234375,0.6630266866028308,-1.233082244041562,-1.5960773517996072
1726226138624268800,8.415268798828125,0.3938698462322354,-1.3405740659892558,-1.6574731930047273
1726226138634263800,8.425263916015625,0.35962241645455356,-1.2193705295532942,-1.4527759653240442
1726226138644257500,8.435257568359376,0.4495557853579521,-1.026316393393278,-1.3369938694149255
1726226138654252800,8.445252685546874,0.3732005676910281,-1.0628367365390061,-1.2895762846797705
1726226138664247800,8.455247802734375,0.4009904918923974,-1.005726609829068,-1.1993301965653895
1726226138674241500,8.465241455078125,0.45934974188059563,-0.7476449979633093,-0.9803051683247089
1726226138684236800,8.47523681640625,0.3848714240014553,-0.4023240785837173,-0.6711322516471148
1726226138694230500,8.48523046875,0.32380642218589784,-0.09754968912601471,-0.49287177999317644
1726226138704225500,8.4952255859375,0.29985300740748644,0.1775233895510435,-0.1277875910013914
1726226138714220800,8.505220703125,0.3074631901502609,0.4315595254182815,0.21549393150508403
1726226138724213800,8.5152138671875,0.1214922902494669,0.36278994057476516,0.4282195673406124
1726226138734208800,8.525208740234374,0.03520429211109877,0.3729682202398777,0.6457984884262085
1726226138744202800,8.53520263671875,0.22410540024489162,0.6584948883920908,0.8928034104824065
1726226138754197800,8.54519775390625,0.4765396538734436,0.8806342492610215,1.0186369448065757
1726226138764192800,8.55519287109375,0.5913660564929246,1.0710627130925654,0.991207670611143
1726226138774186800,8.565186767578124,0.6115700556099415,1.2339391531318424,0.8972492839753627
1726226138784181800,8.575181640625,0.6501964311242103,1.5237386762976646,0.8884393700540065
1726226138794175700,8.58517578125,0.7432695593580603,1.840233314165473,0.8820031995266675
1726226138804170800,8.595170654296876,0.675548022262752,1.9931144298911094,0.8176368180781602
1726226138814165800,8.605165771484375,0.4016992246836424,1.8574317017257211,0.642714550936222
1726226138824159700,8.61515966796875,-0.019400281518697736,1.5055162063866854,0.45380175236463544
1726226138834154800,8.62515478515625,-0.39950872890204187,1.00346626368165,0.09993453843593597
1726226138844149000,8.63514892578125,-0.5819365493685007,0.5345002599328756,-0.39269817210435864
1726226138854143700,8.645143798828125,-0.6745961283653974,0.2706546777129173,-0.7151362285465002
1726226138864138800,8.655138671875,-0.770370624512434,0.145325001257658,-0.8500415425986051
1726226138874133000,8.665133056640625,-0.9898115400776266,0.03429448378980159,-0.866062118551135
1726226138884127700,8.675127685546874,-1.1793275652393698,-0.04938450089395046,-0.7738602201938629
1726226138894122000,8.6851220703125,-1.4362100304484366,-0.11578969469368457,-0.6619967590332031
1726226138904117000,8.695116943359375,-1.850675505463779,-0.18524492371380327,-0.4465928438991308
1726226138914111700,8.70511181640625,-2.172761679728329,-0.21297639572620392,-0.2545166128605604
1726226138924106000,8.71510595703125,-2.3321441401720047,-0.29751345854401584,-0.09809738613665103
1726226138934101000,8.72510107421875,-2.4681764124274252,-0.3850719150096178,0.025029227316379545
1726226138944095000,8.735094970703125,-2.607729260024428,-0.5396048895955086,0.13522212491631508
1726226138954090000,8.745090087890626,-2.5611694611623883,-0.573140663972497,0.3679933544367552
1726226138964084700,8.755084716796874,-2.4055372931629417,-0.5303934091359377,0.4509399331927299
1726226138974079000,8.765078857421875,-2.177704104566574,-0.5661597190439701,0.6713765817970037
1726226138984074000,8.775073974609375,-2.0109844331026077,-0.524767970469594,0.83936466576159
1726226138994068000,8.78506787109375,-1.6371400145500898,-0.4095212966114282,0.8802917194336652
1726226139004063000,8.79506298828125,-1.333865216000378,-0.416655386275053,0.8307832998991012
1726226139014058000,8.80505810546875,-1.2649684976458548,-0.6127741707026958,0.6874854205548763
1726226139024052000,8.815052001953125,-1.3651906208515165,-0.9451385778754949,0.365073083075881
1726226139034047000,8.825046875,-1.393331258186698,-1.2166051564931868,0.14667407777905464
1726226139044041000,8.835041015625,-1.2047989833652972,-1.3118670269429682,0.1407242294639349
1726226139054036000,8.845035888671875,-1.0548737948358058,-1.318296183207631,-0.006884498816728591
1726226139064031000,8.855031005859376,-0.9849684839606284,-1.2612117754608392,-0.11533785927295684
1726226139074025000,8.86502490234375,-0.8515531162053346,-1.045097081708908,-0.050775078469514845
1726226139084020000,8.87502001953125,-0.8612745920136571,-0.8394231179505586,0.024414310288429258
1726226139094014000,8.885013916015625,-1.0352116475105284,-0.626162644585967,0.07845569707751274
1726226139104009000,8.895009033203126,-1.362418818050623,-0.049364627149701114,-0.0169663323700428
1726226139114004000,8.90500390625,-1.2623235360950231,0.5722802477508783,-0.18355623997449874
1726226139123998000,8.914998046875,-0.7170236497282981,1.3373147719323635,-0.15583061318099498
1726226139133993000,8.924992919921875,0.3575643148809671,2.043978940209746,-0.05627367588579654
1726226139143987000,8.934987060546876,1.5322472691848874,1.3229840487629174,-0.4750701658427715
1726226139153982000,8.94498193359375,2.0697841203346847,0.54730479644835,-0.9188812700688839
1726226139163977000,8.95497705078125,2.0482523797452448,0.0011176058530807495,-1.1249082850486039
1726226139173971000,8.964970947265625,2.0496163615748286,-0.22599428273141384,-1.335739485439658
1726226139183966000,8.974966064453126,1.8181497849121688,-0.5707406170934438,-1.1615174755215645
1726226139193960000,8.9849599609375,1.4054527808740733,-0.7677350153118372,-0.7359159817248583
1726226139203955000,8.994954833984375,1.093937684984505,-1.0242284812033176,-0.1794762771844864
1726226139213950000,9.004949951171875,1.0374781311377883,-1.1439584379553793,0.305745280316472
1726226139223944000,9.01494384765625,1.0294900549933315,-1.1173790585875512,0.560906036299467
1726226139233939000,9.02493896484375,0.8741127385377884,-0.8608113584160805,0.6765782420933246
1726226139243933000,9.034932861328125,0.5323614943385124,-0.3436281439870596,0.7695791818737984
1726226139253928000,9.044927978515625,0.19416092835813759,0.25558278078734875,0.8518541449785232
1726226139263923000,9.0549228515625,0.035686230409145356,0.729293933236599,0.7553010656744241
1726226139273917000,9.0649169921875,-0.018515023116767407,0.965429670754075,0.7155354569971561
1726226139283912000,9.074911865234375,0.013914835844933986,1.1604641670763491,0.7452753462225198
1726226139293906000,9.084906005859375,-0.07264993340820074,1.2830045050740242,0.780465902069211
1726226139303901000,9.09490087890625,-0.19166005145311354,1.3097165709108114,0.7097422605484723
1726226139313896000,9.10489599609375,-0.3552563301995396,1.2166752991199492,0.5224509256988763
1726226139323890000,9.114889892578125,-0.5116261648237705,1.0213327597618103,0.25535657081604
1726226139333885000,9.124885009765626,-0.5754033482074737,0.7969587717086076,0.04669920733273029
1726226139343879000,9.13487890625,-0.5818965096190571,0.5984679974526167,-0.050260699206590646
1726226139353874000,9.1448740234375,-0.5591778973326087,0.458241196116805,-0.17755729182064534
1726226139363869000,9.154868896484375,-0.5597621269613504,0.3892109145104885,-0.22191139733195303
1726226139373863000,9.16486279296875,-0.45368864737898107,0.32452713767588137,-0.33076690884828563
1726226139383858000,9.17485791015625,-0.39001901602298017,0.23617197787463665,-0.434039067274332
1726226139393851600,9.1848515625,-0.36959172954410313,0.13352818048000334,-0.5390718056321144
1726226139403847000,9.194846923828125,-0.18668138625770805,-0.011141571739315986,-0.6498673453003168
1726226139413842000,9.204842041015626,0.1168126080006361,-0.18387831153571604,-0.8145102104902266
1726226139423835600,9.214835693359374,0.34483167455792424,-0.4688274720609188,-0.9854051218122243
1726226139433831000,9.224830810546875,0.6139458448305726,-0.6324398251593113,-1.1242132885217666
1726226139443825000,9.234824951171875,0.9143298903748392,-0.6327601431548595,-1.175461245200038
1726226139453819600,9.244819580078126,1.1272662463515997,-0.61231882815063,-1.1806079604387283
1726226139463815000,9.25481494140625,1.207973521748185,-0.4979448454737663,-1.101420441955328
1726226139473808600,9.26480859375,1.284097561007738,-0.28613690900504585,-0.9836223300486803
1726226139483803600,9.2748037109375,1.3905284757256506,0.02301964105963707,-0.8418687575370073
1726226139493798000,9.2847978515625,1.526468101261556,0.2835229271143675,-0.6420850208610296
1726226139503792600,9.294792724609374,1.5541408288240433,0.4265981036186218,-0.5147656318932772
1726226139513788000,9.304787841796875,1.4637167537942528,0.5572814160615206,-0.41422728234529493
1726226139523782000,9.314781982421875,1.335664958898723,0.6195441032290459,-0.33073359110057354
1726226139533776600,9.324776611328126,1.1912123565614223,0.6795745012998581,-0.31820670248270033
1726226139543771000,9.33477099609375,0.875305163192749,0.5934159747600555,-0.43722354252934453
1726226139553766000,9.344765869140625,0.6936629401460289,0.6497340743094683,-0.4399485835790634
1726226139563760600,9.3547607421875,0.7168342646360397,0.9802321030884981,-0.30926936278939243
1726226139573755000,9.3647548828125,0.7088073177859187,1.3124170620411633,-0.09750760354995727
1726226139583750000,9.37475,0.5988283551976085,1.5360808559983967,-0.014200374788045882
1726226139593744000,9.384743896484375,0.35890637713968754,1.5786428173959255,0.058571431434154504
1726226139603739000,9.39473876953125,0.25113749181628225,1.4288883092582225,0.028344050952792167
1726226139613734000,9.40473388671875,0.28585926110744475,1.2806313462018966,-0.14112111982703207
1726226139623727900,9.414727783203125,0.1755365996479988,1.1133505337238312,-0.26562545137405397
1726226139633723000,9.424722900390625,0.14056319368332623,0.9209142372012138,-0.4761731586486101
1726226139643716900,9.434716796875,0.10691577562540769,0.7350590726345777,-0.7174708089739084
1726226139653712000,9.4447119140625,0.1372901633620262,0.5187240141302347,-0.6994155123233795
1726226139663707000,9.454706787109375,0.144933371591568,0.37497313032150265,-0.8017360691130161
1726226139673700900,9.464700927734375,0.18691840988397598,0.4318839350670576,-0.7941957367360591
1726226139683695900,9.47469580078125,0.2212029568016529,0.5456622899383307,-0.7495125454008579
1726226139693689900,9.48468994140625,0.16404957547187804,0.5051695360302925,-0.7402472889274359
1726226139703684900,9.494684814453125,0.06114946522861719,0.386848861554265,-0.6991600762575865
1726226139713680000,9.504679931640625,-0.026413082890212533,0.33099954856038094,-0.5380518149346113
1726226139723675000,9.5146748046875,-0.08486907125115394,0.4200631488919258,-0.39301439844667907
1726226139733669600,9.524669677734375,-0.06050386080145836,0.3680979838550091,-0.6690507691979408
1726226139743664600,9.53466455078125,0.04916647422909736,0.358735696747899,-0.6879501154571771
1726226139753659000,9.544658935546876,-0.01714490380734205,0.19122867429852486,-0.5518973849356175
1726226139763653600,9.554653564453124,-0.06999708081185817,-0.021896189987659454,-0.6975093864411115
1726226139773648000,9.56464794921875,-0.04941431151032447,-0.12514146040678023,-0.8147396353319287
1726226139783643000,9.574642822265625,-0.015073358230292795,-0.05565174459517002,-0.7679989269450307
1726226139793636900,9.584636962890626,0.08672872764319181,-0.00675298139154911,-0.6253352538511157
1726226139803631900,9.5946318359375,0.10826865153908728,-0.002109539499878883,-0.522828234578669
1726226139813627000,9.604626953125,0.14504998370856045,0.27315058618187904,-0.2887386159360409
1726226139823620900,9.614620849609375,0.2117828020274639,0.655627808523178,0.037038229539990426
1726226139833616000,9.624615966796876,0.2272168102636933,0.8491630061984061,0.3739715520635247
1726226139843609900,9.63460986328125,0.1420224525809288,0.7911147218555211,0.627466420660913
1726226139853604900,9.64460498046875,-0.007844283759593963,0.7566507267177105,0.7230296121448277
1726226139863599900,9.654599853515625,-0.05246376220881939,0.948105610987544,0.9711275901347398
1726226139873593900,9.66459375,-0.10231617287546396,1.1441799717515706,1.2479814147487283
1726226139883588900,9.6745888671875,-0.17868366550207138,1.1162404099464416,1.441720610563457
1726226139893584000,9.684583984375,-0.3390793946415186,0.9299754955351353,1.5434370639801025
1726226139903577900,9.694577880859375,-0.5252648140758276,0.5768810195446014,1.411555773924291
1726226139913572900,9.70457275390625,-0.9448439788430929,0.09436930552423,1.2075026893660425
1726226139923566800,9.71456689453125,-1.2824866186797619,-0.29096272172629833,1.0096087119594215
1726226139933561900,9.724561767578125,-1.2505483426272868,-0.5252729973822832,0.9420739296078682
1726226139943556900,9.734556884765626,-1.134824114385247,-0.4678846382528543,1.0878127723634243
1726226139953550800,9.74455078125,-0.7974100226074456,-0.14997954906523228,1.203544307129085
1726226139963545900,9.7545458984375,-0.370600906586647,0.08701543563008309,1.3478537016034124
1726226139973539800,9.764539794921875,-0.26272680732309817,-0.10425707781016826,1.4161936628580092
1726226139983534800,9.774534912109376,-0.3447901735037565,-0.6117383979141712,1.2180965640947221
1726226139993529900,9.78452978515625,-0.6036117900818586,-1.2387731491595506,0.7114660156011581
1726226140003523800,9.79452392578125,-0.7092015778005123,-1.7353011135727165,0.40487084045708177
1726226140013518800,9.804518798828125,-0.7003533776953816,-2.094160728961229,0.26021277867555614
1726226140023512800,9.814512939453126,-0.5957564004063606,-2.2373685919344424,0.27212708835303784
1726226140033507800,9.8245078125,-0.47203941984474657,-2.273490291151404,0.5034942962944507
1726226140043502800,9.8345029296875,-0.4317611854702234,-2.330908460897207,0.8665990019068122
1726226140053496800,9.844496826171875,-0.543544859392941,-2.3259335950940847,1.1337544393271206
1726226140063491800,9.854491943359376,-0.7298030518025159,-2.2438696443915367,1.1958835632428526
1726226140073485800,9.86448583984375,-0.7152022795200348,-2.102480813539028,1.2492007274106145
1726226140083480800,9.874480712890625,-0.6000543898612261,-1.956264416399598,1.4481184949070214
1726226140093475800,9.884475830078125,-0.5116372707396746,-1.604177656146884,1.6252938016727565
1726226140103469800,9.8944697265625,-0.29154695135504005,-1.043670263776183,1.576777023524046
1726226140113464800,9.90446484375,-0.3226969996392727,-0.7431652222007512,1.4561971719443798
1726226140123458600,9.91445849609375,-0.49144291623383757,-0.7072796698272228,1.3371622117191553
1726226140133453800,9.924453857421875,-0.6667439535602927,-0.7117021624445915,1.2461530302777886
1726226140143448800,9.93444873046875,-0.7274918522506952,-0.6304208865523337,1.0406725432649253
1726226140153442800,9.94444287109375,-0.8335475039154291,-0.5750701707303524,0.8681094064697623
1726226140163437800,9.954437744140625,-0.8319634495943784,-0.5130716874569654,0.7412786778017878
1726226140173431600,9.964431640625,-0.6895844386607408,-0.22840660457015036,0.7343725516751408
1726226140183426800,9.9744267578125,-0.556991493204236,0.18463234477341173,0.8631716578066349
1726226140193421800,9.984421875,-0.5889589953511953,0.43235213710069653,0.9371022786751388
1726226140203415600,9.99441552734375,-0.760267748171091,0.3810667710214853,0.8132064344152807
1726226140213410800,10.004410888671876,-0.9047592212140559,0.4719079024195671,0.7595701212957501
1726226140223404500,10.014404541015624,-0.8964327068954706,0.787500623011589,0.7854387220457196
1726226140233399600,10.024399658203125,-0.9040764996469021,0.9982616807758807,0.9011348932370543
1726226140243394800,10.034394775390625,-0.9828630361139774,0.8800526499807834,0.9442489355593919
1726226140253388500,10.044388427734376,-1.0650842232048512,0.6630781245291233,0.7874006697684526
1726226140263383600,10.054383544921874,-1.240773383066058,0.34852585290074345,0.5778019337818027
1726226140273377500,10.06437744140625,-1.486898599678278,-0.08008125245273112,0.4180974017769098
1726226140283372500,10.07437255859375,-1.611381888437271,-0.6093441962540149,0.33721038589924573
1726226140293367600,10.084367431640626,-1.5831079801112413,-1.0948059922516344,0.263294085817039
1726226140303361500,10.094361572265624,-1.313601887911558,-1.192891103428602,0.2631941325739026
1726226140313356500,10.1043564453125,-0.9985916433826089,-1.0967506965786218,0.15712679047137498
1726226140323350800,10.114350830078125,-0.6186895322263241,-1.1638707606494425,-0.003544540739059448
1726226140333345500,10.124345458984376,-0.276231601062417,-1.1094441739350556,0.1110568209528923
1726226140343340500,10.134340576171875,-0.10208791707754135,-0.9869114347219466,0.1354141403570771
1726226140353334800,10.144334716796875,0.0031079028874635693,-0.8986246639817953,0.16344956375211475
1726226140363329500,10.15432958984375,0.024954116253554818,-0.9382593397557735,0.06433627857118844
1726226140373323800,10.16432373046875,0.09894143574535846,-0.7479547945648432,-0.009719429981708527
1726226140383318800,10.17431884765625,0.23547201291173694,-0.45547816114425654,-0.017274667666852473
1726226140393313500,10.1843134765625,0.39946927367448803,-0.3760428053796291,-0.11470949824154376
1726226140403307800,10.194307861328125,0.6862248990997671,-0.2525736620992422,-0.21932956414520738
1726226140413302800,10.204302734375,1.1073553849622606,0.2192728655219078,-0.3739823657184839
1726226140423296800,10.214296875,1.68009068300426,0.839894242593646,-0.44267596271634096
1726226140433291800,10.224291748046875,2.455787470975518,1.1637205385237932,-0.8046160084635019
1726226140443286800,10.234286865234376,3.676795830863714,1.1630816560983657,-1.2814087603151798
1726226140453280800,10.24428076171875,5.532878456068039,1.504393924358487,-2.493636432376504
1726226140463275800,10.25427587890625,10.409636936181784,2.130335035148263,-4.272280428591371
1726226140473269800,10.264269775390625,9.52139747261405,1.9042098195135593,-4.977275786873698
1726226140483264800,10.2742646484375,3.554320959317684,0.9662778120160103,-2.140640156063437
1726226140493259800,10.284259765625,1.9665923336684703,0.3828098152965307,-0.9118611621737479
1726226140503253800,10.294253662109375,1.7818460071265696,0.4396680130720138,-0.6981412546038627
1726226140513248800,10.304248779296875,0.9437614443033933,0.9783400057315825,-0.35606384719014167
1726226140523242800,10.31424267578125,0.40425153951495885,1.6622504904091358,0.25069062483161686
1726226140533237800,10.32423779296875,0.5359530890896916,2.372595393025875,0.7691229625388979
1726226140543232800,10.334232666015625,0.4041986402839422,2.638641700160503,0.8406789632305502
1726226140553226800,10.344226806640625,0.10921966865360737,2.329623681783676,1.0503305984482167
1726226140563221800,10.3542216796875,-0.16741496025174854,1.4411357964128255,1.1109215530112384
1726226140573215700,10.3642158203125,-0.29411943219155073,0.402619262138009,0.899928732317686
1726226140583210800,10.374210693359375,-0.4299123427331447,-0.33244799380302426,0.6757321466580033
1726226140593205800,10.384205810546876,-0.5499374830394983,-0.8611392751961946,0.5461959584236145
1726226140603199700,10.39419970703125,-0.4727940376043319,-1.1513380268126725,0.4560001391917467
1726226140613194800,10.40419482421875,-0.2569435477465391,-1.3530547773778439,0.3869137434840202
1726226140623188700,10.414188720703125,0.004942132577300072,-1.5677578507661818,0.305236161750555
1726226140633183700,10.424183837890626,0.16463409736156462,-1.7718658803820608,0.5229001307711005
1726226140643178800,10.4341787109375,0.3021796967893839,-1.905931821000576,0.6055144088327884
1726226140653172700,10.4441728515625,0.47355976127982136,-2.0435610070586203,0.3973255396440625
1726226140663167700,10.454167724609375,0.5654787510424852,-2.188223160493374,0.19404519302397966
1726226140673161700,10.46416162109375,0.7714601733148098,-2.0702087754875422,0.48985447799861426
1726226140683156700,10.47415673828125,0.7440498960807919,-1.9725100332796572,0.6489844249859452
1726226140693151700,10.48415185546875,0.5012444715410471,-2.0248487078040838,0.5443588061243295
1726226140703145700,10.494145751953125,0.32033903833627697,-2.028395586630702,0.5318894929125905
1726226140713140700,10.504140625,0.15045476536154745,-1.8746189833700655,0.8954010257601738
1726226140723133700,10.5141337890625,0.020229718080163002,-1.687238801193237,1.1327122367978095
1726226140733128700,10.524128662109375,-0.1076280155479908,-1.5480027644604444,1.2447028314694761
1726226140743123700,10.534123779296875,-0.17814298275411128,-1.4115326853096484,1.2983949664294718
1726226140753117700,10.54411767578125,-0.2119312705874443,-1.2606027036517857,1.23252636372447
1726226140763112700,10.55411279296875,-0.16482114436626433,-0.9545330136865376,1.2762006702780724
1726226140773106700,10.564106689453125,-0.025671032351255417,-0.30708325092196465,1.1612801596343516
1726226140783101700,10.574101806640625,0.3143050188690424,0.49388884808123107,0.8796844011902809
1726226140793096700,10.5840966796875,0.4313911831140518,1.2281588161647319,0.837650555320084
1726226140803090700,10.594090576171874,0.4074655331254005,1.7703379401624202,0.7734913868814707
1726226140813085700,10.604085693359375,0.2212286757647991,1.9286773212939499,0.30129180803894995
1726226140823080000,10.614079833984375,-0.02359481059908867,2.005158503428101,0.18121084589213132
1726226140833074700,10.62407470703125,-0.16387889508008957,1.8264263226091861,-0.047069794210791584
1726226140843069700,10.634069580078124,-0.5557686734110117,1.3500848216563461,-0.36225627208948136
1726226140853064000,10.64406396484375,-0.9870587342381477,0.9815186357676983,-0.6398837114244699
1726226140863058700,10.65405859375,-1.2279326061934233,0.6913356662422419,-0.757171827982366
1726226140873053000,10.664052978515626,-1.4266396535485981,0.5230027143627405,-0.8756120371848344
1726226140883048000,10.6740478515625,-1.4005647165715693,0.4688876778155565,-1.1330009906113148
1726226140893042700,10.684042724609375,-1.2904442996859549,0.4300976361721754,-1.282200787475705
1726226140903037000,10.694036865234375,-1.3313187463879586,0.3772562728226185,-1.3862804628923535
1726226140913032000,10.704031982421874,-1.507471432107687,0.4017220210373401,-1.3576637324780225
1726226140923026000,10.71402587890625,-1.6416811651110648,0.32898937778174875,-1.5154253137215972
1726226140933021000,10.72402099609375,-1.917880617469549,0.1428717628866434,-1.338009476198256
1726226140943016000,10.734015869140626,-2.1890853302806614,-0.2665893279701471,-1.23606973541975
1726226140953010000,10.744010009765624,-2.5740596301347014,-0.6724287211984395,-1.2633990563720463
1726226140963005000,10.7540048828125,-2.531982237383723,-0.7228302901804446,-1.2543518265634774
1726226140973000000,10.764,-2.2029531121134758,-0.4021118971377611,-0.9740636435866356
1726226140982994000,10.773993896484376,-1.68447342813313,0.16778759295642376,-0.6079188396260142
1726226140992989000,10.783989013671874,-1.1389151830911635,0.8558750710576772,-0.14708996510356664
1726226141002983000,10.79398291015625,-0.8565098618298769,1.3413842133283613,0.32931349516958
1726226141012978000,10.80397802734375,-0.9201321469128131,1.386902686443925,0.6641533525452017
1726226141022973000,10.813972900390626,-1.0333096132814883,1.2580150252461433,0.8861866226911544
1726226141032967000,10.823966796875,-1.0294017921879888,1.0292945324212313,0.8670607741996645
1726226141042962000,10.8339619140625,-0.9161720111101865,0.6115063427239656,0.6617293402686715
1726226141052955600,10.84395556640625,-0.7828849459096789,-0.010394552764296532,0.480787374445796
1726226141062951000,10.853950927734376,-0.4915542676538229,-0.7962900786668061,0.3217223093882203
1726226141072946000,10.86394580078125,-0.044324879416823386,-1.5880010128498077,0.16787527123987675
1726226141082939600,10.873939697265625,0.324486805665493,-2.2050100446432825,-0.10837298869639635
1726226141092935000,10.883934814453125,0.5102946239590644,-2.5910762313872575,-0.28003333143293857
1726226141102928600,10.8939287109375,0.5320511132150888,-2.879887912559509,-0.2891910358786583
1726226141112924000,10.903923828125,0.4358563458293676,-3.0482319703549146,-0.03705576519668102
1726226141122919000,10.9139189453125,0.4033148431867361,-3.000055676206946,0.40869770526885985
1726226141132912600,10.92391259765625,0.43433717343807215,-2.7702105632662772,0.9474468548178672
1726226141142908000,10.933907958984374,0.5496189186096191,-2.5458570334792134,1.48000328720659
1726226141152901600,10.943901611328124,0.6590779489770531,-2.231420497184992,1.9306842772021888
1726226141162896600,10.953896728515625,0.705664051324129,-1.9546552276372908,2.321902147620916
1726226141172892000,10.963891845703126,0.8718670054376125,-1.5745266142487524,2.603507550676167
1726226141182885600,10.9738857421875,1.3121695170208811,-0.9918062210261821,2.2809183953255414
1726226141192880600,10.983880615234375,1.8634499391019343,-0.24591011255681514,1.7916785420939325
1726226141202874600,10.99387451171875,2.3716785704419014,0.5300450340896845,1.349367028775811
1726226141212869600,11.00386962890625,3.0025331722363826,1.533508375161886,0.7481149535626173
1726226141222864600,11.01386474609375,3.7355999020099637,2.586179106995463,0.08644991070181131
1726226141232858600,11.023858642578125,4.013813032278418,3.2577216930091377,-0.6023392859280109
1726226141242853600,11.033853515625,3.7591350913763044,3.33746509180963,-1.1454247111156581
1726226141252847600,11.04384765625,3.0780905175238846,3.0582319708436727,-1.249986324830353
1726226141262842600,11.053842529296874,2.513354693803191,2.7351871806800365,-0.6434320515558123
1726226141272837600,11.063837646484375,1.9645754408881066,2.2753198446661234,0.18982202237099408
1726226141282831600,11.07383154296875,1.4001660726428031,1.7191548654139042,0.7831774991154671
1726226141292826600,11.08382666015625,0.6886001037985086,1.31253513546288,1.2498936781108378
1726226141302820600,11.093820556640624,-0.005721884778141975,0.9666168347120284,1.483220495687425
1726226141312815600,11.103815673828125,-0.4965399471119046,0.7033867540419101,1.4787106170475481
1726226141322810600,11.113810546875,-0.7907470575869083,0.3048620677411556,1.3331778182581067
1726226141332804600,11.1238046875,-0.9568862988144159,-0.19573942972123623,1.0304077543601393
1726226141342799600,11.133799560546874,-0.8316101061120629,-0.5973690963000059,0.7053381803706288
1726226141352793600,11.143793701171875,-0.6647656392246485,-0.9011369390636682,0.48470863954275845
1726226141362788600,11.15378857421875,-0.5962243101790548,-1.1411159080058335,0.2675856455311179
1726226141372783600,11.16378369140625,-0.4617641095459461,-1.2852327025175094,-0.0891670607060194
1726226141382777600,11.173777587890624,-0.10138678307086228,-1.3181664193481206,-0.41210722145140166
1726226141392772600,11.183772705078125,0.2611170340389013,-1.189247193968296,-0.5889262621253728
1726226141402767600,11.193767578125,0.5774719711750745,-1.1942857726573943,-0.7977087132930755
1726226141412761600,11.20376171875,0.7664075661003589,-1.3859183515816926,-1.1050798412457108
1726226141422756600,11.213756591796875,0.7965051827222108,-1.6080179649621247,-1.389759537179768
1726226141432750600,11.22375048828125,0.8915355825036764,-1.7562819422811269,-1.5905214712381361
1726226141442745600,11.23374560546875,1.083109416978061,-1.6600936046361923,-1.671634697087109
1726226141452740600,11.24374072265625,1.4289596209287643,-1.240105859068036,-1.6153624825060366
1726226141462734600,11.253734619140625,1.6036825661063194,-0.5639081407248974,-1.4351497077405453
1726226141472729600,11.2637294921875,1.6518951006114482,0.18744272601902484,-1.2129691380783916
1726226141482723800,11.273723876953126,1.4902601850658654,0.7171691956788301,-1.0135799536779522
1726226141492718600,11.283718505859374,0.9403680024728178,0.7824690585851669,-0.978268401800096
1726226141502713600,11.293713623046875,0.3809755856066942,0.6781891844213008,-1.0863377313748002
1726226141512707600,11.30370751953125,0.0883069367453456,0.8728723830878734,-1.10860626180619
1726226141522702600,11.31370263671875,0.1252349839091301,1.4425228668570518,-0.8783812096372247
1726226141532696800,11.32369677734375,0.25740736586600543,2.169254256129265,-0.47292292468100783
1726226141542691600,11.333691650390625,0.19793255585134029,2.694492766720056,-0.09536357725858688
1726226141552686600,11.3436865234375,-0.1462768951550126,3.018582682022452,0.1653326010197401
1726226141562680800,11.353680908203126,-0.5550017806917429,2.89691328164041,0.19554127680063246
1726226141572675600,11.363675537109375,-0.7683513936445117,2.5270856975138187,0.06647095251232385
1726226141582669800,11.373669921875,-0.8054869460791348,2.260826624411344,-0.06584376052469015
1726226141592664800,11.383664794921875,-0.9017232145190238,1.9998995599865912,-0.2914803158596158
1726226141602659600,11.39365966796875,-0.8728136386379599,1.6676234156191347,-0.48109307939410206
1726226141612653800,11.40365380859375,-0.9611509705215692,1.100142677104473,-0.8600693078771233
1726226141622648800,11.41364892578125,-1.121223166795075,0.6263543677657842,-1.1582792242527007
1726226141632642800,11.423642822265625,-1.0011284683838486,0.19373685772716998,-1.2917317091479896
1726226141642637800,11.433637939453124,-0.8422738312065601,-0.21525661561787127,-1.4249252508461474
1726226141652632800,11.4436328125,-0.8257955746144056,-0.49747196726500986,-1.4362687748983503
1726226141662626800,11.453626708984375,-0.6574374882936477,-0.570158433291316,-1.4183154773175715
1726226141672621800,11.463621826171876,-0.4907575643181801,-0.4956482589691877,-1.3331468385979532
1726226141682615800,11.47361572265625,-0.4173270019263029,-0.38944472326636315,-1.1191250254720448
1726226141692610800,11.48361083984375,-0.5069610956221818,-0.32470249424278735,-0.9309951939716935
1726226141702605800,11.493605712890625,-0.6550023701012134,-0.193610016477108,-0.6928928325563669
1726226141712599800,11.503599853515626,-0.9710790748178958,-0.19620470914542673,-0.41971243575811384
1726226141722595000,11.513594970703124,-1.1837485965520143,-0.35496494603753087,-0.26193741051107644
1726226141732590000,11.523590087890625,-1.2919167103260756,-0.6028039808303117,-0.18013444883227347
1726226141742584000,11.533583984375,-1.3092232344359158,-0.6977683296382426,-0.12312222953885793
1726226141752579000,11.5435791015625,-1.1401420945376157,-0.49110126318931574,0.10239800594002008
1726226141762573000,11.553572998046874,-1.0119079288125037,-0.34513737950623036,0.4022700103089213
1726226141772568000,11.563568115234375,-0.9933289005488156,-0.42253918361663817,0.6581126110762358
1726226141782563000,11.57356298828125,-0.9302525589108467,-0.4917793085813522,0.7832125704288482
1726226141792557000,11.58355712890625,-0.8298013031244278,-0.47560909502506254,0.87533117441684
1726226141802552000,11.593552001953125,-0.7019646122843026,-0.2957417726963758,0.9874813435643911
1726226141812546000,11.603546142578125,-0.42160687120258805,0.2518371645182371,1.2077654319554567
1726226141822541000,11.613541015625,-0.08160568554103374,0.9196750507950783,1.4985916678205131
1726226141832536000,11.6235361328125,0.04150631486475467,1.2581138094455002,1.7877447097763417
1726226141842530000,11.633530029296875,-0.021883915027976035,1.3709937541723252,1.9948583509489892
1726226141852525000,11.643525146484375,-0.027291327029466628,1.613532344469428,2.2334277453541755
1726226141862519000,11.65351904296875,-0.07716682631075382,1.8589543812483549,2.4817104322612282
1726226141872514000,11.66351416015625,-0.21886428472101688,1.8346961383044718,2.5401520998358724
1726226141882509000,11.673509033203125,-0.5114397023409605,1.4165806163489818,2.3742916755497454
1726226141892503000,11.6835029296875,-0.9307949952244758,0.790887342840433,2.1566718379318712
1726226141902498000,11.693498046875,-1.2473463317155837,0.20822189467549324,1.8353230380311607
1726226141912491800,11.70349169921875,-1.4348656301021576,-0.3345645475655794,1.4762886505976318
1726226141922487000,11.713487060546875,-1.5638164196640252,-0.8591945708692074,1.2642077424064277
1726226141932482000,11.72348193359375,-1.605561219459772,-1.2461322797507046,1.0423004367277025
1726226141942475800,11.733475830078126,-1.4430384151637554,-1.4977894115269184,0.8193450833007693
1726226141952471000,11.743470947265624,-1.303726975107193,-1.7516677264839409,0.4713005841761827
1726226141962464800,11.75346484375,-1.1268594191163777,-1.8079653677672147,0.10979279236644506
1726226141972459800,11.763459716796875,-0.9652794486284255,-1.7674726138591765,-0.2655798586666584
1726226141982455000,11.773455078125,-0.9289227716118097,-1.6075702211946248,-0.45879941452145573
1726226141992448800,11.78344873046875,-0.946559550589323,-1.1999369302868843,-0.46184302000105376
1726226142002443800,11.79344384765625,-1.0568488943010568,-0.9940607219547033,-0.5474404055267572
1726226142012437800,11.803437744140625,-1.208367489501834,-1.0419272195011378,-0.7422858090177178
1726226142022432800,11.813432861328126,-1.378105047482252,-0.9970628263801335,-0.8135591933757066
1726226142032428000,11.823427978515625,-1.2342670699119567,-0.6695563806325197,-0.6752490393161773
1726226142042421800,11.833421875,-1.0701298161566257,-0.3839075474053621,-0.4588789094984531
1726226142052416800,11.843416748046875,-1.1374439414948225,-0.3378665117204189,-0.25514672745764255
1726226142062412000,11.853412109375,-1.2582739684432744,-0.38076574224829673,-0.11089169351905584
1726226142072405800,11.86340576171875,-1.2255126855701208,-0.24695991387069224,0.12943652725219726
1726226142082400800,11.87340087890625,-1.1360597936600445,0.016748305705189703,0.4087167022302747
1726226142092394800,11.883394775390625,-1.1926198852717875,0.1484790813744068,0.6214210030168295
1726226142102389800,11.8933896484375,-1.3642717524409294,0.11307692860364914,0.8077928849339485
1726226142112384800,11.903384765625,-1.4415034606814383,0.035682138755917546,0.8733049292862415
1726226142122378800,11.913378662109375,-1.5964830099910496,-0.0028676643908023833,0.8425453416243195
1726226142132373800,11.923373779296876,-1.4637603006750344,0.01052314758002758,0.7812599750563501
1726226142142367700,11.93336767578125,-1.308122871978581,-0.06213526139557361,0.5842965564981103
1726226142152362800,11.94336279296875,-0.888186856597662,-0.10352993257939815,0.46051644757241006
1726226142162357800,11.953357666015625,-0.3155991503328085,-0.005084171396493912,0.3641545069262385
1726226142172351700,11.963351806640626,0.2609723648712039,0.13257424075603486,0.250567290712893
1726226142182346800,11.9733466796875,0.7995289144575596,0.37000820139050483,0.14521277305483818
1726226142192340700,11.9833408203125,1.253871349570155,0.7925947312802076,0.1485816649660468
1726226142202335700,11.993335693359375,1.6601099712491034,1.402493638807535,0.3280249166637659
1726226142212330800,12.003330810546874,1.7264724949508905,1.8233470612943172,0.5230617510735989
1726226142222324700,12.01332470703125,1.5591770694255829,1.8950445162832736,0.4931733932882547
1726226142232319700,12.02331982421875,1.2959279917940496,1.7671137174189089,0.3066355071544647
1726226142242314000,12.03331396484375,1.0689198558449744,1.4918372251242398,0.14951894581615924
1726226142252308700,12.043308837890624,0.9510586155742407,1.032726844957471,0.007750175735354423
1726226142262303700,12.0533037109375,0.8730831032291054,0.4461304870843887,-0.2343254732251167
1726226142272298000,12.063298095703125,0.745416800519824,-0.2696083835303783,-0.41571313698887824
1726226142282292700,12.073292724609376,0.6047109834954142,-0.9138023593693971,-0.4705640865951776
1726226142292287000,12.083286865234374,0.7765507744520902,-1.2432663689255714,-0.5448901365220546
1726226142302282000,12.093281982421875,1.2662795802444218,-1.529441271853447,-1.119715977102518
1726226142312276700,12.10327685546875,1.5865478914320468,-1.964196378442645,-0.9957394688218831
1726226142322271000,12.11327099609375,1.8450369150549173,-2.214268871375918,-0.9087813163369893
1726226142332265700,12.123265625,2.1105644590124486,-2.2322487647026774,-0.6858657103985547
1726226142342260700,12.1332607421875,2.3411761724114415,-1.6865408820569514,-0.453026676338911
1726226142352255000,12.1432548828125,2.2203379621565342,-0.9887643691122532,-0.3184212220162153
1726226142362249700,12.153249755859376,1.9602800817817447,-0.40486207262873647,-0.009444120171666145
1726226142372244000,12.163243896484374,1.497603533565998,-0.08556172969043255,0.20357377660870551
1726226142382239000,12.173239013671875,0.9731973821461201,-0.08486030342280865,0.4959183080822229
1726226142392233700,12.183233642578125,0.4562684347391128,-0.13670797955989836,0.7937970928072929
1726226142402228000,12.19322802734375,0.286325125053525,-0.15011398909986018,0.9115361680030822
1726226142412223000,12.203222900390625,0.37884821818917985,-0.1456505799502134,1.0282552525013684
1726226142422217000,12.213217041015625,0.5031406605511903,-0.19160685996115207,1.0259954908758402
1726226142432212000,12.2232119140625,0.6700745592877269,-0.20572832429409027,0.9081775052249431
1726226142442207000,12.23320703125,0.6724883424311876,-0.0036591070294380184,0.8747779244482516
1726226142452201000,12.243200927734375,0.7160375613003969,0.4108393934726715,1.0606132152706385
1726226142462196000,12.253196044921875,0.5913087733477354,0.5158054963350296,1.1748328841686249
1726226142472190000,12.26318994140625,0.2618798351049423,0.2383487373918295,1.0418588304400442
1726226142482185000,12.27318505859375,-0.16694120526015757,-0.16587503733336925,0.7045543365165591
1726226142492180000,12.283179931640625,-0.2405401099562645,-0.4742775541603565,0.3850076176017523
1726226142502174000,12.293174072265625,-0.09411474624127149,-0.5971709433794021,0.17474106535613534
1726226142512169000,12.3031689453125,-0.021204700592160224,-0.6270248143732547,0.09571516717523336
1726226142522163000,12.313162841796874,-0.1353513042539358,-0.5852893669277429,0.02959171292632818
1726226142532158000,12.323157958984375,-0.016353168907761572,-0.3302250570565462,0.04838935237675905
1726226142542153000,12.333153076171875,0.17926468026041983,0.08449673080742359,0.26046850700229407
1726226142552147000,12.34314697265625,0.06778203511089086,0.3078893066078424,0.2189358886525035
1726226142562142000,12.353141845703124,-0.15994009432643652,0.1400537828564644,0.06684972269684077
1726226142572136000,12.363135986328125,-0.3630857086509466,-0.047398880034685134,-0.004678805465996265
1726226142582131000,12.373130859375,-0.40457741046845913,-0.02960486466884613,-0.08518938924670219
1726226142592126000,12.3831259765625,-0.3887333601266145,0.1231260289311409,-0.2565542561680078
1726226142602120000,12.393119873046874,-0.3062555679261684,0.28850013100504873,-0.3441460303813219
1726226142612115000,12.403114990234375,-0.13561901527941225,0.4306874187588691,-0.3452031382188201
1726226142622110000,12.41310986328125,-0.11840016945302485,0.5236725764483213,-0.4176248158290982
1726226142632104000,12.42310400390625,-0.13121259701400995,0.7451210324436426,-0.4906912210837006
1726226142642099000,12.433098876953125,-0.13573299704790115,0.8639309517413377,-0.4267486180052161
1726226142652093000,12.443093017578125,-0.30578268971741196,0.9477741870760917,-0.33278175580203534
1726226142662088000,12.453087890625,-0.5158703782647848,0.8843798655301331,-0.4334668203443289
1726226142672083000,12.4630830078125,-0.627130612835288,0.6220394271761178,-0.5293447768658399
1726226142682077000,12.473076904296875,-0.6478384698212146,0.20208675292134284,-0.5722738180100917
1726226142692072000,12.483072021484375,-0.5671230111181735,-0.27211072174012657,-0.6803782188981771
1726226142702066000,12.49306591796875,-0.5325368509054184,-0.6817535989046096,-0.6199059222787618
1726226142712061000,12.50306103515625,-0.4976870713204145,-0.7994979347974062,-0.5064432092279195
1726226142722056400,12.513056396484375,-0.5022340671002865,-0.9377589890182018,-0.3675231065765023
1726226142732050400,12.523050537109375,-0.4630471350938081,-0.8991390432447195,-0.21705606625527143
1726226142742045400,12.53304541015625,-0.371656553119421,-0.5600871211320162,0.054504620386660096
1726226142752039400,12.543039306640624,-0.3232575561314821,0.036112931388616556,0.5221528195351361
