time,seconds_elapsed,z,y,x
1727009895398027800,0.01702783203125,-0.64178466796875,-0.8323822021484375,-0.0055084228515625
1727009895408065500,0.0270654296875,-0.617645263671875,-0.8144073486328125,0.014373779296875
1727009895418103800,0.037103759765625,-0.760101318359375,-0.782928466796875,-0.0497589111328125
1727009895428141600,0.0471416015625,-0.6444549560546875,-0.7775421142578125,-0.13494873046875
1727009895438179600,0.0571796875,-0.537811279296875,-0.77886962890625,-0.1290435791015625
1727009895448217600,0.067217529296875,-0.5613555908203125,-0.801788330078125,-0.04669189453125
1727009895458255600,0.077255615234375,-0.6288909912109375,-0.7944183349609375,0.00787353515625
1727009895468293600,0.087293701171875,-0.66180419921875,-0.7473297119140625,-0.0017547607421875
1727009895478331600,0.09733154296875,-0.6907501220703125,-0.76947021484375,-0.0528717041015625
1727009895488368400,0.107368408203125,-0.490570068359375,-0.74224853515625,-0.0120849609375
1727009895498406700,0.11740673828125,-0.6026153564453125,-0.7751312255859375,0.0276336669921875
1727009895508444700,0.127444580078125,-0.661956787109375,-0.761566162109375,0.05810546875
1727009895518482700,0.137482666015625,-0.8806304931640625,-0.7250213623046875,-0.0276336669921875
1727009895528520700,0.147520751953125,-0.6672210693359375,-0.738983154296875,-0.0926055908203125
1727009895538561300,0.157561279296875,-0.486358642578125,-0.7317352294921875,-0.106903076171875
1727009895548599600,0.167599609375,-0.4136505126953125,-0.8665771484375,-0.0600128173828125
1727009895558637300,0.17763720703125,-0.70513916015625,-0.8805694580078125,-0.019805908203125
1727009895568675600,0.187675537109375,-0.5937042236328125,-0.83966064453125,-0.0001983642578125
1727009895578713300,0.19771337890625,-0.5820465087890625,-0.8130645751953125,0.0099334716796875
1727009895588751600,0.207751708984375,-0.45184326171875,-0.8053131103515625,-0.0582122802734375
1727009895598789400,0.217789306640625,-0.4700775146484375,-0.8094024658203125,-0.1221466064453125
1727009895608827400,0.227827392578125,-0.4723358154296875,-0.8598785400390625,-0.1595001220703125
1727009895618865400,0.237865478515625,-0.62127685546875,-0.855072021484375,-0.0596466064453125
1727009895628903400,0.2479033203125,-0.58502197265625,-0.9913330078125,0.125518798828125
1727009895638941400,0.25794140625,-0.6217498779296875,-0.944305419921875,0.2586669921875
1727009895648979500,0.2679794921875,-0.58673095703125,-0.93096923828125,0.196319580078125
1727009895659017500,0.278017578125,-0.668182373046875,-0.8398895263671875,-0.020751953125
1727009895669055500,0.288055419921875,-0.4798583984375,-0.82562255859375,-0.2680816650390625
1727009895679092500,0.298092529296875,-0.446197509765625,-0.8071136474609375,-0.4030303955078125
1727009895689130500,0.308130615234375,-0.4018402099609375,-0.8277435302734375,-0.3787841796875
1727009895699168500,0.31816845703125,-0.5936126708984375,-0.8726959228515625,-0.198455810546875
1727009895709206300,0.328206298828125,-0.3895111083984375,-0.86224365234375,0.013519287109375
1727009895719244500,0.33824462890625,-0.5733795166015625,-0.867218017578125,0.122039794921875
1727009895729282300,0.3482822265625,-0.7465972900390625,-0.931610107421875,0.0431671142578125
1727009895739320600,0.358320556640625,-0.7400054931640625,-0.9463043212890625,-0.1410980224609375
1727009895749358300,0.3683583984375,-0.529327392578125,-0.8873443603515625,-0.304168701171875
1727009895759396600,0.378396728515625,-0.241058349609375,-0.8901519775390625,-0.32806396484375
1727009895769434400,0.388434326171875,-0.5522918701171875,-0.824493408203125,-0.1781005859375
1727009895779472400,0.398472412109375,-0.6784820556640625,-0.83489990234375,-0.0034332275390625
1727009895789510400,0.408510498046875,-0.5606536865234375,-0.8913421630859375,0.0506134033203125
1727009895799548400,0.41854833984375,-0.52703857421875,-0.8834381103515625,-0.0373992919921875
1727009895809586400,0.42858642578125,-0.38763427734375,-0.9993438720703125,-0.17816162109375
1727009895819624400,0.43862451171875,-0.4998321533203125,-0.925445556640625,-0.254486083984375
1727009895829662500,0.448662353515625,-0.4972381591796875,-0.8886566162109375,-0.275177001953125
1727009895839700500,0.458700439453125,-0.57275390625,-0.8465423583984375,-0.243682861328125
1727009895849738200,0.46873828125,-0.5124053955078125,-0.7803192138671875,-0.2008514404296875
1727009895859775500,0.478775390625,-0.61614990234375,-0.8516998291015625,-0.18316650390625
1727009895869813500,0.4888134765625,-0.506256103515625,-0.82110595703125,-0.1962432861328125
1727009895879851300,0.498851318359375,-0.4705352783203125,-0.8781890869140625,-0.2317047119140625
1727009895889889500,0.5088896484375,-0.4587860107421875,-0.8894805908203125,-0.2697906494140625
1727009895899927300,0.51892724609375,-0.607208251953125,-0.9404296875,-0.280120849609375
1727009895909965600,0.528965576171875,-0.5469207763671875,-0.8650970458984375,-0.250946044921875
1727009895920003300,0.53900341796875,-0.523681640625,-0.854736328125,-0.203338623046875
1727009895930041600,0.54904150390625,-0.41510009765625,-0.8149566650390625,-0.165374755859375
1727009895940079400,0.559079345703125,-0.4509124755859375,-0.8588104248046875,-0.1605987548828125
1727009895950117400,0.569117431640625,-0.5519866943359375,-0.8687744140625,-0.1791839599609375
1727009895960155400,0.5791552734375,-0.5364990234375,-0.877838134765625,-0.1949920654296875
1727009895970193400,0.589193359375,-0.5354766845703125,-0.8672943115234375,-0.1634063720703125
1727009895980231400,0.5992314453125,-0.51806640625,-0.8720245361328125,-0.091033935546875
1727009895990269400,0.60926953125,-0.5161285400390625,-0.8372650146484375,0.00372314453125
1727009896000307500,0.619307373046875,-0.4306793212890625,-0.8309173583984375,0.06658935546875
1727009896010345500,0.629345458984375,-0.5854644775390625,-0.825897216796875,0.08477783203125
1727009896020383200,0.63938330078125,-0.53387451171875,-0.8526153564453125,0.0304412841796875
1727009896030420500,0.64942041015625,-0.6647186279296875,-0.8504638671875,-0.0572509765625
1727009896040458500,0.65945849609375,-0.59100341796875,-0.8594207763671875,-0.09149169921875
1727009896050496300,0.669496337890625,-0.6468048095703125,-0.7821044921875,-0.0760955810546875
1727009896060534500,0.679534423828125,-0.41119384765625,-0.8148956298828125,-0.0558013916015625
1727009896070572300,0.689572265625,-0.6479644775390625,-0.7570953369140625,-0.0293121337890625
1727009896080610600,0.699610595703125,-0.45819091796875,-0.77935791015625,-0.07275390625
1727009896090648300,0.7096484375,-0.4964447021484375,-0.784393310546875,-0.1497955322265625
1727009896100686600,0.7196865234375,-0.5099639892578125,-0.9090423583984375,-0.196502685546875
1727009896110724400,0.729724365234375,-0.7367706298828125,-0.926483154296875,-0.1975860595703125
1727009896120762400,0.739762451171875,-0.4998779296875,-0.9098968505859375,-0.2266845703125
1727009896130800400,0.74980029296875,-0.4712066650390625,-0.8536224365234375,-0.284423828125
1727009896140838400,0.75983837890625,-0.4924774169921875,-0.8956756591796875,-0.3221893310546875
1727009896150876400,0.76987646484375,-0.5367584228515625,-0.8219451904296875,-0.300201416015625
1727009896160914400,0.77991455078125,-0.712860107421875,-0.788787841796875,-0.2134246826171875
1727009896170952400,0.789952392578125,-0.6177215576171875,-0.70098876953125,-0.121307373046875
1727009896180990500,0.799990478515625,-0.559478759765625,-0.763092041015625,-0.0728759765625
1727009896191027500,0.81002734375,-0.6180419921875,-0.827423095703125,-0.0536956787109375
1727009896201065500,0.8200654296875,-0.6859588623046875,-0.8623046875,-0.0576019287109375
1727009896211103500,0.830103515625,-0.6521453857421875,-0.8625640869140625,-0.09088134765625
1727009896221141500,0.8401416015625,-0.6182403564453125,-0.796173095703125,-0.1602325439453125
1727009896231179500,0.850179443359375,-0.5694732666015625,-0.8306732177734375,-0.238067626953125
1727009896241217300,0.86021728515625,-0.58209228515625,-0.7747802734375,-0.2245635986328125
1727009896251255600,0.870255615234375,-0.680206298828125,-0.6913299560546875,-0.0985565185546875
1727009896261293300,0.880293212890625,-0.5690155029296875,-0.5917510986328125,0.090057373046875
1727009896271331600,0.89033154296875,-0.661956787109375,-0.6551361083984375,0.2203216552734375
1727009896281369300,0.900369384765625,-0.723236083984375,-0.79022216796875,0.2403717041015625
1727009896291407400,0.910407470703125,-0.7244873046875,-0.808197021484375,0.2048187255859375
1727009896301445400,0.9204453125,-0.732147216796875,-0.8106231689453125,0.148345947265625
1727009896311483400,0.9304833984375,-0.588775634765625,-0.8624725341796875,0.0722808837890625
1727009896321521400,0.940521484375,-0.5482940673828125,-0.837127685546875,0.0140533447265625
1727009896331559400,0.950559326171875,-0.58941650390625,-0.79388427734375,-0.0001983642578125
1727009896341597400,0.960597412109375,-0.504730224609375,-0.7393341064453125,0.04296875
1727009896351635500,0.970635498046875,-0.573516845703125,-0.7410888671875,0.12469482421875
1727009896361672400,0.98067236328125,-0.581878662109375,-0.7842864990234375,0.1656036376953125
1727009896371710500,0.99071044921875,-0.459503173828125,-0.8404998779296875,0.1263275146484375
1727009896381748500,1.00074853515625,-0.60205078125,-0.919830322265625,0.036285400390625
1727009896391786500,1.010786376953125,-0.7481231689453125,-0.9534149169921875,-0.0339813232421875
1727009896401824500,1.020824462890625,-0.615875244140625,-0.8473358154296875,-0.0537567138671875
1727009896411862300,1.0308623046875,-0.56878662109375,-0.793243408203125,-0.0305328369140625
1727009896421900500,1.040900634765625,-0.54925537109375,-0.7192840576171875,0.0201568603515625
1727009896431938300,1.050938232421875,-0.6878204345703125,-0.634979248046875,0.06634521484375
1727009896441976600,1.0609765625,-0.7699737548828125,-0.6711273193359375,0.05633544921875
1727009896452014300,1.071014404296875,-0.7151947021484375,-0.6990814208984375,0.015533447265625
1727009896462052400,1.08105224609375,-0.624359130859375,-0.7318115234375,-0.0047149658203125
1727009896472090400,1.09109033203125,-0.5819244384765625,-0.7557373046875,0.0225372314453125
1727009896482128400,1.10112841796875,-0.5946502685546875,-0.7654876708984375,0.109527587890625
1727009896492166400,1.11116650390625,-0.686004638671875,-0.7012939453125,0.19171142578125
1727009896502204400,1.121204345703125,-0.461456298828125,-0.819244384765625,0.1835479736328125
1727009896512242400,1.131242431640625,-0.70440673828125,-0.7374420166015625,0.1688079833984375
1727009896522279400,1.141279541015625,-0.622161865234375,-0.8343505859375,0.1457977294921875
1727009896532319200,1.1513193359375,-0.5839080810546875,-0.83367919921875,0.088226318359375
1727009896542357200,1.161357177734375,-0.548004150390625,-0.7742462158203125,0.0113525390625
1727009896552395000,1.17139501953125,-0.499237060546875,-0.767303466796875,-0.0258331298828125
1727009896562433300,1.181433349609375,-0.591461181640625,-0.8346710205078125,0.0409393310546875
1727009896572471000,1.191470947265625,-0.485382080078125,-0.8189239501953125,0.1883697509765625
1727009896582509300,1.20150927734375,-0.59625244140625,-0.7711334228515625,0.280364990234375
1727009896592547000,1.211547119140625,-0.62799072265625,-0.8342132568359375,0.1924896240234375
1727009896602585300,1.22158544921875,-0.6048431396484375,-0.904266357421875,0.002532958984375
1727009896612623000,1.231623046875,-0.5111541748046875,-0.9492645263671875,-0.0491485595703125
1727009896622661000,1.2416611328125,-0.448394775390625,-0.8246917724609375,0.09075927734375
1727009896632699100,1.25169921875,-0.4197235107421875,-0.7978973388671875,0.2536468505859375
1727009896642737200,1.261737060546875,-0.611083984375,-0.8468017578125,0.2609100341796875
1727009896652775200,1.271775146484375,-0.6776123046875,-0.8499298095703125,0.1095123291015625
1727009896662813200,1.281813232421875,-0.5457763671875,-0.93804931640625,-0.085540771484375
1727009896672851200,1.291851318359375,-0.490509033203125,-0.91827392578125,-0.1932220458984375
1727009896682889200,1.30188916015625,-0.4156646728515625,-0.9449462890625,-0.17803955078125
1727009896692926200,1.31192626953125,-0.450469970703125,-0.903533935546875,-0.0551300048828125
1727009896702964200,1.321964111328125,-0.61322021484375,-0.8638763427734375,0.11090087890625
1727009896713002200,1.332002197265625,-0.4687347412109375,-0.9215850830078125,0.203521728515625
1727009896723040000,1.3420400390625,-0.628021240234375,-0.8870697021484375,0.16973876953125
1727009896733078300,1.352078369140625,-0.4276885986328125,-0.902099609375,0.00335693359375
1727009896743116000,1.362115966796875,-0.3832244873046875,-0.9149627685546875,-0.1823883056640625
1727009896753154300,1.372154296875,-0.5892181396484375,-0.9398040771484375,-0.235626220703125
1727009896763192000,1.382192138671875,-0.4811859130859375,-0.9200286865234375,-0.1522369384765625
1727009896773230300,1.392230224609375,-0.4922027587890625,-0.8132476806640625,0.0117950439453125
1727009896783268000,1.40226806640625,-0.47283935546875,-0.8563690185546875,0.121185302734375
1727009896793306000,1.41230615234375,-0.5471343994140625,-0.8827667236328125,0.1154022216796875
1727009896803344100,1.42234423828125,-0.5771942138671875,-0.9205322265625,0.015411376953125
1727009896813382100,1.432382080078125,-0.5376739501953125,-0.9142913818359375,-0.09356689453125
1727009896823420200,1.442420166015625,-0.5199432373046875,-0.8986053466796875,-0.13604736328125
1727009896833458200,1.452458251953125,-0.5491485595703125,-0.880462646484375,-0.0949249267578125
1727009896843496400,1.462496337890625,-0.5472564697265625,-0.7928314208984375,-0.0044097900390625
1727009896853534200,1.4725341796875,-0.5138397216796875,-0.810455322265625,0.0860137939453125
1727009896863571200,1.4825712890625,-0.3824462890625,-0.802947998046875,0.14996337890625
1727009896873609200,1.492609130859375,-0.3235015869140625,-0.824615478515625,0.173553466796875
1727009896883647200,1.502647216796875,-0.4911651611328125,-0.93658447265625,0.173126220703125
1727009896893685000,1.51268505859375,-0.6473846435546875,-0.926422119140625,0.1717987060546875
1727009896903723300,1.52272314453125,-0.7328643798828125,-0.9668731689453125,0.1473388671875
1727009896913761000,1.532760986328125,-0.5628814697265625,-0.9311676025390625,0.0635833740234375
1727009896923799300,1.54279931640625,-0.404693603515625,-0.8495635986328125,-0.0386962890625
1727009896933837000,1.552837158203125,-0.490264892578125,-0.7995758056640625,-0.09747314453125
1727009896943875300,1.562875244140625,-0.5707550048828125,-0.8336944580078125,-0.09747314453125
1727009896953913000,1.5729130859375,-0.4964752197265625,-0.7739105224609375,-0.034820556640625
1727009896963951000,1.582951171875,-0.5045013427734375,-0.8101043701171875,0.045928955078125
1727009896973989400,1.5929892578125,-0.7044677734375,-0.85711669921875,0.0740966796875
1727009896984027100,1.603027099609375,-0.6124725341796875,-0.8699951171875,0.0188751220703125
1727009896994065400,1.6130654296875,-0.5852813720703125,-0.86163330078125,-0.0622406005859375
1727009897004103200,1.623103271484375,-0.5964202880859375,-0.8227996826171875,-0.1263885498046875
1727009897014141400,1.633141357421875,-0.4908599853515625,-0.8074951171875,-0.145294189453125
1727009897024179200,1.64317919921875,-0.527923583984375,-0.7228546142578125,-0.1041717529296875
1727009897034216200,1.65321630859375,-0.646453857421875,-0.7321014404296875,-0.04217529296875
1727009897044254200,1.663254150390625,-0.569793701171875,-0.7408599853515625,-0.01422119140625
1727009897054292200,1.673292236328125,-0.5686187744140625,-0.7563018798828125,-0.0323944091796875
1727009897064330000,1.683330078125,-0.6265411376953125,-0.7952117919921875,-0.080841064453125
1727009897074368300,1.6933681640625,-0.6077880859375,-0.7924957275390625,-0.1151580810546875
1727009897084406000,1.703406005859375,-0.7013702392578125,-0.821044921875,-0.0977783203125
1727009897094444300,1.7134443359375,-0.6537322998046875,-0.7613067626953125,-0.0550079345703125
1727009897104482000,1.72348193359375,-0.59234619140625,-0.7498016357421875,-0.0238189697265625
1727009897114520300,1.733520263671875,-0.438018798828125,-0.7165679931640625,-0.0232086181640625
1727009897124558300,1.743558349609375,-0.64752197265625,-0.7582244873046875,-0.0301055908203125
1727009897134596000,1.75359619140625,-0.8458099365234375,-0.74609375,-0.0478973388671875
1727009897144634400,1.76363427734375,-0.7655029296875,-0.778289794921875,-0.113067626953125
1727009897154672000,1.773672119140625,-0.447174072265625,-0.7540740966796875,-0.1961517333984375
1727009897164710400,1.78371044921875,-0.4654541015625,-0.7165069580078125,-0.2154388427734375
1727009897174748200,1.793748046875,-0.557525634765625,-0.77349853515625,-0.12286376953125
1727009897184786400,1.803786376953125,-0.775604248046875,-0.782135009765625,0.024322509765625
1727009897194824200,1.81382421875,-0.708892822265625,-0.7693023681640625,0.1202392578125
1727009897204861200,1.823861083984375,-0.4773406982421875,-0.7546844482421875,0.0947265625
1727009897214899200,1.833899169921875,-0.39544677734375,-0.8099517822265625,0.0120086669921875
1727009897224937200,1.843937255859375,-0.71435546875,-0.838104248046875,-0.02880859375
1727009897234975000,1.85397509765625,-0.8280487060546875,-0.8577423095703125,-0.0088348388671875
1727009897245013200,1.86401318359375,-0.7733001708984375,-0.765411376953125,0.0417327880859375
1727009897255051300,1.87405126953125,-0.508392333984375,-0.7440185546875,0.0373992919921875
1727009897265089300,1.88408935546875,-0.4018096923828125,-0.6828765869140625,-0.027252197265625
1727009897275127300,1.894127197265625,-0.5799713134765625,-0.8146820068359375,-0.0978546142578125
1727009897285165300,1.904165283203125,-0.546234130859375,-0.8448486328125,-0.10906982421875
1727009897295203300,1.914203369140625,-0.677947998046875,-0.8496856689453125,-0.0906982421875
1727009897305241000,1.924240966796875,-0.47265625,-0.8867340087890625,-0.0706634521484375
1727009897315279400,1.934279296875,-0.5558319091796875,-0.8662261962890625,-0.027008056640625
1727009897325317000,1.944317138671875,-0.5206451416015625,-0.8758392333984375,0.0364227294921875
1727009897335355400,1.95435546875,-0.553619384765625,-0.7791748046875,0.075836181640625
1727009897345393200,1.96439306640625,-0.580047607421875,-0.79345703125,0.0243377685546875
1727009897355431400,1.974431396484375,-0.658721923828125,-0.8065643310546875,-0.095306396484375
1727009897365469200,1.98446923828125,-0.664398193359375,-0.8647003173828125,-0.210662841796875
1727009897375507200,1.994507080078125,-0.5956268310546875,-0.8807220458984375,-0.2337799072265625
1727009897385544200,2.004544189453125,-0.486785888671875,-0.8454437255859375,-0.2088623046875
1727009897395582200,2.014582275390625,-0.607635498046875,-0.8931884765625,-0.2013092041015625
1727009897405620200,2.0246201171875,-0.62286376953125,-0.882476806640625,-0.2244110107421875
1727009897415658200,2.034658203125,-0.7048187255859375,-0.8745574951171875,-0.2530670166015625
1727009897425696300,2.0446962890625,-0.52044677734375,-0.8637542724609375,-0.30517578125
1727009897435734300,2.054734375,-0.4444427490234375,-0.8519287109375,-0.331695556640625
1727009897445772300,2.064772216796875,-0.5272369384765625,-0.9185943603515625,-0.2969207763671875
1727009897455810300,2.074810302734375,-0.53314208984375,-0.9034881591796875,-0.206573486328125
1727009897465848300,2.084848388671875,-0.556060791015625,-0.9589691162109375,-0.1055908203125
1727009897475886000,2.094885986328125,-0.4852294921875,-0.8856201171875,-0.064697265625
1727009897485924400,2.10492431640625,-0.650726318359375,-0.9447021484375,-0.1232757568359375
1727009897495962000,2.114962158203125,-0.530120849609375,-0.925384521484375,-0.2526702880859375
1727009897506000400,2.12500048828125,-0.47979736328125,-0.9192352294921875,-0.3660430908203125
1727009897516038100,2.1350380859375,-0.3369140625,-0.90765380859375,-0.408905029296875
1727009897526076400,2.145076416015625,-0.4088897705078125,-0.9192047119140625,-0.3407135009765625
1727009897536112600,2.155112548828125,-0.5798492431640625,-0.8868865966796875,-0.179779052734375
1727009897546150700,2.165150634765625,-0.60467529296875,-0.8652801513671875,-0.049530029296875
1727009897556188700,2.175188720703125,-0.48388671875,-0.8273162841796875,-0.0487213134765625
1727009897566225400,2.185225341796875,-0.484710693359375,-0.8282012939453125,-0.16766357421875
1727009897576263700,2.195263671875,-0.54864501953125,-0.8996124267578125,-0.3047943115234375
1727009897586301400,2.205301513671875,-0.6215362548828125,-0.886199951171875,-0.3735198974609375
1727009897596339700,2.215339599609375,-0.4097442626953125,-0.857025146484375,-0.3435211181640625
1727009897606377700,2.225377685546875,-0.555084228515625,-0.814483642578125,-0.2246856689453125
1727009897616415700,2.235415771484375,-0.43084716796875,-0.86968994140625,-0.11444091796875
1727009897626453800,2.245453857421875,-0.65362548828125,-0.811126708984375,-0.0379638671875
1727009897636491500,2.255491455078125,-0.645233154296875,-0.859588623046875,-0.03399658203125
1727009897646529800,2.26552978515625,-0.4785003662109375,-0.8119659423828125,-0.0930023193359375
1727009897656567600,2.275567626953125,-0.3617095947265625,-0.8444976806640625,-0.2002410888671875
1727009897666605800,2.285605712890625,-0.53753662109375,-0.85137939453125,-0.2590179443359375
1727009897676643600,2.2956435546875,-0.8360748291015625,-0.772064208984375,-0.1886138916015625
1727009897686681600,2.305681640625,-0.7409210205078125,-0.7288360595703125,-0.0958404541015625
1727009897696719600,2.3157197265625,-0.4783935546875,-0.7334136962890625,-0.1148681640625
1727009897706757600,2.325757568359375,-0.4124603271484375,-0.713226318359375,-0.2017822265625
1727009897716795600,2.335795654296875,-0.6919097900390625,-0.79656982421875,-0.230987548828125
1727009897726833700,2.345833740234375,-0.7311859130859375,-0.8119964599609375,-0.1900787353515625
1727009897736871700,2.35587158203125,-0.6477508544921875,-0.766754150390625,-0.1619873046875
1727009897746908700,2.36590869140625,-0.634307861328125,-0.7360992431640625,-0.1629638671875
1727009897756946700,2.37594677734375,-0.50164794921875,-0.7877197265625,-0.1526031494140625
1727009897766984700,2.385984619140625,-0.65911865234375,-0.707550048828125,-0.0981292724609375
1727009897777022700,2.396022705078125,-0.6487579345703125,-0.682769775390625,-0.0591278076171875
1727009897787060700,2.406060791015625,-0.503448486328125,-0.694671630859375,-0.0833282470703125
1727009897797098800,2.4160986328125,-0.6596221923828125,-0.7768402099609375,-0.138092041015625
1727009897807136500,2.426136474609375,-0.5709991455078125,-0.804046630859375,-0.15167236328125
1727009897817174800,2.4361748046875,-0.6143035888671875,-0.8014373779296875,-0.0969390869140625
1727009897827212500,2.446212646484375,-0.5036163330078125,-0.8010101318359375,-0.0097503662109375
1727009897837250800,2.456250732421875,-0.4694061279296875,-0.8306427001953125,0.0731964111328125
1727009897847288600,2.46628857421875,-0.5001220703125,-0.8670196533203125,0.12701416015625
1727009897857326600,2.47632666015625,-0.480621337890625,-0.79248046875,0.1548919677734375
1727009897867364600,2.486364501953125,-0.5921783447265625,-0.7923126220703125,0.131072998046875
1727009897877402600,2.496402587890625,-0.5897979736328125,-0.759674072265625,0.0555877685546875
1727009897887440600,2.506440673828125,-0.7599029541015625,-0.807342529296875,-0.0099639892578125
1727009897897478700,2.516478759765625,-0.564788818359375,-0.7667083740234375,-0.0207672119140625
1727009897907516700,2.5265166015625,-0.5748748779296875,-0.7503814697265625,-0.0206756591796875
1727009897917554700,2.5365546875,-0.455291748046875,-0.7833709716796875,-0.041748046875
1727009897927592400,2.546592529296875,-0.586273193359375,-0.8343963623046875,-0.054168701171875
1727009897937629700,2.556629638671875,-0.66741943359375,-0.8820648193359375,-0.01800537109375
1727009897947667700,2.566667724609375,-0.5894622802734375,-0.817840576171875,0.038665771484375
1727009897957705700,2.576705810546875,-0.595428466796875,-0.7813568115234375,0.0497589111328125
1727009897967743700,2.58674365234375,-0.51788330078125,-0.7781524658203125,-0.0238189697265625
1727009897977781500,2.596781494140625,-0.58587646484375,-0.8369293212890625,-0.1227569580078125
1727009897987819800,2.60681982421875,-0.5455474853515625,-0.817352294921875,-0.154632568359375
1727009897997857500,2.616857421875,-0.67474365234375,-0.83917236328125,-0.08935546875
1727009898007895800,2.626895751953125,-0.5660858154296875,-0.84417724609375,0.027557373046875
1727009898017933600,2.63693359375,-0.5686798095703125,-0.81353759765625,0.129547119140625
1727009898027971800,2.646971923828125,-0.5147247314453125,-0.81365966796875,0.1464996337890625
1727009898038009600,2.657009521484375,-0.4372711181640625,-0.84442138671875,0.055511474609375
1727009898048047600,2.667047607421875,-0.669189453125,-0.8479766845703125,-0.0717926025390625
1727009898058085600,2.677085693359375,-0.7132415771484375,-0.8712921142578125,-0.149169921875
1727009898068123600,2.68712353515625,-0.5129547119140625,-0.7988739013671875,-0.15203857421875
1727009898078161700,2.69716162109375,-0.2696685791015625,-0.7775421142578125,-0.126617431640625
1727009898088199700,2.70719970703125,-0.4951934814453125,-0.7654876708984375,-0.092254638671875
1727009898098237400,2.717237548828125,-0.877838134765625,-0.823516845703125,-0.0357666015625
1727009898108275700,2.727275634765625,-0.9204559326171875,-0.878204345703125,0.0231170654296875
1727009898118313500,2.7373134765625,-0.5694427490234375,-0.883453369140625,0.0366363525390625
1727009898128350700,2.747350830078125,-0.4384765625,-0.8511505126953125,-0.0095367431640625
1727009898138388700,2.757388671875,-0.3397369384765625,-0.9241943359375,-0.0920257568359375
1727009898148426500,2.767426513671875,-0.5057373046875,-0.9153594970703125,-0.1211700439453125
1727009898158464800,2.77746484375,-0.6634521484375,-0.8983612060546875,-0.0608978271484375
1727009898168502500,2.78750244140625,-0.725189208984375,-0.9039459228515625,0.0412445068359375
1727009898178540800,2.797540771484375,-0.6391143798828125,-0.8719482421875,0.105133056640625
1727009898188578600,2.80757861328125,-0.7330169677734375,-0.903167724609375,0.0585784912109375
1727009898198616800,2.817616943359375,-0.7290496826171875,-0.95013427734375,-0.0771942138671875
1727009898208654600,2.827654541015625,-0.5408172607421875,-0.9369659423828125,-0.2263946533203125
1727009898218692600,2.837692626953125,-0.4680328369140625,-0.8985595703125,-0.320648193359375
1727009898228730600,2.847730712890625,-0.464569091796875,-0.8586883544921875,-0.3265228271484375
1727009898238768600,2.8577685546875,-0.5157012939453125,-0.7651824951171875,-0.2372894287109375
1727009898248806700,2.867806640625,-0.5959014892578125,-0.723846435546875,-0.1356964111328125
1727009898258844700,2.8778447265625,-0.55950927734375,-0.761322021484375,-0.10833740234375
1727009898268882400,2.88788232421875,-0.6015472412109375,-0.76708984375,-0.1551361083984375
1727009898278920700,2.897920654296875,-0.641326904296875,-0.8594818115234375,-0.2406005859375
1727009898288958500,2.90795849609375,-0.50225830078125,-0.8731689453125,-0.3043975830078125
1727009898298996700,2.917996826171875,-0.4953765869140625,-0.8282012939453125,-0.318695068359375
1727009898309034500,2.928034423828125,-0.50921630859375,-0.8266448974609375,-0.2712249755859375
1727009898319071500,2.938071533203125,-0.719512939453125,-0.771209716796875,-0.1724395751953125
1727009898329109800,2.94810986328125,-0.5399169921875,-0.78173828125,-0.0989990234375
1727009898339147500,2.9581474609375,-0.5948333740234375,-0.77105712890625,-0.080810546875
1727009898349185800,2.968185791015625,-0.5076446533203125,-0.8296966552734375,-0.111846923828125
1727009898359223600,2.9782236328125,-0.718353271484375,-0.7956390380859375,-0.118682861328125
1727009898369261800,2.98826171875,-0.5886383056640625,-0.828399658203125,-0.1251220703125
1727009898379299600,2.998299560546875,-0.6123809814453125,-0.708953857421875,-0.1582794189453125
1727009898389337600,3.008337646484375,-0.4192352294921875,-0.715667724609375,-0.2609100341796875
1727009898399375600,3.018375732421875,-0.5814208984375,-0.6662139892578125,-0.34747314453125
1727009898409413600,3.02841357421875,-0.74395751953125,-0.818817138671875,-0.3632354736328125
1727009898419451600,3.03845166015625,-0.62213134765625,-0.810699462890625,-0.278045654296875
1727009898429489700,3.04848974609375,-0.49017333984375,-0.8466033935546875,-0.14080810546875
1727009898439527400,3.05852734375,-0.502838134765625,-0.8480682373046875,-0.0696868896484375
1727009898449565700,3.068565673828125,-0.439453125,-0.94854736328125,-0.1137237548828125
1727009898459603500,3.078603515625,-0.730194091796875,-0.861968994140625,-0.2028350830078125
1727009898469641700,3.088641845703125,-0.655670166015625,-0.83758544921875,-0.303253173828125
1727009898479679500,3.098679443359375,-0.5238494873046875,-0.7846832275390625,-0.354248046875
1727009898489717800,3.1087177734375,-0.50823974609375,-0.7125701904296875,-0.326416015625
1727009898499755500,3.118755615234375,-0.39935302734375,-0.7554473876953125,-0.22705078125
1727009898509792500,3.12879248046875,-0.387237548828125,-0.8070220947265625,-0.1180572509765625
1727009898519830800,3.138830810546875,-0.4989013671875,-0.87188720703125,-0.0694122314453125
1727009898529868500,3.14886865234375,-0.61199951171875,-0.9683380126953125,-0.1041259765625
1727009898539902000,3.15890185546875,-0.55975341796875,-0.9550323486328125,-0.1915740966796875
1727009898549940200,3.168940185546875,-0.642730712890625,-0.912872314453125,-0.28411865234375
1727009898559978000,3.17897802734375,-0.4119873046875,-0.828094482421875,-0.319580078125
1727009898570016300,3.189016357421875,-0.654388427734375,-0.7762451171875,-0.259796142578125
1727009898580054000,3.199053955078125,-0.621673583984375,-0.7259674072265625,-0.1846771240234375
1727009898590092300,3.20909228515625,-0.5941619873046875,-0.741973876953125,-0.1485748291015625
1727009898600130000,3.219130126953125,-0.4596099853515625,-0.8580322265625,-0.166748046875
1727009898610168000,3.22916796875,-0.548675537109375,-0.88568115234375,-0.2023773193359375
1727009898620206000,3.2392060546875,-0.576873779296875,-0.9453887939453125,-0.2077178955078125
1727009898630244000,3.249244140625,-0.6420745849609375,-0.943145751953125,-0.1868133544921875
1727009898640282000,3.2592822265625,-0.6155853271484375,-0.8236083984375,-0.173583984375
1727009898650320100,3.269320068359375,-0.658935546875,-0.7682037353515625,-0.1944732666015625
1727009898660358100,3.279358154296875,-0.5296783447265625,-0.74432373046875,-0.24462890625
1727009898670396200,3.289396240234375,-0.584320068359375,-0.6989898681640625,-0.276275634765625
1727009898680434000,3.299433837890625,-0.5962677001953125,-0.755462646484375,-0.2665252685546875
1727009898690472200,3.30947216796875,-0.509246826171875,-0.781768798828125,-0.225921630859375
1727009898700509200,3.31950927734375,-0.526763916015625,-0.8447113037109375,-0.1997528076171875
1727009898710547000,3.329546875,-0.60626220703125,-0.90496826171875,-0.1651763916015625
1727009898720585200,3.339585205078125,-0.7498016357421875,-0.9114227294921875,-0.1315155029296875
1727009898730623000,3.349623046875,-0.649444580078125,-0.8332366943359375,-0.1321868896484375
1727009898740661200,3.3596611328125,-0.2525634765625,-0.8278656005859375,-0.1912689208984375
1727009898750699000,3.369698974609375,-0.38677978515625,-0.7293701171875,-0.2066192626953125
1727009898760737300,3.3797373046875,-0.6120147705078125,-0.7435760498046875,-0.13458251953125
1727009898770775000,3.389775146484375,-0.8706207275390625,-0.760101318359375,-0.0352935791015625
1727009898780813000,3.39981298828125,-0.836029052734375,-0.7332763671875,-0.0054779052734375
1727009898790851000,3.40985107421875,-0.5710296630859375,-0.7010650634765625,-0.061004638671875
1727009898800889000,3.41988916015625,-0.4980926513671875,-0.828765869140625,-0.1713714599609375
1727009898810927000,3.429927001953125,-0.436279296875,-0.78314208984375,-0.2445068359375
1727009898820965000,3.439965087890625,-0.6294708251953125,-0.790313720703125,-0.24176025390625
1727009898831003100,3.450003173828125,-0.6680755615234375,-0.7607421875,-0.1947479248046875
1727009898841041200,3.460041259765625,-0.651824951171875,-0.6922149658203125,-0.1289215087890625
1727009898851079000,3.470078857421875,-0.613006591796875,-0.6917724609375,-0.08233642578125
1727009898861117200,3.4801171875,-0.6536102294921875,-0.7547607421875,-0.03265380859375
1727009898871155000,3.490155029296875,-0.6077117919921875,-0.7285614013671875,0.0137481689453125
1727009898881193200,3.500193115234375,-0.6274261474609375,-0.8963470458984375,0.0020751953125
1727009898891230200,3.510230224609375,-0.5490875244140625,-0.871826171875,-0.0213623046875
1727009898901268000,3.52026806640625,-0.59051513671875,-0.8326263427734375,-0.0057373046875
1727009898911306200,3.53030615234375,-0.6042633056640625,-0.7661285400390625,0.0185089111328125
1727009898921344000,3.540343994140625,-0.626678466796875,-0.662994384765625,0.0015106201171875
1727009898931382300,3.55038232421875,-0.7706451416015625,-0.6767425537109375,-0.03875732421875
1727009898941420000,3.560419921875,-0.7170867919921875,-0.72088623046875,-0.0841827392578125
1727009898951458000,3.5704580078125,-0.4623870849609375,-0.7847900390625,-0.1169281005859375
1727009898961496000,3.58049609375,-0.4094085693359375,-0.787261962890625,-0.0974578857421875
1727009898971534000,3.5905341796875,-0.5888671875,-0.8910064697265625,-0.02398681640625
1727009898981572000,3.600572021484375,-0.63494873046875,-0.863800048828125,0.0683441162109375
1727009898991610000,3.610610107421875,-0.6534271240234375,-0.8572235107421875,0.1120758056640625
1727009899001648000,3.620648193359375,-0.60595703125,-0.7295379638671875,0.102630615234375
1727009899011686100,3.63068603515625,-0.4281463623046875,-0.778900146484375,0.021240234375
1727009899021724000,3.640723876953125,-0.566802978515625,-0.7584991455078125,-0.0462493896484375
1727009899031762200,3.65076220703125,-0.5221099853515625,-0.8665618896484375,-0.066009521484375
1727009899041800000,3.660800048828125,-0.5784149169921875,-0.8734283447265625,-0.0347747802734375
1727009899051838200,3.670838134765625,-0.589569091796875,-0.8543701171875,-0.0218505859375
1727009899061876000,3.6808759765625,-0.6904754638671875,-0.9175262451171875,-0.0506591796875
1727009899071914200,3.690914306640625,-0.664581298828125,-0.882110595703125,-0.0839996337890625
1727009899081951200,3.700951171875,-0.6393890380859375,-0.8193359375,-0.13482666015625
1727009899091989000,3.710989013671875,0.02142333984375,-0.8248291015625,-0.171356201171875
1727009899102027300,3.72102734375,-0.9275665283203125,-0.812225341796875,-0.1154632568359375
1727009899112065000,3.73106494140625,-0.7645721435546875,-1.0954437255859375,-0.103759765625
1727009899122103000,3.74110302734375,-0.5670928955078125,-0.568450927734375,-0.2203216552734375
1727009899132141000,3.75114111328125,-0.179656982421875,-0.9901885986328125,-0.311767578125
1727009899142179000,3.761178955078125,-0.71612548828125,-0.7132720947265625,-0.216827392578125
1727009899152217000,3.771217041015625,-0.612091064453125,-0.9288787841796875,-0.1119842529296875
1727009899162255000,3.781255126953125,-0.5334930419921875,-0.8135223388671875,-0.0174560546875
1727009899172293000,3.791293212890625,-0.5970916748046875,-1.003814697265625,0.0264129638671875
1727009899182331100,3.8013310546875,-0.626617431640625,-0.9383087158203125,-0.0214080810546875
1727009899192369000,3.811368896484375,-0.61572265625,-1.1193695068359375,-0.0857696533203125
1727009899202407200,3.8214072265625,-0.542266845703125,-0.8606719970703125,-0.005950927734375
1727009899212445000,3.83144482421875,-0.5758209228515625,-0.78411865234375,0.0706024169921875
1727009899222483200,3.841483154296875,-0.1143646240234375,-0.660736083984375,0.01776123046875
1727009899232521000,3.85152099609375,-0.079833984375,-0.7200927734375,-0.097076416015625
1727009899242559200,3.861559326171875,-0.099578857421875,-0.88836669921875,-0.17510986328125
1727009899252597000,3.871596923828125,-0.4485931396484375,-0.9453277587890625,-0.146881103515625
1727009899262634000,3.881634033203125,-0.7860870361328125,-1.0377044677734375,-0.0330047607421875
1727009899272672300,3.89167236328125,-0.9819488525390625,-1.0123443603515625,0.0701141357421875
1727009899282710000,3.9017099609375,-0.66326904296875,-0.8816986083984375,0.0769195556640625
1727009899292748000,3.911748046875,-0.6169281005859375,-0.78179931640625,0.0203857421875
1727009899302786000,3.9217861328125,-0.564788818359375,-0.7359161376953125,-0.0533294677734375
1727009899312824000,3.931823974609375,-0.7370758056640625,-0.7812042236328125,-0.1051177978515625
1727009899322862000,3.941862060546875,-0.7078399658203125,-0.83587646484375,-0.0877227783203125
1727009899332900000,3.951900146484375,-0.567474365234375,-0.8910369873046875,-0.02703857421875
1727009899342938000,3.961938232421875,-0.5604400634765625,-0.9426116943359375,0.0114898681640625
1727009899352976100,3.97197607421875,-0.6136474609375,-0.90191650390625,0.0106964111328125
1727009899363014000,3.982013916015625,-0.659149169921875,-0.8429412841796875,-0.012420654296875
1727009899373052200,3.99205224609375,-0.7105255126953125,-0.78338623046875,-0.0653076171875
1727009899383090000,4.00208984375,-0.529510498046875,-0.702545166015625,-0.1482696533203125
1727009899393128200,4.012128173828125,-0.6297454833984375,-0.7045135498046875,-0.2260589599609375
1727009899403166000,4.022166015625,-0.4398956298828125,-0.76751708984375,-0.3112945556640625
1727009899413204200,4.032204345703125,-0.408599853515625,-0.862396240234375,-0.340850830078125
1727009899423242000,4.042241943359375,-0.6208648681640625,-0.961212158203125,-0.25994873046875
1727009899433280000,4.052280029296875,-0.6097869873046875,-0.9336395263671875,-0.108428955078125
1727009899443317200,4.062317138671875,-0.5143890380859375,-0.915802001953125,0.0274658203125
1727009899453355000,4.07235498046875,-0.456390380859375,-0.852447509765625,0.052490234375
1727009899463393000,4.08239306640625,-0.452423095703125,-0.8073883056640625,-0.0710906982421875
1727009899473431000,4.09243115234375,-0.4618377685546875,-0.8104400634765625,-0.258758544921875
1727009899483469000,4.102468994140625,-0.596405029296875,-0.7612457275390625,-0.3721923828125
1727009899493507000,4.112507080078125,-0.69244384765625,-0.7823028564453125,-0.3735504150390625
1727009899503545000,4.122545166015625,-0.679718017578125,-0.7653961181640625,-0.2995758056640625
1727009899513583000,4.1325830078125,-0.478118896484375,-0.7631072998046875,-0.2191619873046875
1727009899523621000,4.14262109375,-0.4490509033203125,-0.799652099609375,-0.151031494140625
1727009899533659000,4.152658935546875,-0.49365234375,-0.937744140625,-0.0934906005859375
1727009899543701200,4.162701171875,-0.661895751953125,-0.94830322265625,-0.0718994140625
1727009899553739300,4.1727392578125,-0.547454833984375,-1.002471923828125,-0.100860595703125
1727009899563777300,4.18277734375,-0.5588836669921875,-0.8796539306640625,-0.1638336181640625
1727009899573815000,4.19281494140625,-0.4477691650390625,-0.8879547119140625,-0.242095947265625
1727009899583853300,4.202853271484375,-0.1143341064453125,-0.7567901611328125,-0.2752532958984375
1727009899593891000,4.21289111328125,-0.417877197265625,-0.716552734375,-0.2379150390625
1727009899603929300,4.222929443359375,-0.82269287109375,-0.76458740234375,-0.1941680908203125
1727009899613967000,4.232967041015625,-0.9381103515625,-0.787109375,-0.2009429931640625
1727009899624005400,4.24300537109375,-0.7189483642578125,-0.7950286865234375,-0.2637786865234375
1727009899634042400,4.25304248046875,-0.3304443359375,-0.7921142578125,-0.3335418701171875
1727009899644080000,4.263080078125,-0.45166015625,-0.827911376953125,-0.3173828125
1727009899654118400,4.273118408203125,-0.5899658203125,-0.724395751953125,-0.1982879638671875
1727009899664156200,4.28315625,-0.6398468017578125,-0.7173004150390625,-0.089141845703125
1727009899674194200,4.293194091796875,-0.5564422607421875,-0.6789703369140625,-0.0560150146484375
1727009899684232200,4.303232177734375,-0.6100616455078125,-0.7009735107421875,-0.08526611328125
1727009899694270200,4.313270263671875,-0.4938812255859375,-0.8129119873046875,-0.1627655029296875
1727009899704308200,4.32330810546875,-0.450927734375,-0.85260009765625,-0.2090301513671875
1727009899714346200,4.33334619140625,-0.5395355224609375,-0.9300079345703125,-0.1864013671875
1727009899724384300,4.34338427734375,-0.6029510498046875,-0.8576507568359375,-0.1162261962890625
1727009899734422300,4.35342236328125,-0.7613677978515625,-0.79437255859375,-0.065765380859375
1727009899744460000,4.3634599609375,-0.6957244873046875,-0.697509765625,-0.0798797607421875
1727009899754498300,4.373498291015625,-0.6049041748046875,-0.62506103515625,-0.1408538818359375
1727009899764536000,4.3835361328125,-0.5835723876953125,-0.66131591796875,-0.2083740234375
1727009899774574300,4.39357421875,-0.5836944580078125,-0.7947540283203125,-0.2186279296875
1727009899784612000,4.403612060546875,-0.6819915771484375,-0.8210296630859375,-0.13677978515625
1727009899794650400,4.413650390625,-0.7562713623046875,-0.9437713623046875,-0.0248870849609375
1727009899804688100,4.423688232421875,-0.7621002197265625,-0.9123992919921875,0.0482025146484375
1727009899814725000,4.43372509765625,-0.63470458984375,-0.862060546875,0.025970458984375
1727009899824763400,4.443763427734375,-0.5160369873046875,-0.82672119140625,-0.069793701171875
1727009899834801200,4.45380126953125,-0.4931793212890625,-0.726287841796875,-0.1548004150390625
1727009899844839200,4.463839111328125,-0.5035400390625,-0.689178466796875,-0.172454833984375
1727009899854877200,4.473877197265625,-0.31195068359375,-0.7100372314453125,-0.1290435791015625
1727009899864915200,4.483915283203125,-0.4743499755859375,-0.7488861083984375,-0.0484161376953125
1727009899874953200,4.493953125,-0.8272857666015625,-0.85247802734375,0.0223388671875
1727009899884991200,4.5039912109375,-0.75830078125,-0.8852081298828125,0.044891357421875
1727009899895029200,4.514029296875,-0.4838104248046875,-0.9037322998046875,0.00244140625
1727009899905067300,4.5240673828125,-0.312225341796875,-0.9255828857421875,-0.072662353515625
1727009899915105000,4.53410498046875,-0.6048583984375,-0.850250244140625,-0.0970306396484375
1727009899925143300,4.544143310546875,-0.6642608642578125,-0.8666229248046875,-0.0760040283203125
1727009899935181000,4.55418115234375,-0.56573486328125,-0.847930908203125,-0.03997802734375
1727009899945219300,4.56421923828125,-0.8287506103515625,-0.7384796142578125,-0.0065155029296875
1727009899955257000,4.574257080078125,-0.6453399658203125,-0.7763214111328125,-0.02886962890625
1727009899965295400,4.58429541015625,-0.4227142333984375,-0.8592376708984375,-0.077911376953125
1727009899975333000,4.5943330078125,-0.7288665771484375,-0.8109893798828125,-0.0544586181640625
1727009899985371100,4.60437109375,-0.820526123046875,-0.828033447265625,0.0061798095703125
1727009899995408400,4.614408447265625,-0.5350341796875,-0.818267822265625,0.0284576416015625
1727009900005446100,4.624446044921875,-0.6051025390625,-0.76129150390625,0.0171356201171875
1727009900015484200,4.634484130859375,-0.5417022705078125,-0.721832275390625,-0.0316314697265625
1727009900025522200,4.644522216796875,-0.2749786376953125,-0.776092529296875,-0.1083221435546875
1727009900035560200,4.654560302734375,-0.41204833984375,-0.8383941650390625,-0.137664794921875
1727009900045598200,4.66459814453125,-0.6628265380859375,-0.9167938232421875,-0.1009063720703125
1727009900055636200,4.67463623046875,-0.5417022705078125,-0.9720611572265625,-0.06793212890625
1727009900065674200,4.68467431640625,-0.6056060791015625,-0.977203369140625,-0.0641021728515625
1727009900075712300,4.694712158203125,-0.5200653076171875,-0.9664306640625,-0.0946502685546875
1727009900085750000,4.70475,-0.597747802734375,-0.874664306640625,-0.137786865234375
1727009900095788300,4.714788330078125,-0.6622772216796875,-0.80584716796875,-0.169677734375
1727009900105826000,4.724825927734375,-0.353057861328125,-0.795501708984375,-0.1841278076171875
1727009900115864300,4.7348642578125,-0.6029052734375,-0.699951171875,-0.154998779296875
1727009900125902000,4.744902099609375,-0.4935302734375,-0.8402099609375,-0.1406097412109375
1727009900135940400,4.7549404296875,-0.4829559326171875,-0.8635711669921875,-0.1112060546875
1727009900145978000,4.76497802734375,-0.66143798828125,-0.90887451171875,-0.0636444091796875
1727009900156016000,4.77501611328125,-0.364532470703125,-0.9912109375,-0.0547027587890625
1727009900166053400,4.785053466796875,-0.559112548828125,-0.8987274169921875,-0.043487548828125
1727009900176091100,4.795091064453125,-0.606231689453125,-0.867584228515625,-0.0567626953125
1727009900186129200,4.805129150390625,-0.4273529052734375,-0.8276519775390625,-0.0970611572265625
1727009900196167200,4.815167236328125,-0.625823974609375,-0.661712646484375,-0.1114349365234375
1727009900206205200,4.825205078125,-0.4918670654296875,-0.7508392333984375,-0.11322021484375
1727009900216243200,4.8352431640625,-0.460845947265625,-0.74200439453125,-0.0918121337890625
1727009900226281200,4.84528125,-0.73980712890625,-0.7690582275390625,-0.045562744140625
1727009900236319200,4.8553193359375,-0.59808349609375,-0.889007568359375,-0.0175323486328125
1727009900246357200,4.865357177734375,-0.724273681640625,-0.894500732421875,-0.0199127197265625
1727009900256395000,4.87539501953125,-0.7000732421875,-0.8306427001953125,-0.04742431640625
1727009900266433300,4.885433349609375,-0.51080322265625,-0.8528594970703125,-0.0824432373046875
1727009900276471000,4.895470947265625,-0.4918670654296875,-0.7887725830078125,-0.079925537109375
1727009900286509300,4.90550927734375,-0.5868682861328125,-0.726593017578125,-0.03094482421875
1727009900296547000,4.915547119140625,-0.529937744140625,-0.826904296875,0.0329437255859375
1727009900306585300,4.92558544921875,-0.562896728515625,-0.8649444580078125,0.0832672119140625
1727009900316623000,4.935623046875,-0.5670166015625,-0.9350128173828125,0.09112548828125
1727009900326661000,4.9456611328125,-0.453125,-0.955535888671875,0.05377197265625
1727009900336699100,4.95569921875,-0.5381622314453125,-0.9979705810546875,-0.007781982421875
1727009900346736000,4.965736083984375,-0.600311279296875,-0.9297332763671875,-0.0435333251953125
1727009900356774100,4.975774169921875,-0.611236572265625,-0.8604888916015625,-0.03387451171875
1727009900366812200,4.985812255859375,-0.60009765625,-0.757080078125,-0.0023040771484375
1727009900376850200,4.99585009765625,-0.3896636962890625,-0.7357635498046875,-0.02093505859375
1727009900386888200,5.00588818359375,-0.4425506591796875,-0.6958160400390625,-0.0833892822265625
1727009900396926200,5.01592626953125,-0.5938568115234375,-0.789306640625,-0.158538818359375
1727009900406964200,5.025964111328125,-0.639129638671875,-0.791168212890625,-0.1849517822265625
1727009900417002200,5.036002197265625,-0.6659393310546875,-0.799224853515625,-0.1534423828125
1727009900427040000,5.0460400390625,-0.81903076171875,-0.802276611328125,-0.105377197265625
1727009900437078300,5.056078369140625,-0.68353271484375,-0.806671142578125,-0.0884552001953125
1727009900447116000,5.066115966796875,-0.2823028564453125,-0.7821197509765625,-0.106475830078125
1727009900457154300,5.076154296875,-0.393402099609375,-0.845367431640625,-0.108306884765625
1727009900467192000,5.086192138671875,-0.950927734375,-0.896148681640625,-0.10052490234375
1727009900477230300,5.096230224609375,-0.977569580078125,-0.9015655517578125,-0.1387939453125
1727009900487268000,5.10626806640625,-0.601287841796875,-0.76605224609375,-0.2131805419921875
1727009900497306000,5.11630615234375,-0.36712646484375,-0.7380523681640625,-0.2665863037109375
1727009900507343400,5.12634326171875,-0.4687652587890625,-0.7111053466796875,-0.2378082275390625
1727009900517381000,5.136381103515625,-0.6403045654296875,-0.718475341796875,-0.18170166015625
1727009900527419100,5.146419189453125,-0.575714111328125,-0.794342041015625,-0.167388916015625
1727009900537453300,5.156453369140625,-0.59197998046875,-0.8538818359375,-0.16876220703125
1727009900547491300,5.1664912109375,-0.5506134033203125,-0.87652587890625,-0.1623382568359375
1727009900557529300,5.176529296875,-0.5854644775390625,-0.931793212890625,-0.1497955322265625
1727009900567567400,5.1865673828125,-0.4423370361328125,-0.8632659912109375,-0.1545562744140625
1727009900577605400,5.19660546875,-0.5641021728515625,-0.776641845703125,-0.172027587890625
1727009900587643400,5.206643310546875,-0.6264190673828125,-0.78497314453125,-0.1865081787109375
1727009900597681400,5.216681396484375,-0.6061859130859375,-0.7634429931640625,-0.1710968017578125
1727009900607719400,5.226719482421875,-0.62774658203125,-0.7526702880859375,-0.133392333984375
1727009900617757400,5.23675732421875,-0.3541107177734375,-0.7741851806640625,-0.1281890869140625
1727009900627795500,5.24679541015625,-0.43231201171875,-0.8625640869140625,-0.1329803466796875
1727009900637833500,5.25683349609375,-0.5211181640625,-0.9508819580078125,-0.10369873046875
1727009900647871500,5.26687158203125,-0.571990966796875,-0.906158447265625,-0.0355072021484375
1727009900657909500,5.276909423828125,-0.637908935546875,-0.8816070556640625,0.0131378173828125
1727009900667947300,5.286947265625,-0.490325927734375,-0.852935791015625,-0.0255584716796875
1727009900677984500,5.296984619140625,-0.6411590576171875,-0.840484619140625,-0.1117706298828125
1727009900688022300,5.307022216796875,-0.59185791015625,-0.853607177734375,-0.203948974609375
1727009900698060300,5.317060302734375,-0.4536285400390625,-0.858489990234375,-0.2585601806640625
1727009900708098300,5.327098388671875,-0.5094451904296875,-0.83746337890625,-0.264862060546875
1727009900718136300,5.33713623046875,-0.453704833984375,-0.87701416015625,-0.266448974609375
1727009900728174300,5.34717431640625,-0.5424957275390625,-0.8555450439453125,-0.2527313232421875
1727009900738212400,5.35721240234375,-0.7006988525390625,-0.8547821044921875,-0.1985931396484375
1727009900748250400,5.36725048828125,-0.640167236328125,-0.7893524169921875,-0.1357879638671875
1727009900758288400,5.377288330078125,-0.677093505859375,-0.7526702880859375,-0.084686279296875
1727009900768326400,5.387326416015625,-0.6159210205078125,-0.7200164794921875,-0.0467681884765625
1727009900778364400,5.397364501953125,-0.438323974609375,-0.72161865234375,-0.038177490234375
1727009900788402400,5.40740234375,-0.5139007568359375,-0.7626953125,-0.0419464111328125
1727009900798440400,5.4174404296875,-0.5714111328125,-0.7881927490234375,-0.0574493408203125
1727009900808478500,5.427478515625,-0.4755096435546875,-0.8253173828125,-0.0719146728515625
1727009900818516500,5.4375166015625,-0.5511016845703125,-0.8466644287109375,-0.0654296875
1727009900828554500,5.447554443359375,-0.8409271240234375,-0.76141357421875,-0.029205322265625
1727009900838592300,5.45759228515625,-0.458343505859375,-0.7944793701171875,-0.0248565673828125
1727009900848629500,5.46762939453125,-0.4459075927734375,-0.77606201171875,-0.05035400390625
1727009900858667300,5.477667236328125,-0.9361572265625,-0.7193450927734375,-0.05126953125
1727009900868705300,5.487705322265625,-0.6577301025390625,-0.8370208740234375,-0.04730224609375
1727009900878743300,5.497743408203125,-0.5040740966796875,-0.7839508056640625,-0.022552490234375
1727009900888781300,5.50778125,-0.786865234375,-0.7281036376953125,-0.0047760009765625
1727009900898819300,5.5178193359375,-0.5519256591796875,-0.7960052490234375,-0.0204620361328125
1727009900908857300,5.527857421875,-0.6517181396484375,-0.753570556640625,-0.05291748046875
1727009900918895400,5.537895263671875,-0.7657928466796875,-0.7371368408203125,-0.09649658203125
1727009900928933400,5.547933349609375,-0.6421966552734375,-0.767120361328125,-0.12255859375
1727009900938971400,5.557971435546875,-0.716461181640625,-0.7236328125,-0.09930419921875
1727009900949009400,5.568009521484375,-0.7255706787109375,-0.7500762939453125,-0.0595550537109375
1727009900959047400,5.57804736328125,-0.6266021728515625,-0.7162017822265625,-0.032562255859375
1727009900969085400,5.58808544921875,-0.6667938232421875,-0.77203369140625,-0.0193939208984375
1727009900979123500,5.59812353515625,-0.5740966796875,-0.8007659912109375,0.0111846923828125
1727009900989161500,5.608161376953125,-0.4788055419921875,-0.79791259765625,0.04876708984375
1727009900999199500,5.618199462890625,-0.6400604248046875,-0.8195953369140625,0.06561279296875
1727009901009236200,5.628236328125,-0.7420654296875,-0.836822509765625,0.0284271240234375
1727009901019274500,5.6382744140625,-0.548858642578125,-0.794830322265625,-0.03717041015625
1727009901029312300,5.648312255859375,-0.56854248046875,-0.755615234375,-0.0696868896484375
1727009901039350300,5.658350341796875,-0.416778564453125,-0.739654541015625,-0.0557098388671875
1727009901049388300,5.66838818359375,-0.3625335693359375,-0.7462921142578125,-0.001312255859375
1727009901059426300,5.67842626953125,-0.5731201171875,-0.80157470703125,0.0572509765625
1727009901069464300,5.68846435546875,-0.51263427734375,-0.8383026123046875,0.099700927734375
1727009901079502300,5.69850244140625,-0.5121307373046875,-0.91595458984375,0.1037139892578125
1727009901089540600,5.70854052734375,-0.4099273681640625,-0.9189605712890625,0.0702972412109375
1727009901099578400,5.718578369140625,-0.64910888671875,-0.8823699951171875,0.0347442626953125
1727009901109616400,5.728616455078125,-0.6810455322265625,-0.9134674072265625,-0.005584716796875
1727009901119654400,5.738654296875,-0.745086669921875,-0.8838348388671875,-0.0329742431640625
1727009901129692400,5.7486923828125,-0.7555999755859375,-0.8604583740234375,-0.0485992431640625
1727009901139730400,5.75873046875,-0.537567138671875,-0.926239013671875,-0.05609130859375
1727009901149768400,5.7687685546875,-0.5177459716796875,-0.874542236328125,-0.04058837890625
1727009901159806500,5.778806396484375,-0.2738189697265625,-0.899383544921875,-0.04034423828125
1727009901169843500,5.788843505859375,-0.36004638671875,-0.9219512939453125,-0.05279541015625
1727009901179881200,5.798881103515625,-0.657623291015625,-0.8686065673828125,-0.0699920654296875
1727009901189919500,5.80891943359375,-0.8014068603515625,-0.943572998046875,-0.0888214111328125
1727009901199957200,5.818957275390625,-0.5033416748046875,-0.858612060546875,-0.10076904296875
1727009901209995300,5.828995361328125,-0.3577117919921875,-0.794036865234375,-0.0889129638671875
1727009901220033300,5.839033203125,-0.2782745361328125,-0.7948760986328125,-0.0675048828125
1727009901230071300,5.8490712890625,-0.38751220703125,-0.82611083984375,-0.0506439208984375
1727009901240109600,5.859109619140625,-0.780181884765625,-0.84527587890625,-0.00238037109375
1727009901250147300,5.869147216796875,-0.731842041015625,-0.8609466552734375,0.0354766845703125
1727009901260185600,5.879185546875,-0.665435791015625,-0.8646240234375,0.0059661865234375
1727009901270223400,5.889223388671875,-0.6368560791015625,-0.8439788818359375,-0.0889739990234375
1727009901280261400,5.899261474609375,-0.67608642578125,-0.8870849609375,-0.1759033203125
1727009901290299400,5.90929931640625,-0.552398681640625,-0.8529510498046875,-0.1932525634765625
1727009901300337400,5.91933740234375,-0.4408721923828125,-0.8435516357421875,-0.149322509765625
1727009901310375400,5.92937548828125,-0.5506439208984375,-0.822906494140625,-0.05560302734375
1727009901320413400,5.939413330078125,-0.6532440185546875,-0.8303070068359375,0.029022216796875
1727009901330450200,5.9494501953125,-0.6015777587890625,-0.8197784423828125,0.0685577392578125
1727009901340488400,5.959488525390625,-0.5308380126953125,-0.802764892578125,0.05462646484375
1727009901350526200,5.969526123046875,-0.5998077392578125,-0.79632568359375,-0.0168304443359375
1727009901360564500,5.979564453125,-0.69720458984375,-0.795257568359375,-0.1099090576171875
1727009901370602500,5.9896025390625,-0.65789794921875,-0.7961883544921875,-0.16717529296875
1727009901380640300,5.99964013671875,-0.6182708740234375,-0.761688232421875,-0.1431427001953125
1727009901390678500,6.009678466796875,-0.6193389892578125,-0.7281951904296875,-0.0609893798828125
1727009901400716300,6.01971630859375,-0.54193115234375,-0.7600860595703125,0.02789306640625
1727009901410754600,6.029754638671875,-0.6282196044921875,-0.7675933837890625,0.089752197265625
1727009901420792300,6.039792236328125,-0.7442169189453125,-0.8074798583984375,0.09576416015625
1727009901430830600,6.04983056640625,-0.7541046142578125,-0.8462982177734375,0.0523529052734375
1727009901440868400,6.059868408203125,-0.7963714599609375,-0.8318939208984375,-0.0047607421875
1727009901450906400,6.06990625,-0.5992279052734375,-0.79241943359375,-0.0749053955078125
1727009901460944400,6.0799443359375,-0.466461181640625,-0.7892913818359375,-0.1444091796875
1727009901470982400,6.089982421875,-0.460968017578125,-0.794036865234375,-0.179046630859375
1727009901481020400,6.1000205078125,-0.455780029296875,-0.7920074462890625,-0.19049072265625
1727009901491057400,6.110057373046875,-0.507904052734375,-0.8971099853515625,-0.1946868896484375
1727009901501095200,6.12009521484375,-0.523345947265625,-0.8934478759765625,-0.189666748046875
1727009901511133400,6.130133544921875,-0.645965576171875,-0.8910369873046875,-0.170928955078125
1727009901521171500,6.14017138671875,-0.500091552734375,-0.9123077392578125,-0.1725311279296875
1727009901531209500,6.15020947265625,-0.5814056396484375,-0.8612518310546875,-0.199005126953125
1727009901541247500,6.16024755859375,-0.7524566650390625,-0.8680877685546875,-0.2733612060546875
1727009901551285200,6.17028515625,-0.5797576904296875,-0.8896484375,-0.3720245361328125
1727009901561323500,6.180323486328125,-0.598388671875,-0.8267822265625,-0.4007415771484375
1727009901571361300,6.190361328125,-0.5046234130859375,-0.857666015625,-0.3836517333984375
1727009901581399600,6.200399658203125,-0.5751800537109375,-0.789794921875,-0.36383056640625
1727009901591437300,6.210437255859375,-0.6136016845703125,-0.7573089599609375,-0.37652587890625
1727009901601475600,6.2204755859375,-0.3680267333984375,-0.7923126220703125,-0.40283203125
1727009901611513300,6.230513427734375,-0.599761962890625,-0.8121490478515625,-0.363189697265625
1727009901621551400,6.24055126953125,-0.8184814453125,-0.837799072265625,-0.281341552734375
1727009901631589400,6.25058935546875,-0.4810028076171875,-0.878265380859375,-0.232330322265625
1727009901641627400,6.26062744140625,-0.3358154296875,-0.853546142578125,-0.200439453125
1727009901651665400,6.27066552734375,-0.3263702392578125,-0.8774871826171875,-0.1715850830078125
1727009901661702400,6.280702392578125,-0.4820709228515625,-0.8742523193359375,-0.1294708251953125
1727009901671740400,6.290740478515625,-0.7799530029296875,-0.8103179931640625,-0.1019134521484375
1727009901681778400,6.3007783203125,-0.7305450439453125,-0.7586517333984375,-0.1551055908203125
1727009901691816400,6.31081640625,-0.5785369873046875,-0.747894287109375,-0.2740936279296875
1727009901701854500,6.3208544921875,-0.568450927734375,-0.7674407958984375,-0.3498687744140625
1727009901711892500,6.330892578125,-0.45281982421875,-0.7570648193359375,-0.308441162109375
1727009901721930200,6.34093017578125,-0.5475616455078125,-0.807830810546875,-0.145477294921875
1727009901731968500,6.350968505859375,-0.5306854248046875,-0.765655517578125,-0.006072998046875
1727009901742006300,6.36100634765625,-0.65020751953125,-0.7818145751953125,0.0103607177734375
1727009901752044500,6.37104443359375,-0.8298492431640625,-0.837890625,-0.0911865234375
1727009901762082300,6.381082275390625,-0.646728515625,-0.759857177734375,-0.214263916015625
1727009901772120600,6.39112060546875,-0.4546051025390625,-0.7791900634765625,-0.278472900390625
1727009901782158300,6.401158447265625,-0.2902374267578125,-0.7455902099609375,-0.2377777099609375
1727009901792196400,6.4111962890625,-0.592315673828125,-0.7657470703125,-0.095977783203125
1727009901802234400,6.421234375,-0.74249267578125,-0.8451690673828125,0.0441741943359375
1727009901812272400,6.4312724609375,-0.6735687255859375,-0.8296661376953125,0.0821990966796875
1727009901822309400,6.441309326171875,-0.5767822265625,-0.858001708984375,-0.0052642822265625
1727009901832347400,6.451347412109375,-0.56781005859375,-0.798095703125,-0.135955810546875
1727009901842385400,6.461385498046875,-0.670166015625,-0.794158935546875,-0.199981689453125
1727009901852423400,6.47142333984375,-0.5679168701171875,-0.7744293212890625,-0.1647796630859375
1727009901862461400,6.48146142578125,-0.526123046875,-0.6728057861328125,-0.063934326171875
1727009901872499500,6.49149951171875,-0.7360992431640625,-0.6969757080078125,0.0056915283203125
1727009901882537500,6.501537353515625,-0.7132568359375,-0.769287109375,-0.0138397216796875
1727009901892575200,6.5115751953125,-0.7022857666015625,-0.795074462890625,-0.07232666015625
1727009901902613500,6.521613525390625,-0.3477630615234375,-0.791595458984375,-0.1396026611328125
1727009901912651300,6.5316513671875,-0.2519683837890625,-0.7563323974609375,-0.1519927978515625
1727009901922689500,6.541689453125,-0.5934600830078125,-0.8382568359375,-0.09173583984375
1727009901932727300,6.551727294921875,-0.852020263671875,-0.7847442626953125,-0.0003509521484375
1727009901942765600,6.561765625,-0.9053497314453125,-0.8313140869140625,0.031890869140625
1727009901952803300,6.57180322265625,-0.6135101318359375,-0.790618896484375,-0.016387939453125
1727009901962841300,6.58184130859375,-0.4920501708984375,-0.7815093994140625,-0.12689208984375
1727009901972878300,6.59187841796875,-0.442657470703125,-0.78271484375,-0.206298828125
1727009901982916400,6.601916259765625,-0.6363372802734375,-0.785858154296875,-0.1934356689453125
1727009901992954400,6.611954345703125,-0.7022705078125,-0.7256317138671875,-0.119537353515625
1727009902002992400,6.621992431640625,-0.78009033203125,-0.7317352294921875,-0.0645599365234375
1727009902013030400,6.632030517578125,-0.688323974609375,-0.7519378662109375,-0.070526123046875
1727009902023068400,6.642068359375,-0.555938720703125,-0.7895050048828125,-0.10174560546875
1727009902033106400,6.6521064453125,-0.4541778564453125,-0.8790130615234375,-0.1411895751953125
1727009902043144400,6.66214453125,-0.3360595703125,-0.9071807861328125,-0.137481689453125
1727009902053182500,6.672182373046875,-0.3773956298828125,-0.9776611328125,-0.0751953125
1727009902063220200,6.68222021484375,-0.4799652099609375,-0.9737091064453125,0.024322509765625
1727009902073258500,6.692258544921875,-0.63323974609375,-0.91314697265625,0.095489501953125
1727009902083296300,6.702296142578125,-0.5162200927734375,-0.92742919921875,0.0518798828125
1727009902093334500,6.71233447265625,-0.439453125,-0.8656005859375,-0.0877227783203125
1727009902103372300,6.722372314453125,-0.5770263671875,-0.917144775390625,-0.2342681884765625
1727009902113410600,6.73241064453125,-0.4961090087890625,-0.9519500732421875,-0.261962890625
1727009902123448300,6.7424482421875,-0.630126953125,-0.88372802734375,-0.1439361572265625
1727009902133485300,6.7524853515625,-0.4713134765625,-0.869354248046875,-0.0000762939453125
1727009902143523300,6.7625234375,-0.4948883056640625,-0.8472442626953125,0.0604705810546875
1727009902153561300,6.772561279296875,-0.619659423828125,-0.845245361328125,0.0110015869140625
1727009902163599600,6.782599609375,-0.553955078125,-0.8262481689453125,-0.0791778564453125
1727009902173637400,6.792637451171875,-0.454345703125,-0.835113525390625,-0.1450653076171875
1727009902183675400,6.80267529296875,-0.5665130615234375,-0.8187408447265625,-0.169342041015625
1727009902193713400,6.81271337890625,-0.77490234375,-0.85223388671875,-0.1693878173828125
1727009902203751400,6.82275146484375,-0.7165374755859375,-0.8437042236328125,-0.147674560546875
1727009902213789400,6.83278955078125,-0.480621337890625,-0.8241729736328125,-0.1163330078125
1727009902223827500,6.842827392578125,-0.4943389892578125,-0.7507476806640625,-0.0780792236328125
1727009902233865200,6.852865234375,-0.5399017333984375,-0.717071533203125,-0.076385498046875
1727009902243903500,6.862903564453125,-0.5282135009765625,-0.7412109375,-0.1124114990234375
1727009902253941200,6.872941162109375,-0.5930938720703125,-0.7500457763671875,-0.1362457275390625
1727009902263979500,6.8829794921875,-0.57354736328125,-0.791656494140625,-0.1326751708984375
1727009902274016300,6.893016357421875,-0.584381103515625,-0.832275390625,-0.0998687744140625
1727009902284054300,6.90305419921875,-0.610443115234375,-0.833465576171875,-0.0728302001953125
1727009902294092500,6.913092529296875,-0.6864166259765625,-0.81500244140625,-0.0745849609375
1727009902304130300,6.92313037109375,-0.5040435791015625,-0.7432861328125,-0.10626220703125
1727009902314168600,6.93316845703125,-0.440185546875,-0.7252044677734375,-0.1400146484375
1727009902324206300,6.943206298828125,-0.571502685546875,-0.716217041015625,-0.138641357421875
1727009902334244600,6.95324462890625,-0.6944580078125,-0.7570648193359375,-0.0949249267578125
1727009902344282400,6.963282470703125,-0.533203125,-0.768218994140625,-0.0337066650390625
1727009902354320400,6.9733203125,-0.6107330322265625,-0.8598480224609375,0.0182342529296875
1727009902364358400,6.9833583984375,-0.804534912109375,-0.86700439453125,0.04400634765625
1727009902374396400,6.993396484375,-0.8169403076171875,-0.8779144287109375,0.019317626953125
1727009902384434400,7.003434326171875,-0.6311187744140625,-0.8139190673828125,-0.03143310546875
1727009902394472400,7.013472412109375,-0.4940032958984375,-0.7166290283203125,-0.0860748291015625
1727009902404510200,7.02351025390625,-0.5556640625,-0.7364044189453125,-0.1420440673828125
1727009902414548500,7.033548583984375,-0.67645263671875,-0.7547454833984375,-0.172515869140625
1727009902424586200,7.043586181640625,-0.7360687255859375,-0.7626953125,-0.1517181396484375
1727009902434623500,7.05362353515625,-0.570465087890625,-0.7977752685546875,-0.10406494140625
1727009902444661500,7.06366162109375,-0.46661376953125,-0.7921905517578125,-0.0432281494140625
1727009902454699300,7.07369921875,-0.6277313232421875,-0.799713134765625,-0.01507568359375
1727009902464737500,7.083737548828125,-0.6402587890625,-0.8348846435546875,-0.0589141845703125
1727009902474775300,7.093775390625,-0.6084136962890625,-0.7671966552734375,-0.1242218017578125
1727009902484813600,7.1038134765625,-0.554290771484375,-0.739501953125,-0.1609344482421875
1727009902494851300,7.113851318359375,-0.473541259765625,-0.7365570068359375,-0.1525115966796875
1727009902504889600,7.1238896484375,-0.6535186767578125,-0.763671875,-0.09661865234375
1727009902514927400,7.13392724609375,-0.651214599609375,-0.7989044189453125,-0.0329437255859375
1727009902524965400,7.14396533203125,-0.6522064208984375,-0.851593017578125,-0.004852294921875
1727009902535003400,7.15400341796875,-0.6072235107421875,-0.9336090087890625,-0.045318603515625
1727009902545041400,7.16404150390625,-0.6463775634765625,-0.9044189453125,-0.122802734375
1727009902555079400,7.174079345703125,-0.716583251953125,-0.886016845703125,-0.177398681640625
1727009902565117400,7.184117431640625,-0.5174102783203125,-0.822479248046875,-0.1848602294921875
1727009902575155200,7.1941552734375,-0.5774688720703125,-0.75848388671875,-0.17376708984375
1727009902585192400,7.2041923828125,-0.45965576171875,-0.7617034912109375,-0.16998291015625
1727009902595230500,7.21423046875,-0.545562744140625,-0.826324462890625,-0.1607818603515625
1727009902605268500,7.2242685546875,-0.5817413330078125,-0.8936767578125,-0.15777587890625
1727009902615306500,7.234306396484375,-0.5751953125,-0.943939208984375,-0.16839599609375
1727009902625344300,7.24434423828125,-0.68292236328125,-0.9502105712890625,-0.16143798828125
1727009902635382500,7.254382568359375,-0.592010498046875,-0.939727783203125,-0.1492156982421875
1727009902645420300,7.264420166015625,-0.35400390625,-0.838348388671875,-0.137451171875
1727009902655458600,7.27445849609375,-0.4290313720703125,-0.818115234375,-0.129119873046875
1727009902665496300,7.284496337890625,-0.4678497314453125,-0.7617034912109375,-0.16021728515625
1727009902675534600,7.29453466796875,-0.846649169921875,-0.8394012451171875,-0.2199859619140625
1727009902685572400,7.304572265625,-0.7805938720703125,-0.8169708251953125,-0.28155517578125
1727009902695610400,7.3146103515625,-0.5851287841796875,-0.816253662109375,-0.2936859130859375
1727009902705648400,7.3246484375,-0.3755035400390625,-0.7996826171875,-0.2525634765625
1727009902715686400,7.334686279296875,-0.3662872314453125,-0.782073974609375,-0.1809844970703125
1727009902725724400,7.344724365234375,-0.6209259033203125,-0.819427490234375,-0.11297607421875
1727009902735761400,7.354761474609375,-0.65252685546875,-0.85467529296875,-0.0990142822265625
1727009902745799400,7.36479931640625,-0.7604522705078125,-0.832550048828125,-0.144775390625
1727009902755837400,7.37483740234375,-0.795623779296875,-0.8323974609375,-0.2118072509765625
1727009902765875500,7.38487548828125,-0.5331573486328125,-0.7918243408203125,-0.2634429931640625
1727009902775913500,7.39491357421875,-0.26715087890625,-0.770233154296875,-0.276153564453125
1727009902785951500,7.404951416015625,-0.466827392578125,-0.7542724609375,-0.2347869873046875
1727009902795989200,7.4149892578125,-0.6309356689453125,-0.8184661865234375,-0.1778717041015625
1727009902806027500,7.425027587890625,-0.8312835693359375,-0.8200531005859375,-0.11370849609375
1727009902816065300,7.435065185546875,-0.7326507568359375,-0.759796142578125,-0.0635833740234375
1727009902826103600,7.445103515625,-0.5453643798828125,-0.8112640380859375,-0.0508880615234375
1727009902836141300,7.455141357421875,-0.529144287109375,-0.7299041748046875,-0.0678863525390625
1727009902846179600,7.4651796875,-0.6981658935546875,-0.845703125,-0.099884033203125
1727009902856217300,7.47521728515625,-0.688323974609375,-0.8742218017578125,-0.104583740234375
1727009902866255400,7.48525537109375,-0.540863037109375,-0.829071044921875,-0.0664825439453125
1727009902876293400,7.49529345703125,-0.4392852783203125,-0.8167877197265625,-0.02313232421875
1727009902886330400,7.505330322265625,-0.41943359375,-0.7424468994140625,-0.02008056640625
1727009902896368400,7.515368408203125,-0.66357421875,-0.8278656005859375,-0.0522918701171875
1727009902906406400,7.525406494140625,-0.58514404296875,-0.8322601318359375,-0.079071044921875
1727009902916444400,7.5354443359375,-0.6593170166015625,-0.869049072265625,-0.0517578125
1727009902926482400,7.545482421875,-0.6266937255859375,-0.8690643310546875,-0.003753662109375
1727009902936520400,7.5555205078125,-0.5370635986328125,-0.84295654296875,0.003448486328125
1727009902946558500,7.565558349609375,-0.5441131591796875,-0.8218841552734375,-0.0399322509765625
1727009902956596500,7.575596435546875,-0.4140777587890625,-0.820648193359375,-0.1261749267578125
1727009902966634200,7.58563427734375,-0.4962921142578125,-0.823577880859375,-0.1876983642578125
1727009902976672500,7.595672607421875,-0.4337005615234375,-0.8569488525390625,-0.200347900390625
1727009902986710300,7.605710205078125,-0.51678466796875,-0.86187744140625,-0.1739044189453125
1727009902996748500,7.61574853515625,-0.643310546875,-0.87945556640625,-0.1535797119140625
1727009903006786300,7.625786376953125,-0.4812164306640625,-0.9153594970703125,-0.164520263671875
1727009903016824600,7.635824462890625,-0.619659423828125,-0.8569488525390625,-0.180206298828125
1727009903026862300,7.6458623046875,-0.70245361328125,-0.8630828857421875,-0.2089996337890625
1727009903036899300,7.6558994140625,-0.52264404296875,-0.8248748779296875,-0.2433929443359375
1727009903046937300,7.665937255859375,-0.444427490234375,-0.7552642822265625,-0.255615234375
1727009903056975400,7.675975341796875,-0.4743804931640625,-0.82635498046875,-0.2218170166015625
1727009903067013400,7.686013427734375,-0.560760498046875,-0.8194732666015625,-0.1378936767578125
1727009903077051400,7.696051513671875,-0.565673828125,-0.8623199462890625,-0.05596923828125
1727009903087089400,7.70608935546875,-0.6206817626953125,-0.860748291015625,-0.0078125
1727009903097127400,7.71612744140625,-0.7726898193359375,-0.8574371337890625,-0.0098419189453125
1727009903107165400,7.72616552734375,-0.6349029541015625,-0.8244476318359375,-0.052459716796875
1727009903117203500,7.736203369140625,-0.48822021484375,-0.786041259765625,-0.0931396484375
1727009903127241500,7.746241455078125,-0.4047698974609375,-0.7138214111328125,-0.094940185546875
1727009903137279200,7.756279296875,-0.5377349853515625,-0.753509521484375,-0.068511962890625
1727009903147317500,7.7663173828125,-0.6599884033203125,-0.802001953125,-0.023681640625
1727009903157355300,7.776355224609375,-0.7691650390625,-0.8288421630859375,0.004364013671875
1727009903167393500,7.7863935546875,-0.6346893310546875,-0.8932342529296875,-0.020294189453125
1727009903177431300,7.796431396484375,-0.529876708984375,-0.858489990234375,-0.0697784423828125
1727009903187468300,7.80646826171875,-0.411773681640625,-0.8357696533203125,-0.118377685546875
1727009903197506300,7.81650634765625,-0.3027191162109375,-0.7798614501953125,-0.112213134765625
1727009903207544300,7.82654443359375,-0.42950439453125,-0.78521728515625,-0.0325164794921875
1727009903217582600,7.83658251953125,-0.67108154296875,-0.7567596435546875,0.0718841552734375
1727009903227620400,7.846620361328125,-0.819366455078125,-0.8354034423828125,0.114227294921875
1727009903237658400,7.856658447265625,-0.68743896484375,-0.8813629150390625,0.0744781494140625
1727009903247696400,7.8666962890625,-0.498443603515625,-0.8613433837890625,-0.019989013671875
1727009903257734400,7.876734375,-0.4837493896484375,-0.89501953125,-0.0921478271484375
1727009903267772400,7.8867724609375,-0.506622314453125,-0.8303985595703125,-0.07672119140625
1727009903277810400,7.896810546875,-0.71612548828125,-0.7589874267578125,-0.03167724609375
1727009903287848400,7.906848388671875,-0.76483154296875,-0.6976165771484375,-0.0406951904296875
1727009903297886500,7.916886474609375,-0.563934326171875,-0.6728973388671875,-0.110595703125
1727009903307924200,7.92692431640625,-0.4527587890625,-0.6996002197265625,-0.1978302001953125
1727009903317962500,7.93696240234375,-0.456817626953125,-0.7663116455078125,-0.2268218994140625
1727009903328000300,7.947000244140625,-0.6047210693359375,-0.8595428466796875,-0.1626129150390625
1727009903338037500,7.95703759765625,-0.7639312744140625,-0.860443115234375,-0.056640625
1727009903348075300,7.9670751953125,-0.713653564453125,-0.891998291015625,0.003662109375
1727009903358113300,7.97711328125,-0.6606903076171875,-0.824462890625,0.019927978515625
1727009903368151600,7.987151611328125,-0.37969970703125,-0.7762603759765625,-0.0186614990234375
1727009903378189300,7.997189208984375,-0.278289794921875,-0.695465087890625,-0.0843963623046875
1727009903388227600,8.0072275390625,-0.6204833984375,-0.768341064453125,-0.1465301513671875
1727009903398265300,8.017265380859374,-0.960968017578125,-0.7664642333984375,-0.1828460693359375
1727009903408303400,8.027303466796875,-0.7903289794921875,-0.872222900390625,-0.19635009765625
1727009903418341400,8.03734130859375,-0.5531463623046875,-0.8442230224609375,-0.1658782958984375
1727009903428379400,8.04737939453125,-0.350128173828125,-0.8818817138671875,-0.122528076171875
1727009903438417400,8.05741748046875,-0.3249969482421875,-0.8588409423828125,-0.09033203125
1727009903448455400,8.067455322265625,-0.5926513671875,-0.909393310546875,-0.076263427734375
1727009903458493400,8.077493408203125,-0.8072052001953125,-0.840606689453125,-0.0761260986328125
1727009903468531500,8.087531494140626,-0.8826141357421875,-0.8199005126953125,-0.1138153076171875
1727009903478569200,8.0975693359375,-0.631317138671875,-0.786224365234375,-0.1790313720703125
1727009903488606500,8.1076064453125,-0.529876708984375,-0.736053466796875,-0.2311553955078125
1727009903498644200,8.117644287109375,-0.2062835693359375,-0.79608154296875,-0.2666473388671875
1727009903508682500,8.1276826171875,-0.3522491455078125,-0.8448333740234375,-0.2441253662109375
1727009903518720500,8.137720458984376,-0.6866607666015625,-0.9046783447265625,-0.18731689453125
1727009903528758300,8.14775830078125,-0.7812957763671875,-0.8988800048828125,-0.154083251953125
1727009903538800000,8.157800048828125,-0.64501953125,-0.8560943603515625,-0.1612091064453125
1727009903548838000,8.167837890625,-0.3916015625,-0.8083038330078125,-0.18438720703125
1727009903558876200,8.177876220703125,-0.5030975341796875,-0.7657470703125,-0.1881561279296875
1727009903568914000,8.187913818359375,-0.6216583251953125,-0.7974700927734375,-0.16326904296875
1727009903578952200,8.1979521484375,-0.5788726806640625,-0.76275634765625,-0.1263275146484375
1727009903588990000,8.207989990234376,-0.542205810546875,-0.84039306640625,-0.12152099609375
1727009903599028000,8.218028076171874,-0.4481964111328125,-0.8580322265625,-0.1662445068359375
1727009903609066000,8.22806591796875,-0.6069488525390625,-0.8850860595703125,-0.221527099609375
1727009903619104000,8.23810400390625,-0.661376953125,-0.888824462890625,-0.21453857421875
1727009903629140700,8.248140625,-0.5816192626953125,-0.8016510009765625,-0.1265411376953125
1727009903639179000,8.258178955078124,-0.6983184814453125,-0.7497711181640625,-0.014190673828125
1727009903649216800,8.268216796875,-0.6425628662109375,-0.71063232421875,0.033416748046875
1727009903659255000,8.278255126953125,-0.5165863037109375,-0.7382049560546875,-0.0125732421875
1727009903669292800,8.288292724609375,-0.4571533203125,-0.8597564697265625,-0.1082000732421875
1727009903679331000,8.2983310546875,-0.558258056640625,-0.8973236083984375,-0.17315673828125
1727009903689369000,8.308369140625,-0.697418212890625,-0.9777679443359375,-0.1698455810546875
1727009903699406800,8.31840673828125,-0.585357666015625,-0.862457275390625,-0.1206817626953125
1727009903709445000,8.328445068359375,-0.5912017822265625,-0.7664031982421875,-0.059478759765625
1727009903719483000,8.33848291015625,-0.660675048828125,-0.6985015869140625,-0.03839111328125
1727009903729521200,8.348521240234374,-0.6544036865234375,-0.6188201904296875,-0.066436767578125
1727009903739559000,8.358558837890625,-0.5787506103515625,-0.714935302734375,-0.1117401123046875
1727009903749597200,8.36859716796875,-0.572265625,-0.7556610107421875,-0.1429595947265625
1727009903759635000,8.378635009765626,-0.6225128173828125,-0.9096221923828125,-0.1460418701171875
1727009903769673000,8.3886728515625,-0.48236083984375,-0.949493408203125,-0.1356201171875
1727009903779710000,8.3987099609375,-0.7458038330078125,-0.96319580078125,-0.0919189453125
1727009903789748000,8.408748046875,-0.7250213623046875,-0.8751068115234375,-0.0441436767578125
1727009903799785700,8.41878564453125,-0.3590850830078125,-0.74847412109375,-0.0385284423828125
1727009903809824000,8.428823974609376,-0.5923919677734375,-0.684051513671875,-0.0461578369140625
1727009903819862000,8.438862060546874,-0.6921844482421875,-0.6831207275390625,-0.0831298828125
1727009903829900000,8.448900146484375,-0.77825927734375,-0.72821044921875,-0.1265106201171875
1727009903839938000,8.45893798828125,-0.5288848876953125,-0.802001953125,-0.1596832275390625
1727009903849976000,8.46897607421875,-0.531707763671875,-0.8244781494140625,-0.1581573486328125
1727009903860014000,8.47901416015625,-0.640594482421875,-0.9008026123046875,-0.141693115234375
1727009903870051800,8.4890517578125,-0.661773681640625,-0.8577117919921875,-0.1397552490234375
1727009903880090000,8.499090087890625,-0.6610107421875,-0.7895660400390625,-0.16278076171875
1727009903890128000,8.5091279296875,-0.4482269287109375,-0.7748260498046875,-0.1973114013671875
1727009903900166100,8.519166259765624,-0.4393157958984375,-0.7175750732421875,-0.170654296875
1727009903910203000,8.529202880859375,-0.47039794921875,-0.762786865234375,-0.091064453125
1727009903920241000,8.539240966796875,-0.550628662109375,-0.8157196044921875,-0.01275634765625
1727009903930279000,8.54927880859375,-0.6183013916015625,-0.8535003662109375,0.0025787353515625
1727009903940317000,8.55931689453125,-0.5377960205078125,-0.898193359375,-0.065826416015625
1727009903950355000,8.56935498046875,-0.6409149169921875,-0.855926513671875,-0.1352081298828125
1727009903960393000,8.57939306640625,-0.6284332275390625,-0.825408935546875,-0.1539459228515625
1727009903970431000,8.589430908203125,-0.49371337890625,-0.784271240234375,-0.13226318359375
1727009903980469000,8.599468994140626,-0.5265350341796875,-0.70574951171875,-0.100189208984375
1727009903990507000,8.609507080078124,-0.38482666015625,-0.790924072265625,-0.0914764404296875
1727009904000545000,8.619544921875,-0.5228424072265625,-0.8518218994140625,-0.08148193359375
1727009904010583000,8.6295830078125,-0.91943359375,-0.90972900390625,-0.0656280517578125
1727009904020621000,8.63962109375,-0.6939544677734375,-0.8997344970703125,-0.08221435546875
1727009904030659000,8.6496591796875,-0.4671173095703125,-0.8421478271484375,-0.1165771484375
1727009904040696800,8.65969677734375,-0.2628326416015625,-0.79571533203125,-0.11602783203125
1727009904050735000,8.669735107421875,-0.4864044189453125,-0.7819366455078125,-0.043701171875
1727009904060771800,8.679771728515625,-0.717926025390625,-0.7835540771484375,0.067596435546875
1727009904070809900,8.689809814453126,-0.64556884765625,-0.83197021484375,0.125701904296875
1727009904080848000,8.699847900390624,-0.7554931640625,-0.8326416015625,0.102264404296875
1727009904090886000,8.709885986328125,-0.6222991943359375,-0.848052978515625,-0.003509521484375
1727009904100924000,8.719923828125,-0.269378662109375,-0.805145263671875,-0.131439208984375
1727009904110962000,8.7299619140625,-0.4951934814453125,-0.7841339111328125,-0.20123291015625
1727009904121000000,8.74,-0.762115478515625,-0.77911376953125,-0.1777496337890625
1727009904131038000,8.750037841796875,-0.73590087890625,-0.8003387451171875,-0.108062744140625
1727009904141076000,8.760075927734375,-0.54937744140625,-0.833465576171875,-0.034759521484375
1727009904151114000,8.770114013671876,-0.4855194091796875,-0.86517333984375,0.01300048828125
1727009904161152000,8.780152099609374,-0.46124267578125,-0.9051666259765625,0.031005859375
1727009904171190000,8.79018994140625,-0.458953857421875,-0.9661102294921875,0.0443878173828125
1727009904181228000,8.80022802734375,-0.7183074951171875,-0.912200927734375,0.073333740234375
1727009904191266000,8.81026611328125,-0.7356109619140625,-0.8505859375,0.074005126953125
1727009904201303000,8.820302978515626,-0.6065673828125,-0.8021087646484375,0.0215301513671875
1727009904211340800,8.8303408203125,-0.5681610107421875,-0.79974365234375,-0.0539703369140625
1727009904221379000,8.840379150390625,-0.518890380859375,-0.779449462890625,-0.1201019287109375
1727009904231416800,8.850416748046875,-0.4644622802734375,-0.8598175048828125,-0.13287353515625
1727009904241454800,8.860454833984376,-0.526153564453125,-0.843414306640625,-0.0954437255859375
1727009904251492900,8.870492919921874,-0.70599365234375,-0.875244140625,-0.071563720703125
1727009904261531000,8.88053076171875,-0.5700225830078125,-0.8229217529296875,-0.0899505615234375
1727009904271569000,8.89056884765625,-0.5360870361328125,-0.786773681640625,-0.1104278564453125
1727009904281607000,8.90060693359375,-0.65777587890625,-0.768890380859375,-0.1132659912109375
1727009904291645000,8.91064501953125,-0.6978302001953125,-0.8043060302734375,-0.0946502685546875
1727009904301683000,8.920682861328125,-0.5914459228515625,-0.7907257080078125,-0.053375244140625
1727009904311721000,8.930720947265625,-0.4790191650390625,-0.80291748046875,-0.0319976806640625
1727009904321759000,8.940759033203125,-0.6561279296875,-0.8563232421875,-0.0286407470703125
1727009904331797000,8.950796875,-0.693359375,-0.7845306396484375,-0.02972412109375
1727009904341834000,8.960833984375,-0.6298370361328125,-0.6796875,-0.0246429443359375
1727009904351872000,8.9708720703125,-0.3716278076171875,-0.6833343505859375,-0.0438079833984375
1727009904361909800,8.98090966796875,-0.530303955078125,-0.7008514404296875,-0.075164794921875
1727009904371948000,8.990947998046876,-0.760162353515625,-0.8042144775390625,-0.1098480224609375
1727009904381985800,9.00098583984375,-0.6104736328125,-0.9295806884765625,-0.146484375
1727009904392024000,9.011024169921875,-0.6880340576171875,-0.9517059326171875,-0.145477294921875
1727009904402061800,9.021061767578125,-0.5918426513671875,-0.9562225341796875,-0.14520263671875
1727009904412100000,9.03110009765625,-0.4935760498046875,-0.852935791015625,-0.16351318359375
1727009904422137900,9.041137939453124,-0.603302001953125,-0.6965789794921875,-0.2034912109375
1727009904432175900,9.05117578125,-0.4001312255859375,-0.697174072265625,-0.268829345703125
1727009904442214000,9.0612138671875,-0.7030792236328125,-0.6479034423828125,-0.2732391357421875
1727009904452252000,9.071251953125,-0.7393035888671875,-0.7428741455078125,-0.227203369140625
1727009904462290200,9.081290283203124,-0.4481353759765625,-0.816925048828125,-0.1719970703125
1727009904472327000,9.091326904296874,-0.58087158203125,-0.92877197265625,-0.118408203125
1727009904482365000,9.101364990234375,-0.51544189453125,-0.9785614013671875,-0.093994140625
1727009904492403000,9.11140283203125,-0.6329803466796875,-0.9749298095703125,-0.098052978515625
1727009904502441000,9.12144091796875,-0.6614837646484375,-0.9049530029296875,-0.125762939453125
1727009904512479000,9.13147900390625,-0.548980712890625,-0.7386322021484375,-0.1750335693359375
1727009904522517000,9.14151708984375,-0.3834075927734375,-0.6903076171875,-0.218841552734375
1727009904532554800,9.1515546875,-0.3868560791015625,-0.715240478515625,-0.211883544921875
1727009904542593000,9.161593017578125,-0.740081787109375,-0.78814697265625,-0.1259765625
1727009904552630800,9.171630859375,-0.818389892578125,-0.9044952392578125,-0.0457916259765625
1727009904562669000,9.1816689453125,-0.4634552001953125,-0.88677978515625,-0.0468902587890625
1727009904572706800,9.191706787109375,-0.3843841552734375,-0.9635009765625,-0.1086273193359375
1727009904582745000,9.2017451171875,-0.6396026611328125,-0.8567352294921875,-0.1621856689453125
1727009904592782800,9.211782958984376,-0.71343994140625,-0.8127288818359375,-0.1576080322265625
1727009904602819800,9.22181982421875,-0.482330322265625,-0.7019195556640625,-0.093963623046875
1727009904612858000,9.231858154296875,-0.4158477783203125,-0.625213623046875,-0.0076751708984375
1727009904622895900,9.241895751953125,-0.5164642333984375,-0.7384185791015625,0.052978515625
1727009904632934000,9.251933837890626,-0.6934814453125,-0.844879150390625,0.067840576171875
1727009904642972000,9.261971923828124,-0.665008544921875,-0.93475341796875,0.0308685302734375
1727009904653010000,9.272010009765625,-0.673858642578125,-0.9335784912109375,-0.0388031005859375
1727009904663048000,9.2820478515625,-0.5540771484375,-0.9038848876953125,-0.1062469482421875
1727009904673086000,9.2920859375,-0.561004638671875,-0.845458984375,-0.1282196044921875
1727009904683124000,9.3021240234375,-0.738494873046875,-0.7399444580078125,-0.09320068359375
1727009904693162000,9.312161865234375,-0.6691436767578125,-0.691680908203125,-0.048828125
1727009904703199700,9.32219970703125,-0.4912872314453125,-0.7475128173828125,-0.0632476806640625
1727009904713238000,9.332238037109375,-0.4529571533203125,-0.7894439697265625,-0.100921630859375
1727009904723275800,9.34227587890625,-0.6462860107421875,-0.890838623046875,-0.1030731201171875
1727009904733314000,9.35231396484375,-0.6084747314453125,-0.870849609375,-0.0563201904296875
1727009904743351000,9.36235107421875,-0.5724029541015625,-0.88226318359375,0.000640869140625
1727009904753388800,9.372388916015625,-0.5884552001953125,-0.78155517578125,0.015411376953125
1727009904763427000,9.382427001953126,-0.6846160888671875,-0.768829345703125,-0.047882080078125
1727009904773464800,9.39246484375,-0.639678955078125,-0.7811431884765625,-0.1611175537109375
1727009904783503000,9.402503173828125,-0.609619140625,-0.6911468505859375,-0.243133544921875
1727009904793540900,9.412540771484375,-0.5787811279296875,-0.7294769287109375,-0.2526397705078125
1727009904803579000,9.422578857421875,-0.62255859375,-0.7236328125,-0.181854248046875
1727009904813617000,9.432616943359376,-0.5540618896484375,-0.7101898193359375,-0.08416748046875
1727009904823655000,9.442655029296875,-0.5232391357421875,-0.7266693115234375,-0.0430450439453125
1727009904833693000,9.45269287109375,-0.572052001953125,-0.8000335693359375,-0.0791473388671875
1727009904843731000,9.46273095703125,-0.74273681640625,-0.83746337890625,-0.1365814208984375
1727009904853769000,9.47276904296875,-0.714630126953125,-0.8679351806640625,-0.1677703857421875
1727009904863807000,9.482806884765624,-0.5482330322265625,-0.782135009765625,-0.1521759033203125
1727009904873844000,9.492843994140625,-0.500640869140625,-0.7790374755859375,-0.10614013671875
1727009904883882000,9.502882080078125,-0.4332122802734375,-0.6902313232421875,-0.0829010009765625
1727009904893920000,9.512919921875,-0.7399749755859375,-0.7778472900390625,-0.0811920166015625
1727009904903957800,9.522957763671876,-0.6246337890625,-0.8327789306640625,-0.0644378662109375
1727009904913996000,9.53299609375,-0.683502197265625,-0.7710113525390625,-0.0208740234375
1727009904924033800,9.54303369140625,-0.5401153564453125,-0.8043060302734375,0.0157470703125
1727009904934072000,9.553072021484375,-0.4261474609375,-0.8027801513671875,0.0622406005859375
1727009904944109800,9.56310986328125,-0.767547607421875,-0.8539581298828125,0.1175994873046875
1727009904954148000,9.573148193359375,-0.79864501953125,-0.8932037353515625,0.1252288818359375
1727009904964185900,9.583185791015625,-0.525115966796875,-0.8596954345703125,0.0722503662109375
1727009904974224000,9.593223876953125,-0.3311614990234375,-0.825592041015625,-0.04132080078125
1727009904984262000,9.603261962890626,-0.214080810546875,-0.83709716796875,-0.1443939208984375
1727009904994300000,9.6132998046875,-0.5693817138671875,-0.878509521484375,-0.1202239990234375
1727009905004337200,9.623337158203125,-0.89752197265625,-0.854644775390625,-0.0107269287109375
1727009905014375000,9.633375,-0.96795654296875,-0.8676910400390625,0.06927490234375
1727009905024413000,9.643412841796875,-0.5733642578125,-0.8304901123046875,0.07763671875
1727009905034451000,9.653450927734376,-0.3192138671875,-0.8079681396484375,0.0114898681640625
1727009905044489000,9.663489013671875,-0.4538116455078125,-0.7802886962890625,-0.06951904296875
1727009905054527000,9.67352685546875,-0.31793212890625,-0.832061767578125,-0.107879638671875
1727009905064565000,9.68356494140625,-0.51611328125,-0.8146209716796875,-0.0743865966796875
1727009905074602800,9.693602783203126,-0.80291748046875,-0.914947509765625,-0.0251617431640625
1727009905084641000,9.70364111328125,-0.7305145263671875,-1.0176849365234375,0.0312042236328125
1727009905094678800,9.7136787109375,-0.7420196533203125,-0.932861328125,0.0595855712890625
1727009905104717000,9.723717041015625,-0.4030609130859375,-0.911895751953125,-0.00732421875
1727009905114754800,9.7337548828125,-0.358489990234375,-0.878143310546875,-0.11724853515625
1727009905124793000,9.74379296875,-0.56903076171875,-0.8165130615234375,-0.184814453125
1727009905134830000,9.753830078125,-0.619110107421875,-0.79595947265625,-0.1675262451171875
1727009905144867800,9.763867919921875,-0.6096038818359375,-0.8000946044921875,-0.0968170166015625
1727009905154906000,9.773906005859375,-0.693206787109375,-0.7783660888671875,-0.0463104248046875
1727009905164944000,9.78394384765625,-0.6713104248046875,-0.8779144287109375,-0.0871734619140625
1727009905174982100,9.793982177734375,-0.45159912109375,-0.9250030517578125,-0.1552276611328125
1727009905185020000,9.80402001953125,-0.612640380859375,-0.8780517578125,-0.16949462890625
1727009905195058000,9.814057861328125,-0.6222686767578125,-0.848052978515625,-0.1468658447265625
1727009905205096000,9.824095947265626,-0.6842498779296875,-0.7752227783203125,-0.1211395263671875
1727009905215134000,9.834134033203124,-0.68817138671875,-0.7376556396484375,-0.1314849853515625
1727009905225172000,9.844171875,-0.573272705078125,-0.7650299072265625,-0.1819915771484375
1727009905235210000,9.8542099609375,-0.45263671875,-0.783294677734375,-0.22320556640625
1727009905245247700,9.864247802734376,-0.213287353515625,-0.8299560546875,-0.2256011962890625
1727009905255286000,9.8742861328125,-0.65081787109375,-0.9258880615234375,-0.1491546630859375
1727009905265323000,9.884322998046875,-0.9944305419921875,-0.9270782470703125,-0.04541015625
1727009905275361000,9.894361083984375,-0.893951416015625,-0.8697509765625,-0.0199737548828125
1727009905285399000,9.90439892578125,-0.4649810791015625,-0.7330474853515625,-0.1148834228515625
1727009905295436800,9.914436767578126,-0.2252349853515625,-0.7609405517578125,-0.2724761962890625
1727009905305475000,9.92447509765625,-0.4937896728515625,-0.7291412353515625,-0.35162353515625
1727009905315512800,9.934512939453125,-0.497955322265625,-0.8519439697265625,-0.3171234130859375
1727009905325551000,9.944551025390625,-0.608978271484375,-0.8175811767578125,-0.1903839111328125
1727009905335588900,9.9545888671875,-0.58489990234375,-0.9003448486328125,-0.09698486328125
1727009905345627100,9.964627197265624,-0.515045166015625,-0.84747314453125,-0.1150970458984375
1727009905355665000,9.974664794921875,-0.589447021484375,-0.875457763671875,-0.20465087890625
1727009905365703000,9.984702880859375,-0.466827392578125,-0.811126708984375,-0.3042144775390625
1727009905375741000,9.994740966796876,-0.5412445068359375,-0.73321533203125,-0.3676605224609375
1727009905385779000,10.004779052734374,-0.5475616455078125,-0.7953033447265625,-0.38641357421875
1727009905395816000,10.01481591796875,-0.6960296630859375,-0.7454986572265625,-0.3393707275390625
1727009905405854000,10.02485400390625,-0.6765289306640625,-0.87481689453125,-0.2534942626953125
1727009905415892000,10.03489208984375,-0.444549560546875,-0.819732666015625,-0.179473876953125
1727009905425930000,10.044929931640626,-0.4901275634765625,-0.869842529296875,-0.135223388671875
1727009905435968000,10.054968017578124,-0.3788604736328125,-0.9073638916015625,-0.1140899658203125
1727009905446006000,10.065006103515625,-0.783843994140625,-0.874114990234375,-0.0760345458984375
1727009905456044000,10.0750439453125,-0.7018280029296875,-0.8199920654296875,-0.0779876708984375
1727009905466081800,10.085081787109376,-0.4392852783203125,-0.7694091796875,-0.1410369873046875
1727009905476120000,10.0951201171875,-0.53375244140625,-0.72442626953125,-0.209075927734375
1727009905486157800,10.10515771484375,-0.5464019775390625,-0.781585693359375,-0.22705078125
1727009905496196000,10.115196044921875,-0.7196807861328125,-0.7820587158203125,-0.1498260498046875
1727009905506233900,10.12523388671875,-0.687652587890625,-0.7865142822265625,-0.04730224609375
1727009905516272000,10.135272216796874,-0.6034698486328125,-0.80218505859375,-0.017822265625
1727009905526309000,10.14530908203125,-0.4958953857421875,-0.818328857421875,-0.068145751953125
1727009905536347000,10.155346923828125,-0.304779052734375,-0.81695556640625,-0.1110076904296875
1727009905546382000,10.165382080078125,-0.476043701171875,-0.819427490234375,-0.06988525390625
1727009905556420400,10.17542041015625,-0.855010986328125,-0.7717132568359375,0.02783203125
1727009905566458000,10.1854580078125,-0.8766632080078125,-0.7373199462890625,0.0696868896484375
1727009905576496400,10.195496337890624,-0.6418304443359375,-0.7641754150390625,-0.0061492919921875
1727009905586534100,10.2055341796875,-0.4251708984375,-0.7382965087890625,-0.14642333984375
1727009905596572200,10.215572265625,-0.5045318603515625,-0.8018341064453125,-0.2618865966796875
1727009905606610200,10.225610107421875,-0.5046844482421875,-0.87286376953125,-0.2677459716796875
1727009905616648200,10.235648193359374,-0.810760498046875,-0.8325653076171875,-0.1273193359375
1727009905626686200,10.245686279296875,-0.768096923828125,-0.8353424072265625,0.0184326171875
1727009905636724200,10.25572412109375,-0.536895751953125,-0.7838592529296875,0.0575714111328125
1727009905646761200,10.26576123046875,-0.7470703125,-0.7700347900390625,-0.0110321044921875
1727009905656799200,10.27579931640625,-0.4943389892578125,-0.7783203125,-0.1392974853515625
1727009905666837200,10.285837158203124,-0.502197265625,-0.81756591796875,-0.2121734619140625
1727009905676875300,10.295875244140625,-0.6329498291015625,-0.7884674072265625,-0.1739654541015625
1727009905686913300,10.305913330078125,-0.636688232421875,-0.7793426513671875,-0.082672119140625
1727009905696951000,10.315950927734375,-0.6157379150390625,-0.7708892822265625,-0.00299072265625
1727009905706989300,10.3259892578125,-0.50531005859375,-0.754241943359375,0.0472259521484375
1727009905717027000,10.336027099609375,-0.5354461669921875,-0.794677734375,0.0771636962890625
1727009905727065300,10.3460654296875,-0.7502899169921875,-0.7762908935546875,0.0940704345703125
1727009905737103000,10.35610302734375,-0.5758514404296875,-0.8248443603515625,0.07183837890625
1727009905747141400,10.366141357421874,-0.3623199462890625,-0.8492889404296875,0.0144805908203125
1727009905757179100,10.37617919921875,-0.4449005126953125,-0.879913330078125,-0.0569000244140625
1727009905767217200,10.386217041015625,-0.415374755859375,-0.93817138671875,-0.109344482421875
1727009905777254400,10.39625439453125,-0.5983123779296875,-0.9603271484375,-0.1102752685546875
1727009905787292200,10.406292236328126,-0.7564544677734375,-0.91326904296875,-0.089508056640625
1727009905797330200,10.416330078125,-0.599334716796875,-0.894866943359375,-0.120025634765625
1727009905807368200,10.4263681640625,-0.60540771484375,-0.7897186279296875,-0.17999267578125
1727009905817406200,10.43640625,-0.385223388671875,-0.8088836669921875,-0.23468017578125
1727009905827444200,10.4464443359375,-0.4946441650390625,-0.7970123291015625,-0.22186279296875
1727009905837482200,10.456482177734374,-0.5435638427734375,-0.808624267578125,-0.1663360595703125
1727009905847520300,10.466520263671875,-0.3462982177734375,-0.8741912841796875,-0.1331939697265625
1727009905857558300,10.476558349609375,-0.55401611328125,-0.8895111083984375,-0.1203460693359375
1727009905867596000,10.486595947265625,-0.61602783203125,-0.978240966796875,-0.1096649169921875
1727009905877634300,10.49663427734375,-0.725555419921875,-0.8753509521484375,-0.074371337890625
1727009905887672000,10.506672119140624,-0.7047271728515625,-0.8153228759765625,-0.045684814453125
1727009905897709000,10.516708984375,-0.4713897705078125,-0.7574615478515625,-0.0635986328125
1727009905907747300,10.526747314453125,-0.613555908203125,-0.7102813720703125,-0.1038055419921875
1727009905917785000,10.53678515625,-0.5250091552734375,-0.7684783935546875,-0.1373748779296875
1727009905927823400,10.5468232421875,-0.453460693359375,-0.8213653564453125,-0.12841796875
1727009905937861000,10.556861083984375,-0.5424957275390625,-0.8777008056640625,-0.08544921875
1727009905947899400,10.5668994140625,-0.59320068359375,-0.897674560546875,-0.0560150146484375
1727009905957937200,10.576937255859375,-0.49029541015625,-0.9143218994140625,-0.0568695068359375
1727009905967975200,10.58697509765625,-0.5699615478515625,-0.87249755859375,-0.0670013427734375
1727009905978013200,10.59701318359375,-0.6255950927734375,-0.8009796142578125,-0.068511962890625
1727009905988051200,10.60705126953125,-0.6536865234375,-0.7757720947265625,-0.05316162109375
1727009905998089200,10.617089111328125,-0.4660797119140625,-0.743499755859375,-0.02166748046875
1727009906008127200,10.627127197265626,-0.4668731689453125,-0.83306884765625,0.0016937255859375
1727009906018165200,10.637165283203124,-0.579315185546875,-0.8888702392578125,0.0042266845703125
1727009906028202200,10.6472021484375,-0.564910888671875,-0.969146728515625,-0.0276641845703125
1727009906038240300,10.657240234375,-0.4312591552734375,-0.9377899169921875,-0.05377197265625
1727009906048278300,10.6672783203125,-0.6056976318359375,-0.9163360595703125,-0.0547637939453125
1727009906058316300,10.67731640625,-0.5987701416015625,-0.7812652587890625,-0.050872802734375
1727009906068354300,10.687354248046875,-0.652130126953125,-0.7336578369140625,-0.0644073486328125
1727009906078392300,10.697392333984375,-0.5641021728515625,-0.6323394775390625,-0.0942535400390625
1727009906088430000,10.70743017578125,-0.4351654052734375,-0.6984405517578125,-0.134979248046875
1727009906098468400,10.71746826171875,-0.6052093505859375,-0.753570556640625,-0.1464385986328125
1727009906108506000,10.727506103515625,-0.7963104248046875,-0.864776611328125,-0.109161376953125
1727009906118544400,10.73754443359375,-0.6198883056640625,-0.87744140625,-0.054351806640625
1727009906128582100,10.74758203125,-0.5339508056640625,-0.8766937255859375,-0.0177764892578125
1727009906138620200,10.7576201171875,-0.68426513671875,-0.8806610107421875,-0.020416259765625
1727009906148657400,10.767657470703124,-0.709747314453125,-0.799072265625,-0.0322418212890625
1727009906158695200,10.777695068359375,-0.650970458984375,-0.743560791015625,-0.0517578125
1727009906168733400,10.7877333984375,-0.54144287109375,-0.647125244140625,-0.10614013671875
1727009906178771200,10.797771240234376,-0.4693603515625,-0.681060791015625,-0.18280029296875
1727009906188809200,10.807809326171874,-0.5238189697265625,-0.727386474609375,-0.2180633544921875
1727009906198847200,10.81784716796875,-0.63372802734375,-0.7981719970703125,-0.178985595703125
1727009906208885200,10.82788525390625,-0.6754302978515625,-0.8617706298828125,-0.1051177978515625
1727009906218923300,10.83792333984375,-0.66619873046875,-0.85882568359375,-0.0595550537109375
1727009906228961300,10.847961181640626,-0.49713134765625,-0.900421142578125,-0.0685272216796875
1727009906238999300,10.857999267578125,-0.43487548828125,-0.819061279296875,-0.0777587890625
1727009906249037300,10.868037353515625,-0.3680267333984375,-0.8067779541015625,-0.0599212646484375
1727009906259075000,10.878074951171875,-0.5479583740234375,-0.7289276123046875,-0.037445068359375
1727009906269112300,10.8881123046875,-0.975189208984375,-0.768646240234375,-0.0703582763671875
1727009906279150300,10.898150390625,-0.7910919189453125,-0.8205718994140625,-0.1749114990234375
1727009906289188000,10.90818798828125,-0.3911285400390625,-0.828643798828125,-0.2815093994140625
1727009906299226400,10.918226318359375,-0.3164520263671875,-0.8417205810546875,-0.2876129150390625
1727009906309264100,10.92826416015625,-0.6183624267578125,-0.81549072265625,-0.1591644287109375
1727009906319302400,10.938302490234374,-0.833709716796875,-0.8619232177734375,0.003509521484375
1727009906329340200,10.948340087890625,-0.7060394287109375,-0.7900848388671875,0.08148193359375
1727009906339378400,10.95837841796875,-0.5596160888671875,-0.7287445068359375,0.0323944091796875
1727009906349416200,10.968416259765625,-0.4384613037109375,-0.8128662109375,-0.1242828369140625
1727009906359454200,10.9784541015625,-0.5079345703125,-0.8423309326171875,-0.254791259765625
1727009906369492200,10.9884921875,-0.500244140625,-0.88726806640625,-0.2869415283203125
1727009906379530200,10.9985302734375,-0.5189666748046875,-0.8256988525390625,-0.217559814453125
1727009906389568300,11.008568359375,-0.740966796875,-0.8417510986328125,-0.1011962890625
1727009906399605200,11.018605224609376,-0.8075103759765625,-0.7657623291015625,-0.0166778564453125
1727009906409643300,11.028643310546874,-0.56365966796875,-0.703887939453125,0.01812744140625
1727009906419681300,11.038681396484375,-0.517791748046875,-0.7047882080078125,0.025421142578125
1727009906429719300,11.04871923828125,-0.587738037109375,-0.7227783203125,0.00067138671875
1727009906439757300,11.05875732421875,-0.5550689697265625,-0.8287811279296875,-0.0555877685546875
1727009906449795300,11.06879541015625,-0.62939453125,-0.8635711669921875,-0.1075286865234375
1727009906459833000,11.0788330078125,-0.5096588134765625,-0.91912841796875,-0.1337738037109375
1727009906469871400,11.088871337890625,-0.327239990234375,-0.862884521484375,-0.1257476806640625
1727009906479909000,11.0989091796875,-0.546905517578125,-0.8175201416015625,-0.1007080078125
1727009906489947400,11.108947509765626,-0.619140625,-0.77557373046875,-0.081878662109375
1727009906499985200,11.118985107421874,-0.640380859375,-0.7147674560546875,-0.0789031982421875
1727009906510023400,11.1290234375,-0.6719970703125,-0.7108917236328125,-0.0867156982421875
1727009906520060400,11.139060302734375,-0.63580322265625,-0.75604248046875,-0.108245849609375
1727009906530098200,11.14909814453125,-0.7164306640625,-0.8363037109375,-0.121795654296875
1727009906540136400,11.159136474609374,-0.6435089111328125,-0.929931640625,-0.12115478515625
1727009906550173200,11.169173095703124,-0.5078277587890625,-0.8875885009765625,-0.0860595703125
1727009906560211500,11.17921142578125,-0.615753173828125,-0.909027099609375,-0.0244598388671875
1727009906570249200,11.189249267578125,-0.8656463623046875,-0.80816650390625,0.03424072265625
1727009906580287200,11.199287353515626,-0.9532470703125,-0.7641754150390625,0.035675048828125
1727009906590325200,11.2093251953125,-0.6038055419921875,-0.7200469970703125,-0.0296173095703125
1727009906600363300,11.21936328125,-0.385589599609375,-0.67852783203125,-0.1070098876953125
1727009906610401300,11.2294013671875,-0.4215240478515625,-0.816986083984375,-0.1735076904296875
1727009906620439300,11.239439208984376,-0.5358734130859375,-0.8121185302734375,-0.15924072265625
1727009906630477300,11.249477294921874,-0.5665283203125,-0.9523468017578125,-0.089691162109375
1727009906640514300,11.259514404296874,-0.691680908203125,-0.84991455078125,-0.0285186767578125
1727009906650552300,11.26955224609375,-0.7117919921875,-0.8478240966796875,-0.0648651123046875
1727009906660590300,11.27959033203125,-0.37481689453125,-0.7816925048828125,-0.163055419921875
1727009906670628400,11.28962841796875,-0.4942779541015625,-0.780242919921875,-0.209320068359375
1727009906680666400,11.299666259765624,-0.4744110107421875,-0.8265533447265625,-0.16558837890625
1727009906690704400,11.309704345703125,-0.67059326171875,-0.8580322265625,-0.057220458984375
1727009906700742100,11.3197421875,-0.70880126953125,-0.885986328125,0.005340576171875
1727009906710780400,11.329780517578126,-0.3472137451171875,-0.8798065185546875,-0.0481109619140625
1727009906720818200,11.339818115234374,-0.552215576171875,-0.8885345458984375,-0.1458282470703125
1727009906730856400,11.3498564453125,-0.492889404296875,-0.849517822265625,-0.2202606201171875
1727009906740894200,11.359894287109375,-0.664306640625,-0.820465087890625,-0.2169647216796875
1727009906750932200,11.36993212890625,-0.6223297119140625,-0.846282958984375,-0.1714935302734375
1727009906760969500,11.379969482421876,-0.4353179931640625,-0.8131866455078125,-0.1425628662109375
1727009906771007200,11.39000732421875,-0.490234375,-0.88153076171875,-0.1433258056640625
1727009906781045500,11.40004541015625,-0.4810333251953125,-0.9191741943359375,-0.1448974609375
1727009906791083300,11.410083251953125,-0.47283935546875,-0.896697998046875,-0.1089324951171875
1727009906801121300,11.420121337890626,-0.5210418701171875,-0.8524932861328125,-0.0476837158203125
1727009906811159300,11.4301591796875,-0.6707000732421875,-0.8295440673828125,-0.0027618408203125
1727009906821197300,11.440197265625,-0.6627960205078125,-0.7754669189453125,-0.0135498046875
1727009906831235300,11.4502353515625,-0.593841552734375,-0.7808685302734375,-0.072479248046875
1727009906841273300,11.4602734375,-0.541656494140625,-0.7693328857421875,-0.1224517822265625
1727009906851311400,11.470311279296874,-0.5648040771484375,-0.8347015380859375,-0.121734619140625
1727009906861349400,11.480349365234375,-0.640380859375,-0.7977752685546875,-0.0756072998046875
1727009906871387100,11.49038720703125,-0.60113525390625,-0.8275909423828125,-0.048126220703125
1727009906881424400,11.50042431640625,-0.44781494140625,-0.7911834716796875,-0.0589447021484375
1727009906891462400,11.51046240234375,-0.4362945556640625,-0.8381500244140625,-0.1055908203125
1727009906901500200,11.520500244140624,-0.4998321533203125,-0.869140625,-0.135223388671875
1727009906911538400,11.530538330078125,-0.64947509765625,-0.899322509765625,-0.1090240478515625
1727009906921576200,11.540576171875,-0.6941070556640625,-0.8838348388671875,-0.02825927734375
1727009906931614500,11.550614501953126,-0.5777435302734375,-0.884246826171875,0.0439300537109375
1727009906941652200,11.56065234375,-0.3660430908203125,-0.81903076171875,0.0738677978515625
1727009906951690500,11.5706904296875,-0.585968017578125,-0.7934417724609375,0.053863525390625
1727009906961728300,11.580728271484375,-0.7537384033203125,-0.775848388671875,-0.0109100341796875
1727009906971766300,11.590766357421876,-0.9307708740234375,-0.774078369140625,-0.08978271484375
1727009906981804300,11.60080419921875,-0.737457275390625,-0.7095794677734375,-0.1556854248046875
1727009906991842300,11.61084228515625,-0.392181396484375,-0.748382568359375,-0.170440673828125
1727009907001879300,11.62087939453125,-0.3809356689453125,-0.731231689453125,-0.1093597412109375
1727009907011917300,11.630917236328125,-0.6446685791015625,-0.8039398193359375,-0.007049560546875
1727009907021955300,11.640955322265626,-0.656951904296875,-0.880889892578125,0.0602264404296875
1727009907031993300,11.650993408203124,-0.785308837890625,-0.854400634765625,0.0575714111328125
1727009907042031400,11.66103125,-0.8160400390625,-0.847320556640625,-0.0271148681640625
1727009907052069400,11.6710693359375,-0.6292877197265625,-0.7884063720703125,-0.14556884765625
1727009907062107400,11.681107421875,-0.3780059814453125,-0.75823974609375,-0.2266082763671875
1727009907072145200,11.691145263671874,-0.3186187744140625,-0.710723876953125,-0.2092437744140625
1727009907082183400,11.701183349609375,-0.666717529296875,-0.7667236328125,-0.1109161376953125
1727009907092221200,11.71122119140625,-0.87957763671875,-0.791778564453125,-0.0167083740234375
1727009907102259500,11.721259521484376,-0.7937469482421875,-0.8216400146484375,0.012359619140625
1727009907112297200,11.731297119140624,-0.2135162353515625,-0.839202880859375,-0.0424957275390625
1727009907122334200,11.741334228515624,-0.3624420166015625,-0.885833740234375,-0.0899200439453125
1727009907132372500,11.75137255859375,-0.576904296875,-0.924835205078125,-0.1087188720703125
1727009907142410200,11.76141015625,-0.787078857421875,-0.8336944580078125,-0.10107421875
1727009907152448500,11.771448486328126,-0.7231903076171875,-0.84368896484375,-0.1195068359375
1727009907162486300,11.781486328125,-0.4444427490234375,-0.7256317138671875,-0.1800994873046875
1727009907172524500,11.791524658203125,-0.4564056396484375,-0.7583770751953125,-0.2643890380859375
1727009907182562300,11.801562255859375,-0.340545654296875,-0.789825439453125,-0.3150634765625
1727009907192600300,11.811600341796876,-0.4599456787109375,-0.866302490234375,-0.269622802734375
1727009907202638300,11.821638427734374,-0.634552001953125,-0.9577789306640625,-0.15850830078125
1727009907212676400,11.83167626953125,-0.6486663818359375,-0.962432861328125,-0.0804443359375
1727009907222714400,11.84171435546875,-0.6722259521484375,-0.983795166015625,-0.0945892333984375
1727009907232751400,11.85175146484375,-0.501800537109375,-0.8953857421875,-0.17669677734375
1727009907242789400,11.861789306640626,-0.4217071533203125,-0.901336669921875,-0.2437591552734375
1727009907252827400,11.871827392578124,-0.5197601318359375,-0.7603759765625,-0.256500244140625
1727009907262865400,11.881865478515625,-0.561676025390625,-0.765716552734375,-0.253204345703125
1727009907272903400,11.8919033203125,-0.487945556640625,-0.7550201416015625,-0.2511138916015625
1727009907282941400,11.90194140625,-0.4941253662109375,-0.834625244140625,-0.2503662109375
1727009907292979200,11.911979248046874,-0.5673675537109375,-0.9297332763671875,-0.220672607421875
1727009907303017500,11.922017578125,-0.64617919921875,-0.941375732421875,-0.1746368408203125
1727009907313055200,11.93205517578125,-0.518585205078125,-0.88800048828125,-0.1481475830078125
1727009907323093500,11.942093505859376,-0.495391845703125,-0.810577392578125,-0.144805908203125
1727009907333131300,11.95213134765625,-0.5797271728515625,-0.755035400390625,-0.131500244140625
1727009907343169500,11.96216943359375,-0.7920074462890625,-0.6945648193359375,-0.0866241455078125
1727009907353206300,11.972206298828125,-0.6812744140625,-0.6563262939453125,-0.0423431396484375
1727009907363244300,11.982244384765625,-0.6629180908203125,-0.7517242431640625,-0.02490234375
1727009907373282600,11.992282470703126,-0.5200042724609375,-0.7908477783203125,-0.0460205078125
1727009907383320300,12.0023203125,-0.4881591796875,-0.870330810546875,-0.05450439453125
1727009907393358300,12.0123583984375,-0.785491943359375,-0.7979583740234375,-0.0131072998046875
1727009907403396400,12.022396240234375,-0.657562255859375,-0.8164825439453125,-0.0100250244140625
1727009907413434400,12.032434326171876,-0.7480010986328125,-0.6911773681640625,-0.05889892578125
1727009907423472400,12.042472412109374,-0.613006591796875,-0.6312713623046875,-0.1468505859375
1727009907433510400,12.052510498046875,-0.4065399169921875,-0.743682861328125,-0.2180023193359375
1727009907443548400,12.06254833984375,-0.6356964111328125,-0.743072509765625,-0.1932220458984375
1727009907453586400,12.07258642578125,-0.629119873046875,-0.8816680908203125,-0.10552978515625
1727009907463623200,12.082623046875,-0.572265625,-0.8733062744140625,0.0004425048828125
1727009907473661400,12.092661376953124,-0.6575775146484375,-0.86199951171875,0.0924530029296875
1727009907483699200,12.10269921875,-0.6132354736328125,-0.7636566162109375,0.1207122802734375
1727009907493737200,12.1127373046875,-0.690582275390625,-0.69366455078125,0.05816650390625
1727009907503775200,12.122775146484376,-0.7348785400390625,-0.719940185546875,-0.072723388671875
1727009907513813200,12.132813232421874,-0.6301116943359375,-0.6694793701171875,-0.2018585205078125
1727009907523851500,12.1428515625,-0.532745361328125,-0.781036376953125,-0.282562255859375
1727009907533889300,12.15288916015625,-0.46185302734375,-0.78533935546875,-0.2630462646484375
1727009907543927600,12.162927490234376,-0.57861328125,-0.829437255859375,-0.1765289306640625
1727009907553965600,12.172965576171874,-0.77545166015625,-0.8249359130859375,-0.0832672119140625
1727009907564003600,12.183003662109375,-0.7331695556640625,-0.8135833740234375,-0.0523681640625
1727009907574040300,12.193040283203125,-0.468780517578125,-0.8034210205078125,-0.085601806640625
1727009907584078600,12.20307861328125,-0.3440399169921875,-0.78826904296875,-0.1241455078125
1727009907594116400,12.213116455078126,-0.481597900390625,-0.8583984375,-0.1165924072265625
1727009907604154400,12.223154296875,-0.5754241943359375,-0.9316253662109375,-0.0595855712890625
1727009907614192400,12.2331923828125,-0.72369384765625,-0.8949127197265625,0.01702880859375
1727009907624230400,12.24323046875,-0.637481689453125,-0.95611572265625,0.0312347412109375
1727009907634268400,12.253268310546876,-0.04693603515625,-0.7821502685546875,-0.035675048828125
1727009907644306400,12.263306396484374,-0.4681549072265625,-0.8584136962890625,-0.095855712890625
1727009907654344400,12.273344482421875,-0.6773223876953125,-0.7672271728515625,-0.0676116943359375
1727009907664382500,12.283382568359375,-0.9064483642578125,-0.8714447021484375,0.004180908203125
1727009907674420500,12.29342041015625,-0.587371826171875,-0.8251190185546875,0.0394287109375
1727009907684458500,12.30345849609375,-0.3722076416015625,-0.8727874755859375,-0.02349853515625
1727009907694496500,12.31349658203125,-0.3798828125,-0.9264373779296875,-0.1281585693359375
1727009907704533500,12.323533447265625,-0.529083251953125,-0.986663818359375,-0.17694091796875
1727009907714571500,12.333571533203125,-0.67340087890625,-0.959686279296875,-0.125244140625
1727009907724609300,12.343609375,-0.56085205078125,-0.84356689453125,-0.03289794921875
1727009907734647600,12.3536474609375,-0.6241302490234375,-0.7903289794921875,0.04119873046875
1727009907744685300,12.363685302734375,-0.6063079833984375,-0.7610931396484375,0.0684967041015625
1727009907754723600,12.3737236328125,-0.6179046630859375,-0.68597412109375,0.060211181640625
1727009907764761300,12.38376123046875,-0.532318115234375,-0.7364349365234375,0.0222930908203125
1727009907774799400,12.39379931640625,-0.4099273681640625,-0.804412841796875,-0.0189666748046875
1727009907784837400,12.40383740234375,-0.529266357421875,-0.8664398193359375,-0.034271240234375
1727009907794875400,12.41387548828125,-0.664337158203125,-0.9430694580078125,-0.00860595703125
1727009907804913400,12.423913330078125,-0.65582275390625,-0.92120361328125,0.0380706787109375
1727009907814950400,12.433950439453126,-0.688507080078125,-0.8707733154296875,0.0421142578125
1727009907824988400,12.443988525390624,-0.603973388671875,-0.807037353515625,-0.0238494873046875
1727009907835026400,12.4540263671875,-0.5550994873046875,-0.7298126220703125,-0.1148223876953125
1727009907845064400,12.464064453125,-0.5055694580078125,-0.6915283203125,-0.1811370849609375
1727009907855102500,12.4741025390625,-0.461944580078125,-0.6871490478515625,-0.185516357421875
1727009907865140500,12.484140380859374,-0.475189208984375,-0.700653076171875,-0.1513214111328125
1727009907875178500,12.494178466796875,-0.456390380859375,-0.76922607421875,-0.12176513671875
1727009907885216500,12.504216552734375,-0.598876953125,-0.8245391845703125,-0.0923919677734375
1727009907895254300,12.514254150390625,-0.69171142578125,-0.84783935546875,-0.053192138671875
1727009907905292500,12.52429248046875,-0.812713623046875,-0.84014892578125,-0.0175628662109375
1727009907915330300,12.534330322265625,-0.889404296875,-0.8069610595703125,-0.0212249755859375
1727009907925367300,12.5443671875,-0.7581329345703125,-0.8094329833984375,-0.0694427490234375
1727009907935405600,12.554405517578125,-0.5482940673828125,-0.774169921875,-0.1294403076171875
1727009907945443300,12.564443359375,-0.606048583984375,-0.76861572265625,-0.1457977294921875
1727009907955481600,12.574481689453124,-0.5992889404296875,-0.778839111328125,-0.131744384765625
1727009907965519400,12.584519287109375,-0.738494873046875,-0.8084716796875,-0.1049652099609375
1727009907975557600,12.5945576171875,-0.7569732666015625,-0.758880615234375,-0.10626220703125
1727009907985595400,12.604595458984376,-0.6075592041015625,-0.7111053466796875,-0.138336181640625
1727009907995633400,12.61463330078125,-0.6053314208984375,-0.7242584228515625,-0.1656951904296875
1727009908005671400,12.62467138671875,-0.3829345703125,-0.6983489990234375,-0.1808013916015625
1727009908015709400,12.63470947265625,-0.471221923828125,-0.775604248046875,-0.149993896484375
1727009908025747500,12.64474755859375,-0.7074737548828125,-0.8421783447265625,-0.0955047607421875
1727009908035785500,12.654785400390624,-0.716400146484375,-0.8975372314453125,-0.0668182373046875
1727009908045822500,12.664822509765624,-0.4845733642578125,-0.9174041748046875,-0.095977783203125
1727009908055860500,12.674860595703125,-0.5027923583984375,-0.84820556640625,-0.1327362060546875
1727009908065898500,12.6848984375,-0.7680511474609375,-0.8319244384765625,-0.1499786376953125
1727009908075936500,12.6949365234375,-0.697021484375,-0.74334716796875,-0.1594390869140625
1727009908085974500,12.704974609375,-0.6667327880859375,-0.679901123046875,-0.1611328125
1727009908096012300,12.71501220703125,-0.4568328857421875,-0.7237548828125,-0.20428466796875
1727009908106050600,12.725050537109375,-0.515350341796875,-0.8005218505859375,-0.259735107421875
1727009908116088300,12.73508837890625,-0.5802764892578125,-0.95489501953125,-0.2982177734375
1727009908126126600,12.745126708984374,-0.661224365234375,-0.99359130859375,-0.2836456298828125
1727009908136164400,12.755164306640625,-0.529937744140625,-1.0235595703125,-0.23492431640625
1727009908146202600,12.76520263671875,-0.4552764892578125,-0.9298248291015625,-0.174560546875
1727009908156240400,12.775240478515625,-0.472747802734375,-0.8850250244140625,-0.1240234375
1727009908166277400,12.78527734375,-0.4858856201171875,-0.8423004150390625,-0.089630126953125
1727009908176315600,12.795315673828124,-0.6065521240234375,-0.762939453125,-0.0702667236328125
