time,seconds_elapsed,z,y,x
1726225814803001000,0.0340009765625,-0.08515256436765194,-0.05491349344849586,0.2665485575683415
1726225814812997000,0.0439970703125,-0.25595862836241723,0.0564084081813693,0.02299041496515274
1726225814822993200,0.0539931640625,-0.4006558531105518,0.10589052423089743,-0.13553762060627342
1726225814832988000,0.06398779296875,-0.3353402081131935,0.09018266748934983,-0.20245134845003485
1726225814842984200,0.073984130859375,-0.17832710714936256,0.1591995050922036,-0.21293898632526395
1726225814852980200,0.083980224609375,-0.2179647055327892,0.35582682356387374,-0.14591105751730502
1726225814862976000,0.09397607421875,-0.2848895392924547,0.4048790237635374,0.010226064329594373
1726225814872971000,0.103970947265625,-0.26478900054991245,0.29145225880891085,0.1273919427473098
1726225814882967000,0.113967041015625,-0.5777373441129923,0.10965630650520324,0.10064049474820494
1726225814892963000,0.123963134765625,-0.7850748571693896,0.2195347313284874,0.09213701642751693
1726225814902959000,0.133958984375,-0.9039420596122741,0.6646849752038717,-0.13787753479592502
1726225814912955100,0.143955078125,-0.928032544773817,0.8166589129567146,-0.4747076161406934
1726225814922950100,0.1539501953125,-0.5127870252966881,0.3436281439870596,-0.7459846635356545
1726225814932946200,0.1639462890625,-0.067272624284029,-0.25356384218037126,-0.7737004265222698
1726225814942942200,0.173942138671875,0.011678747355937958,0.0036257892817258834,-0.8376142418976873
1726225814952938000,0.18393798828125,0.08976619564294815,0.3500681139066815,-0.7948604842551052
1726225814962933000,0.19393310546875,-0.076252634075284,0.18723288266062735,-0.7595823962554336
1726225814972929000,0.203928955078125,-0.25257073948979375,-0.1482280292227864,-0.9538419626824557
1726225814982925000,0.213925048828125,-0.1346598148584366,-0.2495128132238984,-1.144813301219046
1726225814992921000,0.223921142578125,0.20676058995127677,-0.41929596391171214,-1.0393184983074664
1726225815002916000,0.233916015625,0.5516992320150137,-0.5793146764323115,-0.7142750816725194
1726225815012912000,0.243912109375,0.5961947918236256,-0.608129852028191,-0.5679616538994013
1726225815022908000,0.253907958984375,0.4971428814411163,-0.29404285982400175,-0.4281980861611664
1726225815032904200,0.263904296875,0.5725695860862732,0.22543197267353535,-0.0003717559218406677
1726225815042900000,0.27389990234375,0.6913456031143664,0.4084516215533018,0.7099113335050642
1726225815052895000,0.28389501953125,0.9368681776583194,0.19846505529284475,2.097811360423267
1726225815062891000,0.29389111328125,1.0253618691474198,0.07682137387394905,2.9011405439466236
1726225815072887300,0.30388720703125,0.7107938154280186,0.16805355041623116,2.411608137509227
1726225815082883000,0.313883056640625,0.040216275054216384,0.4036176255255937,1.4822832148373126
1726225815092878000,0.323878173828125,-0.6162210962861776,0.5335869444802404,0.5765691771164536
1726225815102874000,0.3338740234375,-1.0456617298543454,0.5255751951992511,-0.059081572913378476
1726225815112870000,0.343869873046875,-1.2868810542464255,0.3810387139707804,-0.4437074977211654
1726225815122866200,0.3538662109375,-1.2584510785758494,0.3315288331314921,-0.4777241874828934
1726225815132862200,0.3638623046875,-1.0441016409307717,0.6248749428629875,-0.10916691555306315
1726225815142857000,0.37385693359375,-0.745642425969243,0.6400657899931073,0.5604185450434684
1726225815152853000,0.38385302734375,-0.43956163008809085,0.4470779970675707,0.8836198409430682
1726225815162849300,0.393849365234375,-0.2393722352206707,0.3955722662359476,0.8260117015831172
1726225815172845000,0.403844970703125,-0.1759545327991247,0.28551497771441936,0.7135486670941114
1726225815182840000,0.413840087890625,-0.33379999293386936,0.21285773778259753,0.5440573389597236
1726225815192836000,0.423836181640625,-0.5958247894674539,0.18501462208926678,0.32421704881340263
1726225815202832000,0.433831787109375,-0.7650245873093604,0.098878891903162,0.16592223747596144
1726225815212828200,0.443828125,-0.8761661639362573,0.10063128852844237,0.05061038942709565
1726225815222823200,0.4538232421875,-0.9343968191087245,0.14173662137687204,0.03391688264906406
1726225815232819200,0.463819091796875,-0.9066624244868755,0.09582184242010117,-0.024609102208167314
1726225815242815000,0.47381494140625,-0.9459522323459386,0.17407938657701014,-0.06781929838135838
1726225815252811300,0.483811279296875,-0.9090689011067151,0.26122341702282426,0.032671704893559216
1726225815262807000,0.49380712890625,-0.8143506360143422,0.3111614601463079,0.07916472212970256
1726225815272802000,0.503802001953125,-0.63343058976233,0.3501648522794246,0.13320260178744792
1726225815282798000,0.513798095703125,-0.3915893340796232,0.7917670482844114,0.21889044207558034
1726225815292794000,0.523794189453125,-0.15636720427572726,0.7241326049506663,0.1854841392971575
1726225815302790100,0.5337900390625,-0.10075812977850436,0.18540274462401865,-0.02445785716921091
1726225815312785200,0.54378515625,-0.34594168162643907,-0.21194179198145865,-0.05152326648831367
1726225815322781200,0.55378125,-0.49783027918338774,-0.14222177454531193,-0.1940508921124041
1726225815332777000,0.56377685546875,-0.7174427519232034,0.3004366525143385,-0.5459932754583656
1726225815342773200,0.573773193359375,-0.7159376080572605,0.6837082401037216,-0.7123451365232467
1726225815352769000,0.58376904296875,-0.450639488941431,0.9796452431112527,-0.5108797303706407
1726225815362764000,0.593763916015625,-0.005415010786056518,1.4782687184989451,-0.006769932526350021
1726225815372760000,0.603760009765625,0.4550578899055719,1.5348451767235993,0.36583515348955986
1726225815382756000,0.613756103515625,0.6915992856144905,1.4332488425552845,0.2465377429358661
1726225815392752000,0.623752197265625,0.8896095828771591,1.5096949533760546,-0.3336624841593206
1726225815402747100,0.6337470703125,0.844265881806612,1.945421535345912,-0.7381161221176386
1726225815412743200,0.6437431640625,0.6154734927892684,2.554579269117117,-0.867268863992393
1726225815422739000,0.653739013671875,0.48664486830234527,2.992896452102065,-1.1061680748738347
1726225815432735200,0.6637353515625,0.15378829369843006,3.757265205851197,-1.4355515665397047
1726225815442730200,0.673730224609375,0.24662030665278434,4.152075255542993,-1.4262280040077864
1726225815452726000,0.68372607421875,1.434732359111309,3.274593917354941,-2.089180748591572
1726225815462722000,0.69372216796875,3.393102223357558,2.033507815077901,-2.9778496896177526
1726225815472718000,0.703718017578125,4.151613483250141,1.2758534642755985,-2.8818513215869666
1726225815482714000,0.713714111328125,4.174285333785415,1.6558143198817967,-2.599309222203493
1726225815492709000,0.723709228515625,4.183384586042165,2.318693122446537,-2.443542029647529
1726225815502705200,0.733705078125,3.9826445715546606,3.6829847486317155,-2.0780837466463447
1726225815512701000,0.743700927734375,3.140463094806671,5.0943759796440595,-1.7952111001342534
1726225815522698000,0.753697998046875,2.1064508862137794,5.3443824216037985,-2.0137749406039713
1726225815532693000,0.76369287109375,1.681866460505128,5.606190360516309,-2.1338252153515813
1726225815542688800,0.773688720703125,1.5279127471119165,6.3364493393927805,-1.9400801743179559
1726225815552684800,0.783684814453125,2.871657844352722,5.711948490539193,-2.7475591709971425
1726225815562680800,0.793680908203125,5.50051932425499,3.7753503131181,-4.460412305918336
1726225815572675800,0.80367578125,6.898534940865636,1.6530460242122411,-5.307780829915404
1726225815582672000,0.813671875,7.398327460032701,0.8482476449191569,-4.43229914111197
1726225815592668000,0.82366796875,6.649426909050345,1.703470389547944,-2.1056834089726206
1726225815602664000,0.833663818359375,3.6715804343029856,3.747316935549676,-0.4850695818096399
1726225815612659000,0.843658935546875,0.3230117646768689,5.443447191467881,-0.41819150980114933
1726225815622655000,0.853655029296875,-1.5713883162230253,4.617254434229433,-0.6836994722753763
1726225815632650800,0.863650634765625,-2.9960452715218064,3.40511853210479,-2.1439970652759075
1726225815642646800,0.873646728515625,-3.3789182151824235,1.3665351673282682,-3.3747961668163535
1726225815652643000,0.88364306640625,-2.3764637588918207,0.27451865966469047,-2.5450048005640507
1726225815662637800,0.893637939453125,-2.042723971712589,0.9598233751796186,-0.6539174974739551
1726225815672633900,0.9036337890625,-1.9542638902321456,1.4889505637720226,0.461380078664422
1726225815682630000,0.9136298828125,-1.1708704102784395,1.4089518750362098,0.5856126075327396
1726225815692625700,0.923625732421875,-0.7497881474718451,0.5769575553795322,0.14801906264722348
1726225815702621000,0.933620849609375,-2.9815561429202555,0.4360507358903065,-1.1600047328710554
1726225815712617000,0.943616943359375,-7.401521287637949,1.2992092054218054,-1.5457494325757026
1726225815722612700,0.95361279296875,-11.051955181276798,2.216606374412775,-0.3154460055977106
1726225815732608800,0.96360888671875,-11.830444814836978,3.2662235638946293,1.70077340554893
1726225815742603800,0.973603759765625,-8.65739520920217,3.931868616302311,3.4723505321174857
1726225815752600000,0.98360009765625,-4.8554617173239585,4.748718667916953,4.492131386262178
1726225815762595800,0.993595947265625,-3.1008827795684337,5.297348867750167,4.45756977596879
1726225815772591900,1.003591796875,-3.079303400444984,5.681505421480536,3.772222536486387
1726225815782587600,1.013587646484375,-3.138967303290963,6.817349526563286,3.901038301491737
1726225815792583000,1.0235830078125,-2.66671570200026,7.379141113525629,3.193391551917791
1726225815802579000,1.033578857421875,-2.014503254878521,7.545565601435303,1.194286357179284
1726225815812575000,1.043574951171875,-2.1599381462514398,8.333110648110509,-3.3299902258843184
1726225815822570800,1.05357080078125,-3.3647868139773607,6.865162832617759,-4.835469607391953
1726225815832565800,1.063565673828125,-4.558793185171485,4.110083787509799,-3.5816976265430447
1726225815842562000,1.07356201171875,-5.310737926155328,3.8292017302930352,-3.409003556844592
1726225815852557800,1.083557861328125,-6.304233415442705,4.174347877627611,-3.5054210270702835
1726225815862553900,1.093553955078125,-7.304681208086014,4.385344497713446,-3.3035996470868585
1726225815872548900,1.103548828125,-8.028224614971876,4.125708057621122,-3.5096082496270533
1726225815882545000,1.113544921875,-8.25529850963354,4.332108582088351,-4.124110267035663
1726225815892541000,1.123541015625,-8.218866429293156,5.175915029689669,-4.812523031568527
1726225815902537000,1.133536865234375,-8.28696907466054,6.10526450228095,-5.6564428764164445
1726225815912532000,1.143531982421875,-8.74318724051714,6.681978933086991,-6.392939872899651
1726225815922527700,1.15352783203125,-8.764155794265866,6.718510382148623,-9.384511213877797
1726225815932524000,1.16352392578125,-7.7415873552292584,6.479772353178262,-13.302427584934234
1726225815942519800,1.173519775390625,-6.122208622819185,5.737331938120723,-16.502065337765217
1726225815952514800,1.183514892578125,-2.8514421547979114,3.9889392877846954,-19.25603671389222
1726225815962510800,1.1935107421875,0.46582595215737815,1.9134101940572261,-21.88774715348482
1726225815972507000,1.2035068359375,3.084343148177862,-1.064167108359933,-23.78994504865408
1726225815982503000,1.2135029296875,5.594021783816814,-3.9993624821215867,-25.032785885643957
1726225815992498000,1.223497802734375,7.989838477954268,-5.305842555329203,-25.5001836171627
1726225816002494000,1.233493896484375,9.527777529039978,-5.173490432891249,-25.044850417447087
1726225816012489700,1.24348974609375,9.765652219179271,-4.278178254458308,-23.172963489389417
1726225816022486000,1.253486083984375,8.56759335772395,-3.144107588788867,-19.5620479516685
1726225816032481800,1.263481689453125,7.153095392867923,-0.3218132025420666,-16.459411606431008
1726225816042476800,1.273476806640625,5.954626197046041,2.1628817984879016,-13.823807082009315
1726225816052472800,1.283472900390625,5.231123706692457,3.6284541170209645,-10.840655194330214
1726225816062468900,1.29346875,5.442496758875251,4.63496807783544,-7.634819755902886
1726225816072465000,1.30346484375,5.7751312151610845,4.752195696377754,-5.006836812400818
1726225816082460000,1.3134599609375,5.86270136206448,4.331810475924611,-3.2574411225020885
1726225816092456000,1.3234560546875,6.203847041586041,4.153105183112621,-1.9811457596778868
1726225816102451700,1.33345166015625,6.221761468461156,4.64123473701477,-1.6629314584106205
1726225816112448000,1.343447998046875,3.6517736178100106,8.109667803427577,4.051674560900032
1726225816122443000,1.353443115234375,0.2725549583762884,7.015399571314454,7.627414448082447
1726225816132438800,1.363438720703125,0.7936170600652694,6.573247340211272,6.756939189264178
1726225816142434800,1.373434814453125,0.7704092029571533,6.350165145534277,7.103214632889628
1726225816152430800,1.383430908203125,0.9156272367089986,5.405332857128977,6.593043343049287
1726225816162426000,1.393426025390625,3.6227772404283285,2.8942396785169837,3.0412790824770926
1726225816172422000,1.403421875,2.070287393681705,2.202605321589112,2.7091882315486666
1726225816182418000,1.41341796875,0.018501286852359772,4.473213919824362,4.008123296204209
1726225816192413700,1.42341357421875,0.051283904774487014,3.0638761142104864,1.9789824441641568
1726225816202408700,1.43340869140625,-0.0059635845795273775,3.4717671792715787,0.9982067357182502
1726225816212405000,1.443405029296875,2.7444951072514057,4.770054009151458,0.04170388326346874
1726225816222401000,1.453401123046875,-0.08327098840475082,5.9877422847062345,2.150436158412695
1726225816232396800,1.463396728515625,0.3760714469522238,5.185546196866035,2.2758190263599154
1726225816242391800,1.473391845703125,0.9728549984492361,2.2785271162748337,3.3875919355034827
1726225816252387800,1.483387939453125,1.7110722428537903,0.6779197198301553,4.113604947373271
1726225816262383900,1.4933837890625,2.7420243332237004,0.2100058554828167,3.6914088781058787
1726225816272380000,1.5033798828125,2.9994506960511207,-0.22820085286498068,2.8356512959480282
1726225816282376000,1.5133759765625,3.7477328228741884,0.22467267873883245,1.748961390134692
1726225816292370700,1.52337060546875,5.423245530438423,2.0788257971853015,0.6771341224104166
1726225816302367000,1.533366943359375,6.885502440813183,3.7758418960273263,0.7109311780720948
1726225816312363000,1.543363037109375,6.44394992916882,5.081711143860221,1.9315777189105747
1726225816322358000,1.55335791015625,4.738597963657975,5.863250228118896,3.005628507903218
1726225816332353800,1.563353759765625,2.7239222748219967,5.069827813842893,4.227646921616793
1726225816342349800,1.573349853515625,-2.854911292213201,5.588245538502932,5.518059072598815
1726225816352345900,1.583345947265625,-9.656509707415104,6.18378215867877,6.3279059674531215
1726225816362342000,1.593341796875,-8.009159849017857,3.930063904967904,3.5879362286716696
1726225816372337000,1.6033369140625,-3.052022594809532,1.867266282519698,0.8836877916127442
1726225816382333000,1.6133330078125,-2.122332345956564,1.5075211164683102,0.039925183153152466
1726225816392329000,1.623328857421875,-2.3577790782965717,1.4241530974298715,-0.6875590703129768
1726225816402325000,1.633324951171875,-4.025003703856468,-1.1042150411099194,2.127066973263025
1726225816412320000,1.643320068359375,-4.993057293373346,-2.3174907609194517,3.8340041621387004
1726225816422315800,1.653315673828125,-4.11001627523154,-1.7618419144958257,3.2111668625831604
1726225816432311800,1.663311767578125,-3.6449464021384714,-1.7656161723375319,2.768953841203451
1726225816442307800,1.673307861328125,-2.812335594551265,-1.695907845339179,2.14790868576169
1726225816452302800,1.683302734375,-2.4950948144912717,-1.3778349983692169,1.6155629735141992
1726225816462299000,1.693298828125,-5.134493470498919,0.13228256433308125,-0.38478608380556106
1726225816472295000,1.703294921875,-4.134246461124718,1.41831839992702,-2.302389637899399
1726225816482291000,1.713291015625,-0.2475382982805371,2.339340773677826,-2.8840578917205333
1726225816492286000,1.723285888671875,2.682527311377227,1.7759972810983657,-3.1040754381299016
1726225816502282000,1.733281982421875,3.7016625610947607,-0.6085884094506502,-3.6849548796609044
1726225816512277800,1.74327783203125,3.3125425397381183,-2.16887080976963,-3.7542461502909656
1726225816522273500,1.7532734375,2.7661162796899674,-0.33848668944537635,-3.62344593347013
1726225816532268500,1.7632685546875,2.1693474873706697,4.278937548393011,-3.666483695685863
1726225816542264600,1.7732646484375,1.4446116558298467,5.7730479791462415,-4.32109765099138
1726225816552260600,1.783260498046875,-0.10549100351929663,6.452290472012758,-4.034219275969266
1726225816562256600,1.793256591796875,-0.4129518555819988,5.505772422477603,-2.100065861351788
1726225816572251600,1.803251708984375,-0.9570207388490438,2.953997689387202,-1.2456288602732122
1726225816582247700,1.81324755859375,-2.222449839743972,1.4998592035382985,-0.4132927414415404
1726225816592243700,1.82324365234375,-2.5724688538119196,0.6717331401497125,0.3571762288788333
1726225816602239500,1.833239501953125,-2.201047570753097,-0.1446884569197893,0.8388003098770975
1726225816612234500,1.843234375,-3.0583512133091686,0.7047668102234601,3.3562148004651067
1726225816622230500,1.85323046875,-4.216575492504239,0.01701777029633522,2.712724004459381
1726225816632226800,1.863226806640625,-4.803642098237574,-0.15148878458440304,1.6230375471785663
1726225816642222600,1.87322265625,-5.047965526124835,-0.25098025542795654,1.183448736822605
1726225816652218600,1.883218505859375,-4.205589111326635,-1.4776649073868988,-0.12070815413445234
1726225816662213600,1.893213623046875,-3.4370240749314425,-2.3717864147305487,-1.8666233084410428
1726225816672209700,1.903209716796875,-3.0290052918374535,-2.199884372192621,-2.840865231204033
1726225816682205700,1.913205810546875,-3.2236364680558443,-1.4033505478978157,-2.7313538861274718
1726225816692201700,1.92320166015625,-2.8726956629678604,-0.4418734141618013,-3.831472013312578
1726225816702196500,1.933196533203125,0.009318301834911108,1.28965168800354,-4.285734953448176
1726225816712192500,1.943192626953125,2.503299163734913,4.213686785325407,-3.5909371640533205
1726225816722188800,1.953188720703125,2.0443091950774193,4.809353169360756,-0.9116267688959836
1726225816732184600,1.9631845703125,0.5107385683342814,3.262326556456089,1.1728893488854168
1726225816742179600,1.9731796875,-0.2797258729189634,1.161570667013526,1.6962427763819694
1726225816752175600,1.983175537109375,-0.849993319542706,-0.6437766272097826,1.4523258834689854
1726225816762171600,1.993171630859375,1.5139420894265174,-0.6756178726285695,2.5364655202776194
1726225816772167700,2.003167724609375,6.180371473452449,-0.014701310047507285,4.520853038355708
1726225816782162700,2.01316259765625,10.449663826143741,-0.03480126426815987,5.385953033876419
1726225816792158700,2.02315869140625,10.020520714217424,-1.3252122462064027,0.6782984900146722
1726225816802154500,2.033154541015625,6.351133113783598,-1.7083604996770618,-2.7468139055877923
1726225816812150800,2.04315087890625,3.629699148645997,-1.3515934726536274,-2.8346926800489425
1726225816822146600,2.053146484375,2.0961106939852234,-1.030921256840229,-2.0106226140528918
1726225816832141600,2.0631416015625,0.7388935362309217,-0.7824561991035938,-0.832536865568161
1726225816842137600,2.0731376953125,-1.1602841343343258,-0.8142039210200309,-0.5297030887842178
1726225816852133600,2.083133544921875,-2.6120664124459028,-0.872065742880106,-0.413749727961421
1726225816862129700,2.093129638671875,-3.524266597315669,-0.9292033421188592,-0.32060616483986376
1726225816872124700,2.103124755859375,-4.187304974356294,-1.0789864918291567,-0.6964397113829851
1726225816882120700,2.11312060546875,-4.7757396535724395,-1.0946586927354336,-0.9780278710424899
1726225816892116500,2.123116455078125,-4.315989221936464,-0.8472907825857401,-0.4244663522869348
1726225816902112800,2.13311279296875,-3.6041117029249667,-0.5912865615159273,-0.06788461870253086
1726225816912107800,2.143107666015625,-1.9239824414759874,-0.06668751787245274,0.499314380261302
1726225816922103600,2.153103515625,-0.034358196675777435,0.37942601807713505,1.0490233152419328
1726225816932099600,2.163099609375,2.143416635039449,0.5972983691513538,1.2516127569884061
1726225816942095600,2.173095703125,3.799090085145831,0.5976794774234294,1.4113900619685649
1726225816952091600,2.183091552734375,3.904367738175392,-0.1958925744563341,1.361480660417676
1726225816962086700,2.193086669921875,3.250934809347987,-0.77690557923913,0.5665712224543095
1726225816972082700,2.203082763671875,2.4083219554454085,-0.4131774810314178,0.48020168351233
1726225816982078500,2.213078369140625,1.3665133938878773,-0.1954354783385992,0.12311024684011936
1726225816992074800,2.22307470703125,0.6688157913982867,-0.2615659468501806,-0.2702875979661941
1726225817002069800,2.23306982421875,0.2263438268214464,-0.07769348053336143,-0.3640057461053133
1726225817012065500,2.2430654296875,-0.1849175914555788,0.2187847897440195,-0.4689461300045252
1726225817022061600,2.2530615234375,-0.3776923261523247,0.41576574395895,-0.47841480009555815
1726225817032057600,2.2630576171875,-0.5041609435096382,0.38700492889881133,-0.5970704056143761
1726225817042053600,2.2730537109375,-0.5114794498294591,0.3720908528834581,-0.6229781693309545
1726225817052048600,2.283048583984375,-0.3083382194191217,0.3905886326044798,-0.46791386434733867
1726225817062044700,2.293044677734375,0.0029682021558284756,0.496596937996149,-0.15776245802640915
1726225817072040400,2.30304052734375,0.3097071696847677,0.5344745409697294,0.1136626195371151
1726225817082036700,2.31303662109375,0.5315536850869655,0.5242173508495092,0.16820903323888778
1726225817092031700,2.32303173828125,0.6610165158241987,0.6320815132409334,0.2889227403312921
1726225817102027800,2.33302783203125,0.5674491743326187,0.6342080038756132,0.45808045259714125
1726225817112023600,2.3430234375,0.4191647387474775,0.5489250911265612,0.3474094160914421
1726225817122019600,2.35301953125,0.3788841662853956,0.43933951177000996,-0.005672784939408302
1726225817132015600,2.363015625,0.5539192461520434,0.45947979800105093,-0.31289632111489774
1726225817142010600,2.3730107421875,0.7942781543225049,0.6099287181437015,-0.5856985322505235
1726225817152006700,2.383006591796875,1.1200520771890878,0.9805927530944347,-0.6092892511963844
1726225817162002700,2.393002685546875,1.3866270843729376,1.4487696522921323,-0.6860714621037245
1726225817171998700,2.402998779296875,1.503873699876666,1.726919069674611,-0.7789677724659443
1726225817181994800,2.412994873046875,1.495838861981034,1.575829513540864,-1.1205687945395708
1726225817191989800,2.42298974609375,1.3926575967088342,1.0883116617962718,-1.7304852377235889
1726225817201985500,2.432985595703125,1.2443442272901535,0.660930006584525,-2.2421277691602706
1726225817211981600,2.442981689453125,1.2432888730183242,0.35952012512385845,-2.576476628148556
1726225817221977600,2.4529775390625,1.244932548572123,0.44204584811925884,-2.502379710802436
1726225817231972600,2.46297265625,1.086546697950363,0.6736936265677214,-2.3289929826647042
1726225817241968600,2.47296875,0.78151219625175,0.9983815077632665,-2.0844845535993577
1726225817251964700,2.482964599609375,0.33469021977186203,1.2756421596124767,-1.7587141378641127
1726225817261960700,2.492960693359375,-0.17721096260100602,1.4092480815038084,-1.4550111770302057
1726225817271956700,2.502956787109375,-0.6453864004939794,1.467500363986194,-1.2221511001825331
1726225817281951700,2.51295166015625,-0.9459078086823225,1.538667073099315,-0.9804366857498884
1726225817291947500,2.522947509765625,-1.097054355700314,1.5539190027669072,-0.7153390576422214
1726225817301943600,2.532943603515625,-1.2144649295940995,1.3518474474146962,-0.8034884657382965
1726225817311939800,2.54293994140625,-1.1700707843333482,1.2921753612622617,-0.8280103280544281
1726225817321935600,2.552935546875,-1.0491922420680522,1.0927315240651367,-0.8762135102093219
1726225817331930600,2.5629306640625,-0.8330167580395936,0.7741495585292577,-0.9037070818126202
1726225817341926700,2.5729267578125,-0.47361324503272767,0.4984259069889784,-0.96700554176867
1726225817351922400,2.58292236328125,-0.15966624582111835,0.21379092697948215,-1.093410153979063
1726225817361918700,2.592918701171875,0.05708586905151605,0.11062427475452423,-1.1276011773943901
1726225817371914800,2.602914794921875,0.0989639398381114,0.0954433644965291,-1.186102466201782
1726225817381909500,2.612909423828125,0.030835867768526076,0.22019670236855743,-1.050591587471962
1726225817391905500,2.622905517578125,-0.1294604926496744,0.17351093903928994,-1.0527888052552938
1726225817401901800,2.63290185546875,-0.4031587758421898,0.20300357550531625,-0.8384387830883264
1726225817411897600,2.642897705078125,-0.6196437642112373,0.17180442738234997,-0.6594757161229848
1726225817421893600,2.6528935546875,-0.7124281386315822,0.08203735495656728,-0.2838268784970045
1726225817431888600,2.662888671875,-0.6466577356040477,0.0711637865036726,0.15872516557872293
1726225817441884400,2.672884521484375,-0.5548033355101942,0.016084581099450587,0.5947726500660181
1726225817451880700,2.682880615234375,-0.4982350605919957,-0.13620032229870557,0.7856073566108942
1726225817461876700,2.692876708984375,-0.5402592618510127,-0.3067272770911455,0.6093763449579477
1726225817471872500,2.70287255859375,-0.6910247005969286,-0.449499963517487,0.2514619014650583
1726225817481867500,2.712867431640625,-0.767477825680375,-0.3700502869665622,0.12184358790516853
1726225817491863800,2.72286376953125,-0.6750763130977749,-0.12835107010304928,0.19719255113899706
1726225817501859600,2.732859619140625,-0.4915788175731897,0.044127018757164474,0.12869593801796436
1726225817511855600,2.742855712890625,-0.382348627525568,0.11411679304540157,-0.20664660818278788
1726225817521851600,2.7528515625,-0.4016232368379831,0.31417700857520103,-0.7121569204747676
1726225817531846100,2.76284619140625,-0.6329816769510507,0.5320706946983933,-1.351456110009551
1726225817541842000,2.772842041015625,-0.9328530967980623,0.9786249601528048,-1.6063304502665996
1726225817551838000,2.782837890625,-1.2028984104409812,1.6208628334879873,-1.5704630180716515
1726225817561834000,2.792833984375,-1.481267900314927,2.2528028924316166,-1.6348913588404654
1726225817571830000,2.802830078125,-1.767617283026874,2.6774425554588435,-1.5630571257293224
1726225817581825000,2.812824951171875,-1.844082683070004,3.2568884570553895,-1.4130945277988909
1726225817591821000,2.822821044921875,-1.697819524179399,3.849002993828058,-1.3050848194569349
1726225817601816800,2.83281689453125,-1.368263452425599,4.252484425753355,-1.2771242148637771
1726225817611813000,2.842813232421875,-0.748348470057547,4.5432858194381,-1.2128449271768331
1726225817621809000,2.852808837890625,-0.008951660479605198,4.370782303875685,-1.4299942246735096
1726225817631804000,2.862803955078125,0.7135282088279724,3.5402900958776473,-1.9292431384831665
1726225817641800000,2.872800048828125,1.481538533949852,2.8048689119324086,-2.033233089789748
1726225817651796200,2.882796142578125,2.0334359188854694,2.24423672413826,-1.7592361159116028
1726225817661792000,2.8927919921875,2.411165362177789,1.7781673186138272,-1.224391572585702
1726225817671788000,2.9027880859375,2.5774969111070036,1.6161720453232526,-0.48811844798624515
1726225817681783800,2.91278369140625,2.8153865065544843,1.5876058760523795,0.17946926292181015
1726225817691778800,2.92277880859375,2.8519775768488644,1.246198915246129,0.37756606942415233
1726225817701775000,2.932775146484375,2.433462680312246,1.0586024599701165,0.40387656872272487
1726225817711771100,2.942771240234375,1.9192481064304707,1.174592061150074,0.7133575284361839
1726225817721767000,2.952766845703125,1.2216047183461487,1.3409773860931395,0.7800602438777685
1726225817731763000,2.962762939453125,0.4297985070951283,1.541770592072606,0.846733148702979
1726225817741758200,2.97275830078125,-0.2847369790792465,1.7081471491873264,1.0609762033641337
1726225817751754000,2.98275390625,-0.8413562779702246,1.5845488265693186,0.9416425524532794
1726225817761750000,2.99275,-1.2060421152941883,1.1782207730412482,0.39199849940240383
1726225817771746000,3.00274609375,-1.3289762749150396,0.8881845185101032,0.17969079671800137
1726225817781742000,3.0127421875,-1.1068339914366603,0.5255488917142153,0.17404431526362896
1726225817791737000,3.022737060546875,-0.38179216268658633,0.06619827305078506,-0.12968611809909342
1726225817801733000,3.032733154296875,0.6199126442804932,-0.038300796821713445,-0.8604325882315635
1726225817811729000,3.04272900390625,1.270981182064116,0.5348813682049512,-1.3669219746887684
1726225817821725000,3.052724853515625,1.2956918449506163,1.5156249279469252,-1.0421931769609452
1726225817831721000,3.062720947265625,0.9399348717525601,2.279683300572634,-0.18013912500739096
1726225817841716000,3.072716064453125,0.3087798257067799,2.648129659473896,0.6979027696728706
1726225817851712000,3.0827119140625,-0.42154900353550906,2.67973417352736,1.1922434531748294
1726225817861708000,3.0927080078125,-1.032015774078667,2.217316568508744,0.8082967428028583
1726225817871704000,3.1027041015625,-1.5430845972806215,1.444144915100932,0.09638941317498684
1726225817881700000,3.1127001953125,-1.870105013076961,0.7717886746168137,-0.5781511856108904
1726225817891695000,3.122695068359375,-2.1736019299447533,0.32200141859054565,-1.157450372213125
1726225817901691000,3.13269091796875,-2.4933061775088308,0.01083294418156147,-1.569510831913352
1726225817911687000,3.14268701171875,-2.860401414062083,-0.261546657627821,-1.9598802688091992
1726225817921683200,3.15268310546875,-3.232746826228499,-0.6134995623677969,-2.3537036455512044
1726225817931679000,3.162678955078125,-3.51154564743042,-0.9799696527600288,-2.5925124016702172
1726225817941674000,3.172674072265625,-3.7618203849375247,-1.2756371911764144,-2.4039023854374886
1726225817951670000,3.182669921875,-3.967227222192287,-1.4717863707423209,-2.2266689187437296
1726225817961666000,3.192666015625,-4.0894481189772485,-1.3614929353773593,-1.8653227472364902
1726225817971662000,3.202662109375,-4.103696716821194,-1.0892033499389886,-1.3119102815628052
1726225817981657000,3.212656982421875,-3.9834684551581736,-0.7311486211925745,-0.5000812729805708
1726225817991652900,3.22265283203125,-3.7593805905699726,-0.3859504514098167,0.23344226064980028
1726225818001649000,3.23264892578125,-3.495153900077939,-0.14396949499547482,0.8898118274509906
1726225818011645200,3.242645263671875,-3.195896812736988,-0.05251461561322212,1.4908441224336624
1726225818021641000,3.252640869140625,-2.8065830223739145,0.028022563913464544,2.204558793744445
1726225818031636000,3.262635986328125,-2.1032816085278987,0.061984454748034476,3.181788207885623
1726225818041632000,3.272632080078125,-0.15588964989185333,0.0344990664511919,5.079759425270557
1726225818051628000,3.2826279296875,4.161230037379265,-0.1286637893140316,5.917115089297294
1726225818061624000,3.2926240234375,8.044337545382977,-0.9756476979076861,5.237206241476535
1726225818071620000,3.3026201171875,9.713588269943,-1.1223837350070476,3.9309897876411672
1726225818081614800,3.31261474609375,8.008064454996585,-0.4899842418581247,1.7060224121183156
1726225818091611000,3.32261083984375,5.008115746295452,0.39642566819489,-0.24984043774306772
1726225818101607200,3.332607177734375,3.801859842120111,0.8889970039367675,-1.0125894813358782
1726225818111603000,3.34260302734375,3.514120758615434,1.4967086305528878,-1.380164318099618
1726225818121599000,3.352598876953125,2.5863185154661537,2.3228888205707072,-1.0654320137292146
1726225818131594000,3.362593994140625,1.0882742523953317,3.1314392458736893,-0.3603741116046905
1726225818141590000,3.372590087890625,-0.47186727814823387,3.5694653369575735,-0.07911679133474826
1726225818151586000,3.3825859375,-1.576289824528992,3.6842139981657263,-0.2974082446038723
1726225818161582000,3.39258203125,-2.191098715929687,3.3986668717473743,-1.0078788194268942
1726225818171577000,3.4025771484375,-2.516131757301092,2.9459698657542464,-1.5809312205940484
1726225818181572900,3.41257275390625,-2.62652514590919,2.418662732195854,-1.6408634189873932
1726225818191569200,3.422569091796875,-2.407489011752605,2.0999550944536924,-1.6128250729829072
1726225818201565000,3.43256494140625,-2.2604045996069906,1.5486363861888646,-1.82548641141057
1726225818211561000,3.44256103515625,-2.19003927000463,0.9234265122830867,-2.384091185030341
1726225818221556000,3.452555908203125,-2.1085294460535047,0.12044073536992073,-3.0855232978731393
1726225818231552000,3.462552001953125,-1.8211574422955512,-0.3731424077630043,-3.31756504407525
1726225818241548000,3.472548095703125,-1.4653756269171834,-0.42194589389860626,-3.3589065237671134
1726225818251544000,3.4825439453125,-1.2762547385528682,0.09012333851754664,-2.829585127776861
1726225818261539800,3.492539794921875,-1.2568003887593746,0.7475029591441154,-2.1443886949419975
1726225818271534800,3.502534912109375,-1.2110127433136104,1.2515116347014903,-1.5324924761176109
1726225818281531100,3.51253125,-1.3585624348834155,1.5132383250713348,-0.9274117825269699
1726225818291527000,3.52252685546875,-1.4440049221083522,1.3969143773704766,-0.6381891824662685
1726225818301523000,3.53252294921875,-1.5443701070465146,1.0513064577430487,-0.7002613154977559
1726225818311518000,3.54251806640625,-1.6439932414457201,0.5279425088524818,-0.6967126831054687
1726225818321514000,3.552513916015625,-1.6484665874674915,0.01177227085828781,-0.9618401218295097
1726225818331510000,3.562510009765625,-1.5343362042881548,-0.2275853513151407,-0.8332166645258665
1726225818341506000,3.572506103515625,-1.471212516377121,-0.25144144319891926,-0.3226011380493641
1726225818351501800,3.582501708984375,-1.2957158103480935,-0.16715864740312097,0.15092822809219358
1726225818361496800,3.592496826171875,-1.1633882378295064,0.21161153711378572,0.8825181633114815
1726225818371493000,3.6024931640625,-1.2466028198719024,0.6709463736861944,1.6154501607894896
1726225818381489200,3.6124892578125,-1.6583074518717824,0.8395610651165246,2.3960358898460865
1726225818391485000,3.62248486328125,-1.8822319425918161,0.5410211861342191,2.39082546172142
1726225818401480000,3.63247998046875,-2.1160021200217307,-0.03583352992534637,2.211082058033347
1726225818411476000,3.64247607421875,-2.1972155913747846,-0.48109074130654333,2.08147777299881
1726225818421472000,3.652471923828125,-2.1014101155675946,-0.7675625813543796,2.049147282758355
1726225818431468000,3.662468017578125,-1.690406033052504,-0.7741027967780828,2.211889867284894
1726225818441464000,3.672464111328125,-1.2491010664284228,-0.6610784751445055,2.3939602526158095
1726225818451458800,3.682458740234375,-0.6737002024389803,-0.6415782403826713,2.2448656696915625
1726225818461455000,3.692455078125,-0.27749577577933665,-0.6787871503144502,1.9955846193969249
1726225818471451100,3.702451171875,-0.054997810731083153,-0.8324456801533698,1.567419997113943
1726225818481447000,3.712447021484375,0.14838219687119125,-0.9699626380085945,1.0050988333195447
1726225818491442000,3.72244189453125,0.3385750983811915,-0.9826315654456614,0.5896060610830783
1726225818501438000,3.73243798828125,0.4919663555860519,-0.8832429704546928,0.2363905890613794
1726225818511434000,3.74243408203125,0.5588675162091851,-0.776542006623745,0.011409867286682128
1726225818521430000,3.752429931640625,0.44825463963150974,-0.7574252182215452,-0.17901392036974428
1726225818531426600,3.762426513671875,0.29130817416310306,-0.8518149820119142,-0.28907822315394877
1726225818541421600,3.772421630859375,0.04853066054359078,-0.8782990843117237,-0.12066168464422225
1726225818551417900,3.78241796875,-0.20292510344162581,-0.8802788599520921,0.1201192483305931
1726225818561414000,3.792413818359375,-0.08187383495792747,-0.7902566437214612,0.38536476047635077
1726225818571409700,3.80240966796875,0.4295500852920115,-0.9135691351354122,0.40862464003264903
1726225818581404700,3.81240478515625,1.01441435867548,-1.1289859097510575,0.3960650181889534
1726225818591401000,3.82240087890625,1.2896025881648063,-1.4137117829144,0.12954583284556864
1726225818601396700,3.832396728515625,1.2333083078823983,-1.598248850619793,-0.13355389944314955
1726225818611392800,3.842392822265625,0.8324993831019848,-1.64217508610785,-0.28995968216359613
1726225818621388800,3.852388916015625,0.4245477469600737,-1.50608553070724,-0.31881402072608467
1726225818631383600,3.862383544921875,0.3541138821661472,-1.5174854611217974,-0.5659270793318748
1726225818641379800,3.8723798828125,0.43707258975133295,-1.4217764314264059,-0.6140706402540207
1726225818651375900,3.8823759765625,0.5526888275742531,-1.3883511316865682,-0.6139964059740305
1726225818661371600,3.89237158203125,1.1797662489175795,-1.2713666742503642,-0.43122634794116016
1726225818671366700,3.90236669921875,2.036756003218889,-0.4595306514054536,0.17214286555647848
1726225818681363000,3.912363037109375,2.4181797709845005,0.8082967428028583,1.2085445996344089
1726225818691358700,3.922358642578125,1.7515712803721426,2.1229034238427875,2.220179556724429
1726225818701354800,3.932354736328125,0.5607447082579136,2.630022340375185,2.3798773667275905
1726225818711350800,3.942350830078125,-0.4793151099361479,1.9590590155541896,1.6609908457368612
1726225818721345500,3.952345458984375,-1.1378666969515383,0.5576788909465075,0.7464473126113415
1726225818731341800,3.962341796875,-1.3849499449409544,-0.35298517039716243,-0.4108306256443262
1726225818741337900,3.972337890625,-1.4066380451358853,-0.6706745710074902,-0.6912520796120166
1726225818751333600,3.982333740234375,-1.244422407092899,-0.40000001955032344,-0.5841530563741922
1726225818761328600,3.99232861328125,-1.053718779581785,0.015228548792004585,-0.06025485447645187
1726225818771324700,4.00232470703125,-0.7801333091139793,0.21724106743335722,0.48681028799712656
1726225818781320700,4.01232080078125,-0.5862707791805267,0.23379706543684003,0.7291653384208678
1726225818791316700,4.022316650390625,-0.42172903627753255,0.1351297704577446,0.7846791358500719
1726225818801311700,4.032311767578125,-0.21115721747502683,0.11722586497664451,0.8614221837908029
1726225818811307800,4.042307861328125,-0.04669043950438499,0.24531273118555544,0.9902274274021386
1726225818821303800,4.0523037109375,0.0308778802793473,0.3400485319346189,0.9411953932076692
1726225818831299800,4.0622998046875,0.038772359856218096,0.06633563569486141,0.6727338416248559
1726225818841295600,4.072295654296875,0.04647774660177528,-0.46095980742573733,0.25446108328104017
1726225818851290600,4.08229052734375,0.07402852828502654,-1.0949702429026364,-0.16910276720821857
1726225818861286700,4.09228662109375,0.09578443301916122,-1.5919827759623526,-0.49244040283858775
1726225818871282700,4.10228271484375,-0.003289762260392308,-1.813481500840187,-0.7389408825039863
1726225818881278700,4.11227880859375,-0.06876783127784729,-1.656768844127655,-0.8429577218174934
1726225818891273700,4.122273681640625,-0.1083564759530127,-1.3684002305477856,-0.7952244952619075
1726225818901269800,4.132269775390625,-0.025848800070956347,-1.2431734299451112,-0.9194903418779372
1726225818911265800,4.142265869140625,0.0469301665443927,-0.9747335056722164,-0.9325351168900727
1726225818921261800,4.15226171875,0.03844751181602478,-0.7208470074087381,-0.8642097686827183
1726225818931256800,4.1622568359375,-0.06018595395870507,-0.45404491347074505,-0.7251672086954116
1726225818941252600,4.172252685546875,-0.17023725113086402,-0.14372867197692393,-0.4921212538868189
1726225818951248600,4.18224853515625,-0.29961181906275447,0.22550912956297398,-0.19586393288373946
1726225818961245000,4.192244873046875,-0.41622985433936116,0.694589699602127,0.1293295597463846
1726225818971239700,4.20223974609375,-0.5819826535325497,1.028949664506316,0.3809603880375623
1726225818981235700,4.212235595703125,-0.532755389026925,1.2594973727583885,0.45416298689246176
1726225818991231700,4.222231689453125,-0.39781281170435245,1.1863538106143474,0.2565209384202957
1726225819001227800,4.232227783203125,-0.2566449301261455,0.8972428542345762,0.03688333123922348
1726225819011223800,4.242223876953125,-0.09488426930904388,0.8465835110992193,-0.1550274801045656
1726225819021218800,4.25221875,0.09344977952651679,0.8936258327811956,-0.23969722939133642
1726225819031214600,4.262214599609375,0.2312321103196591,0.8735703022241592,-0.14321779984533786
1726225819041210600,4.272210693359375,0.2471697572290897,0.6959183178573847,-0.07163724923431873
1726225819051207000,4.28220703125,0.27531689737029374,0.4667003969043493,0.005058452433347702
1726225819061202000,4.292201904296875,0.21068748107142746,0.15954115813672543,-0.10835574530065059
1726225819071197700,4.30219775390625,0.0943302156228572,-0.09101414987742901,-0.25623861434757705
1726225819081193700,4.31219384765625,0.05958491932563483,-0.23970073652267454,-0.3242132494211197
1726225819091189800,4.322189697265625,0.08272855209112166,-0.3387468016862869,-0.316769363155961
1726225819101184800,4.332184814453125,0.14067333952691405,-0.4683481641113758,-0.31261633512973785
1726225819111180800,4.342180908203125,0.21144136817865072,-0.5925421145349741,-0.3271569016575813
1726225819121176800,4.3521767578125,0.28153142450358715,-0.7187555880874394,-0.31095161678791045
1726225819131172600,4.362172607421875,0.37857612324953077,-0.7200105565845966,-0.24028116675913333
1726225819141169000,4.3721689453125,0.5503916565477848,-0.43389819749891756,-0.06461363420784473
1726225819151164000,4.382163818359375,0.75532736915946,-0.005997194588184356,0.16018822386860845
1726225819161159700,4.39215966796875,0.8279542139530182,0.354567471152544,0.2851666026681661
1726225819171155700,4.40215576171875,0.7010965972781181,0.45448213584423064,0.2962093902081251
1726225819181151700,4.41215185546875,0.49084641164541243,0.2876204255610704,0.24680209296047687
1726225819191146800,4.422146728515625,0.4294166681706905,0.10972177295684814,0.25852234137058255
1726225819201142800,4.432142822265625,0.48844870285391806,0.06360065777301788,0.3774813137501478
1726225819211138800,4.442138916015625,0.6083095925092696,0.1199362929791212,0.5173655852586031
1726225819221134600,4.452134521484375,0.7289116559207439,0.08168751860558986,0.5287877275049686
1726225819231129600,4.462129638671875,0.7268238167960196,-0.10202186610400676,0.4452665637314319
1726225819241126000,4.4721259765625,0.58812261759229,-0.19881869103610514,0.32231004614830017
1726225819251121700,4.48212158203125,0.4104593081139028,-0.1110258412927389,0.19125497778356074
1726225819261117700,4.49211767578125,0.3144739456951618,-0.010135025045275688,0.09817512754797934
1726225819271112700,4.50211279296875,0.3292097425341606,0.1549403863430023,0.0817120685249567
1726225819281108700,4.512108642578125,0.3528232578337192,0.2725122882783413,0.07527589799761772
1726225819291104800,4.522104736328125,0.2544341952741146,0.09488134669959544,-0.05216448700129986
1726225819301100800,4.532100830078125,0.1018459250152111,-0.17278759320080278,-0.2211409974813461
1726225819311095800,4.542095703125,-0.045563481301069256,-0.3600122925549745,-0.27890052801072596
1726225819321091600,4.552091552734375,-0.20791560520529745,-0.5029360778898,-0.23836159687340258
1726225819331088000,4.562087890625,-0.30045243460536003,-0.6269026492983102,-0.13306757723093032
1726225819341083600,4.572083740234375,-0.41648821301460265,-0.8007102331966162,-0.048536359632015226
1726225819351078700,4.58207861328125,-0.473837920634076,-0.8674094415068626,0.055581017446517944
1726225819361074700,4.59207470703125,-0.47730179735235867,-0.7696013937056064,0.23021803790628909
1726225819371071000,4.602071044921875,-0.42141449043564494,-0.41965924426615236,0.5853624321639538
1726225819381066800,4.612066650390625,-0.2941396712619811,0.031573534393310544,0.9194476717799901
1726225819391062800,4.622062744140625,-0.15732172852158546,0.3932534678995609,1.2317816828370094
1726225819401057800,4.632057861328125,-0.12295534853935242,0.8231254786223172,1.2886100699961185
1726225819411053600,4.642053466796875,-0.16842077629342675,1.061609825092554,1.2937369114905595
1726225819421049900,4.6520498046875,-0.22636779221892356,0.7731143702626228,1.2371364878684281
1726225819431046000,4.6620458984375,-0.21462131338901816,0.2682505391806364,1.1152928999632596
1726225819441040600,4.67204052734375,-0.041636736311391,-0.126563017642498,0.7476724704921245
1726225819451036700,4.68203662109375,0.23794008352570234,-0.472296024954319,0.352346287971735
1726225819461033000,4.692032958984375,0.40838425540551543,-0.7101724686592817,0.017831424766778944
1726225819471028700,4.70202880859375,0.48073294084481893,-0.8868214134633541,-0.2324216854304075
1726225819481023700,4.712023681640625,0.4708182074867189,-0.9517401680976152,-0.358519423648715
1726225819491019800,4.722019775390625,0.37339945126399393,-1.1030085879296063,-0.1980102972626686
1726225819501015600,4.732015625,0.21054843792691827,-1.1010931096971035,-0.11838555640578269
1726225819511011800,4.74201171875,0.018772651139646768,-0.9513315872967243,-0.02016834328174591
1726225819521006800,4.7520068359375,-0.12705065502896903,-0.8160393197536469,0.08793722665011883
1726225819531002000,4.762002197265625,-0.23211948761343953,-0.7528104179024696,0.18218202901184558
1726225819540998000,4.771997802734375,-0.403949049437046,-0.7223965749382972,0.2692033098608255
1726225819550994000,4.781993896484375,-0.46328751972094173,-0.7337912446558476,0.2353162378281355
1726225819560989000,4.791989013671875,-0.5183445132933556,-0.7655658545792102,0.21167700356543062
1726225819570985000,4.80198486328125,-0.5826806457340717,-0.7376379832118749,0.27384266009926794
1726225819580981000,4.81198095703125,-0.5478630148530006,-0.551679942792654,0.4752051903992891
1726225819590977000,4.82197705078125,-0.5042541747510433,-0.2833160063654184,0.6126029057890177
1726225819600972000,4.831971923828125,-0.3956311568163335,0.08539630999565125,0.7074924357950687
1726225819610968000,4.841968017578125,-0.1178361058294773,0.6167296303302049,0.9056289897859096
1726225819620964000,4.851964111328125,0.14574468797445297,1.0067623826175927,0.740213386657834
1726225819630959900,4.8619599609375,0.33792489084415134,1.0137000729262828,0.33504677812457084
1726225819640955000,4.871954833984375,0.4492144245743751,0.8175584921449423,-0.19516309113800526
1726225819650951000,4.881950927734375,0.6135282039403915,0.6378858156055212,-0.6480190870851278
1726225819660947200,4.891947265625,0.6830945651847868,0.6080541564434766,-1.0225450581610203
1726225819670943000,4.90194287109375,0.728480205700919,0.7093833641082048,-1.3463824600070715
1726225819680938000,4.91193798828125,0.7759410450559109,0.8265168746262789,-1.5551467909961938
1726225819690934000,4.92193408203125,0.711870431683585,0.7657581622809171,-1.7659855901718138
1726225819700930000,4.931929931640625,0.6709655898433178,0.5988824234724044,-2.0860808828800916
1726225819710926000,4.941926025390625,0.6532138061840087,0.6364338632315397,-2.3412679423481224
1726225819720922000,4.951922119140625,0.6672305680334568,0.9199491915613413,-2.4704227300494908
1726225819730916900,4.961916748046875,0.7411433609843253,1.2975117538541554,-2.3140333139419553
1726225819740913000,4.971912841796875,0.8747311626970767,1.625026382908225,-1.854440703216195
1726225819750909200,4.9819091796875,1.0163269873637706,2.000936501818895,-1.2953729882597922
1726225819760905000,4.991905029296875,1.1419605421364307,1.9957611450076103,-0.8495803548276424
1726225819770900000,5.00189990234375,1.2245360225576907,1.4149562300175427,-0.7468290054053067
1726225819780896000,5.01189599609375,1.4137924469351768,0.48793607715666293,-0.6912935806661844
1726225819790891800,5.021891845703125,1.7489549603939056,-0.19413959330916403,-0.4284545451402664
1726225819800888000,5.03188818359375,2.0916905394554135,-0.40962008081078527,-0.09772563021481037
1726225819810883000,5.041883056640625,2.255210538095236,-0.5839852985918521,-0.005965045884251594
1726225819820879000,5.051879150390625,2.1902304086625577,-0.6997106958776712,-0.03804652979969978
1726225819830875000,5.061875,2.0830068822622296,-0.6660486647725105,-0.032930794221162796
1726225819840871200,5.07187109375,1.8929262089550494,-0.33463585923612116,0.29895664308965203
1726225819850866200,5.0818662109375,1.5855694017887114,0.08013152133524418,0.6323761122733355
1726225819860862000,5.091862060546875,1.09174419352822,0.2729091786414385,0.8020353443205356
1726225819870858000,5.10185791015625,0.5914892444811761,0.27810966989398,0.8858300643384456
1726225819880854000,5.11185400390625,0.15762684894800186,0.1734627159833908,0.9980693730741739
1726225819890849000,5.12184912109375,-0.16532149510383606,-0.20941022767722606,1.0112129322856664
1726225819900845000,5.131844970703125,-0.41311559477634724,-0.685559420928359,0.9964555081367492
1726225819910841000,5.141841064453125,-0.6251379046481103,-1.070024602216482,1.0772288345068692
1726225819920836900,5.1518369140625,-0.739756948127225,-1.2239280467271805,1.1239894166380167
1726225819930832000,5.161831787109375,-0.8832499116521328,-1.1919821718901396,1.2095973235577344
1726225819940828200,5.171828125,-0.9413993182819336,-1.1508680712133645,1.236608664602041
1726225819950824000,5.181823974609375,-0.8564438108563422,-1.113958436489105,1.1916443182379006
1726225819960820000,5.191820068359375,-0.5854466033160686,-1.1685814225584268,1.0288912123173475
1726225819970815000,5.20181494140625,-0.13097849599719047,-1.365941731479764,0.8305553363621234
1726225819980811000,5.21181103515625,0.2826256860136986,-1.1856623212188482,0.6723112322986126
1726225819990807000,5.22180712890625,0.524387446719408,-0.9116191701114177,0.16671733337640762
1726225820000803000,5.231802978515625,0.7910090695239603,-0.8032423820227385,-0.6251327170163392
1726225820010798000,5.241798095703125,1.1963351064026355,-0.7675175731688737,-1.445899649813771
1726225820020793900,5.2517939453125,1.7078702319420873,-0.6600742665380239,-2.081295986691117
1726225820030790100,5.2617900390625,2.170077409080416,-0.31186054832637305,-2.2381033359497784
1726225820040786000,5.271785888671875,2.356109683779627,0.27351123618781564,-2.1269453927099704
1726225820050781000,5.281781005859375,2.138612595758587,0.9685755675643682,-1.9001649280369282
1726225820060777000,5.29177685546875,1.6401801128983498,1.7080033568024635,-1.5505577096402645
1726225820070773000,5.30177294921875,1.1089863471649586,2.2083219456702468,-1.208175181800127
1726225820080769000,5.31176904296875,0.6891245660640299,2.5072704054534434,-0.9519874208569526
1726225820090764000,5.321763916015625,0.3114110509932041,2.470036361080408,-0.8165285645753144
1726225820100760000,5.331760009765625,-0.04001870665550232,2.064502088278532,-0.8647329157739877
1726225820110755800,5.341755859375,-0.2237001804448664,1.5469184763550758,-1.025247887378931
1726225820120752000,5.351752197265625,-0.25126725567579267,1.190970364499092,-0.9631745853036642
1726225820130747100,5.3617470703125,-0.14659312149733303,1.2907014893174171,-0.6007242519468069
1726225820140743000,5.371742919921875,0.05821954925656318,1.5870499957352875,-0.10716565873324871
1726225820150739000,5.381739013671875,0.29370573682412504,1.8625901074022053,0.08281213872134685
1726225820160735000,5.39173486328125,0.4700187276721,1.6895207746505736,0.10352058022916316
1726225820170730200,5.401730224609375,0.5144679641209542,1.1577502319425343,-0.11311433800458907
1726225820180726000,5.41172607421875,0.530801113153994,0.6237275263935327,-0.38054771558344364
1726225820190722000,5.42172216796875,0.6367674791000784,0.30452070695757866,-0.5834674121975898
1726225820200717800,5.4317177734375,0.83439900617823,0.042697570475935934,-0.6233364812493324
1726225820210712800,5.441712890625,1.0656742980524896,-0.18895780675709248,-0.7002963868111372
1726225820220709000,5.451709228515625,1.24535778824687,-0.38215456625819205,-0.7172083586454391
1726225820230705000,5.461704833984375,1.2289045199654995,-0.5568523769944906,-0.7683686370402574
1726225820240701000,5.471700927734375,1.0239397273898123,-0.7007751102387905,-0.8973334551274776
1726225820250696000,5.481696044921875,0.677879387819767,-0.7966974904239177,-1.0475468129485845
1726225820260692200,5.491692138671875,0.4464107653304934,-0.7317915952712297,-1.1272867046177386
1726225820270688000,5.50168798828125,0.34835166537761686,-0.538209051322937,-1.0731202301442622
1726225820280684000,5.51168408203125,0.4052161467634141,-0.3502946161389351,-1.1805080071955918
1726225820290679000,5.521678955078125,0.3988040877640247,-0.16702070023715496,-1.3659066601663827
1726225820300674800,5.5316748046875,0.3814243522875011,-0.09734569098651409,-1.5294488706380127
1726225820310671000,5.541671142578125,0.2904948119536042,-0.10111293456554413,-1.642419416257739
1726225820320667100,5.551667236328125,0.15876695889383555,-0.12587795798778534,-1.78108086797297
1726225820330662000,5.561661865234375,0.07734583613947034,-0.02126373730301857,-1.8479963493824003
1726225820340658000,5.571657958984375,0.19818799191713332,0.23055881416797636,-1.7775807508975265
1726225820350654000,5.581654052734375,0.44252895546108484,0.5708084216326474,-1.429461725232005
1726225820360650000,5.59164990234375,0.6416136039569974,0.732193746331334,-1.0789233634650706
1726225820370645000,5.60164501953125,0.6719254478514194,0.6649135232627391,-0.8225736899584531
1726225820380641000,5.61164111328125,0.5270397147938609,0.5245137034475803,-0.6600432868778705
1726225820390636800,5.62163671875,0.44963981037959455,0.4105459634840488,-0.3639449558287859
1726225820400633000,5.631633056640625,0.36249943319559097,0.40878713711798187,0.1485053848594427
1726225820410628000,5.641628173828125,0.32573680572658775,0.4958306297987699,0.5277157143592834
1726225820420624100,5.6516240234375,0.3731953069940209,0.6096434714615344,0.8244652027934789
1726225820430620000,5.661619873046875,0.6378183033272624,0.911491744339466,1.074810667449236
1726225820440616000,5.671615966796875,0.9775190447375178,1.2691256173253058,1.1945686812520027
1726225820450611200,5.681611083984375,1.3202291970968245,1.4402245267868041,1.1858242337822913
1726225820460607000,5.69160693359375,1.4690017084598541,1.293338852083683,0.9707552496910095
1726225820470603000,5.70160302734375,1.54321786827147,1.2637509385496377,0.6465554442733525
1726225820480599000,5.71159912109375,1.659569873023033,1.532676600512862,0.515241432711482
1726225820490593800,5.72159375,1.8389710391446947,2.182161668497324,0.5909937160491943
1726225820500590000,5.731590087890625,2.015535812796652,2.740184258314967,0.796100109052658
1726225820510586000,5.741586181640625,1.927860451953113,2.828305609360337,0.5900035359680652
1726225820520582000,5.751581787109375,1.463304373601079,2.2640338960200546,-0.14907295561432837
1726225820530577200,5.7615771484375,0.9159200821757316,1.459544144284725,-0.8242910152703523
1726225820540573400,5.771573486328125,0.555579580579698,0.9958078578829764,-0.9842857623934745
1726225820550569200,5.7815693359375,0.35138065780997274,0.7348539054512977,-0.6886258227616548
1726225820560565200,5.791565185546875,0.25738983020931483,0.5604372497439384,-0.3357534650892019
1726225820570560300,5.801560302734375,0.0973147113263607,0.20908698707222936,-0.24336510424911975
1726225820580556000,5.81155615234375,-0.18312018664479254,-0.2529389882802963,-0.38740532639324665
1726225820590552300,5.82155224609375,-0.5417910014629364,-0.5909831946551799,-0.6894821473300456
1726225820600548400,5.83154833984375,-0.8320087500408291,-0.7428682850807905,-0.9592325696796178
1726225820610543400,5.84154345703125,-1.0873106680601834,-0.880099996253848,-1.1332716242462395
1726225820620539100,5.8515390625,-1.1973062895223499,-1.0356775114566088,-1.2574708353668451
1726225820630535400,5.861535400390625,-1.284099606834352,-1.2035352470397949,-1.2770195854455233
1726225820640531200,5.87153125,-1.3709502072915434,-1.420610310256481,-1.3223258771151303
1726225820650526200,5.881526123046875,-1.4116048737630247,-1.5991197882354258,-1.2692530430972575
1726225820660522200,5.891522216796875,-1.4613877263247965,-1.7094260830819605,-1.0750187572419643
1726225820670518300,5.901518310546875,-1.4704358329162002,-1.7580992208361625,-0.8477624917507172
1726225820680514300,5.911514404296875,-1.4023235429376364,-1.7891291498720645,-0.6047913552552461
1726225820690509300,5.92150927734375,-1.1787652551814913,-1.621505223044753,-0.24168986451327798
1726225820700505300,5.93150537109375,-0.8536267076089977,-1.4125567676603794,-0.029182839864492414
1726225820710501000,5.941501220703125,-0.37520781586021185,-1.257049395084381,0.12439034977853297
1726225820720496000,5.95149609375,0.2783493238687515,-1.112172137594223,0.38907179830074307
1726225820730492400,5.961492431640625,0.8753270827636123,-0.7423866390436887,0.7605892352104187
1726225820740488200,5.97148828125,1.45896634439677,-0.41843817803859706,0.6855763720631599
1726225820750484200,5.981484130859375,1.9384478969410062,-0.10604571479260921,0.6647066025137901
1726225820760479200,5.991479248046875,2.2317729638844725,0.09296353037953377,0.6232376970499753
1726225820770475300,6.001475341796875,2.231123560065031,0.17822189320921897,0.5731313116222619
1726225820780471300,6.01147119140625,1.8144339792594313,0.11795417925119399,0.33832126975059507
1726225820790467300,6.02146728515625,1.2707830291435123,0.1380798524349928,0.1827349867194891
1726225820800462300,6.03146240234375,0.8316995379611849,0.08376140227019786,0.036307577177882196
1726225820810458000,6.0414580078125,0.4576750866666436,0.1785088934570551,0.15962825189828872
1726225820820454400,6.051454345703125,0.15520722058564423,0.38629005862772464,0.31934593564569946
1726225820830450200,6.0614501953125,-0.22126345481723544,0.409631771248579,0.2593184601843357
1726225820840445200,6.071445068359375,-0.6789657217517495,0.46265550542771816,0.02004851629436016
1726225820850441200,6.081441162109375,-1.0800748715877533,0.5130886385917663,-0.01768003359735012
1726225820860437200,6.091437255859375,-1.534379605038464,0.5747638812601567,-0.031681086421012875
1726225820870433300,6.101433349609375,-1.7843845856934786,0.6888146233320236,-0.07778700403571129
1726225820880428300,6.11142822265625,-1.9395742706224322,0.813785987868905,-0.33902971028089524
1726225820890424300,6.12142431640625,-1.954750212444365,0.9726280578255653,-0.5816314289420843
1726225820900420000,6.131420166015625,-1.8661413701429963,1.1418909840315579,-0.6577613134205341
1726225820910416400,6.14141650390625,-1.6849182492911814,1.2850737125635145,-0.6009709201842546
1726225820920411400,6.151411376953125,-1.5238564574584363,1.4713117389678954,-0.3423907111465931
1726225820930407200,6.1614072265625,-1.375141813762486,1.6257260556101798,0.1628928066521883
1726225820940403200,6.1714033203125,-1.3609466996714472,1.4809785619795321,0.4095540298372507
1726225820950399200,6.181399169921875,-1.2945394600450992,0.9554214869588613,0.273961902564764
1726225820960394200,6.191394287109375,-1.0974965465098618,0.5551157624602318,0.164987733104825
1726225820970390300,6.201390380859375,-0.7758417493999004,0.4682739298313856,0.4190045797497034
1726225820980386300,6.21138623046875,-0.40267128458619117,0.31692016980350013,1.1231915442585945
1726225820990382000,6.221382080078125,0.013939385764300823,-0.1375216340303421,1.3995610924869775
1726225821000377000,6.231377197265625,0.5263897264525293,-0.8582388775795697,1.7086153512209652
1726225821010373400,6.241373291015625,1.4368822306215763,-1.6748901917517185,2.203876072177291
1726225821020369400,6.251369384765625,2.7259362449929117,-2.0702380015820263,2.572690095347166
1726225821030365200,6.261365234375,3.7017861874744296,-2.1396400391101835,2.9633687443226573
1726225821040360200,6.271360107421875,3.748994221112132,-2.060715555477142,2.8711791209250688
1726225821050356200,6.281356201171875,2.5533058881804345,-2.0995839230537414,2.4759493845164773
1726225821060352300,6.291352294921875,1.2783423584818838,-2.029669259828329,1.9383207634299993
1726225821070348300,6.301348388671875,0.4092044857472181,-1.940928315579891,1.3391051624804735
1726225821080343300,6.31134326171875,-0.16213906567543743,-1.8662158966839313,0.7642547719806432
1726225821090339000,6.321339111328125,-0.47472412888407706,-1.7908540739685297,0.3997884226262569
1726225821100335400,6.33133544921875,-0.7817235009148716,-1.7956980068683623,0.16933131526708603
1726225821110331400,6.341331298828125,-1.193303483621776,-1.9722522591263054,-0.15390227546691893
1726225821120326400,6.351326416015625,-1.6360989810645579,-2.1876643575668333,-0.5743623147219419
1726225821130322200,6.361322265625,-1.94155521530658,-2.280370698314905,-1.0864514208823441
1726225821140318200,6.371318115234375,-1.9764692922994493,-2.2682973986834285,-1.5027946724683046
1726225821150314200,6.381314208984375,-1.8066230132475494,-2.03203540443778,-1.7011194425076246
1726225821160309200,6.391309326171875,-1.6377318429633974,-1.7921143031626938,-1.8879004897475242
1726225821170305300,6.40130517578125,-1.5020876932427287,-1.5565701017975806,-2.1407430319160223
1726225821180301300,6.41130126953125,-1.3318962540149688,-1.186593464589119,-2.3392297145187855
1726225821190297300,6.42129736328125,-1.132183829009533,-0.7112742924213409,-2.446111880135536
1726225821200292400,6.431292236328125,-0.9282005948171019,-0.15354513259232044,-2.4145535433113574
1726225821210288400,6.441288330078125,-0.7237722472056746,0.4584615608692169,-2.371660742524266
1726225821220284200,6.4512841796875,-0.5658998990640044,1.1382739625781775,-2.2989117326557635
1726225821230280200,6.4612802734375,-0.4949845343634486,1.6485668329715728,-2.2628221821427346
1726225821240275200,6.471275146484375,-0.34823023095503447,1.9789409431099891,-2.2628964164227248
1726225821250271200,6.481271240234375,-0.14746552041769026,2.3986627312183377,-2.16834941624403
1726225821260267300,6.491267333984375,-0.0026665888607501982,2.770716174700856,-2.0080846200078724
1726225821270262300,6.50126220703125,0.10195303865149617,2.987538139939308,-1.9469395386934278
1726225821280258300,6.51125830078125,0.10293518155664205,3.094421474599838,-1.8902298094779253
1726225821290254300,6.52125439453125,0.07986892487630248,3.1883313459187743,-1.7829881628990172
1726225821300250400,6.53125048828125,0.1265223933711648,3.2410254097521305,-1.8046517131745814
1726225821310245400,6.541245361328125,0.1392189394675195,3.160025288888812,-1.820391134098172
1726225821320241200,6.5512412109375,0.24972192592993378,2.9056127209246156,-1.8441928654462099
1726225821330237200,6.5612373046875,0.4846260758258402,2.518397364145517,-1.870447835165262
1726225821340233200,6.571233154296875,0.6731913761340081,2.1017776337057352,-1.7299281883627176
1726225821350228200,6.581228271484375,0.7855085724115372,1.8797288737297058,-1.304375794404745
1726225821360224300,6.591224365234375,0.8140120517097413,1.8509797491073607,-0.595709054133296
1726225821370220300,6.60122021484375,0.8148470412291586,1.9030384376466274,0.10705226148664951
1726225821380216300,6.61121630859375,0.8275896184243261,1.6919097156137226,0.6959422832548617
1726225821390211300,6.62121142578125,0.6915418563388288,1.1640116304248571,1.1406389381438493
1726225821400207400,6.631207275390625,0.5392296265423298,0.4803390461564064,1.37307348305583
1726225821410203100,6.641203125,0.5058090029776096,-0.06864332811534404,1.720246167781949
1726225821420199200,6.65119921875,0.5552361739695072,-0.589604892039299,1.8188129249960183
1726225821430194200,6.661194091796875,0.7667489268839359,-1.0651572884410618,1.8577520197212696
1726225821440190200,6.671190185546875,1.064736944137141,-1.515106457030773,2.117326500493288
1726225821450186200,6.681186279296875,1.476426305502653,-1.937392542669177,2.2017519196301696
1726225821460182300,6.691182373046875,1.9473779301106928,-2.173288041689992,2.3347815029382706
1726225821470177300,6.70117724609375,2.4159236626207825,-2.345896186670661,2.252934994378686
1726225821480173300,6.71117333984375,2.782221319055557,-2.3502578890115022,1.9304624511450528
1726225821490169300,6.72116943359375,2.9733097081005573,-1.9655396097451447,1.274231416031718
1726225821500165000,6.7311650390625,2.901833202385902,-1.389470491105318,0.30552316199839114
1726225821510160100,6.74116015625,2.7845979850590226,-0.9130535868287086,-0.5738894365131855
1726225821520156200,6.75115625,2.6235610354065892,-0.4860258596211672,-1.2984984268039463
1726225821530152400,6.76115234375,2.3664357013523576,0.03183773828744888,-1.6690075634539125
1726225821540147200,6.771147216796875,2.110275997459888,0.6662059011608362,-1.8223977977454662
1726225821550143200,6.781143310546875,1.882451576691866,1.283416593006253,-1.698707120668888
1726225821560139500,6.791139404296875,1.5538649344921112,1.7270096705675124,-1.5048159491628408
1726225821570135300,6.80113525390625,1.167469004337117,1.8491238921076059,-1.7136124288558958
1726225821580130300,6.81113037109375,0.7999848415315151,1.8114105397850273,-2.092432297733426
1726225821590126300,6.821126220703125,0.6168750301502645,1.8073299924731254,-2.170413947558403
1726225821600122400,6.831122314453125,0.41873160802721976,1.7707295698285102,-2.1480179913550614
1726225821610118400,6.841118408203125,0.38344270637258887,1.744013996860385,-2.204121571370959
1726225821620113400,6.851113525390625,0.2754325596392155,1.6467641674637794,-2.1561118659615515
1726225821630109200,6.861109130859375,0.10574936219453811,1.5802707108587026,-2.114735899478197
1726225821640105200,6.871105224609375,-0.04669643085375428,1.5314759925514458,-2.0157932946890593
1726225821650101500,6.8811015625,-0.26697452789545056,1.5380454340696335,-1.8530840279102325
1726225821660096500,6.891096435546875,-0.4823894028149545,1.529651699733734,-1.7226275099605322
1726225821670092300,6.90109228515625,-0.7105657057605683,1.5605506958663462,-1.4969512071371078
1726225821680088300,6.91108837890625,-1.0074209926567972,1.6410738468676804,-1.1572487121611832
1726225821690084000,6.921083984375,-1.217995003416389,1.7876742748886345,-0.8283768232792615
1726225821700079400,6.931079345703125,-1.3416110078215597,1.9008149163782595,-0.5921908168792724
1726225821710075400,6.941075439453125,-1.444396844035387,1.9133651858717202,-0.4105553158342838
1726225821720071400,6.951071533203125,-1.5913025386132298,1.8577438364148138,-0.17164836003780365
1726225821730067200,6.961067138671875,-1.5518531562782822,1.7960580723524093,0.024077041158080098
1726225821740062200,6.971062255859375,-1.3207355391837656,1.6779396424502133,0.226810859811306
1726225821750058500,6.98105859375,-0.9890661285378038,1.47231010235548,0.3433861519247293
1726225821760054300,6.99105419921875,-0.7155690670058131,1.0415373434007167,0.30633214029371736
1726225821770050300,7.00105029296875,-0.4640998590171337,0.6986047804623842,0.21493980475366115
1726225821780045300,7.01104541015625,-0.14254282319322228,0.5613870978146791,0.07977963915765285
1726225821790041300,7.021041259765625,0.337737624643743,0.46384091582000253,0.07441022107899188
1726225821800037400,7.031037353515625,0.7924027158394455,0.501916087192297,0.07100596559345722
1726225821810032400,7.041032470703125,1.0487012436807155,0.5261053565531969,-0.052629766425490374
1726225821820028400,7.0510283203125,1.0266790892258286,0.535620203873515,-0.21006547671556472
1726225821830024200,7.061024169921875,0.9355468659266829,0.6768973910450935,-0.331441447108984
1726225821840020500,7.0710205078125,0.8200818731427192,0.6934001975566149,-0.45630350605249403
1726225821850015500,7.081015380859375,0.5672834623768925,0.38538171161115164,-0.9746493345201015
1726225821860011300,7.09101123046875,0.14909633648991583,-0.018444003707170486,-1.314323772445321
1726225821870007300,7.10100732421875,-0.23660160146355627,-0.3799836519598961,-1.593343542921543
1726225821880003300,7.11100341796875,-0.654941579824686,-0.6786544638454913,-1.7485872961252926
1726225821889998300,7.120998291015625,-0.9222934165999292,-1.0355360571593046,-1.8633932404786346
1726225821899994400,7.130994384765625,-1.0673799329265952,-1.3088970712214707,-1.9806477470278738
1726225821909990400,7.140990478515625,-1.0554302596747875,-1.3417594763815401,-2.0041051949828863
1726225821919986200,7.150986083984375,-0.9739145905047655,-1.2168114927202462,-2.0098095441043378
1726225821929981200,7.160981201171875,-0.9418769457310437,-0.9142945268005133,-1.8066420102089642
1726225821939977500,7.1709775390625,-0.9471662843108176,-0.5101701207965612,-1.4441519293636083
1726225821949973200,7.18097314453125,-1.0216393414929508,-0.3485410504698753,-1.1231892061710358
1726225821959969300,7.19096923828125,-1.2381801517024635,-0.2867033107161522,-0.9144804047614336
1726225821969964300,7.20096435546875,-1.3922855485260486,-0.14497428812384605,-0.5679758285552263
1726225821979960300,7.210960205078125,-1.2967524599194526,0.374826999849081,-0.0729109224319458
1726225821989956400,7.220956298828125,-1.1088026611611246,1.0208926147788762,0.6916121450960636
1726225821999952400,7.230952392578125,-1.245548342382908,1.1407336306899785,1.3676701627075671
1726225822009947400,7.240947509765625,-1.1751859353899956,1.1537328129947184,1.708089866042137
1726225822019943200,7.250943115234375,-1.2174100431352852,0.9608201311320066,2.0011305630862712
1726225822029939500,7.260939453125,-1.4654066065773368,0.5173457115143537,2.2397534412443636
1726225822039934500,7.2709345703125,-1.5136454445675014,0.2666600551187992,2.4443992309987546
1726225822049930200,7.28093017578125,-1.3877783002346753,0.06265197874605655,2.6773312040388584
1726225822059926300,7.29092626953125,-1.0931959267064928,-0.10743687689006327,2.7944220444589853
1726225822069922600,7.300922607421875,-0.5415408260941506,-0.2058306156247854,2.7628233756244183
1726225822079917300,7.310917236328125,-0.08251198673099279,-0.3126742027968168,2.771514047080278
1726225822089913300,7.320913330078125,0.2754579863414168,-0.4557692530453205,2.6783921112686393
1726225822099909400,7.330909423828125,0.6116147715345025,-0.6090653793126344,2.290491694834828
1726225822109905200,7.3409052734375,0.9108239280804992,-0.7921504946440457,1.7472218529909849
1726225822119900200,7.350900146484375,1.173450782160461,-1.0702227551370858,1.3737848461955784
1726225822129896400,7.360896484375,1.314972884003818,-1.340885031634569,1.1595239636167882
1726225822139892200,7.370892333984375,1.3553472722291946,-1.4843068296194075,0.9837342659905552
1726225822149888300,7.38088818359375,1.2887865956068039,-1.6340724436730145,0.7275634561821818
1726225822159883300,7.39088330078125,1.1998230946488677,-1.4956114829659461,0.7424369079262018
1726225822169879600,7.400879638671875,1.0080687890410422,-1.2214812380969524,0.8594473765864967
1726225822179875300,7.410875244140625,0.7393789816603064,-1.0862661274433136,0.9395175231233238
1726225822189871400,7.420871337890625,0.47648324751108884,-0.9519003270953893,1.1238584837347267
1726225822199866400,7.430866455078125,0.3416618123501539,-0.6676613606661558,1.26823217561692
1726225822209862100,7.440862060546875,0.43421939227730033,-0.21691431969702243,1.34474404515028
1726225822219858400,7.4508583984375,0.5132838689029217,0.1840320407927036,1.304476624430716
1726225822229854500,7.4608544921875,0.4133054913252592,0.4052922807395458,1.0723515838593245
1726225822239849200,7.47084912109375,0.2717076938971877,0.3263642899751663,0.7316469261035323
1726225822249845200,7.48084521484375,0.06774374892711639,0.01859013417959213,0.4114753532886505
1726225822259841500,7.490841552734375,-0.14204641797840595,-0.22594050671756266,0.21514731002449988
1726225822269836500,7.50083642578125,-0.2181564287126064,-0.33349545702934263,0.03753302731961012
1726225822279832300,7.510832275390625,-0.10458616363406181,-0.3749105864793062,-0.17853227433264254
1726225822289828400,7.520828369140625,-0.0002592354580760002,-0.3386556162714958,-0.34018618683964014
1726225822299824000,7.53082421875,0.09549567920565605,-0.2305401094675064,-0.3903150763601064
1726225822309819100,7.540819091796875,0.12641688717007638,-0.08157879753410816,-0.3723620710402727
1726225822319815400,7.5508154296875,-0.05162117390483618,-0.049772038906812664,-0.3906488383591175
1726225822329811500,7.5608115234375,-0.3956429933845997,-0.2685620893478393,-0.5467670363098383
1726225822339807200,7.57080712890625,-0.7064671844005584,-0.6689794575273991,-0.7883315208777785
1726225822349802200,7.58080224609375,-0.9008958237841724,-1.206280161833763,-1.1347460807129741
1726225822359798500,7.590798583984375,-1.0136749384850263,-1.7844091356128453,-1.392980252791941
1726225822369794300,7.600794189453125,-1.0700260635212062,-2.292519401270151,-1.5324331471458077
1726225822379790300,7.610790283203125,-0.9863593537971377,-2.449407414549589,-1.5689128660202025
1726225822389785300,7.620785400390625,-0.6294552563905715,-1.9237503862857817,-1.3866919663026929
1726225822399781000,7.630781005859375,-0.06789280200898647,-0.7758341506153345,-0.6161950850620865
1726225822409777400,7.64077734375,0.2713929288595915,0.4317337129414081,0.4119102375745773
1726225822419773400,7.6507734375,0.21902385919690132,1.3362053493857382,0.9843556127592921
1726225822429768400,7.6607685546875,-0.31219781745672226,1.8555904577732085,1.4016136411026119
1726225822439764200,7.67076416015625,-1.0531564695239066,1.7640987535119055,1.7697133785232901
1726225822449760500,7.680760498046875,-1.6504866951182484,1.3897989924073217,2.0065198549091816
1726225822459755500,7.690755615234375,-1.9951956200793384,1.0449135418355464,2.1730118550971147
1726225822469751300,7.700751220703125,-1.9586320223137734,0.7154366727977991,2.280019985181093
1726225822479747300,7.710747314453125,-1.6930875272214412,0.4810568390369415,2.3887989243298766
1726225822489743400,7.720743408203125,-1.3248904669061303,0.4949596921831369,2.4540239684343335
1726225822499738400,7.73073828125,-0.7253136314287781,0.682808660915494,2.704070157882571
1726225822509734400,7.740734375,-0.17735007881075143,0.689276395624876,2.6880074963539835
1726225822519730400,7.75073046875,0.20589067524895072,0.26780513350069524,2.1985721205502746
1726225822529726000,7.760725830078125,0.4963260121002793,-0.3745049282878637,1.5195482388705015
1726225822539721000,7.770720947265625,1.0029542225062846,-0.48141573547720906,0.9387047454357147
1726225822549717200,7.78071728515625,1.7968708500400186,0.020462357792258263,0.8602753518432378
1726225822559713000,7.790713134765625,2.5865479403078555,0.5883107605755329,1.1771166111916302
1726225822569709000,7.800708984375,2.7464684531509875,0.7412567582309245,1.141853574630618
1726225822579704000,7.8107041015625,2.101871741729975,0.26205752975940705,0.46179508920609946
1726225822589700000,7.8207001953125,1.303050098758936,-0.4046516447484493,-0.3709241471916437
1726225822599696100,7.830696044921875,0.7666337760716676,-0.7539040583580732,-0.9103232850819826
1726225822609692200,7.840692138671875,0.5315688826560974,-0.8114806335359811,-1.0625824695169925
1726225822619687200,7.850687255859375,0.3552805878579616,-0.799818837314844,-0.9473831419318914
1726225822629683000,7.860682861328125,0.14633593186587093,-0.8575129013925791,-1.026715621843934
1726225822639679200,7.87067919921875,-0.018740648566186426,-0.9505261161327362,-1.2270306889176368
1726225822649674200,7.88067431640625,-0.2003644591733813,-1.029162430474162,-1.4247680144578219
1726225822659670000,7.890669921875,0.23746435577273367,-1.0319032536149024,-1.6303326726227998
1726225822669666000,7.900666015625,1.5028757748804986,-0.8193295934706926,-2.068500218003988
1726225822679662300,7.910662353515625,2.3962758360818026,-0.5413701457023621,-2.9440128864675756
1726225822689657000,7.920656982421875,1.8074959966897963,-0.7602233245074749,-3.296692351916432
1726225822699653000,7.930653076171875,0.8356114507079124,-1.036903838381171,-2.896753707164526
1726225822709649200,7.940649169921875,0.18295871247276663,-1.1485609633147715,-2.5040736552387473
1726225822719645000,7.95064501953125,-0.01818696020618081,-0.7569809815853834,-2.176768285021186
1726225822729640200,7.96064013671875,0.2834051459535956,0.1536082609564066,-1.9777116935759782
1726225822739636200,7.97063623046875,0.7537456529259682,0.9338485375761986,-1.7263906618863343
1726225822749632000,7.980632080078125,1.2390695017576216,1.639355352512002,-1.3478162922024726
1726225822759628000,7.9906279296875,1.704924972270429,2.027405406549573,-0.8819540996879339
1726225822769623000,8.000623046875,1.8763114665016531,1.970630795404315,-0.7250380293577909
1726225822779619300,8.010619384765626,1.9288015321955083,1.7499252667307852,-0.6650988167017697
1726225822789615000,8.020614990234375,1.8909525707945227,1.8683254361838102,-0.6409960565805435
1726225822799611100,8.030611083984375,1.8973884490609167,1.8009826692730186,-0.6310363881021738
1726225822809606100,8.040606201171874,1.854591802124679,1.6489759982943535,-0.7036556341111659
1726225822819602000,8.050601806640625,1.5390347373679278,1.4878162990450858,-1.0109218403846025
1726225822829598200,8.06059814453125,1.1249942097663879,1.695374176853895,-1.047885251122713
1726225822839593200,8.07059326171875,0.7805787147939205,2.085986774855852,-0.818109111765027
1726225822849589000,8.080589111328125,0.5461804685935377,2.313047225514054,-0.6163561208426952
1726225822859585000,8.0905849609375,0.3955345645740628,2.335794479373097,-0.500274749726057
1726225822869581300,8.100581298828125,0.1394713067933917,1.967538674607873,-0.4228413814336061
1726225822879576300,8.110576416015626,-0.2606377260893583,1.4351561374813318,-0.3989449575394392
1726225822889572000,8.120572021484374,-0.7833785746455192,0.9481453584760426,-0.3018985417604446
1726225822899568000,8.130568115234375,-1.1877438036680221,0.7272101126998662,-0.1359101071804762
1726225822909564000,8.14056396484375,-1.3950672881990671,0.5485603494673967,0.07908639619648457
1726225822919559200,8.15055908203125,-1.4865449639350174,0.2579717217504978,0.1737678364098072
1726225822929555200,8.16055517578125,-1.5224179490879177,-0.19004209486246107,0.1983633484840393
1726225822939551200,8.17055126953125,-1.418121854441613,-0.5164484704136848,0.2623164729565382
1726225822949547000,8.180547119140625,-1.285826284496486,-0.6807920603960752,0.3579834170758724
1726225822959542000,8.1905419921875,-1.1811582877978681,-0.7609943088799714,0.4029524396151304
1726225822969538300,8.200538330078125,-0.9896993118748069,-0.8341957386910915,0.41797699026763435
1726225822979534000,8.2105341796875,-0.731048667949438,-0.9718611651062965,0.42434477173388
1726225822989529000,8.220529052734374,-0.4872521865457296,-1.1570751091599463,0.3917033158481121
1726225822999525000,8.230525146484375,-0.20300854394137857,-1.3035510340183973,0.18638474139869213
1726225823009521200,8.240521240234376,0.03008797201067209,-1.4647206701397895,-0.105824180996418
1726225823019517200,8.25051708984375,0.2626142868593335,-1.5094997230648994,-0.30967443645894527
1726225823029512200,8.26051220703125,0.4323053753495216,-1.293713530614972,-0.35984628833830357
1726225823039508200,8.27050830078125,0.33743601134866474,-1.027784127858281,-0.4344271898090839
1726225823049504000,8.28050390625,0.10883388420641421,-0.8085860811382531,-0.7005605907052755
1726225823059500300,8.290500244140626,-0.012565467062592506,-0.5279015923202037,-0.9902595761060714
1726225823069495300,8.300495361328124,-0.023171324490010737,-0.18118191205859183,-1.1696902605831623
1726225823079491000,8.310490966796875,0.039295068556070324,0.18330840269327162,-1.314862701627612
1726225823089487000,8.320487060546874,0.013845277740061283,0.5232148958086967,-1.4944471153616905
1726225823099483100,8.330483154296875,-0.16905074476003645,0.6498229216367006,-1.7430004359036684
1726225823109478100,8.34047802734375,-0.37087796996235844,0.5712444749623536,-2.1275351752966642
1726225823119474200,8.35047412109375,-0.5137120311871171,0.5574807380259037,-2.4176328046262263
1726225823129470200,8.36047021484375,-0.5684823167726397,0.8555559221059084,-2.122238822454214
1726225823139466000,8.370466064453124,-0.19645546903610228,0.9019166912645101,-2.3707553181171415
1726225823149461000,8.3804609375,1.0956228615924715,1.0356628984093665,-2.2611136246591803
1726225823159457300,8.390457275390625,2.479146426992118,0.9074977062672376,-1.3411205939561128
1726225823169453000,8.400453125,3.894837693285942,1.089081184864044,-0.1024123267263174
1726225823179448000,8.410447998046875,4.946019647866487,1.1405267099410294,-0.16244506288468838
1726225823189444000,8.420444091796876,4.778531914639473,1.0948913324475287,-0.37426293622553347
1726225823199440100,8.430440185546875,3.27862478030622,0.8869523463666439,-0.21658172674179077
1726225823209436200,8.440436279296875,0.8480284492105246,0.11514087539613246,-0.7465718157738447
1726225823219431200,8.45043115234375,-0.26489362996816634,0.2635001297831535,-0.683056498196721
1726225823229427200,8.46042724609375,-0.5432698418438434,0.9231564631700515,-0.23235037375986575
1726225823239423000,8.470423095703126,-0.47408407741487024,1.4833850385993719,0.31967852860093116
1726225823249419300,8.480419189453125,-0.6687693219080567,1.8768705616891384,0.7352554719895124
1726225823259414300,8.490414306640625,-1.0198369682461024,2.0816087059020996,1.0064175147026777
1726225823269410000,8.50041015625,-1.4823451741576195,2.2075597291260958,1.067447445204854
1726225823279406000,8.510406005859375,-2.0273279573991894,2.230767586234212,0.9137135120421648
1726225823289402400,8.52040234375,-2.210337961667776,1.8827432531148194,1.1430541825920342
1726225823299397000,8.530397216796874,-2.573884858089685,1.12679921336174,1.1941793896734714
1726225823309393200,8.54039306640625,-2.799274745187163,0.3877577930927276,1.0806862814843654
1726225823319389200,8.55038916015625,-2.905556022301316,-0.12878770795464514,1.2223352245777845
1726225823329384200,8.56038427734375,-3.1679595890194174,-0.6754518684118985,0.9320119697988033
1726225823339380000,8.5703798828125,-2.9817838141962882,-1.0665426053196192,0.7763450227469205
1726225823349376300,8.580376220703124,-2.733348859336972,-1.312881756943464,0.6445914507240057
1726225823359372000,8.5903720703125,-2.4384163571968673,-1.4347855506032705,0.4593126247406006
1726225823369367000,8.600366943359376,-2.2027239795327187,-1.329855688098073,0.3852332430511713
1726225823379363000,8.610363037109375,-1.961633834478259,-1.014663949522376,0.32303894494473934
1726225823389359400,8.620359375,-1.6416218361392616,-0.5566495478987693,0.18867372911870478
1726225823399355100,8.630355224609374,-1.4277175119131802,-0.20391981356739997,0.04176701162755489
1726225823409350100,8.64035009765625,-1.0577344449639319,0.0241162041246891,-0.32003274886608124
1726225823419346200,8.65034619140625,-0.5960515839606523,0.08649579567015171,-0.628811113268137
1726225823429342000,8.660342041015625,-0.21343027697354555,-0.24026129301488397,-0.7860100921928882
1726225823439338200,8.670338134765625,-0.07178308744579553,-0.5393167203038931,-0.9483236376523971
1726225823449333200,8.680333251953124,0.10425707781016826,-0.5869885720610618,-0.8886685026347637
1726225823459329000,8.6903291015625,0.39039194098860025,-0.8367097673386334,-0.6182733526408672
1726225823469325000,8.700324951171876,0.3920809169888496,-0.9907897374600172,-0.3819172503709793
1726225823479320000,8.710320068359374,0.19990707079470157,-1.0441285289376974,-0.20181144311130045
1726225823489316400,8.72031640625,-0.05356266336143017,-1.0901590432286261,-0.02195288861095905
1726225823499312000,8.73031201171875,-0.33240999988019465,-0.9213672416657209,0.268415374353528
1726225823509308200,8.74030810546875,-0.5191913393810391,-0.7555377970397472,0.5266244119912386
1726225823519303200,8.75030322265625,-0.7196791326731443,-0.5955208380848169,0.7301151864916086
1726225823529298700,8.760298583984374,-0.9753577750504017,-0.44242929447889323,0.9074258100748062
1726225823539295000,8.770294921875,-1.2027560793608427,-0.3865969326198101,0.9999363359898328
1726225823549291000,8.780291015625,-1.3112220070376992,-0.39762978328764437,0.9724766666561364
1726225823559285800,8.79028564453125,-1.4330185409307479,-0.5035457342207431,0.7580436423808335
1726225823569281800,8.80028173828125,-1.5163424285665155,-0.5874789859265088,0.5973065524578094
1726225823579278000,8.810278076171874,-1.3748419540330767,-0.482303624227643,0.556570052921772
1726225823589273900,8.82027392578125,-1.0983069861099124,-0.27963410298228264,0.6268401054561138
1726225823599268900,8.830268798828126,-0.8520321318939328,-0.2113029095560312,0.436776967805624
1726225823609265000,8.840264892578125,-0.613060878689587,-0.12892448607683182,0.23525194042026995
1726225823619260700,8.8502607421875,-0.41735915063023565,0.15059095896184443,0.23521277745366095
1726225823629255700,8.860255615234376,-0.04902063601762056,0.5351730446279048,0.22556641270816324
1726225823639252000,8.870251953125,0.3040074967384338,1.0179232435792684,0.3119178314715624
1726225823649248000,8.880248046875,0.47973728087097406,1.2542244007915258,0.09367430899739265
1726225823659243800,8.890243896484375,0.4719114095509052,1.256001347336173,-0.16734803249537944
1726225823669238800,8.90023876953125,0.44891281127929683,0.9235568606644868,-0.47740416174829003
1726225823679235000,8.910235107421874,0.677957713752985,0.2619511467754841,-0.6487731203228235
1726225823689230800,8.92023095703125,1.0075766216099262,-0.4520511093050241,-0.45706572259664535
1726225823699227000,8.930226806640626,1.1232418131411075,-0.9756529586046934,-0.15452303771376608
1726225823709222000,8.940221923828124,0.8879708757594227,-1.2683937959194183,0.08829261595904826
1726225823719217700,8.9502177734375,0.5720946620509028,-1.3387135328143833,0.21756547708213328
1726225823729214000,8.9602138671875,0.4139662933215499,-1.2334376333504915,0.34638182660937306
1726225823739210000,8.9702099609375,0.3820569511026144,-0.906626184129715,0.4901186818927526
1726225823749205000,8.980205078125,0.30385318295955654,-0.6499059237450361,0.4233212739050388
1726225823759200800,8.99020068359375,0.16601561484783886,-0.39837504869699475,0.2621972304910421
1726225823769197000,9.000197021484375,0.1940326258033514,0.043138884502649306,0.1485527311325073
1726225823779192000,9.010192138671876,0.34046588056385513,0.6143699154615402,0.1522562618255615
1726225823789187800,9.020187744140625,0.49889644711017606,1.2604852147519587,0.24801789849102496
1726225823799184000,9.030183837890625,0.5448638330370188,1.78891404581666,0.3526099073439836
1726225823809180000,9.040179931640624,0.32942338528484105,2.0600673207014797,0.44446693778634067
1726225823819174700,9.050174560546875,0.07979863611906766,2.101244549742341,0.4202069412767887
1726225823829171000,9.0601708984375,-0.21863369083553552,1.9176164135754108,0.030002339553833007
1726225823839167000,9.0701669921875,-0.44795214955359697,1.567744406762719,-0.38435412212908265
1726225823849162800,9.080162841796875,-0.5392964081682264,1.1053910991519689,-0.6035860711187124
1726225823859157800,9.09015771484375,-0.4280338355101645,0.6485474948734045,-0.9637222823143005
1726225823869154000,9.100154052734375,-0.1626093135356903,0.4377648097991943,-1.049563997989893
1726225823879149800,9.11014990234375,0.04605681777596474,0.4595072705298662,-1.0583663131266832
1726225823889145900,9.120145751953125,0.2859785035729408,0.5921826335728169,-1.0188315905958414
1726225823899140900,9.130140869140625,0.41164252654910083,0.6720405986636877,-0.7287216863065957
1726225823909137000,9.140136962890624,0.4203475187912583,0.5202805959224701,-0.5965460894793272
1726225823919133000,9.1501328125,0.42212914151102304,0.2972550998687744,-0.5716565628945827
1726225823929128000,9.1601279296875,0.4156009087860584,0.043855508339405054,-0.47349429482817645
1726225823939124000,9.1701240234375,0.41270504121407864,-0.24905484032332895,-0.42910628704726694
1726225823949119700,9.18011962890625,0.44591874402984977,-0.45527357848286626,-0.3271048792093992
1726225823959116000,9.190115966796874,0.4669581710577011,-0.611419833484292,-0.19240122520923614
1726225823969111000,9.200111083984375,0.493245581741631,-0.703265758010745,-0.031031682601571083
1726225823979106800,9.21010693359375,0.517367631085217,-0.7687859856694936,0.18720774821937083
1726225823989102800,9.220102783203124,0.7107116901025176,-0.6903367183327674,0.43050913958251474
1726225823999099000,9.230098876953125,0.798450179310143,-0.7386538822561503,0.6270423500299454
1726225824009094000,9.240093994140626,0.9739166363313794,-0.8571674489557742,0.8144932593554258
1726225824019090000,9.25008984375,1.147130053728819,-0.9484019635856151,0.7840554509937763
1726225824029086000,9.2600859375,1.2348350790582596,-1.1191343778222798,0.6392424909114838
1726225824039081700,9.270081787109374,1.3602338752269745,-1.123832180249691,0.4571159914791584
1726225824049076700,9.28007666015625,1.5606617550253867,-0.7558931863486766,0.23875614914894103
1726225824059073000,9.290072998046876,1.6654649224109948,-0.25686639085710045,0.10492986250519752
1726225824069068800,9.30006884765625,1.5780157715387642,0.2939630725860595,-0.09012801469266414
1726225824079063800,9.310063720703125,1.4644482829391956,0.941414004394412,-0.12310498614311217
1726225824089059800,9.320059814453124,1.3056124965928495,1.4333049566566942,-0.180002931407094
1726225824099055900,9.330055908203125,1.0217536155223845,1.5780682323783635,-0.41487025642395015
1726225824109052000,9.340052001953126,0.6380301925122738,1.4845084896713494,-0.6484276678860187
1726225824119047000,9.350046875,0.28926030172258616,1.268275137975812,-1.05275841011703
1726225824129043000,9.36004296875,0.16667144840806722,1.2860311594188212,-1.3033359299629925
1726225824139038700,9.370038818359374,0.15190087251663206,1.3534043214678764,-1.423382113057375
1726225824149035000,9.380034912109375,0.14925386513918637,1.267540393960476,-1.4814987864613531
1726225824159030000,9.390030029296875,-0.007476034969091415,1.0276169545978306,-1.71918116889894
1726225824169025800,9.40002587890625,-0.16105506983101367,1.029337787041068,-1.7603583979398012
1726225824179021800,9.410021728515625,-0.29600626885145903,1.2443594248592853,-1.5663731184095144
1726225824189017900,9.420017822265624,-0.4530643780007958,1.3598200337290762,-1.4563146608442068
1726225824199013000,9.43001318359375,-0.6343629021763801,1.3389262987822292,-1.4233055406898258
1726225824209009000,9.4400087890625,-0.9270707140043377,1.1516074914038181,-1.377185594549775
1726225824219005000,9.4500048828125,-1.2610139148011803,0.8581406779021025,-1.4145534944355487
1726225824229000000,9.46,-1.5226695857614279,0.543384408134222,-1.5299574046820401
1726225824238995700,9.46999560546875,-1.6938532508969306,0.2928261775106191,-1.599201621299982
1726225824248992000,9.479991943359375,-1.593166140528023,0.16305062756240368,-1.5860867036610842
1726225824258987800,9.48998779296875,-1.4472165776312351,0.23695932886004448,-1.4187035998523234
1726225824268982800,9.499982666015624,-1.3800257864117622,0.5198866281688213,-1.1607850695937871
1726225824278978800,9.509978759765625,-1.264843409961462,0.8298527410507202,-0.8374801671892405
1726225824288974800,9.519974853515626,-1.300871585676074,0.9417419211745262,-0.6503039831519126
1726225824298971000,9.529970947265625,-1.317425537852943,0.8961527209103107,-0.6187742879003286
1726225824308966000,9.5399658203125,-1.3018240640953183,0.6889782894611358,-0.579824671781063
1726225824318962000,9.5499619140625,-1.0429773130759596,0.4701005607366562,-0.6157891346096992
1726225824328957700,9.559957763671875,-0.7546572148129344,0.34106910715401173,-0.5640718068540096
1726225824338952700,9.56995263671875,-0.4055263817563653,0.41722821772694585,-0.39432314295768733
1726225824348949000,9.579948974609374,-0.13832009093165396,0.7033259637653827,-0.10152034632265568
1726225824358944800,9.58994482421875,0.1531757147580385,1.0884002168625593,0.3094184158712625
1726225824368940800,9.59994091796875,0.3198816499575972,1.394215055283904,0.8421803077042103
1726225824378935800,9.609935791015625,0.2299041496515274,1.4165338545978068,1.2590627807334065
1726225824388932000,9.61993212890625,-0.01057633907198906,1.3377362122148275,1.4562375039547681
1726225824398928000,9.629927978515624,-0.2536746090784669,1.0912363170713186,1.6176704671874642
1726225824408924000,9.639923828125,-0.3978521938666701,0.8850082265615463,1.8516218464031815
1726225824418919000,9.6499189453125,-0.34474867244958873,0.8723328693836927,2.1419109066516158
1726225824428914700,9.659914794921875,-0.23589169962853193,0.8765338282048701,2.4315809582188725
1726225824438911000,9.669910888671875,-0.2666013106688857,0.6475280886977911,2.5332608790174125
1726225824448907000,9.679906982421874,-0.554438301590085,0.09857143338918685,2.323640807981789
1726225824458901800,9.68990185546875,-0.7198354922786354,-0.38765667080581184,1.8531673222795129
1726225824468897800,9.699897705078126,-0.6344684083774685,-0.8567658824175596,1.225279169075191
1726225824478894000,9.70989404296875,-0.5493894937679171,-1.3086983337789773,0.7761766804426908
1726225824488889000,9.71988916015625,-0.6607309768810868,-1.6528163071095943,0.4910083242088556
1726225824498884900,9.729884765625,-0.8249754904031753,-1.9041051900953054,0.1871630322948098
1726225824508881000,9.739880859375,-1.0566399277254939,-2.034078308442235,-0.040028643527626986
1726225824518876700,9.749876708984376,-1.1859250638082623,-2.0560224292248486,-0.05143178881257772
1726225824528871700,9.75987158203125,-1.2457801053121684,-2.02586285328269,-0.09217705617696047
1726225824538868200,9.7698681640625,-1.2872539792120457,-1.8883125776797531,-0.107409404361248
1726225824548864000,9.779864013671874,-1.3472574892759321,-1.661836064389348,-0.018208733646571634
1726225824558860000,9.789860107421875,-1.3608812332198024,-1.6008417897224425,-0.0184521870136261
1726225824568855000,9.79985498046875,-1.3789502661347388,-1.5994856989383697,-0.11972615735977887
1726225824578851000,9.80985107421875,-1.3529980787545441,-1.4739806659162045,-0.10819266369342803
1726225824588847000,9.81984716796875,-1.2558268675521016,-1.2371750663131476,-0.03068623016476631
1726225824598843100,9.829843017578124,-1.2340423212453722,-0.9968412925839424,0.09278115954995154
1726225824608838100,9.839838134765625,-1.2534291587606072,-0.8758195424556732,0.22857816174477338
1726225824618834000,9.849833984375,-1.2616036973878741,-0.8412281215459108,0.36315088284164665
1726225824628830200,9.859830322265625,-1.2848480871140957,-0.7581792514592409,0.5731614144995808
1726225824638825200,9.8698251953125,-1.3639911819338797,-0.756509856942296,0.7207049685895442
1726225824648821000,9.879821044921876,-1.3612722783640026,-0.8552426183730364,0.7495736279383302
1726225824658817000,9.889817138671875,-1.3003238886654376,-0.9202584036409854,0.6711480337381363
1726225824668813000,9.89981298828125,-1.2532315903618931,-1.0125222613185643,0.6300175664484501
1726225824678808000,9.90980810546875,-1.148593696540594,-1.024710711762309,0.6508335599839687
1726225824688804000,9.91980419921875,-0.9345803589820861,-0.8294429912060499,0.7401751004740595
1726225824698800000,9.929800048828126,-0.7165712297856808,-0.38139585684537886,1.0488611104175447
1726225824708796000,9.9397958984375,-0.5659817321285605,0.007227613165974617,1.4812883585810661
1726225824718791000,9.949791015625,-0.42880788862258196,0.2827326535195112,1.7874018876880406
1726225824728787200,9.959787109375,-0.18834142842441795,0.759309132272005,2.0625714124768972
1726225824738783200,9.969783203125,0.09212035755366087,1.4326105446517468,2.519352472913265
1726225824748778000,9.979778076171876,0.3707406073182821,1.905463618966937,3.021260961320996
1726225824758774000,9.98977392578125,0.7047460596963763,1.9972154354691505,3.347285059556365
1726225824768770000,9.99977001953125,0.7538543739974498,1.6615467260539531,3.340781084489822
1726225824778766000,10.00976611328125,0.6319619785144924,0.975536054226756,2.915136920595169
1726225824788761000,10.019760986328125,0.44293899756669997,0.14465104751884936,2.359059035104513
1726225824798757000,10.029757080078125,0.45751346636414525,-0.4885276133090257,1.8479443269342184
1726225824808753000,10.0397529296875,0.6304977511808276,-0.9441671024948358,1.3729849279895423
1726225824818749200,10.049749267578125,0.7027429031804203,-1.2904922304809092,0.9286246654480695
1726225824828744200,10.059744140625,0.672440996158123,-1.630084250819683,0.3966173913747072
1726225824838740200,10.069740234375,0.6361085767999292,-1.9415520004361866,-0.22394144185483456
1726225824848736000,10.079736083984375,0.7231082303389906,-2.069610225072503,-0.6837626006394625
1726225824858731000,10.08973095703125,0.7161395603701471,-2.049400965258479,-1.098715859171748
1726225824868727000,10.09972705078125,0.7137038576558232,-2.0023218186974523,-1.422714004537463
1726225824878723000,10.10972314453125,0.8160632851511239,-1.9562176546484231,-1.7671674934327601
1726225824888719000,10.119718994140625,0.8919064616426825,-1.8239432736217975,-2.068578543937206
1726225824898714000,10.129714111328125,0.9723919109821318,-1.5080343266874552,-2.2514988240957257
1726225824908710000,10.1397099609375,1.0282491150215267,-1.1496078420192002,-2.2355144885003564
1726225824918706200,10.1497060546875,1.0102005403727292,-0.6751859109520911,-2.052554460853338
1726225824928702200,10.1597021484375,1.0047650713205336,-0.10928571962714195,-1.8443430875718592
1726225824938697200,10.169697265625,0.8879857810676097,0.37691257395148275,-1.3744219750553368
1726225824948693000,10.17969287109375,0.7029393025353551,0.7791524813830852,-0.9800959094882011
1726225824958689000,10.18968896484375,0.3919660584375262,1.055142090383172,-0.65103638907969
1726225824968684300,10.199684326171875,0.08309913896918296,1.0634650975704192,-0.41669513376355166
1726225824978680000,10.20968017578125,-0.06388122828006744,0.916615078702569,-0.33766485166847704
1726225824988676000,10.219676025390624,-0.12515782701969147,0.9263824394792318,-0.3763689685940742
1726225824998672100,10.229672119140625,0.116193599319458,1.0343746121644972,-0.3332704161018133
1726225825008667000,10.2396669921875,0.38950697484761476,1.080836503610015,-0.250699684920907
1726225825018663200,10.2496630859375,0.5917392737194895,1.179219136428833,-0.202610484534502
1726225825028659200,10.2596591796875,0.9481459429979324,1.5680997960716485,-0.06812018102407455
1726225825038655000,10.269655029296874,1.2298656200826168,2.072573166531324,0.19911796624362468
1726225825048650000,10.27964990234375,1.42082687561661,2.5314298641979693,0.5119798005670309
1726225825058646300,10.289646240234376,1.6039587526991963,2.831455597823858,0.7731225535690784
1726225825068642000,10.29964208984375,1.5782988262638449,2.9326164631843565,0.9665443539977073
1726225825078638000,10.30963818359375,1.5340426281690596,3.0835511210173365,1.12441202596426
1726225825088633000,10.319633056640624,1.3519117448225617,3.0985417694002386,1.1008797592073678
1726225825098629000,10.329629150390625,1.0672685815066099,2.711813319355249,0.8088210589379071
1726225825108625200,10.339625244140626,0.6166802382305264,2.1208874078452586,0.4693582179367542
1726225825118620200,10.3496201171875,0.365406845074892,1.6596639810472726,0.2482254037618637
1726225825128616200,10.3596162109375,0.24807518163621425,1.3652940812259913,0.09871405673027038
1726225825138612000,10.369612060546874,-0.011736907283961772,0.9206348357379436,-0.0628635756701231
1726225825148608000,10.37960791015625,-0.31547610847502944,0.32883564852476116,-0.12180910111367702
1726225825158603300,10.389603271484376,-0.6300330562785268,-0.27699206404089927,-0.1988853265315294
1726225825168599000,10.39959912109375,-0.8610869604870677,-0.809616008707881,-0.2968932808190584
1726225825178595000,10.409594970703125,-0.9122139211341738,-1.243832186114788,-0.21209084506332873
1726225825188591000,10.419591064453124,-0.8992784517154097,-1.6716636309206485,-0.07110124266147613
1726225825198586000,10.429586181640625,-0.8907233893379568,-1.9896353556036948,0.13561024745106695
1726225825208582100,10.43958203125,-0.7930643946185708,-2.2647172021090984,0.21371172426342963
1726225825218578200,10.449578125,-0.7191381576642394,-2.597608263504505,0.28527590826153754
1726225825228573200,10.4595732421875,-0.5915180321842431,-2.8552169971615076,0.3516927924990654
1726225825238569000,10.46956884765625,-0.4936266900137067,-3.0600334673076865,0.351691623455286
1726225825248565200,10.479565185546875,-0.2903320226073265,-3.1947137404322623,0.34275428376197814
1726225825258561000,10.48956103515625,-0.00912672478556633,-3.27795258013308,0.4062491430729627
1726225825268556000,10.49955615234375,0.19723259088844058,-3.224336140757799,0.45513095514178276
1726225825278552000,10.509552001953125,0.45281770976334806,-2.955243305534124,0.45391631865501403
1726225825288548000,10.519548095703126,0.6821554577037692,-2.3150088809758422,0.4145604598224163
1726225825298544000,10.529544189453125,0.7708323968052864,-1.4618547593146562,0.255854583466053
1726225825308539100,10.5395390625,0.8776739381507038,-0.6860048266083002,0.055467035678029054
1726225825318535200,10.54953515625,1.0034393756747244,0.18890227717757224,0.08644435774385928
1726225825328531000,10.559531005859375,0.9577917232215404,0.9355816449791192,-0.12827800486683844
1726225825338527200,10.56952734375,0.877520793415606,1.4583400291919708,-0.49639936959743497
1726225825348522200,10.579522216796875,0.8507903151392936,1.7297078236103056,-0.8630828104794025
1726225825358518000,10.58951806640625,0.76324442589432,1.7705290788203476,-1.2285919468849897
1726225825368514000,10.59951416015625,0.611147446283698,1.765651243650913,-1.5615332771629094
1726225825378509000,10.609509033203125,0.369642290687561,1.900152068555355,-1.791442687511444
1726225825388505000,10.619505126953126,0.1523062384471297,2.0873609858185054,-1.8329542630732059
1726225825398501000,10.629501220703125,-0.0073047700554132455,2.0818448527455327,-1.9173317514151333
1726225825408497200,10.6394970703125,-0.273227158549428,2.035422708788514,-1.9716127921789883
1726225825418492200,10.6494921875,-0.5929714458629488,2.049797855621576,-1.9731383943110703
1726225825428488000,10.659488037109375,-0.8512281220346689,1.8221283331543205,-2.0515952604323626
1726225825438484200,10.669484130859376,-1.0791457740440964,1.5301935515254734,-2.134882030928135
1726225825448480300,10.679480224609375,-1.2802815098509193,1.2107763042092323,-2.170244436210394
1726225825458475000,10.68947509765625,-1.4615686358496547,0.916850056502223,-2.1336983741015194
1726225825468471000,10.699470947265626,-1.660854944397509,0.6085685357064008,-2.020613262191415
1726225825478467000,10.709467041015625,-1.8568378274857997,0.1734855123370886,-1.9221523034393786
1726225825488462000,10.719462158203125,-2.032476133942604,-0.2476625091820955,-1.7563707896083591
1726225825498458000,10.7294580078125,-2.204764837710559,-0.570503301206231,-1.6161404811412095
1726225825508454100,10.7394541015625,-2.309945752367377,-0.6064379534184933,-1.5147025524049997
1726225825518450000,10.749449951171876,-2.230020567259192,-0.41947570439279075,-1.2634084087222814
1726225825528445000,10.75944482421875,-2.0114391911327836,-0.09175240102410316,-0.8151040847301483
1726225825538441000,10.76944091796875,-1.6696049448251724,0.1700163749217987,-0.3641653205811977
1726225825548437000,10.77943701171875,-1.4136647289022803,0.11030921745598316,-0.05899345623850822
1726225825558432800,10.789432861328125,-1.2877595906466246,-0.1834574557751417,0.15332184523046016
1726225825568427800,10.799427734375,-1.134098722720146,-0.44938276687860484,0.3032464492380619
1726225825578424000,10.809424072265625,-0.7262623104557394,-0.5286912813931703,0.6589823796480894
1726225825588419800,10.819419921875,-0.1643956124305725,-0.5764262615144252,1.1752665994107723
1726225825598414800,10.829414794921876,0.25057927341163155,-0.6425216587126255,1.8147656954318283
1726225825608411000,10.839410888671875,0.5802893666833638,-0.7502624869853257,2.3919068272173405
1726225825618406700,10.84940673828125,0.8015762023761868,-0.8357973286688327,2.9678742390483617
1726225825628403000,10.85940283203125,0.9939616454944014,-0.9849509483039378,3.3811358912318945
1726225825638398000,10.86939794921875,1.3543439404055475,-1.1796645421087741,3.889652984124422
1726225825648394000,10.87939404296875,1.766933538546413,-1.4069564634352922,4.289444913882017
1726225825658389800,10.8893896484375,2.1312141560703517,-1.5647820498257874,4.422406692650914
1726225825668386000,10.899385986328125,2.366303453274816,-1.614175903069973,4.196017273122072
1726225825678381000,10.909381103515624,2.393237199038267,-1.7625281431943176,3.5347342153161763
1726225825688376800,10.919376953125,2.246682217594236,-1.7904905013531445,2.68206524682343
1726225825698372900,10.929372802734376,1.9521487977743148,-1.8622627751439809,1.7369219927728174
1726225825708369000,10.939368896484375,1.5312325391843915,-1.8566624709188937,0.8718255043834447
1726225825718363600,10.94936376953125,1.1612056330934166,-1.74575762565732,0.2544903093755245
1726225825728360000,10.95935986328125,0.9254749692454933,-1.436701613357663,-0.3216401840627193
1726225825738356000,10.96935595703125,0.7273594580426812,-0.8435334758788346,-0.7218389410555363
1726225825748351000,10.97935107421875,0.5049406957104802,-0.44921617814004416,-1.048223104774952
1726225825758346800,10.9893466796875,0.030518764643371103,-0.2432885318815708,-1.4599223299473523
1726225825768343000,10.999343017578125,-0.33274463866204024,-0.2053133137524128,-1.8328882120996712
1726225825778338800,11.0093388671875,-0.43458734880685806,-0.18852584508061407,-2.023777279180288
1726225825788333800,11.019333740234375,-0.2876329927816987,-0.12461714427173137,-2.024917096865177
1726225825798329900,11.029329833984375,-0.04810162147656083,0.16361176857650278,-1.807363894742727
1726225825808326000,11.039325927734374,0.08104965909346938,0.524702504017949,-1.4304694409698246
1726225825818322000,11.049322021484375,0.13109569263607262,0.8428396483957767,-1.1808020217061042
1726225825828317000,11.05931689453125,0.11212181983590125,1.1037579449921846,-0.8114934930175542
1726225825838313000,11.06931298828125,0.09719766081795096,1.3707523466318845,-0.6186649823069572
1726225825848308700,11.079308837890625,0.15759265441745518,1.6593699665367603,-0.39813130306899547
1726225825858303700,11.0893037109375,0.06682721860408783,1.763337121489644,-0.14936346299350262
1726225825868300000,11.099300048828125,0.04425166805014014,1.7763409799695014,-0.10122165563702583
1726225825878295800,11.1092958984375,0.13850012367367745,1.856710401713848,-0.14332242926359176
1726225825888291800,11.119291748046875,0.27874650649279353,1.9503426251351832,-0.13003566218912602
1726225825898286800,11.129286865234375,0.5059975112870335,1.9938006585896013,-0.1858405515193939
1726225825908283000,11.139282958984374,0.6412476932540535,1.9627455951124428,-0.2112643311113119
1726225825918279000,11.14927880859375,0.602074205251038,1.8055062841773033,-0.2869675146102905
1726225825928275000,11.15927490234375,0.6352769482813775,1.5263345380097626,-0.42118367735445494
1726225825938270000,11.16927001953125,0.6123613521181046,1.1676426804035902,-0.5761883611053228
1726225825948265700,11.179265625,0.570396187569946,0.8942857579946517,-0.6718149732142686
1726225825958262000,11.189261962890624,0.6705950760304927,0.5826122566729783,-0.7155360415190458
1726225825968257000,11.199257080078125,0.749849083878845,0.33272271909117695,-0.7183189502358436
1726225825978252800,11.209252685546875,0.819992733554542,0.11268120728433131,-0.7128039862066506
1726225825988248800,11.219248779296874,0.8286740526601671,-0.06078676939606666,-0.6715431705355643
1726225825998244900,11.229244873046875,0.8843445019558072,-0.1924023942530155,-0.6372603771835565
1726225826008239900,11.239239990234376,0.8386435118801892,-0.33261458254158494,-0.6135866561293601
1726225826018236000,11.24923583984375,0.6875953106701373,-0.526030537751317,-0.45298634432852264
1726225826028232000,11.25923193359375,0.4733912728451192,-0.7163157937198877,-0.22885084120631216
1726225826038227700,11.269227783203124,0.2920578234866261,-0.9259563230216502,-0.04206862492263317
1726225826048222700,11.27922265625,0.06344853595122694,-1.197988718828559,-0.0033434652090072628
1726225826058219000,11.289218994140626,-0.024428631074726582,-1.481089036616683,-0.13638999965190887
1726225826068214800,11.29921484375,-0.05474412823095917,-1.6152718816131353,-0.16095570110976695
1726225826078209800,11.309209716796875,-0.04629617948979139,-1.6089175441503525,0.011003624573349953
1726225826088205800,11.319205810546874,0.1469134394928813,-1.390412155869603,0.22372867588698864
1726225826098202000,11.3292021484375,0.28960049346238376,-1.0810340720087288,0.3113163584470749
1726225826108198000,11.339197998046876,0.4974810273543,-0.6649702218860387,0.44101358246207234
1726225826118193000,11.34919287109375,0.7028902026966214,-0.25531974593698975,0.5471195030093192
1726225826128189000,11.35918896484375,0.8572542504563927,-0.013642156383395195,0.3442839775472879
1726225826138184700,11.369184814453124,0.8504273270457983,0.15976970619559286,0.02840133409798145
1726225826148181000,11.379180908203125,0.8327508005797862,0.3806003225535154,-0.21442250288128853
1726225826158176000,11.389176025390626,0.8377005319416523,0.6834095494180917,-0.3316314167231321
1726225826168171800,11.399171875,0.8032827140331268,0.9635457567036151,-0.48731180777847766
1726225826178167800,11.409167724609375,0.7328083710983395,1.1740858651936052,-0.5314952328979968
1726225826188162800,11.419162841796876,0.6350038304284215,1.3438620016187428,-0.496537316763401
1726225826198159000,11.4291591796875,0.38364918873012066,1.4360311667501926,-0.512147558349371
1726225826208155000,11.43915478515625,0.10756284135729074,1.6012597228735685,-0.49111470719277855
1726225826218151000,11.44915087890625,-0.1304866208270192,1.7860124791562557,-0.5335790534347296
1726225826228146000,11.45914599609375,-0.3083417265504598,1.942297265845537,-0.4680284306377172
1726225826238141700,11.4691416015625,-0.5375616933301091,1.9406798937767742,-0.4173673339366913
1726225826248138000,11.479137939453125,-0.79254358561486,1.7612410259932278,-0.510935259950161
1726225826258134000,11.489134033203126,-0.9351531904339789,1.557253992408514,-0.6940589537262916
1726225826268128800,11.499128662109374,-0.9869409530773758,1.3850731329292059,-0.7732564090818166
1726225826278124800,11.509124755859375,-1.0475541194722056,1.2432049941271544,-0.6780711109995842
1726225826288121000,11.51912109375,-1.1615762199714779,0.9074135351151228,-0.717029494947195
1726225826298116900,11.529116943359375,-1.3021367833063007,0.6183563547492027,-0.888296746712923
1726225826308112000,11.53911181640625,-1.2854939838021993,0.5155675959259272,-0.8882283576518296
1726225826318108000,11.54910791015625,-1.1360893120154738,0.5198801984280348,-0.6972089421898127
1726225826328103700,11.559103759765625,-1.0334814627170563,0.46308454449474806,-0.49202130064368244
1726225826338098700,11.5690986328125,-1.0058473135992885,0.26607845583856105,-0.48951896243393417
1726225826348095000,11.579094970703125,-1.025335565662384,0.08371230243146419,-0.5955351588711142
1726225826358090800,11.5890908203125,-0.9710606623783707,0.07819207770526408,-0.49457536904066796
1726225826368086800,11.599086669921874,-0.8086652838543057,0.11552607532143593,-0.35904578561037775
1726225826378081800,11.609081787109375,-0.7355684834614395,0.034468086791038514,-0.37358576761633155
1726225826388078000,11.619078125,-0.714920247708261,-0.06491232489347458,-0.3604524375379085
1726225826398073900,11.629073974609375,-0.6488476468637585,-0.15034136811494828,-0.2458577978476882
1726225826408070000,11.63906982421875,-0.5948562366962432,-0.16589724916517734,-0.12274053674489259
1726225826418065000,11.64906494140625,-0.6336953781783581,-0.30867782663702964,0.0018844985723495483
1726225826428060700,11.659060791015625,-0.7153133386790752,-0.520730093255639,0.058146191759407516
1726225826438057000,11.669056884765626,-0.7665078116044401,-0.6164847156584262,0.1200362462222576
1726225826448052000,11.679052001953124,-0.8218637881234288,-0.6673866353780031,0.27953356521725653
1726225826458047700,11.6890478515625,-0.8869336416661738,-0.5728460649400949,0.44084553241878743
1726225826468043800,11.699043701171876,-0.8656348330497741,-0.28960546189844605,0.6057780282050371
1726225826478040000,11.7090400390625,-0.7708157379314303,0.12834814749360085,0.7820949645757674
1726225826488035000,11.71903515625,-0.7610027844473719,0.42427404458522794,0.8347387595266104
1726225826498030800,11.72903076171875,-0.8785229561954736,0.4018278194993734,0.8098895649522543
1726225826508027000,11.73902685546875,-1.1412377808198333,0.2876625111371279,0.8335036647737025
1726225826518022700,11.749022705078126,-1.3586384227290749,0.2787988212019205,0.9005445261284708
1726225826528017700,11.759017578125,-1.5566335224226115,0.26366847208738325,1.0948577224388718
1726225826538014200,11.76901416015625,-1.7465058136761187,0.17907178803682325,1.4979305735632775
1726225826548010000,11.779010009765624,-1.8890587198719382,0.17479776397943494,2.0112848773539067
1726225826558005000,11.7890048828125,-2.0325676116183398,0.28702538227736946,2.4673066438555717
1726225826568001300,11.799001220703126,-2.2296789142146705,0.32353929568231105,2.7894530238747595
1726225826577997300,11.808997314453125,-2.2729431786626577,0.24026363110244273,3.029974136869609
1726225826587993000,11.8189931640625,-2.3221093606308103,0.002660159119963646,3.0105069275945424
1726225826597988000,11.828988037109376,-2.246393609911203,-0.4194266045540571,2.724626039177179
1726225826607984400,11.838984375,-1.9351497321784494,-0.832616945067048,2.3311516220033166
1726225826617980200,11.848980224609376,-1.376676768244803,-1.0864864921957254,2.017354552656412
1726225826627976200,11.85897607421875,-0.6503124587193131,-1.264494450393319,1.654482194495201
1726225826637971200,11.86897119140625,-0.07798603373914957,-1.5559119301497935,1.1435799600318073
1726225826647967000,11.878967041015626,0.1607441041857004,-1.8640835608303545,0.39553339553028344
1726225826657963300,11.88896337890625,0.1807069880232215,-2.0428326927840708,-0.2907148844450712
1726225826667958300,11.898958251953125,0.1345087159499526,-2.0507740071773526,-0.7784314736321568
1726225826677954300,11.908954345703124,0.0884933992281556,-1.8249387143999336,-1.0219739802747965
1726225826687950000,11.9189501953125,0.04057371018975973,-1.4320178394556045,-1.0731938799023628
1726225826697946400,11.9289462890625,-0.1341010119318962,-1.161318738079071,-0.8026771493554115
1726225826707941400,11.93894140625,-0.2846586531460285,-1.0379144767284392,-0.40606092702448365
1726225826717937200,11.948937255859375,-0.5035951263204217,-0.947971170952916,0.04763853400945663
1726225826727933200,11.95893310546875,-0.7258113518178463,-0.9951713135451078,0.2955640780419111
1726225826737929200,11.96892919921875,-0.8121341290086508,-1.1395330227285623,0.5490823275148868
1726225826747924200,11.97892431640625,-0.7541475117251276,-1.2942857775449752,0.8164163363724947
1726225826757920300,11.988920166015625,-0.6059302961573004,-1.3760703267842531,0.9540946222692728
1726225826767916300,11.998916259765625,0.02601239313483238,-1.2244891877412796,1.2842641497462988
1726225826777912000,12.008912109375,1.2955389924764633,-0.9976023400843143,1.5746242294043302
1726225826787907000,12.018906982421875,2.0171789038285612,-1.0042524456232786,1.3363076407164334
1726225826797903400,12.0289033203125,2.054261264771223,-1.0760352408081293,0.8194412371516228
1726225826807899100,12.038899169921875,2.5359505564928053,-0.9489116666734217,-0.05176818116009235
1726225826817894100,12.04889404296875,3.0674937201857566,-0.792010209390521,-0.8369920914113521
1726225826827890200,12.05889013671875,2.514172439926863,-0.7367641229867935,-0.9179027804255485
1726225826837886200,12.06888623046875,1.8370646210014818,-0.5695423472195863,-0.8689970029592513
1726225826847882200,12.07888232421875,1.1513666683852672,-0.2638578571796417,-0.6474398258924484
1726225826857877200,12.088877197265624,0.6603517683051526,0.09903905090093612,-0.31041853282451626
1726225826867873300,12.098873291015625,0.726906745839119,0.7150567335695028,-0.04006079223155975
1726225826877869000,12.108869140625,0.9376466146849095,1.4764181221961974,0.17670096725225448
1726225826887865300,12.118865234375,1.1519196260929108,1.8925404245078563,0.20408581778407095
1726225826897860400,12.1288603515625,1.0878849608168006,1.8119307642668485,0.0746317548751831
1726225826907856100,12.138856201171874,0.9425506072089076,1.4498188690841196,-0.4772948561549186
1726225826917852200,12.14885205078125,0.9351508523464203,1.0502584099948407,-0.7970376821637153
1726225826927847200,12.15884716796875,1.0068284335911273,0.8566004627227782,-0.8909025452971457
1726225826937843200,12.16884326171875,1.0234075202092527,0.6593184797346592,-0.7733189529240131
1726225826947839200,12.178839111328125,0.9017617929637431,0.6469955892562865,-0.5701116715401411
1726225826957835300,12.188835205078124,0.8178010687291621,0.7454986335843801,-0.35439562171697614
1726225826967830300,12.198830322265625,0.7787579291075467,0.8397200550705194,-0.05832008702158928
1726225826977826000,12.208825927734376,0.6952846961289644,0.8038339181751012,0.107174426561594
1726225826987822300,12.218822265625,0.46103199587911364,0.5456751494199037,0.031004210072755813
1726225826997818000,12.228818115234375,0.28997312616705895,0.23635434870421884,-0.13173837445378303
1726225827007813000,12.238813232421874,0.30267858622223137,-0.04814823709726333,-0.11092354996204376
1726225827017809200,12.24880908203125,0.28887831666767594,-0.32639410059154034,-0.0793459239155054
1726225827027805400,12.258805419921876,0.17849398814886808,-0.6005342823326587,-0.054391515401005744
1726225827037800200,12.26880029296875,0.1709048481941223,-0.6924030032128096,-0.13620645977854728
1726225827047796200,12.278796142578125,0.22965163619518278,-0.7111269929051399,-0.13762889379709958
1726225827057792300,12.288792236328124,0.3030558951020241,-0.6598445494353771,-0.08977700929790734
1726225827067788000,12.2987880859375,0.3162555684149265,-0.3743886084318161,-0.01587532226294279
1726225827077783000,12.308782958984375,0.1855143883049488,0.1518044264048338,0.28589725503027436
1726225827087779300,12.318779296875,-0.04752075284868478,0.5007815302044153,0.6121273972317576
1726225827097775000,12.328775146484375,-0.30997809558063744,0.46353170374035835,0.6368371833354234
1726225827107771100,12.338771240234376,-0.5412836364626884,0.22592355558276175,0.39863457641601563
1726225827117766100,12.34876611328125,-0.5510314157560467,-0.03131283763051033,0.10155395633131264
1726225827127762400,12.358762451171875,-0.44050475615710016,-0.2583440621942282,-0.11009119079113006
1726225827137758200,12.36875830078125,-0.33919396093189713,-0.37751755410730836,-0.42809711000472306
1726225827147753200,12.378753173828125,-0.2499684480369091,-0.3819903156071901,-0.5726625250667333
1726225827157749200,12.388749267578126,-0.3846683026447892,-0.2719441330015659,-0.4900970545828342
1726225827167745000,12.3987451171875,-0.505756103746593,-0.06029109483361244,-0.37291532100886104
1726225827177741300,12.4087412109375,-0.6373845880851149,0.15088029729723929,-0.18028145608752966
1726225827187736300,12.418736328125,-0.8651602012753487,0.28520518111288545,-0.15784136848151684
1726225827197732000,12.428732177734375,-1.1466618516951799,0.366041051325202,-0.11917992165386676
1726225827207728000,12.43872802734375,-1.2365005280524493,0.4151140020519495,-0.03885726166069507
1726225827217724400,12.448724365234375,-1.2267176774457096,0.4482540551096201,-0.00774812990874052
1726225827227719400,12.458719482421875,-1.2005281741783023,0.44383039344847197,-0.08748860609978437
1726225827237715200,12.468715087890626,-1.0927224639758466,0.4858493340104818,-0.0657063978806138
1726225827247711200,12.478711181640625,-0.9719929747924209,0.4922551093995571,-0.10400836374610661
1726225827257706200,12.488706298828125,-0.9407584630951284,0.4767436520129442,-0.15495909104347227
1726225827267702000,12.498701904296874,-0.8724488969787955,0.3909592194825411,-0.21175416045486925
1726225827277698300,12.5086982421875,-0.751858524005115,0.2605827810317278,-0.29281799420416355
1726225827287694300,12.5186943359375,-0.6210089150846004,0.09354980583488941,-0.4332695442065596
1726225827297689000,12.528689208984375,-0.6605661417081952,0.04141220684051514,-0.48281712670773264
1726225827307685000,12.53868505859375,-0.6602583909332752,0.06278875686824321,-0.3020791590243578
1726225827317681400,12.548681396484374,-0.49587797607183454,0.20273907935023305,-0.11827332820296287
