time,seconds_elapsed,z,y,x
1726225814791756000,0.022756103515625,-0.3143653869628906,-0.6483734846115112,-0.09256508946418762
1726225814801752000,0.032751953125,-0.3618364930152893,-0.6193873286247253,-0.026680879294872284
1726225814811748000,0.042748046875,-0.39100292325019836,-0.45210888981819153,0.029941121116280556
1726225814821744000,0.052744140625,-0.4069099724292755,-0.20111367106437683,0.053517818450927734
1726225814831739100,0.0627392578125,-0.4004842936992645,0.10669875144958496,0.0563168004155159
1726225814841735200,0.072735107421875,-0.3743184804916382,0.3911600410938263,0.06096508353948593
1726225814851731000,0.08273095703125,-0.30525365471839905,0.5980101823806763,0.09223592281341553
1726225814861727000,0.09272705078125,-0.21478021144866943,0.6796121001243591,0.12683331966400146
1726225814871722000,0.102721923828125,-0.1596463918685913,0.677462100982666,0.1150733232498169
1726225814881718300,0.11271826171875,-0.05607525259256363,0.775341808795929,0.10842767357826233
1726225814891714000,0.122714111328125,0.18163077533245087,1.0139365196228027,0.16218224167823792
1726225814901710000,0.1327099609375,0.4094240069389343,1.2627559900283813,0.28656384348869324
1726225814911705900,0.142705810546875,0.46209919452667236,1.2123974561691284,0.35838451981544495
1726225814921701000,0.152701171875,0.3320932686328888,0.661836564540863,0.32637330889701843
1726225814931697200,0.162697265625,0.1287824809551239,-0.0012365056900307536,0.21774138510227203
1726225814941693200,0.172693115234375,0.09884215891361237,-0.6465646624565125,0.25612178444862366
1726225814951689000,0.18268896484375,0.2318476140499115,-1.2896738052368164,0.4847605526447296
1726225814961684000,0.19268408203125,0.3116300702095032,-1.6233316659927368,0.800593912601471
1726225814971680300,0.20268017578125,0.25245410203933716,-1.6524901390075684,1.0538378953933716
1726225814981676000,0.212676025390625,0.02913178689777851,-1.5395617485046387,1.1232409477233887
1726225814991672000,0.222672119140625,-0.2883037030696869,-1.3754934072494507,1.0370266437530518
1726225815001667000,0.2326669921875,-0.588318407535553,-0.9745720624923706,0.8830916881561279
1726225815011663000,0.2426630859375,-0.7644531726837158,-0.32730674743652344,0.6913776397705078
1726225815021659100,0.2526591796875,-0.7351504564285278,0.40081772208213806,0.5001339316368103
1726225815031655200,0.2626552734375,-0.5698464512825012,0.9564948081970215,0.2996109426021576
1726225815041651000,0.27265087890625,-0.33588266372680664,1.0146393775939941,0.09216427803039551
1726225815051646000,0.28264599609375,-0.05890326574444771,0.6674249172210693,-0.08859618008136749
1726225815061642200,0.292642333984375,0.1764030009508133,0.22091346979141235,-0.18263159692287445
1726225815071638000,0.302637939453125,0.2879108786582947,-0.17900463938713074,-0.17904645204544067
1726225815081634000,0.312634033203125,0.2770625054836273,-0.4684865176677704,-0.08800256252288818
1726225815091629000,0.322629150390625,0.1666896492242813,-0.6516180038452148,0.05108102783560753
1726225815101625000,0.332625,-0.013770939782261848,-0.7292640209197998,0.19531303644180298
1726225815111621000,0.34262109375,-0.2240871638059616,-0.6785313487052917,0.308922678232193
1726225815121617200,0.3526171875,-0.34346309304237366,-0.5800194144248962,0.3852669894695282
1726225815131613000,0.362613037109375,-0.31374675035476685,-0.49258971214294434,0.4164928197860718
1726225815141608000,0.37260791015625,-0.2322273850440979,-0.4093318581581116,0.40312081575393677
1726225815151604200,0.382604248046875,-0.1665269285440445,-0.36916685104370117,0.3616170585155487
1726225815161600000,0.39260009765625,-0.11824408173561096,-0.39078664779663086,0.3211734890937805
1726225815171596000,0.402595947265625,-0.08976797014474869,-0.43637678027153015,0.30873042345046997
1726225815181591000,0.412591064453125,-0.08925504237413406,-0.4577033817768097,0.34243112802505493
1726225815191587000,0.422587158203125,-0.10398764908313751,-0.49117958545684814,0.4136967658996582
1726225815201583000,0.4325830078125,-0.1312437802553177,-0.5479512214660645,0.49369120597839355
1726225815211579100,0.4425791015625,-0.15297730267047882,-0.584658145904541,0.5789387226104736
1726225815221574100,0.45257421875,-0.16298359632492065,-0.6195263862609863,0.640257716178894
1726225815231570000,0.46256982421875,-0.17234539985656738,-0.6005132794380188,0.6976084113121033
1726225815241566200,0.472566162109375,-0.16951818764209747,-0.5584510564804077,0.755990743637085
1726225815251562200,0.482562255859375,-0.14700862765312195,-0.5071950554847717,0.8209550976753235
1726225815261558000,0.49255810546875,-0.11131400614976883,-0.46076974272727966,0.873889684677124
1726225815271553000,0.502552978515625,-0.057254500687122345,-0.487453818321228,0.9242354035377502
1726225815281549000,0.512549072265625,-0.01116503681987524,-0.5885492563247681,0.963415801525116
1726225815291545000,0.522545166015625,-0.04283827915787697,-0.6557663679122925,0.9243720173835754
1726225815301541000,0.532541015625,-0.06626637279987335,-0.6491042375564575,0.9377917051315308
1726225815311536000,0.5425361328125,-0.032464466989040375,-0.5898169279098511,0.9906503558158875
1726225815321532000,0.552531982421875,0.04045847803354263,-0.4645804464817047,1.0418109893798828
1726225815331528200,0.562528076171875,0.1082250103354454,-0.1680060476064682,1.032375454902649
1726225815341524200,0.572524169921875,0.19318251311779022,0.29203319549560547,0.9435989856719971
1726225815351520000,0.58252001953125,0.41586005687713623,0.839149534702301,0.7862961888313293
1726225815361515000,0.592514892578125,0.7354625463485718,1.28716242313385,0.6279749870300293
1726225815371511000,0.602510986328125,1.0472681522369385,1.5511027574539185,0.5032112002372742
1726225815381507000,0.612507080078125,1.2498483657836914,1.6712172031402588,0.4083651304244995
1726225815391503000,0.622503173828125,1.4020719528198242,1.7212427854537964,0.36944836378097534
1726225815401498000,0.632498046875,1.7029916048049927,1.7792789936065674,0.38763588666915894
1726225815411494100,0.642494140625,2.076375961303711,1.813391089439392,0.4230212867259979
1726225815421490200,0.652490234375,2.514448642730713,1.8974980115890503,0.46037718653678894
1726225815431486200,0.662486328125,3.0509564876556396,2.097034454345703,0.5044993758201599
1726225815441481200,0.672481201171875,3.445692300796509,2.21760630607605,0.5072256326675415
1726225815451477000,0.68247705078125,3.5003719329833984,1.6515244245529175,0.4772951900959015
1726225815461473000,0.69247314453125,3.3344085216522217,0.3406851589679718,0.540429949760437
1726225815471469000,0.702468994140625,3.306474447250366,-1.112715244293213,0.7798630595207214
1726225815481465000,0.712465087890625,3.4075229167938232,-2.226226568222046,1.0179613828659058
1726225815491460000,0.722460205078125,3.595568895339966,-2.993849039077759,1.202871561050415
1726225815501456100,0.7324560546875,3.8897323608398438,-3.3556528091430664,1.3374714851379395
1726225815511452200,0.7424521484375,4.160062313079834,-3.2811176776885986,1.4555346965789795
1726225815521449000,0.752448974609375,4.413957595825195,-2.975313186645508,1.5110828876495361
1726225815531443700,0.762443603515625,4.734786033630371,-2.5375823974609375,1.475210189819336
1726225815541439700,0.772439697265625,4.926243782043457,-2.0588622093200684,1.2603559494018555
1726225815551436000,0.78243603515625,4.8027567863464355,-2.3385376930236816,0.8982200622558594
1726225815561431800,0.792431884765625,4.329538822174072,-3.2813162803649902,0.5915924906730652
1726225815571426800,0.8024267578125,3.757999897003174,-4.473734378814697,0.33171454071998596
1726225815581422800,0.8124228515625,3.4740524291992188,-5.406386375427246,-0.009279784746468067
1726225815591419000,0.8224189453125,3.6467642784118652,-5.486064910888672,-0.47103115916252136
1726225815601415000,0.832414794921875,3.986125946044922,-4.628276824951172,-0.9604698419570923
1726225815611410000,0.842409912109375,4.26552677154541,-3.4470415115356445,-1.3884254693984985
1726225815621406000,0.852406005859375,4.265194892883301,-2.559621810913086,-1.6203079223632812
1726225815631401700,0.862401611328125,3.8992345333099365,-2.1817626953125,-1.6087229251861572
1726225815641398000,0.87239794921875,3.3894898891448975,-2.4508488178253174,-1.5019080638885498
1726225815651393800,0.882393798828125,3.1194651126861572,-2.5594661235809326,-1.487080693244934
1726225815661388800,0.892388916015625,3.1468725204467773,-2.03292179107666,-1.6935606002807617
1726225815671384800,0.902384765625,3.2704262733459473,-1.187190294265747,-2.1294734477996826
1726225815681380900,0.912380859375,3.3234786987304688,-0.7518020868301392,-2.6434991359710693
1726225815691377000,0.922376953125,3.1822757720947266,-0.8565348982810974,-2.871354818344116
1726225815701372000,0.932371826171875,2.9848482608795166,-1.188835620880127,-2.520050525665283
1726225815711368000,0.942367919921875,2.9357879161834717,-1.5527795553207397,-1.6781840324401855
1726225815721363700,0.95236376953125,3.181490182876587,-1.9042975902557373,-0.5259546041488647
1726225815731360000,0.962360107421875,3.6992015838623047,-2.244123935699463,0.4786158502101898
1726225815741355000,0.97235498046875,4.396060466766357,-2.4314024448394775,1.0731748342514038
1726225815751350800,0.982350830078125,5.13608980178833,-2.3505709171295166,1.3161698579788208
1726225815761346800,0.992346923828125,5.8030524253845215,-2.254141092300415,1.5681166648864746
1726225815771343000,1.002343017578125,6.491336822509766,-2.2345244884490967,1.9082214832305908
1726225815781339000,1.0123388671875,7.241458415985107,-2.030972480773926,2.1682424545288086
1726225815791334000,1.022333984375,7.819213390350342,-1.5305687189102173,2.1848535537719727
1726225815801330000,1.032329833984375,8.050597190856934,-0.6251512169837952,1.8924092054367065
1726225815811325700,1.04232568359375,7.862416744232178,0.4006187915802002,1.3189196586608887
1726225815821322000,1.052322021484375,7.779069900512695,1.5399161577224731,0.8427628874778748
1726225815831317000,1.06231689453125,7.73165225982666,2.4789862632751465,0.42065268754959106
1726225815841312800,1.072312744140625,7.732351303100586,3.2231414318084717,0.08502301573753357
1726225815851308800,1.082308837890625,7.814155101776123,3.65432071685791,-0.07382629066705704
1726225815861304800,1.092304931640625,8.010613441467285,3.707843542098999,-0.06371240317821503
1726225815871300000,1.102300048828125,8.175546646118164,3.360848903656006,0.03326394781470299
1726225815881296000,1.1122958984375,8.360310554504395,2.674806594848633,0.2125101387500763
1726225815891292000,1.1222919921875,8.602804183959961,1.808150053024292,0.47337448596954346
1726225815901287700,1.13228759765625,8.959790229797363,1.023106575012207,0.8210757374763489
1726225815911282700,1.14228271484375,8.886820793151855,0.399030476808548,1.484189510345459
1726225815921279000,1.152279052734375,8.556490898132324,-0.32125046849250793,2.2867538928985596
1726225815931275000,1.16227490234375,7.992829322814941,-0.7353491187095642,3.2348482608795166
1726225815941270800,1.172270751953125,7.178586959838867,-0.991654098033905,3.9537034034729004
1726225815951265800,1.182265869140625,6.033610820770264,-1.149970293045044,4.247288703918457
1726225815961262000,1.192261962890625,4.613983154296875,-1.245168685913086,4.233551979064941
1726225815971257900,1.2022578125,2.9959139823913574,-1.2136081457138062,3.9877471923828125
1726225815981254000,1.21225390625,1.2310832738876343,-1.0085177421569824,3.4411401748657227
1726225815991249000,1.222248779296875,-0.5911898016929626,-0.6776248216629028,2.655927896499634
1726225816001244700,1.23224462890625,-2.3477492332458496,-0.3397645056247711,1.8015402555465698
1726225816011241000,1.242240966796875,-3.883516311645508,-0.04187075048685074,1.0732417106628418
1726225816021237000,1.252237060546875,-5.102217197418213,0.1318323314189911,0.5295829176902771
1726225816031232800,1.262232666015625,-6.042572975158691,0.14429299533367157,0.1770980805158615
1726225816041227800,1.272227783203125,-6.691229343414307,0.09108037501573563,-0.049976348876953125
1726225816051224000,1.28222412109375,-7.049482345581055,-0.07563324272632599,-0.21847374737262726
1726225816061219800,1.2922197265625,-7.116278648376465,-0.39644908905029297,-0.4156677722930908
1726225816071215900,1.3022158203125,-7.0328192710876465,-0.8824331164360046,-0.626878559589386
1726225816081211000,1.3122109375,-6.847379207611084,-1.3715181350708008,-0.8085724711418152
1726225816091207000,1.32220703125,-6.575028419494629,-1.8688567876815796,-1.0731239318847656
1726225816101203000,1.332202880859375,-6.1778082847595215,-2.4492366313934326,-1.2712689638137817
1726225816111199000,1.342198974609375,-5.391020774841309,-2.688525438308716,-1.1777387857437134
1726225816121194000,1.352194091796875,-4.818444728851318,-2.658834934234619,-1.1216696500778198
1726225816131189800,1.362189697265625,-4.2057976722717285,-2.638871431350708,-1.275962233543396
1726225816141185800,1.372185791015625,-3.6523525714874268,-2.4142467975616455,-1.4584580659866333
1726225816151181800,1.382181884765625,-3.309694766998291,-2.0121796131134033,-1.804793119430542
1726225816161176800,1.3921767578125,-3.313462734222412,-1.6152383089065552,-2.2216036319732666
1726225816171172900,1.4021728515625,-3.1263790130615234,-1.5258597135543823,-2.236870050430298
1726225816181169000,1.4121689453125,-3.1419222354888916,-1.8798025846481323,-2.0860283374786377
1726225816191165000,1.4221650390625,-3.2586803436279297,-2.471100091934204,-1.8679428100585938
1726225816201160000,1.432159912109375,-3.3654744625091553,-2.6540372371673584,-2.1187803745269775
1726225816211156000,1.442156005859375,-3.2107062339782715,-1.700938105583191,-2.5369367599487305
1726225816221151700,1.45215185546875,-2.9183096885681152,-0.6511750817298889,-3.031146764755249
1726225816231147800,1.462147705078125,-2.723072052001953,-0.11489436030387878,-3.361137866973877
1726225816241143000,1.47214306640625,-2.4375405311584473,0.18049147725105286,-3.6042394638061523
1726225816251138800,1.482138916015625,-2.165057897567749,0.19320274889469147,-3.8480613231658936
1726225816261134800,1.492134765625,-1.9697322845458984,-0.1020619198679924,-4.0257062911987305
1726225816271131000,1.502130859375,-1.8419612646102905,-0.6025987863540649,-4.1475043296813965
1726225816281127000,1.512126953125,-1.701684594154358,-0.655949592590332,-4.46514368057251
1726225816291122000,1.522121826171875,-1.4937171936035156,-0.12987251579761505,-5.078439712524414
1726225816301118000,1.532117919921875,-1.2324670553207397,0.31604957580566406,-5.84468412399292
1726225816311113700,1.54211376953125,-0.8671321868896484,0.5734313130378723,-6.531809329986572
1726225816321108700,1.552108642578125,-0.3533993363380432,0.8032682538032532,-7.117443561553955
1726225816331105000,1.56210498046875,0.2187640368938446,1.089758276939392,-7.291404724121094
1726225816341101000,1.57210107421875,0.8328210711479187,1.0722848176956177,-6.638004779815674
1726225816351096800,1.582096923828125,1.2717288732528687,1.561967134475708,-5.813729763031006
1726225816361092900,1.5920927734375,1.4328278303146362,2.4407474994659424,-5.714983940124512
1726225816371088000,1.602087890625,1.3966578245162964,2.96437406539917,-5.92606782913208
1726225816381084000,1.612083984375,1.1359343528747559,3.0822620391845703,-6.039321422576904
1726225816391080000,1.622079833984375,1.3252209424972534,2.0102710723876953,-6.016932010650635
1726225816401075700,1.63207568359375,2.2777163982391357,0.38894641399383545,-5.711728096008301
1726225816411070700,1.64207080078125,3.0687596797943115,-0.7743611931800842,-5.389683723449707
1726225816421066800,1.652066650390625,3.724128007888794,-1.7893693447113037,-5.056469440460205
1726225816431063000,1.66206298828125,4.27755069732666,-2.8884518146514893,-4.624972820281982
1726225816441058800,1.672058837890625,4.788040637969971,-4.352474212646484,-4.009689807891846
1726225816451053800,1.6820537109375,4.775918960571289,-3.8467657566070557,-2.3696165084838867
1726225816461049900,1.6920498046875,4.193856716156006,-1.043347954750061,0.27130553126335144
1726225816471046000,1.7020458984375,3.800870895385742,0.4967000484466553,1.9699636697769165
1726225816481042000,1.7120419921875,3.894914388656616,0.2580869495868683,2.295710802078247
1726225816491037000,1.722036865234375,4.218123912811279,-0.8811950087547302,1.8654087781906128
1726225816501032700,1.73203271484375,4.299533367156982,-2.319026231765747,1.2323063611984253
1726225816511028700,1.74202880859375,4.2818169593811035,-3.5893232822418213,0.554323673248291
1726225816521024800,1.752024658203125,4.376894950866699,-5.231471061706543,0.2793770432472229
1726225816531019800,1.762019775390625,4.256161689758301,-6.471027374267578,-0.0001555285998620093
1726225816541015600,1.772015625,3.8475403785705566,-7.256295204162598,-0.024750353768467903
1726225816551011600,1.782011474609375,3.640216588973999,-7.5848774909973145,0.10916963219642639
1726225816561007600,1.792007568359375,3.3198955059051514,-7.687495708465576,0.1656707227230072
1726225816571002600,1.802002685546875,2.721162796020508,-7.538121223449707,0.09975162893533707
1726225816580998700,1.81199853515625,2.2905690670013428,-7.10372257232666,-0.08699747920036316
1726225816590994700,1.82199462890625,1.9098377227783203,-6.771330833435059,-0.4455580413341522
1726225816600990500,1.831990478515625,2.0412399768829346,-6.729106903076172,-0.7835344672203064
1726225816610985500,1.8419853515625,2.5599496364593506,-6.523186206817627,-0.7813301682472229
1726225816620981800,1.851981689453125,3.245058059692383,-7.082338809967041,-0.26051732897758484
1726225816630977500,1.8619775390625,4.002973556518555,-7.076422691345215,0.40067896246910095
1726225816640973600,1.8719736328125,4.62556266784668,-7.130385875701904,1.1057724952697754
1726225816650969900,1.881969970703125,4.8839592933654785,-6.962577819824219,1.6615360975265503
1726225816660964600,1.891964599609375,4.890798568725586,-6.544881343841553,2.0391845703125
1726225816670960600,1.901960693359375,4.964481830596924,-5.896334648132324,2.33130145072937
1726225816680956700,1.911956787109375,5.035715103149414,-4.771888256072998,2.475842237472534
1726225816690952400,1.921952392578125,5.018247604370117,-2.755131244659424,2.208549976348877
1726225816700947500,1.931947509765625,4.7265238761901855,1.1577597856521606,1.2026944160461426
1726225816710943700,1.94194384765625,4.1855149269104,5.161998748779297,-0.23948022723197937
1726225816720939500,1.951939453125,3.6277289390563965,8.160720825195312,-1.3917485475540161
1726225816730935600,1.961935546875,2.6928040981292725,10.446398735046387,-2.1816253662109375
1726225816740930600,1.9719306640625,1.2639514207839966,11.533933639526367,-2.134451389312744
1726225816750926800,1.9819267578125,0.06841074675321579,10.871899604797363,-1.4512983560562134
1726225816760922600,1.991922607421875,-0.24299640953540802,8.00350284576416,-0.7856309413909912
1726225816770918700,2.001918701171875,0.17683708667755127,3.4246528148651123,-0.4404767155647278
1726225816780913700,2.01191357421875,0.4956459701061249,-0.8988853096961975,-0.1389528214931488
1726225816790909400,2.021909423828125,0.43521884083747864,-2.6198582649230957,0.1278514415025711
1726225816800905700,2.03190576171875,0.2715905010700226,-2.665602922439575,0.16405577957630157
1726225816810901800,2.04190185546875,0.161968395113945,-2.299577236175537,0.02750273048877716
1726225816820897500,2.0518974609375,0.20803868770599365,-1.9588338136672974,-0.1975162774324417
1726225816830892500,2.061892578125,0.3322937786579132,-1.6836344003677368,-0.3190211355686188
1726225816840888800,2.071888916015625,0.45222631096839905,-1.3835744857788086,-0.2866900861263275
1726225816850884600,2.081884521484375,0.5205872654914856,-1.0385998487472534,-0.12539947032928467
1726225816860880600,2.091880615234375,0.57076495885849,-0.6996060013771057,0.13502226769924164
1726225816870875600,2.101875732421875,0.6004440188407898,-0.3519391417503357,0.4996524155139923
1726225816880871400,2.111871337890625,0.7190356254577637,0.12735529243946075,0.861045241355896
1726225816890867700,2.12186767578125,0.8453099727630615,0.7293372750282288,1.1837817430496216
1726225816900863700,2.13186376953125,0.9547547101974487,1.2968978881835938,1.3710824251174927
1726225816910858800,2.141858642578125,1.0576053857803345,1.7079163789749146,1.3976272344589233
1726225816920854500,2.1518544921875,1.1446442604064941,1.8103010654449463,1.2386023998260498
1726225816930850800,2.161850830078125,1.221411943435669,1.5977128744125366,0.9339538216590881
1726225816940846600,2.1718466796875,1.2165870666503906,1.2116652727127075,0.6490193009376526
1726225816950842600,2.181842529296875,1.0296595096588135,0.7983203530311584,0.5135005712509155
1726225816960837600,2.191837646484375,0.8293373584747314,0.3471406400203705,0.46327099204063416
1726225816970833700,2.201833740234375,0.7017277479171753,0.012074772268533707,0.4457665681838989
1726225816980829700,2.21182958984375,0.6356110572814941,-0.24893365800380707,0.41449224948883057
1726225816990825700,2.22182568359375,0.6582303643226624,-0.3963145911693573,0.33946436643600464
1726225817000820700,2.23182080078125,0.7039624452590942,-0.38166800141334534,0.2593306303024292
1726225817010816500,2.24181640625,0.7483125925064087,-0.19482460618019104,0.16719964146614075
1726225817020812500,2.2518125,0.7848583459854126,0.05835678428411484,0.07977712154388428
1726225817030808600,2.26180859375,0.7945860624313354,0.2787621319293976,0.020257335156202316
1726225817040804600,2.2718046875,0.7985280752182007,0.4032694399356842,0.0025654230266809464
1726225817050799600,2.281799560546875,0.820025622844696,0.44207409024238586,0.02652561664581299
1726225817060795600,2.291795654296875,0.8447182178497314,0.39271292090415955,0.08084451407194138
1726225817070791700,2.301791748046875,0.8498889803886414,0.29214370250701904,0.16480493545532227
1726225817080787700,2.31178759765625,0.8299094438552856,0.16902337968349457,0.2706967294216156
1726225817090782700,2.32178271484375,0.8449459075927734,0.08116036653518677,0.3841165006160736
1726225817100778500,2.331778564453125,0.8870975971221924,0.025721341371536255,0.48267585039138794
1726225817110774500,2.3417744140625,0.95167076587677,0.010043845511972904,0.5476220846176147
1726225817120770800,2.351770751953125,1.0125164985656738,0.014996260404586792,0.5553194284439087
1726225817130766600,2.3617666015625,1.0217564105987549,0.07647639513015747,0.5248579382896423
1726225817140761600,2.37176171875,0.9941548109054565,0.16615967452526093,0.4697587192058563
1726225817150757600,2.381757568359375,0.9699357748031616,0.2242882251739502,0.3946421146392822
1726225817160753700,2.391753662109375,0.9976111054420471,0.2136979103088379,0.305854469537735
1726225817170749700,2.401749755859375,1.0745375156402588,0.14202265441417694,0.20702987909317017
1726225817180745700,2.411745849609375,1.1368643045425415,0.05769285559654236,0.12431955337524414
1726225817190740500,2.421740478515625,1.148707628250122,-0.04610331356525421,0.06229586526751518
1726225817200736500,2.431736572265625,1.1181620359420776,-0.1319361925125122,0.010752779431641102
1726225817210732800,2.44173291015625,1.0447996854782104,-0.18743300437927246,-0.055158328264951706
1726225817220728600,2.451728515625,0.9419049620628357,-0.19757725298404694,-0.12048007547855377
1726225817230723600,2.4617236328125,0.8286721110343933,-0.17907866835594177,-0.18156340718269348
1726225817240719600,2.4717197265625,0.7332547903060913,-0.16898475587368011,-0.21830837428569794
1726225817250715600,2.481715576171875,0.6634986400604248,-0.12498268485069275,-0.21200226247310638
1726225817260711700,2.491711669921875,0.6176544427871704,-0.0865388885140419,-0.16496151685714722
1726225817270707700,2.501707763671875,0.5816215872764587,-0.07386117428541183,-0.08840656280517578
1726225817280702500,2.511702392578125,0.55544114112854,-0.10646998137235641,0.003287938656285405
1726225817290698500,2.521698486328125,0.5294668078422546,-0.17852899432182312,0.11845766752958298
1726225817300694800,2.53169482421875,0.508597731590271,-0.2221371978521347,0.24823404848575592
1726225817310690600,2.541690673828125,0.486370712518692,-0.24775519967079163,0.3859623372554779
1726225817320686600,2.5516865234375,0.4785442054271698,-0.2560397684574127,0.5277109742164612
1726225817330681600,2.561681640625,0.4941716492176056,-0.2684330642223358,0.6646429896354675
1726225817340677600,2.571677734375,0.5026812553405762,-0.2599966824054718,0.7818705439567566
1726225817350673700,2.581673583984375,0.5087133049964905,-0.24606169760227203,0.8576539754867554
1726225817360669700,2.591669677734375,0.497507244348526,-0.21785403788089752,0.8833329677581787
1726225817370665500,2.60166552734375,0.5011067986488342,-0.18114528059959412,0.8560824394226074
1726225817380660500,2.611660400390625,0.46592989563941956,-0.161612868309021,0.7845931053161621
1726225817390656800,2.62165673828125,0.4328555464744568,-0.1194840520620346,0.6940168738365173
1726225817400652500,2.631652587890625,0.3847721815109253,-0.06762485206127167,0.6114642024040222
1726225817410648600,2.641648681640625,0.3721756935119629,-0.025654230266809464,0.5654479265213013
1726225817420644600,2.65164453125,0.3763720393180847,0.013335512951016426,0.5669758319854736
1726225817430639600,2.6616396484375,0.3684121072292328,0.0639403685927391,0.6062462329864502
1726225817440635600,2.6716357421875,0.3621334433555603,0.11193399131298065,0.6547360420227051
1726225817450631700,2.681631591796875,0.37072640657424927,0.10963594913482666,0.6733949184417725
1726225817460627500,2.69162744140625,0.38041844964027405,0.09873642772436142,0.6644818782806396
1726225817470623700,2.701623779296875,0.3563442528247833,0.1280628889799118,0.6533202528953552
1726225817480618800,2.71161865234375,0.3188285827636719,0.14708425104618073,0.6623436212539673
1726225817490614500,2.721614501953125,0.2869923710823059,0.07156047224998474,0.6918178796768188
1726225817500610600,2.731610595703125,0.2832423448562622,-0.06726265698671341,0.7343416213989258
1726225817510606600,2.741606689453125,0.2903202474117279,-0.2822202444076538,0.792378306388855
1726225817520602600,2.7516025390625,0.26431819796562195,-0.5307967662811279,0.8330317139625549
1726225817530596900,2.761596923828125,0.19607682526111603,-0.7247097492218018,0.8400097489356995
1726225817540593000,2.771593017578125,0.1285553127527237,-0.8800836801528931,0.8119509220123291
1726225817550589200,2.781589111328125,0.038421425968408585,-0.9970036149024963,0.7672969102859497
1726225817560585000,2.7915849609375,-0.06437872350215912,-1.0362080335617065,0.7449498176574707
1726225817570581000,2.8015810546875,-0.13038517534732819,-1.0515345335006714,0.7722011208534241
1726225817580576000,2.811575927734375,-0.19149699807167053,-1.0320782661437988,0.8404470086097717
1726225817590572000,2.821572021484375,-0.24033990502357483,-1.0280771255493164,0.9751752614974976
1726225817600568000,2.831568115234375,-0.28537502884864807,-1.084080696105957,1.1319917440414429
1726225817610564000,2.841564208984375,-0.3167300224304199,-1.1414276361465454,1.2524782419204712
1726225817620560000,2.851559814453125,-0.35973501205444336,-1.152147650718689,1.3045611381530762
1726225817630555000,2.861554931640625,-0.42827704548835754,-1.121891975402832,1.2851197719573975
1726225817640551200,2.87155126953125,-0.48345640301704407,-0.9642440676689148,1.1782187223434448
1726225817650547000,2.881546875,-0.5167691111564636,-0.8005041480064392,0.9904719591140747
1726225817660543000,2.89154296875,-0.5289503931999207,-0.6168227195739746,0.7352803945541382
1726225817670539000,2.9015390625,-0.5108885765075684,-0.444453626871109,0.3672128915786743
1726225817680535000,2.91153515625,-0.49553996324539185,-0.3399999141693115,-0.032932382076978683
1726225817690530000,2.921530029296875,-0.5159001350402832,-0.32221105694770813,-0.37778642773628235
1726225817700526000,2.931526123046875,-0.5208951234817505,-0.35390907526016235,-0.669021725654602
1726225817710521900,2.94152197265625,-0.4870727062225342,-0.41350290179252625,-0.9316509962081909
1726225817720518100,2.95151806640625,-0.4224812090396881,-0.447409987449646,-1.131975769996643
1726225817730514200,2.96151416015625,-0.3346072733402252,-0.34416723251342773,-1.2547597885131836
1726225817740509000,2.971509033203125,-0.25234782695770264,-0.12423859536647797,-1.2930994033813477
1726225817750505000,2.9815048828125,-0.24744229018688202,0.16789233684539795,-1.2532920837402344
1726225817760501000,2.9915009765625,-0.28386420011520386,0.47590315341949463,-1.1451480388641357
1726225817770497000,3.0014970703125,-0.3145821690559387,0.7479445338249207,-0.9895070791244507
1726225817780493000,3.0114931640625,-0.35407525300979614,0.9007159471511841,-0.7792643904685974
1726225817790488000,3.021488037109375,-0.43661433458328247,0.8091279864311218,-0.5584009885787964
1726225817800483800,3.03148388671875,-0.5487792491912842,0.3626072108745575,-0.4004558026790619
1726225817810480000,3.041480224609375,-0.6455143094062805,-0.17386899888515472,-0.37747910618782043
1726225817820476200,3.05147607421875,-0.680141270160675,-0.527363657951355,-0.4816071093082428
1726225817830472000,3.061471923828125,-0.6506288647651672,-0.7256935238838196,-0.6487284302711487
1726225817840467000,3.071467041015625,-0.5472894310951233,-0.8546728491783142,-0.8121693134307861
1726225817850463000,3.081462890625,-0.4217115640640259,-0.9425680637359619,-0.9561869502067566
1726225817860459000,3.091458984375,-0.396488219499588,-0.9481263756752014,-1.0699177980422974
1726225817870455000,3.101455078125,-0.4221331477165222,-0.9485958814620972,-1.1673575639724731
1726225817880451000,3.111451171875,-0.46457141637802124,-1.0189030170440674,-1.2349737882614136
1726225817890445800,3.12144580078125,-0.504190981388092,-1.1030088663101196,-1.2643392086029053
1726225817900441900,3.13144189453125,-0.5558789372444153,-1.1410140991210938,-1.238386631011963
1726225817910438100,3.141438232421875,-0.6298210620880127,-1.1407970190048218,-1.148112416267395
1726225817920434000,3.151433837890625,-0.7254440188407898,-1.1363122463226318,-0.9825607538223267
1726225817930430000,3.161429931640625,-0.8089144229888916,-1.0977097749710083,-0.7638617157936096
1726225817940425000,3.171425048828125,-0.8803102970123291,-1.0292696952819824,-0.48435282707214355
1726225817950421000,3.1814208984375,-0.955411970615387,-0.9569510221481323,-0.1613295078277588
1726225817960417000,3.1914169921875,-1.050371766090393,-0.8614252805709839,0.1829349249601364
1726225817970413000,3.2014130859375,-1.133514642715454,-0.7593306303024292,0.5189598202705383
1726225817980408000,3.211407958984375,-1.1926811933517456,-0.6553533673286438,0.8300135731697083
1726225817990403800,3.22140380859375,-1.2087440490722656,-0.5294292569160461,1.1090539693832397
1726225818000400100,3.231400146484375,-1.1708558797836304,-0.39439231157302856,1.361864686012268
1726225818010396000,3.24139599609375,-1.0875508785247803,-0.24307337403297424,1.568827748298645
1726225818020392000,3.251391845703125,-0.9968965649604797,-0.04904717206954956,1.6974881887435913
1726225818030387000,3.261386962890625,-0.7887824773788452,0.4673672020435333,1.6386339664459229
1726225818040383000,3.271383056640625,-0.588392972946167,2.1454131603240967,1.0503445863723755
1726225818050379000,3.28137890625,-0.6047069430351257,3.5896213054656982,0.009206813760101795
1726225818060375000,3.291375,-0.6759504675865173,2.75838041305542,-1.0398051738739014
1726225818070370800,3.301370849609375,-0.7658489346504211,0.5905746221542358,-1.7386740446090698
1726225818080365800,3.31136572265625,-0.7889939546585083,-0.8228491544723511,-2.0506973266601562
1726225818090362000,3.321362060546875,-0.751275360584259,-1.1562154293060303,-2.15503191947937
1726225818100358000,3.33135791015625,-0.6645936965942383,-0.894890546798706,-2.2147884368896484
1726225818110354000,3.34135400390625,-0.5935102105140686,-0.701517641544342,-2.177572250366211
1726225818120350200,3.35135009765625,-0.49846652150154114,-0.8856517672538757,-2.0135538578033447
1726225818130345200,3.36134521484375,-0.405152291059494,-1.2697200775146484,-1.7157009840011597
1726225818140341000,3.371341064453125,-0.325654000043869,-1.5676473379135132,-1.3512208461761475
1726225818150337000,3.3813369140625,-0.342993825674057,-1.6442409753799438,-0.9713653922080994
1726225818160332800,3.391332763671875,-0.4850676357746124,-1.5079795122146606,-0.6073309779167175
1726225818170327800,3.401327880859375,-0.6249914169311523,-1.2610656023025513,-0.2716381549835205
1726225818180324000,3.411323974609375,-0.677611231803894,-1.0239976644515991,-0.02502812072634697
1726225818190320000,3.421320068359375,-0.6557605266571045,-0.8410696983337402,0.14823581278324127
1726225818200316000,3.43131591796875,-0.6056302785873413,-0.6659380793571472,0.2624630331993103
1726225818210312000,3.44131201171875,-0.6180073022842407,-0.4784057140350342,0.34943148493766785
1726225818220307200,3.45130712890625,-0.6637479066848755,-0.2718312442302704,0.36600223183631897
1726225818230303000,3.461302978515625,-0.731484055519104,-0.06375900655984879,0.2932949960231781
1726225818240299000,3.471299072265625,-0.7890650629997253,0.13671976327896118,0.1544329822063446
1726225818250295000,3.481294921875,-0.829361617565155,0.30326560139656067,-0.0005374259199015796
1726225818260291000,3.491291015625,-0.863125205039978,0.3977801203727722,-0.16006849706172943
1726225818270286000,3.5012861328125,-0.8579384088516235,0.4048050045967102,-0.28986990451812744
1726225818280282000,3.5112822265625,-0.8139035701751709,0.34393954277038574,-0.37205344438552856
1726225818290278000,3.52127783203125,-0.7809581160545349,0.23862110078334808,-0.39769595861434937
1726225818300274000,3.53127392578125,-0.7669781446456909,0.12472701817750931,-0.3741016983985901
1726225818310269200,3.541269287109375,-0.8073740005493164,-0.05409146472811699,-0.3257908821105957
1726225818320265000,3.551264892578125,-0.8887383937835693,-0.31530147790908813,-0.27387601137161255
1726225818330261000,3.561260986328125,-0.941141664981842,-0.5821605920791626,-0.23688338696956635
1726225818340257000,3.571257080078125,-0.9899920225143433,-0.8303467035293579,-0.21842022240161896
1726225818350253000,3.581253173828125,-1.031784176826477,-1.029626488685608,-0.23563756048679352
1726225818360248000,3.591248046875,-1.0551239252090454,-1.151400089263916,-0.27709606289863586
1726225818370244000,3.601244140625,-0.9957716464996338,-1.2011666297912598,-0.28339841961860657
1726225818380240000,3.611239990234375,-0.9145857095718384,-1.2328521013259888,-0.2558421492576599
1726225818390236000,3.62123583984375,-0.8448220491409302,-1.2247494459152222,-0.195125550031662
1726225818400231000,3.63123095703125,-0.7952404022216797,-1.1853197813034058,-0.11136407405138016
1726225818410227000,3.64122705078125,-0.7549059987068176,-1.1063802242279053,-0.029104089364409447
1726225818420223000,3.651222900390625,-0.7141772508621216,-1.0375555753707886,-0.00020186760229989886
1726225818430219000,3.661218994140625,-0.6529074907302856,-1.0087369680404663,-0.026261698454618454
1726225818440215000,3.671215087890625,-0.6160498857498169,-1.0715529918670654,-0.12502609193325043
1726225818450210000,3.6812099609375,-0.6030760407447815,-1.2078948020935059,-0.26671531796455383
1726225818460206000,3.6912060546875,-0.588482677936554,-1.3813982009887695,-0.40748706459999084
1726225818470201900,3.701201904296875,-0.5912241339683533,-1.5808409452438354,-0.5370439887046814
1726225818480198000,3.711197998046875,-0.5967686176300049,-1.815420150756836,-0.65878826379776
1726225818490193000,3.72119287109375,-0.6109027862548828,-2.0936033725738525,-0.7839781641960144
1726225818500189200,3.731189208984375,-0.6318061947822571,-2.384458541870117,-0.9105515480041504
1726225818510185000,3.74118505859375,-0.6598178744316101,-2.6386890411376953,-1.028196096420288
1726225818520181000,3.751180908203125,-0.6910336017608643,-2.8138906955718994,-1.118062138557434
1726225818530177800,3.761177734375,-0.690242350101471,-2.8848328590393066,-1.1711781024932861
1726225818540172800,3.7711728515625,-0.6542952656745911,-2.878736972808838,-1.171951174736023
1726225818550168800,3.7811689453125,-0.5923048853874207,-2.7945775985717773,-1.1514132022857666
1726225818560164600,3.79116455078125,-0.528627872467041,-2.588650703430176,-1.191976547241211
1726225818570161000,3.801160888671875,-0.4651767313480377,-2.2622082233428955,-1.3027012348175049
1726225818580156000,3.811156005859375,-0.41019952297210693,-1.8506122827529907,-1.4572588205337524
1726225818590151700,3.821151611328125,-0.3830922544002533,-1.5077507495880127,-1.5783424377441406
1726225818600147700,3.831147705078125,-0.3708481192588806,-1.2527190446853638,-1.6015896797180176
1726225818610143700,3.841143798828125,-0.34993723034858704,-1.0941064357757568,-1.4945273399353027
1726225818620139800,3.851139892578125,-0.35022619366645813,-0.9788911938667297,-1.3135738372802734
1726225818630134800,3.861134765625,-0.36083781719207764,-0.8191044330596924,-1.1109403371810913
1726225818640130800,3.871130859375,-0.3813103437423706,-0.6680079102516174,-0.8927925229072571
1726225818650126600,3.881126708984375,-0.40593233704566956,-0.5735724568367004,-0.7235448956489563
1726225818660123000,3.891122802734375,-0.4348313510417938,-0.5064645409584045,-0.683436393737793
1726225818670118000,3.901117919921875,-0.4272133708000183,-0.44465067982673645,-0.7584248781204224
1726225818680114000,3.911114013671875,-0.34211206436157227,-0.4112173616886139,-0.8215790390968323
1726225818690109700,3.921109619140625,-0.20102284848690033,-0.5953645706176758,-0.765924334526062
1726225818700105700,3.931105712890625,0.03322213515639305,-0.6650408506393433,-0.566066324710846
1726225818710101800,3.941101806640625,0.366638720035553,-0.5712760090827942,-0.2661808133125305
1726225818720096800,3.9510966796875,0.45568177103996277,-0.3368571102619171,0.10139106959104538
1726225818730092800,3.9610927734375,0.3599610924720764,-0.1600455939769745,0.4585758149623871
1726225818740088600,3.971088623046875,0.14873754978179932,0.006499444600194693,0.7617857456207275
1726225818750084600,3.981084716796875,-0.03690262511372566,0.1892695277929306,0.9897670149803162
1726225818760080000,3.991079833984375,-0.08672690391540527,0.34075304865837097,1.1202054023742676
1726225818770076000,4.001075927734375,-0.023130886256694794,0.5116675496101379,1.1809260845184326
1726225818780071700,4.01107177734375,0.08101283013820648,0.6970283389091492,1.1919845342636108
1726225818790067700,4.021067626953125,0.14856897294521332,0.7591561675071716,1.140263319015503
1726225818800062700,4.031062744140625,0.20590390264987946,0.7498830556869507,1.0505645275115967
1726225818810058800,4.041058837890625,0.21637411415576935,0.6473321914672852,0.9376036524772644
1726225818820054800,4.0510546875,0.17235659062862396,0.5202434659004211,0.8145656585693359
1726225818830050800,4.06105078125,0.0784551277756691,0.33894795179367065,0.6803457736968994
1726225818840046600,4.071046630859375,-0.012871324084699154,0.1526385396718979,0.5394144654273987
1726225818850041900,4.081041748046875,-0.04620957374572754,-0.010464625433087349,0.3917118310928345
1726225818860038000,4.091037841796875,-0.052924200892448425,-0.10044804215431213,0.2672455608844757
1726225818870033700,4.10103369140625,-0.06338349729776382,-0.1087227538228035,0.17135576903820038
1726225818880029700,4.11102978515625,-0.08603847771883011,-0.09678113460540771,0.10479352623224258
1726225818890024700,4.121024658203125,-0.12231659144163132,-0.14924220740795135,0.03795324265956879
1726225818900020700,4.131020751953125,-0.15827885270118713,-0.24958638846874237,-0.03868667408823967
1726225818910016800,4.141016845703125,-0.18508969247341156,-0.33473750948905945,-0.11313800513744354
1726225818920012800,4.1510126953125,-0.18315757811069489,-0.385501891374588,-0.17191317677497864
1726225818930007800,4.1610078125,-0.16324006021022797,-0.4217222034931183,-0.2103457748889923
1726225818940003800,4.17100390625,-0.13284087181091309,-0.432951420545578,-0.2214900404214859
1726225818949999900,4.180999755859375,-0.09862004965543747,-0.40653738379478455,-0.20830181241035461
1726225818959995600,4.19099560546875,-0.06933379918336868,-0.38105255365371704,-0.15717603266239166
1726225818969990700,4.20099072265625,-0.03274676203727722,-0.3317220211029053,-0.09606021642684937
1726225818979986700,4.210986572265625,-0.007514641620218754,-0.29557305574417114,-0.05463181808590889
1726225818989982700,4.220982666015625,0.013097692281007767,-0.3190687894821167,-0.0395178496837616
1726225818999978800,4.230978759765625,0.022715698927640915,-0.3409282863140106,-0.0409061536192894
1726225819009974800,4.240974853515625,0.006727410946041346,-0.3534590005874634,-0.05939514935016632
1726225819019969800,4.2509697265625,-0.009868077002465725,-0.3927060067653656,-0.08918074518442154
1726225819029965600,4.260965576171875,-0.004297276493161917,-0.47341975569725037,-0.11968006193637848
1726225819039961900,4.2709619140625,0.030645526945590973,-0.5499997735023499,-0.13860023021697998
1726225819049957600,4.28095751953125,0.06643148511648178,-0.5586457252502441,-0.1588604897260666
1726225819059952600,4.29095263671875,0.07778001576662064,-0.48774462938308716,-0.15897154808044434
1726225819069948700,4.30094873046875,0.057260092347860336,-0.36748000979423523,-0.14779292047023773
1726225819079945000,4.310945068359375,0.04092799127101898,-0.2556312382221222,-0.1320057064294815
1726225819089940700,4.320940673828125,0.03978922590613365,-0.2038002610206604,-0.11677215248346329
1726225819099935700,4.330935791015625,0.03557769954204559,-0.19589494168758392,-0.10440683364868164
1726225819109931800,4.340931884765625,0.03286820277571678,-0.20685571432113647,-0.09479628503322601
1726225819119927600,4.350927490234375,0.0237567275762558,-0.19744090735912323,-0.09091286361217499
1726225819129923800,4.360923828125,0.005806223955005407,-0.1509178727865219,-0.10342492908239365
1726225819139920000,4.370919921875,-0.011273160576820374,-0.08036834001541138,-0.14380456507205963
1726225819149914600,4.38091455078125,-0.01332965400069952,-0.031019700691103935,-0.20995855331420898
1726225819159910700,4.39091064453125,-0.004406466148793697,-0.04297090321779251,-0.256543904542923
1726225819169907000,4.400906982421875,0.008704009465873241,-0.10576345026493073,-0.2629602551460266
1726225819179902700,4.41090283203125,0.01811295747756958,-0.164828360080719,-0.2409958392381668
1726225819189897700,4.420897705078125,0.019768910482525826,-0.1750522404909134,-0.21796828508377075
1726225819199893800,4.430893798828125,0.020296748727560043,-0.12837634980678558,-0.2072346806526184
1726225819209889500,4.4408896484375,0.009192965924739838,-0.04880695417523384,-0.21774457395076752
1726225819219885800,4.4508857421875,0.005428587552160025,0.014387727715075016,-0.22956500947475433
1726225819229880800,4.460880859375,0.021698903292417526,0.03396089747548103,-0.21992996335029602
1726225819239876900,4.470876953125,0.043304864317178726,0.014088388532400131,-0.17982596158981323
1726225819249872600,4.48087255859375,0.06423438340425491,-0.02985270321369171,-0.13189810514450073
1726225819259869000,4.490868896484375,0.08872561156749725,-0.07658212631940842,-0.09952232986688614
1726225819269864000,4.500864013671875,0.12311181426048279,-0.11767842620611191,-0.09736809879541397
1726225819279859700,4.510859619140625,0.1511508971452713,-0.13667155802249908,-0.10912276059389114
1726225819289855700,4.520855712890625,0.1603529155254364,-0.14466503262519836,-0.11961375176906586
1726225819299851800,4.530851806640625,0.1624525636434555,-0.14425703883171082,-0.12188595533370972
1726225819309846500,4.540846435546875,0.16406723856925964,-0.14246712625026703,-0.11322509497404099
1726225819319842800,4.5508427734375,0.1725243628025055,-0.13013163208961487,-0.09809940308332443
1726225819329838800,4.5608388671875,0.18859148025512695,-0.10395515710115433,-0.08310447633266449
1726225819339834600,4.570834716796875,0.19695700705051422,-0.05270102992653847,-0.07099507749080658
1726225819349829600,4.58082958984375,0.20335498452186584,0.03976152837276459,-0.06393583863973618
1726225819359826000,4.590825927734375,0.21951451897621155,0.1580628752708435,-0.08021627366542816
1726225819369821700,4.60082177734375,0.23992817103862762,0.27717089653015137,-0.11782649904489517
1726225819379817700,4.610817626953125,0.31695079803466797,0.3428327143192291,-0.17783205211162567
1726225819389813800,4.620813720703125,0.3806290924549103,0.35306110978126526,-0.24192501604557037
1726225819399808800,4.630808837890625,0.3824280798435211,0.3424540162086487,-0.28342583775520325
1726225819409804800,4.6408046875,0.3207697570323944,0.27737435698509216,-0.29302921891212463
1726225819419800800,4.65080078125,0.29547905921936035,0.17846135795116425,-0.2685864567756653
1726225819429796600,4.660796630859375,0.3109789192676544,0.11711250990629196,-0.235413059592247
1726225819439791600,4.67079150390625,0.3182655870914459,0.14792607724666595,-0.2249169945716858
1726225819449788000,4.680787841796875,0.30959221720695496,0.24601323902606964,-0.23784904181957245
1726225819459783700,4.69078369140625,0.2880781292915344,0.3529934883117676,-0.2588310241699219
1726225819469779700,4.70077978515625,0.26146063208580017,0.41155585646629333,-0.2638518810272217
1726225819479774700,4.710774658203125,0.28180691599845886,0.4274056553840637,-0.248304083943367
1726225819489770800,4.720770751953125,0.32298311591148376,0.4488001763820648,-0.1956203728914261
1726225819499766800,4.730766845703125,0.35809823870658875,0.46579593420028687,-0.09738514572381973
1726225819509762800,4.7407626953125,0.3812893033027649,0.4809000492095947,0.032886043190956116
1726225819519757800,4.7507578125,0.4069507122039795,0.500609815120697,0.1699965000152588
1726225819529753000,4.760753173828125,0.4334355890750885,0.5504125356674194,0.32013991475105286
1726225819539748900,4.770748779296875,0.4560655355453491,0.596402108669281,0.4729313254356384
1726225819549745200,4.7807451171875,0.47441017627716064,0.6207996010780334,0.6171298027038574
1726225819559740200,4.790740234375,0.48908525705337524,0.5979939103126526,0.7595447301864624
1726225819569736000,4.80073583984375,0.505678653717041,0.5739671587944031,0.8851050138473511
1726225819579732000,4.81073193359375,0.5150356292724609,0.5428105592727661,0.9891464710235596
1726225819589728000,4.82072802734375,0.5053409337997437,0.5091926455497742,1.07106614112854
1726225819599723000,4.830722900390625,0.5339549779891968,0.4383419454097748,1.1022365093231201
1726225819609719000,4.840718994140625,0.5593668818473816,0.3063066601753235,1.068293809890747
1726225819619715000,4.850715087890625,0.5399758815765381,0.17836174368858337,0.9803212881088257
1726225819629710800,4.8607109375,0.4579326808452606,0.06199892237782478,0.8414962887763977
1726225819639705900,4.870705810546875,0.3823945224285126,-0.0641062781214714,0.6681937575340271
1726225819649702100,4.8807021484375,0.33510956168174744,-0.18125633895397186,0.48169952630996704
1726225819659698000,4.890697998046875,0.2987124025821686,-0.26282045245170593,0.30547070503234863
1726225819669694000,4.90069384765625,0.26592114567756653,-0.31457391381263733,0.14985473453998566
1726225819679689000,4.91068896484375,0.24870994687080383,-0.37459996342658997,0.023428093641996384
1726225819689685000,4.92068505859375,0.2473629266023636,-0.4460107684135437,-0.05970114842057228
1726225819699681000,4.930680908203125,0.23551824688911438,-0.4951588809490204,-0.11021891236305237
1726225819709677000,4.940677001953125,0.20045852661132812,-0.47318485379219055,-0.12633955478668213
1726225819719672800,4.9506728515625,0.14831729233264923,-0.3441168963909149,-0.12656885385513306
1726225819729667800,4.960667724609375,0.13309626281261444,-0.1303337663412094,-0.10925698280334473
1726225819739664100,4.9706640625,0.16556605696678162,0.09457364678382874,-0.0806594267487526
1726225819749660000,4.980659912109375,0.22951601445674896,0.31660857796669006,-0.029323533177375793
1726225819759656000,4.990656005859375,0.2905876338481903,0.5112392902374268,0.05379239097237587
1726225819769651000,5.00065087890625,0.34839367866516113,0.6902977228164673,0.15250378847122192
1726225819779647200,5.010647216796875,0.4182422459125519,0.8665787577629089,0.23737047612667084
1726225819789643000,5.02064306640625,0.4544854760169983,1.086694598197937,0.30235427618026733
1726225819799639000,5.03063916015625,0.43157458305358887,1.2889180183410645,0.3453187942504883
1726225819809634000,5.040634033203125,0.33697429299354553,1.3457413911819458,0.3967670500278473
1726225819819629800,5.0506298828125,0.22235344350337982,1.1979923248291016,0.4626435339450836
1726225819829626000,5.060626220703125,0.15616829693317413,0.908717155456543,0.5230336785316467
1726225819839622100,5.0706220703125,0.15430009365081787,0.6054502129554749,0.5691678524017334
1726225819849617000,5.080616943359375,0.18289898335933685,0.400450199842453,0.608276903629303
1726225819859613000,5.090613037109375,0.21578022837638855,0.31083858013153076,0.6484410762786865
1726225819869609200,5.100609130859375,0.24730220437049866,0.31463488936424255,0.6982073187828064
1726225819879605000,5.11060498046875,0.2821730971336365,0.39260053634643555,0.749932587146759
1726225819889600000,5.12060009765625,0.3380337059497833,0.49870169162750244,0.8040056824684143
1726225819899596000,5.130595947265625,0.4323812425136566,0.6049423813819885,0.8611711859703064
1726225819909591800,5.140591796875,0.5514301657676697,0.691368579864502,0.9137864708900452
1726225819919588000,5.150588134765625,0.6229487657546997,0.7867542505264282,0.9641977548599243
1726225819929583000,5.1605830078125,0.6295228004455566,0.9303737282752991,1.0167748928070068
1726225819939579100,5.1705791015625,0.5954327583312988,1.065834641456604,1.0478441715240479
1726225819949575000,5.180574951171875,0.48310887813568115,1.1105976104736328,1.0244193077087402
1726225819959571000,5.190571044921875,0.34806424379348755,1.094617247581482,0.9212816953659058
1726225819969566200,5.200566162109375,0.31215256452560425,1.0753834247589111,0.747622549533844
1726225819979562000,5.21056201171875,0.32844817638397217,1.1079703569412231,0.5563061237335205
1726225819989558000,5.22055810546875,0.33207860589027405,1.177178978919983,0.3733147382736206
1726225819999553800,5.2305537109375,0.30565446615219116,1.2763702869415283,0.18794752657413483
1726225820009548800,5.240548828125,0.2730832099914551,1.3264049291610718,-0.021629128605127335
1726225820019545000,5.250545166015625,0.2608587443828583,1.2838654518127441,-0.2445676624774933
1726225820029541000,5.260541015625,0.27773788571357727,1.1749475002288818,-0.4519227147102356
1726225820039537000,5.270536865234375,0.28354623913764954,1.0726405382156372,-0.590406060218811
1726225820049532000,5.280531982421875,0.2563127279281616,0.9948850870132446,-0.6422492265701294
1726225820059528200,5.290528076171875,0.21698664128780365,0.9212023019790649,-0.6112561821937561
1726225820069524000,5.30052392578125,0.19808298349380493,0.8304628133773804,-0.512711763381958
1726225820079520000,5.31052001953125,0.21975712478160858,0.7220079898834229,-0.35736212134361267
1726225820089515000,5.320514892578125,0.28714442253112793,0.6366701722145081,-0.15904264152050018
1726225820099510800,5.3305107421875,0.34985387325286865,0.6141662001609802,0.06343516707420349
1726225820109507000,5.340507080078125,0.3918290138244629,0.6774588823318481,0.2948971390724182
1726225820119503000,5.350503173828125,0.41618043184280396,0.8412603735923767,0.5266294479370117
1726225820129498000,5.360498046875,0.4557262361049652,1.0419197082519531,0.7386325001716614
1726225820139494000,5.370493896484375,0.48575446009635925,1.149390697479248,0.9135081768035889
1726225820149490200,5.380490234375,0.5140318870544434,1.0993363857269287,1.0308305025100708
1726225820159486000,5.39048583984375,0.5496641993522644,0.933449923992157,1.0954407453536987
1726225820169481000,5.40048095703125,0.5668021440505981,0.7459639310836792,1.123590350151062
1726225820179477000,5.41047705078125,0.5386765003204346,0.6393043398857117,1.1114082336425781
1726225820189473000,5.42047314453125,0.4781402051448822,0.6113020181655884,1.0549635887145996
1726225820199469000,5.430468994140625,0.39482560753822327,0.6195812225341797,0.9422279596328735
1726225820209464000,5.440464111328125,0.3292865455150604,0.5918534398078918,0.786107063293457
1726225820219460000,5.450460205078125,0.2968740165233612,0.5174644589424133,0.6145150661468506
1726225820229456000,5.460455810546875,0.2836359739303589,0.4279279112815857,0.45844054222106934
1726225820239452000,5.470451904296875,0.26363271474838257,0.37721145153045654,0.341235876083374
1726225820249447200,5.480447265625,0.2099449783563614,0.3730614483356476,0.26068857312202454
1726225820259443000,5.49044287109375,0.15719547867774963,0.42974257469177246,0.19380168616771698
1726225820269439000,5.50043896484375,0.10824071615934372,0.5181728601455688,0.12506896257400513
1726225820279435000,5.51043505859375,0.05828887224197388,0.5439509153366089,0.058628425002098083
1726225820289430000,5.520429931640625,0.017830662429332733,0.5341707468032837,0.016954215243458748
1726225820299426000,5.530426025390625,0.0056919739581644535,0.5149152874946594,-0.0024495755787938833
1726225820309422000,5.540422119140625,0.001112668658606708,0.5109202861785889,0.028375981375575066
1726225820319417900,5.55041796875,-0.008360194973647594,0.585493803024292,0.10120038688182831
1726225820329412900,5.560412841796875,-0.03955167159438133,0.726767361164093,0.19726380705833435
1726225820339409200,5.5704091796875,-0.05540386959910393,0.8977968692779541,0.2785402834415436
1726225820349405000,5.580405029296875,-0.051413122564554214,1.0102730989456177,0.3476645052433014
1726225820359401000,5.59040087890625,-0.027156254276633263,0.9939433932304382,0.4291953146457672
1726225820369396000,5.60039599609375,-0.02269439399242401,0.9487063884735107,0.5347310304641724
1726225820379392000,5.61039208984375,-0.0327179990708828,0.9136197566986084,0.6425099968910217
1726225820389388000,5.620387939453125,-0.012796222232282162,0.8703447580337524,0.7347158193588257
1726225820399384000,5.630384033203125,0.025439046323299408,0.866044282913208,0.8046211004257202
1726225820409379000,5.640379150390625,0.05464326962828636,0.9165346026420593,0.8496466279029846
1726225820419374800,5.650374755859375,0.06329774856567383,1.031859040260315,0.8487398624420166
1726225820429371100,5.66037109375,0.046659648418426514,1.1200217008590698,0.8027915358543396
1726225820439367200,5.6703671875,0.04026246815919876,1.1288442611694336,0.7068010568618774
1726225820449362000,5.68036181640625,0.07876911759376526,1.0533171892166138,0.5954748392105103
1726225820459358000,5.69035791015625,0.11369381099939346,0.9527781009674072,0.49643585085868835
1726225820469354000,5.70035400390625,0.11644112318754196,0.8999183177947998,0.41466084122657776
1726225820479350000,5.71035009765625,0.08183494210243225,0.9462109804153442,0.33862438797950745
1726225820489345000,5.720344970703125,0.06946536153554916,1.0204945802688599,0.24640631675720215
1726225820499341000,5.730341064453125,0.09529988467693329,0.9405515193939209,0.1485215574502945
1726225820509336800,5.7403369140625,0.1324688345193863,0.7035413980484009,0.08610425889492035
1726225820519332900,5.750332763671875,0.14585840702056885,0.43463799357414246,0.06976736336946487
1726225820529328400,5.760328369140625,0.11686616390943527,0.23085372149944305,0.08435536175966263
1726225820539324200,5.77032421875,0.07097244262695312,0.12295255064964294,0.10725881159305573
1726225820549320200,5.7803203125,0.03213396668434143,0.09464555233716965,0.12000656872987747
1726225820559316200,5.790316162109375,0.015156581997871399,0.1075592190027237,0.10221318900585175
1726225820569311200,5.800311279296875,0.02003576047718525,0.0938870832324028,0.08433112502098083
1726225820579307300,5.810307373046875,0.03092675656080246,0.06963872909545898,0.08622223883867264
1726225820589303300,5.82030322265625,0.03151265159249306,0.05146212503314018,0.1137143149971962
1726225820599299000,5.830299072265625,0.027452662587165833,0.0922553613781929,0.16376709938049316
1726225820609294000,5.840294189453125,0.025360750034451485,0.206742525100708,0.2264283448457718
1726225820619290400,5.850290283203125,0.03530126437544823,0.32465052604675293,0.2864498794078827
1726225820629286400,5.860286376953125,0.052136171609163284,0.42832231521606445,0.35527366399765015
1726225820639282200,5.8702822265625,0.06686797738075256,0.5240874886512756,0.43398579955101013
1726225820649277200,5.880277099609375,0.08390768617391586,0.6247376203536987,0.5161733627319336
1726225820659273200,5.890273193359375,0.09943684190511703,0.7234998941421509,0.6004701256752014
1726225820669269200,5.900269287109375,0.10316473245620728,0.8520967364311218,0.6815345883369446
1726225820679265300,5.910265380859375,0.09881100058555603,1.0373177528381348,0.7447460889816284
1726225820689260300,5.92026025390625,0.06520723551511765,1.2700444459915161,0.788937509059906
1726225820699256000,5.930256103515625,0.021256819367408752,1.4831881523132324,0.7999011874198914
1726225820709252400,5.94025244140625,0.013110475614666939,1.5760449171066284,0.7691941261291504
1726225820719247400,5.950247314453125,0.04977954179048538,1.5780478715896606,0.7179352045059204
1726225820729243400,5.960243408203125,0.05754745006561279,1.4915928840637207,0.6560454964637756
1726225820739239200,5.9702392578125,0.03247138857841492,1.3443323373794556,0.5796729326248169
1726225820749235200,5.980235107421875,-0.00041199102997779846,1.1573195457458496,0.5004825592041016
1726225820759230200,5.990230224609375,0.009668073616921902,0.9297478795051575,0.4266461133956909
1726225820769226200,6.000226318359375,0.029214611276984215,0.7277737259864807,0.37950044870376587
1726225820779222300,6.01022216796875,0.016501745209097862,0.5691702365875244,0.3589816093444824
1726225820789218300,6.02021826171875,-0.022294653579592705,0.456525981426239,0.296403169631958
1726225820799213000,6.030213134765625,-0.06649220734834671,0.37985730171203613,0.20303301513195038
1726225820809209300,6.040209228515625,-0.08747605234384537,0.324046790599823,0.08128367364406586
1726225820819205400,6.050205322265625,-0.10560312122106552,0.2588030695915222,-0.05243098363280296
1726225820829201200,6.060201171875,-0.16452370584011078,0.22131454944610596,-0.1535506695508957
1726225820839196200,6.070196044921875,-0.22738681733608246,0.16995415091514587,-0.2251436412334442
1726225820849192200,6.080192138671875,-0.26176688075065613,0.062069229781627655,-0.22322669625282288
1726225820859188200,6.090188232421875,-0.269430935382843,-0.05469413846731186,-0.17472946643829346
1726225820869184300,6.100184326171875,-0.28237709403038025,-0.14410418272018433,-0.08681505918502808
1726225820879179300,6.11017919921875,-0.3161454498767853,-0.2247375100851059,0.02015666663646698
1726225820889175300,6.12017529296875,-0.3591352701187134,-0.29805752635002136,0.12449212372303009
1726225820899171300,6.13017138671875,-0.3940144181251526,-0.3670549690723419,0.20313900709152222
1726225820909167400,6.14016748046875,-0.41840630769729614,-0.4184931218624115,0.2670205235481262
1726225820919162400,6.150162353515625,-0.3936215937137604,-0.4382931888103485,0.31855854392051697
1726225820929158100,6.160158203125,-0.3361995816230774,-0.4200558662414551,0.364430695772171
1726225820939154200,6.170154296875,-0.32605186104774475,-0.35803377628326416,0.4103534519672394
1726225820949150200,6.180150146484375,-0.34702426195144653,-0.21050770580768585,0.4557243883609772
1726225820959145200,6.190145263671875,-0.36360085010528564,0.00871972180902958,0.5078024864196777
1726225820969141200,6.200141357421875,-0.3023050129413605,0.2837318480014801,0.5647326111793518
1726225820979137300,6.21013720703125,-0.2087705284357071,0.5704139471054077,0.6277257204055786
1726225820989133300,6.22013330078125,-0.12142016738653183,0.9836419820785522,0.7231981754302979
1726225820999128300,6.23012841796875,-0.022717829793691635,1.5743236541748047,0.8691407442092896
1726225821009124400,6.240124267578125,0.053463224321603775,1.9129118919372559,0.9596636891365051
1726225821019120000,6.2501201171875,0.12083001434803009,1.6164849996566772,0.9132953882217407
1726225821029116200,6.2601162109375,0.1523464024066925,0.8534190058708191,0.7392431497573853
1726225821039111200,6.270111083984375,0.18945355713367462,0.2808452546596527,0.5127519965171814
1726225821049107200,6.280107177734375,0.2391585260629654,0.035838425159454346,0.31596648693084717
1726225821059103200,6.290103271484375,0.2955847680568695,-0.13861113786697388,0.18856218457221985
1726225821069099300,6.300099365234375,0.3479132354259491,-0.3854616582393646,0.1368047147989273
1726225821079094300,6.31009423828125,0.39313212037086487,-0.6857847571372986,0.11168498545885086
1726225821089090300,6.32009033203125,0.43601247668266296,-0.9223371148109436,0.08309914916753769
1726225821099086300,6.33008642578125,0.471581369638443,-0.9983341097831726,0.05993710458278656
1726225821109082000,6.34008203125,0.4808949828147888,-0.9241965413093567,0.06601709872484207
1726225821119077000,6.3500771484375,0.4621149003505707,-0.7627019286155701,0.0978783592581749
1726225821129073200,6.3600732421875,0.4215451180934906,-0.5919591784477234,0.13566036522388458
1726225821139069400,6.3700693359375,0.3923203647136688,-0.42634305357933044,0.14038586616516113
1726225821149065200,6.380065185546875,0.37204334139823914,-0.2984178364276886,0.11121094226837158
1726225821159060200,6.390060302734375,0.34451475739479065,-0.22463203966617584,0.07072184234857559
1726225821169056300,6.40005615234375,0.3014112412929535,-0.18425452709197998,0.031151793897151947
1726225821179052300,6.41005224609375,0.23159141838550568,-0.17661231756210327,-0.017169665545225143
1726225821189048300,6.42004833984375,0.1435622274875641,-0.2182207554578781,-0.0776846781373024
1726225821199043300,6.430043212890625,0.05186240002512932,-0.2962809205055237,-0.14347301423549652
1726225821209039000,6.4400390625,-0.032333437353372574,-0.3910231590270996,-0.21740582585334778
1726225821219035100,6.45003515625,-0.10036282241344452,-0.5083311200141907,-0.26995372772216797
1726225821229031400,6.460031494140625,-0.15434029698371887,-0.6716492176055908,-0.2963578999042511
1726225821239026400,6.4700263671875,-0.19631412625312805,-0.8807497024536133,-0.3057657778263092
1726225821249022200,6.480022216796875,-0.2192910760641098,-1.1184762716293335,-0.2956247329711914
1726225821259018200,6.490018310546875,-0.2255585640668869,-1.3591070175170898,-0.2616419792175293
1726225821269013200,6.50001318359375,-0.2376093566417694,-1.568182110786438,-0.1871027797460556
1726225821279009300,6.51000927734375,-0.2412877231836319,-1.6954545974731445,-0.07425025850534439
1726225821289005300,6.52000537109375,-0.22633327543735504,-1.7386524677276611,0.06157201901078224
1726225821299001300,6.53000146484375,-0.216439887881279,-1.6950058937072754,0.2058809995651245
1726225821308996000,6.53999609375,-0.21388192474842072,-1.554775595664978,0.3399554491043091
1726225821318992100,6.5499921875,-0.1915971338748932,-1.3712797164916992,0.4302818775177002
1726225821328988400,6.559988525390625,-0.16313032805919647,-1.1736164093017578,0.47347569465637207
1726225821338984200,6.569984130859375,-0.1271962970495224,-0.9435329437255859,0.49137264490127563
1726225821348979200,6.579979248046875,-0.07265529781579971,-0.6810073256492615,0.5032088160514832
1726225821358975200,6.589975341796875,-0.020796624943614006,-0.40573152899742126,0.5295559763908386
1726225821368971300,6.59997119140625,0.04234505817294121,-0.14182718098163605,0.5611985921859741
1726225821378967300,6.60996728515625,0.12706634402275085,0.037101563066244125,0.6130176186561584
1726225821388962300,6.61996240234375,0.22674712538719177,0.13401159644126892,0.7109449505805969
1726225821398958000,6.6299580078125,0.32506170868873596,0.2156990021467209,0.8433048725128174
1726225821408954000,6.6399541015625,0.41329917311668396,0.31112271547317505,0.9754919409751892
1726225821418950400,6.649950439453125,0.43225154280662537,0.39719077944755554,1.0972892045974731
1726225821428945400,6.6599453125,0.4320952296257019,0.4611372649669647,1.1841039657592773
1726225821438941200,6.669941162109375,0.42165642976760864,0.4718136191368103,1.2235448360443115
1726225821448937200,6.679937255859375,0.40968072414398193,0.4479128122329712,1.2079315185546875
1726225821458933200,6.689933349609375,0.3741794526576996,0.3874737024307251,1.1301648616790771
1726225821468928300,6.69992822265625,0.3133230209350586,0.31636276841163635,0.9753372073173523
1726225821478924300,6.70992431640625,0.2460356056690216,0.2934443950653076,0.7329080700874329
1726225821488920300,6.71992041015625,0.18346595764160156,0.3510725498199463,0.4335376024246216
1726225821498916000,6.729916015625,0.10746733844280243,0.41290581226348877,0.1117720678448677
1726225821508911400,6.739911376953125,0.02707475982606411,0.4469101130962372,-0.21183368563652039
1726225821518907400,6.749907470703125,-0.03339603915810585,0.4483996331691742,-0.49891525506973267
1726225821528903200,6.759903076171875,-0.07322840392589569,0.45732253789901733,-0.7331104278564453
1726225821538898200,6.769898193359375,-0.08805476129055023,0.45132458209991455,-0.9153441786766052
1726225821548894500,6.77989453125,-0.06305832415819168,0.3857756555080414,-1.0468635559082031
1726225821558890200,6.78989013671875,-0.050881024450063705,0.23248863220214844,-1.116201400756836
1726225821568886300,6.79988623046875,-0.06606397032737732,0.016825051978230476,-1.1165406703948975
1726225821578881300,6.80988134765625,-0.08703556656837463,-0.19257290661334991,-1.0735080242156982
1726225821588877300,6.819877197265625,-0.07565401494503021,-0.3344602882862091,-1.0025986433029175
1726225821598873300,6.829873291015625,-0.08129272609949112,-0.4131108820438385,-0.928816556930542
1726225821608869400,6.839869384765625,-0.09580136090517044,-0.438665509223938,-0.8658498525619507
1726225821618864400,6.849864501953125,-0.12002440541982651,-0.39559686183929443,-0.7901327013969421
1726225821628860200,6.859860107421875,-0.14925339818000793,-0.3042815923690796,-0.7118216753005981
1726225821638856400,6.8698564453125,-0.16449759900569916,-0.17873433232307434,-0.6203620433807373
1726225821648852200,6.879852294921875,-0.1587422490119934,-0.011927765794098377,-0.5156345963478088
1726225821658847200,6.88984716796875,-0.13301317393779755,0.17861075699329376,-0.40296903252601624
1726225821668843300,6.89984326171875,-0.09440213441848755,0.38047996163368225,-0.2690834105014801
1726225821678839600,6.909839599609375,-0.05265442281961441,0.5895141363143921,-0.11941028386354446
1726225821688835300,6.91983544921875,-0.017177388072013855,0.7967221736907959,0.029390646144747734
1726225821698830300,6.929830322265625,0.007866444997489452,1.0283234119415283,0.16454926133155823
1726225821708826400,6.939826416015625,0.024217987433075905,1.2895958423614502,0.30183708667755127
1726225821718822100,6.949822265625,0.02575409971177578,1.5818727016448975,0.4366052746772766
1726225821728818400,6.959818359375,0.015208779834210873,1.8629347085952759,0.5366501212120056
1726225821738813400,6.9698134765625,-0.011575696058571339,2.052610397338867,0.5887522101402283
1726225821748809200,6.979809326171875,-0.039390549063682556,2.098393440246582,0.599678099155426
1726225821758805200,6.98980517578125,-0.0577533096075058,2.028061866760254,0.6029311418533325
1726225821768801500,6.999801513671875,-0.10325821489095688,1.881246566772461,0.5936790704727173
1726225821778796500,7.009796630859375,-0.17675666511058807,1.6315518617630005,0.5431080460548401
1726225821788792300,7.019792236328125,-0.27154627442359924,1.2804502248764038,0.4327428936958313
1726225821798788400,7.029788330078125,-0.3644615709781647,0.8823660016059875,0.25993409752845764
1726225821808783400,7.039783447265625,-0.4332164227962494,0.48545750975608826,0.06739608198404312
1726225821818779100,7.049779052734375,-0.476321816444397,0.17605571448802948,-0.11628106981515884
1726225821828775400,7.059775390625,-0.4957873821258545,-0.028796494007110596,-0.3111152648925781
1726225821838771500,7.069771484375,-0.518608033657074,-0.23220260441303253,-0.4961048364639282
1726225821848766200,7.07976611328125,-0.5409663319587708,-0.4303439259529114,-0.6338882446289062
1726225821858762200,7.08976220703125,-0.5492591261863708,-0.5544131398200989,-0.716019332408905
1726225821868758500,7.099758544921875,-0.5441346764564514,-0.5731711387634277,-0.7319527864456177
1726225821878754300,7.10975439453125,-0.5341499447822571,-0.5230858325958252,-0.7019216418266296
1726225821888749300,7.119749267578125,-0.52519291639328,-0.4614885151386261,-0.6523866057395935
1726225821898745300,7.129745361328125,-0.5225681066513062,-0.37327319383621216,-0.595055103302002
1726225821908741000,7.1397412109375,-0.5379390716552734,-0.2650580406188965,-0.5622782707214355
1726225821918737400,7.1497373046875,-0.5692448019981384,-0.18306782841682434,-0.5458470582962036
1726225821928732400,7.159732421875,-0.5931203365325928,-0.1347021609544754,-0.5271346569061279
1726225821938728400,7.169728515625,-0.5970895290374756,-0.11205782741308212,-0.4893262982368469
1726225821948724200,7.17972412109375,-0.5985316038131714,-0.08474418520927429,-0.40871986746788025
1726225821958720500,7.189720458984375,-0.6006965041160583,-0.05620255321264267,-0.28531402349472046
1726225821968715500,7.199715576171875,-0.5870017409324646,-0.09296802431344986,-0.15069496631622314
1726225821978711300,7.209711181640625,-0.5675366520881653,-0.12587884068489075,-0.043408460915088654
1726225821988707300,7.219707275390625,-0.5521763563156128,-0.13625077903270721,0.09627540409564972
1726225821998703400,7.229703369140625,-0.5193691253662109,-0.09788288921117783,0.24884895980358124
1726225822008698000,7.239697998046875,-0.46616795659065247,0.028326978906989098,0.3908282220363617
1726225822018694400,7.2496943359375,-0.4062497615814209,0.1741963028907776,0.5537878274917603
1726225822028690400,7.2596904296875,-0.3481007218360901,0.40702128410339355,0.7161743640899658
1726225822038685400,7.269685546875,-0.2969648241996765,0.707423985004425,0.8458724021911621
1726225822048681200,7.27968115234375,-0.2799496352672577,0.9494630098342896,0.9324962496757507
1726225822058677500,7.289677490234375,-0.3092089891433716,1.1152780055999756,0.9541014432907104
1726225822068673300,7.29967333984375,-0.33422431349754333,1.1940155029296875,0.9285281300544739
1726225822078668300,7.309668212890625,-0.33428823947906494,1.133458137512207,0.896978497505188
1726225822088664300,7.319664306640625,-0.33187833428382874,0.9751648902893066,0.8593762516975403
1726225822098660400,7.329660400390625,-0.3485417366027832,0.7909820079803467,0.7905516624450684
1726225822108656400,7.339656494140625,-0.36228257417678833,0.5803587436676025,0.6854265332221985
1726225822118651400,7.3496513671875,-0.3606274425983429,0.33467599749565125,0.5411220788955688
1726225822128647400,7.3596474609375,-0.3613494038581848,0.07277034223079681,0.36919161677360535
1726225822138643200,7.369643310546875,-0.39025136828422546,-0.14339284598827362,0.18805672228336334
1726225822148639500,7.379639404296875,-0.44283363223075867,-0.2839840352535248,-0.003213103860616684
1726225822158634500,7.389634521484375,-0.47178083658218384,-0.41333192586898804,-0.19319875538349152
1726225822168630300,7.39963037109375,-0.47600117325782776,-0.5235700011253357,-0.3741261959075928
1726225822178626300,7.409626220703125,-0.4469849467277527,-0.5960697531700134,-0.5284832715988159
1726225822188622300,7.419622314453125,-0.40599119663238525,-0.6638296246528625,-0.6358746886253357
1726225822198617300,7.429617431640625,-0.3651753067970276,-0.8050136566162109,-0.7212803959846497
1726225822208613400,7.43961328125,-0.34810125827789307,-0.9629135727882385,-0.8005880117416382
1726225822218609400,7.449609375,-0.35486167669296265,-1.0888334512710571,-0.8523545265197754
1726225822228605200,7.459605224609375,-0.3743043541908264,-1.2118408679962158,-0.8710784316062927
1726225822238600200,7.46960009765625,-0.3995833396911621,-1.3600307703018188,-0.8565125465393066
1726225822248596500,7.479596435546875,-0.394655704498291,-1.4970529079437256,-0.8051170110702515
1726225822258592300,7.48959228515625,-0.37331101298332214,-1.603440284729004,-0.7388234734535217
1726225822268587300,7.499587158203125,-0.3556411862373352,-1.6294904947280884,-0.7055725455284119
1726225822278583300,7.509583251953125,-0.3574090003967285,-1.569142460823059,-0.7214428782463074
1726225822288579300,7.519579345703125,-0.36342161893844604,-1.4868276119232178,-0.7764725685119629
1726225822298575400,7.529575439453125,-0.35326218605041504,-1.4011398553848267,-0.849012553691864
1726225822308570400,7.5395703125,-0.3310562074184418,-1.3456660509109497,-0.9121137857437134
1726225822318566400,7.54956640625,-0.29313334822654724,-1.333846926689148,-0.9254383444786072
1726225822328562200,7.559562255859375,-0.25157418847084045,-1.317849040031433,-0.871430516242981
1726225822338558500,7.569558349609375,-0.21350961923599243,-1.2772057056427002,-0.7700521945953369
1726225822348553500,7.579553466796875,-0.1839360147714615,-1.215872883796692,-0.6433081030845642
1726225822358549200,7.58954931640625,-0.15253041684627533,-1.1492067575454712,-0.4971621036529541
1726225822368545300,7.599545166015625,-0.13460175693035126,-1.054258108139038,-0.35772326588630676
1726225822378541300,7.609541259765625,-0.17488792538642883,-0.8547934889793396,-0.2714003622531891
1726225822388536600,7.61953662109375,-0.24312423169612885,-0.553203821182251,-0.2903450131416321
1726225822398532400,7.629532470703125,-0.23998117446899414,-0.2378660887479782,-0.4109249413013458
1726225822408528400,7.6395283203125,-0.194488525390625,0.025286979973316193,-0.576362669467926
1726225822418524200,7.649524169921875,-0.14807309210300446,0.2284209281206131,-0.6861836910247803
1726225822428519200,7.659519287109375,-0.06719288229942322,0.3629566431045532,-0.655485987663269
1726225822438515500,7.669515380859375,0.09075547009706497,0.39869996905326843,-0.4724370539188385
1726225822448511500,7.679511474609375,0.28675055503845215,0.34780192375183105,-0.16412343084812164
1726225822458506200,7.68950634765625,0.459551602602005,0.26476535201072693,0.19183681905269623
1726225822468502300,7.699502197265625,0.5798165202140808,0.18070480227470398,0.5088856220245361
1726225822478498300,7.709498291015625,0.6260460615158081,0.14369751513004303,0.7710948586463928
1726225822488494300,7.719494384765625,0.6328080892562866,0.15940509736537933,0.9183197021484375
1726225822498489300,7.7294892578125,0.6344959735870361,0.1543235331773758,0.9352214932441711
1726225822508485400,7.7394853515625,0.6434535384178162,0.12055224925279617,0.849385678768158
1726225822518481200,7.749481201171875,0.6671212911605835,0.02954297885298729,0.7203541994094849
1726225822528477200,7.759477294921875,0.6557536125183105,-0.07556719332933426,0.5542389750480652
1726225822538472200,7.76947216796875,0.5874446034431458,-0.1848478764295578,0.31136801838874817
1726225822548468200,7.77946826171875,0.5560209155082703,-0.41287171840667725,-0.053636062890291214
1726225822558464000,7.789464111328125,0.6035109162330627,-0.8257778286933899,-0.4704569876194
1726225822568460300,7.799460205078125,0.663862943649292,-1.2632291316986084,-0.8047081828117371
1726225822578455300,7.809455322265625,0.6801242232322693,-1.6250768899917603,-0.9903329014778137
1726225822588451000,7.819451171875,0.6532326936721802,-1.8989968299865723,-1.0545121431350708
1726225822598447000,7.829447021484375,0.6017593741416931,-2.1084258556365967,-1.0581918954849243
1726225822608443100,7.839443115234375,0.5770729184150696,-2.270171880722046,-1.0523169040679932
1726225822618438100,7.849438232421875,0.5757027268409729,-2.3733646869659424,-1.0344666242599487
1726225822628434200,7.85943408203125,0.5819997787475586,-2.4391307830810547,-0.9966685771942139
1726225822638430200,7.86943017578125,0.5930052995681763,-2.4151341915130615,-0.9207695722579956
1726225822648425200,7.87942529296875,0.5945091843605042,-2.2390503883361816,-0.8436945080757141
1726225822658421000,7.8894208984375,0.5705732107162476,-1.7581180334091187,-0.955335259437561
1726225822668417300,7.899417236328125,0.4320012032985687,-0.902438223361969,-1.25687837600708
1726225822678413000,7.9094130859375,0.24765853583812714,-0.09829061478376389,-1.4777787923812866
1726225822688408000,7.919407958984375,0.19828619062900543,0.33844995498657227,-1.460291862487793
1726225822698404000,7.929404052734375,0.25893887877464294,0.5176883935928345,-1.2253528833389282
1726225822708400000,7.939400146484375,0.39081010222435,0.4968542456626892,-0.8475877642631531
1726225822718396200,7.949396240234375,0.4876234531402588,0.42681682109832764,-0.44256410002708435
1726225822728391200,7.95939111328125,0.5202951431274414,0.43897390365600586,-0.09928184747695923
1726225822738387200,7.96938720703125,0.5078813433647156,0.5537348389625549,0.15258394181728363
1726225822748383000,7.979383056640625,0.5064999461174011,0.789760172367096,0.28417500853538513
1726225822758379300,7.989379150390625,0.5178953409194946,1.0281050205230713,0.3428596258163452
1726225822768374300,7.999374267578125,0.5307104587554932,1.2747228145599365,0.3776375651359558
1726225822778370000,8.0093701171875,0.5135863423347473,1.4331226348876953,0.444344162940979
1726225822788366000,8.019365966796874,0.489327073097229,1.3619043827056885,0.5432893633842468
1726225822798362000,8.029362060546875,0.5049608945846558,1.0142955780029297,0.6445198655128479
1726225822808357000,8.039357177734376,0.49500975012779236,0.6487976908683777,0.7287359237670898
1726225822818353200,8.049353271484375,0.434150367975235,0.3914988040924072,0.7848551273345947
1726225822828349200,8.05934912109375,0.36928829550743103,0.2168433666229248,0.8083772659301758
1726225822838344200,8.06934423828125,0.3071037530899048,0.09778035432100296,0.7877768874168396
1726225822848340000,8.079340087890625,0.2481437623500824,0.06412092596292496,0.6998733878135681
1726225822858336300,8.089336181640626,0.21749690175056458,0.08500970155000687,0.5768819451332092
1726225822868332000,8.09933203125,0.21283583343029022,0.11632288247346878,0.4672934114933014
1726225822878327000,8.1093271484375,0.23741868138313293,0.13872459530830383,0.4252495765686035
1726225822888323000,8.119322998046876,0.2475179135799408,0.19718603789806366,0.4601689279079437
1726225822898319400,8.1293193359375,0.25894394516944885,0.3110574781894684,0.5297051072120667
1726225822908315100,8.139315185546875,0.28527382016181946,0.5018889307975769,0.6031000018119812
1726225822918310100,8.14931005859375,0.3270697295665741,0.6858958005905151,0.6834286451339722
1726225822928306200,8.15930615234375,0.37290993332862854,0.8147909045219421,0.7516023516654968
1726225822938302000,8.169302001953126,0.4057874381542206,0.9267140030860901,0.7952758073806763
1726225822948298200,8.17929833984375,0.4215427041053772,1.0430760383605957,0.8332820534706116
1726225822958293200,8.189293212890625,0.4092780649662018,1.1033811569213867,0.8486202955245972
1726225822968289000,8.1992890625,0.4032294750213623,1.091320514678955,0.8344453573226929
1726225822978285000,8.20928515625,0.4212396442890167,0.9825727343559265,0.7914201021194458
1726225822988280000,8.219280029296876,0.42257121205329895,0.8394891023635864,0.7131005525588989
1726225822998276400,8.2292763671875,0.38447415828704834,0.655953586101532,0.5959928035736084
1726225823008272100,8.239272216796875,0.3223988115787506,0.4507618546485901,0.4534308612346649
1726225823018268200,8.24926806640625,0.27730458974838257,0.2605290710926056,0.27518415451049805
1726225823028263200,8.25926318359375,0.2690834105014801,0.09681575745344162,0.08351913094520569
1726225823038259000,8.269259033203125,0.25991228222846985,-0.0483693964779377,-0.07634377479553223
1726225823048255200,8.279255126953124,0.2078527957201004,-0.166582852602005,-0.22168925404548645
1726225823058251300,8.289251220703125,0.14014698565006256,-0.2739197015762329,-0.3680717647075653
1726225823068246000,8.29924609375,0.07945673912763596,-0.37439730763435364,-0.5326322317123413
1726225823078242000,8.309241943359375,0.0229782871901989,-0.431190550327301,-0.7006793022155762
1726225823088238300,8.31923828125,-0.03651486709713936,-0.4853946566581726,-0.8323715329170227
1726225823098234000,8.329234130859374,-0.10581538081169128,-0.5822490453720093,-0.908640444278717
1726225823108229000,8.33922900390625,-0.17185191810131073,-0.7086141705513,-0.9311614632606506
1726225823118225200,8.34922509765625,-0.23215174674987793,-0.7231619358062744,-0.92052161693573
1726225823128221000,8.359220947265625,-0.23912550508975983,0.12137676030397415,-0.9102591276168823
1726225823138217200,8.36921728515625,-0.2546621263027191,1.7174874544143677,-0.9718196988105774
1726225823148212200,8.379212158203124,-0.28869864344596863,3.4053173065185547,-1.1564260721206665
1726225823158208300,8.389208251953125,-0.2469477355480194,4.385015487670898,-1.3054994344711304
1726225823168204000,8.3992041015625,-0.18085287511348724,4.575111389160156,-1.460660457611084
1726225823178199000,8.409198974609374,-0.22244665026664734,3.818789005279541,-1.4569756984710693
1726225823188195300,8.4191953125,-0.2771493196487427,2.550633668899536,-1.2062311172485352
1726225823198191000,8.429191162109374,-0.3627909719944,1.4676581621170044,-0.7265164852142334
1726225823208187100,8.439187255859375,-0.3916061222553253,0.7846258282661438,-0.26973241567611694
1726225823218182100,8.44918212890625,-0.33538171648979187,0.4325932264328003,0.06998494267463684
1726225823228178000,8.459177978515624,-0.22448822855949402,0.22592714428901672,0.2667597830295563
1726225823238174200,8.46917431640625,-0.09745758026838303,0.0792522132396698,0.39049530029296875
1726225823248170200,8.479170166015624,0.00330285239033401,-0.0094480961561203,0.4578258693218231
1726225823258165200,8.489165283203125,0.07822449505329132,-0.10649235546588898,0.4731238782405853
1726225823268161000,8.4991611328125,0.03314676880836487,-0.11096193641424179,0.4971511960029602
1726225823278157300,8.5091572265625,-0.04627961292862892,-0.09544450044631958,0.506574273109436
1726225823288153000,8.519153076171875,-0.05164188891649246,-0.047756604850292206,0.5033276081085205
1726225823298148000,8.529148193359376,-0.01943867839872837,0.04247875139117241,0.534013569355011
1726225823308144000,8.53914404296875,0.07270509749650955,0.2676977515220642,0.5288036465644836
1726225823318140000,8.549139892578125,0.0753227174282074,0.5505406260490417,0.5579804182052612
1726225823328135000,8.559135009765624,-0.004506601020693779,0.8428760766983032,0.5592321157455444
1726225823338131200,8.569131103515625,-0.11558598279953003,1.0296257734298706,0.5177991986274719
1726225823348127200,8.579127197265626,-0.21015137434005737,1.0408270359039307,0.4555712640285492
1726225823358123000,8.589123046875,-0.2610566318035126,0.8816106915473938,0.41296759247779846
1726225823368118000,8.599117919921875,-0.26889750361442566,0.619701623916626,0.40610089898109436
1726225823378114300,8.6091142578125,-0.27816158533096313,0.36819028854370117,0.4199890196323395
1726225823388110000,8.619110107421875,-0.2678205370903015,0.17741845548152924,0.4614714980125427
1726225823398106000,8.629106201171876,-0.2729814648628235,0.042748529464006424,0.5277743339538574
1726225823408101000,8.63910107421875,-0.2715737223625183,-0.05700070038437843,0.6086097955703735
1726225823418097000,8.649096923828125,-0.2405095398426056,-0.10313783586025238,0.6780881881713867
1726225823428093200,8.65909326171875,-0.21693789958953857,0.0482783168554306,0.7447125315666199
1726225823438089200,8.669089111328125,-0.2130640745162964,0.30745261907577515,0.8760468363761902
1726225823448084200,8.679084228515626,-0.20975695550441742,0.3067055940628052,0.973862886428833
1726225823458080000,8.689080078125,-0.19863319396972656,0.16776689887046814,0.995983898639679
1726225823468076300,8.699076171875,-0.2047661989927292,0.10640233755111694,0.9435787200927734
1726225823478071300,8.7090712890625,-0.23788659274578094,0.11576414853334427,0.842282772064209
1726225823488067000,8.719067138671875,-0.2811528444290161,0.12174028158187866,0.732971727848053
1726225823498063000,8.72906298828125,-0.2978751063346863,0.06244473531842232,0.6373834013938904
1726225823508059100,8.73905908203125,-0.28808531165122986,-0.061111025512218475,0.5590710043907166
1726225823518054100,8.74905419921875,-0.26626259088516235,-0.17247429490089417,0.5112726092338562
1726225823528050000,8.7590498046875,-0.2444331794977188,-0.2667456865310669,0.49666276574134827
1726225823538046000,8.7690458984375,-0.21913714706897736,-0.34720802307128906,0.4963597059249878
1726225823548041700,8.779041748046875,-0.19956956803798676,-0.40841758251190186,0.5125898122787476
1726225823558036700,8.78903662109375,-0.17182022333145142,-0.41924014687538147,0.555598795413971
1726225823568033000,8.799032958984375,-0.13743242621421814,-0.38479483127593994,0.598194420337677
1726225823578028800,8.80902880859375,-0.09277015179395676,-0.35632243752479553,0.6102138161659241
1726225823588024800,8.81902490234375,-0.058102719485759735,-0.3507596254348755,0.5958844423294067
1726225823598019800,8.829019775390625,-0.042825762182474136,-0.34606286883354187,0.561053991317749
1726225823608016000,8.839015869140624,-0.024935975670814514,-0.34347695112228394,0.5283415913581848
1726225823618012000,8.849011962890625,-0.0189028512686491,-0.3751680254936218,0.4799612760543823
1726225823628007000,8.8590068359375,-0.004274373408406973,-0.42662084102630615,0.41927236318588257
1726225823638003000,8.8690029296875,-0.009288839064538479,-0.47232678532600403,0.3782445192337036
1726225823647998700,8.878998779296875,0.042215097695589066,-0.4922967851161957,0.38427841663360596
1726225823657995000,8.8889951171875,0.09304072707891464,-0.4691946506500244,0.44437265396118164
1726225823667990000,8.898989990234375,0.1061117872595787,-0.44848403334617615,0.5056155323982239
1726225823677985800,8.90898583984375,0.09842883795499802,-0.5150127410888672,0.5002497434616089
1726225823687981800,8.91898193359375,0.08810429275035858,-0.6392942070960999,0.40939202904701233
1726225823697977900,8.928977783203125,0.08059550821781158,-0.7023887634277344,0.30347999930381775
1726225823707972900,8.938972900390626,0.061351507902145386,-0.6941052675247192,0.21882182359695435
1726225823717969000,8.948968994140625,0.03146684542298317,-0.6716880798339844,0.15161828696727753
1726225823727965000,8.95896484375,0.018247447907924652,-0.683959424495697,0.06744029372930527
1726225823737960700,8.968960693359374,0.027209250256419182,-0.695024311542511,-0.03003539703786373
1726225823747955700,8.978955810546875,0.035482361912727356,-0.6802363395690918,-0.11656069755554199
1726225823757952000,8.988951904296876,0.026285666972398758,-0.6494640111923218,-0.20345191657543182
1726225823767948000,8.998947998046875,-0.014460965059697628,-0.5935970544815063,-0.2931136190891266
1726225823777942800,9.00894287109375,-0.0681430995464325,-0.5645549893379211,-0.3903248608112335
1726225823787938800,9.018938720703124,-0.10112981498241425,-0.6006965041160583,-0.4882197380065918
1726225823797934800,9.028934814453125,-0.10614614188671112,-0.6769784688949585,-0.535866916179657
1726225823807931000,9.038930908203126,-0.0629533976316452,-0.7974782586097717,-0.5194130539894104
1726225823817926000,9.04892578125,-0.016349678859114647,-0.9232505559921265,-0.4456901252269745
1726225823827922000,9.058921875,0.003204315435141325,-1.035873293876648,-0.31988266110420227
1726225823837917700,9.068917724609374,0.022945795208215714,-1.1009901762008667,-0.17985525727272034
1726225823847914000,9.0789140625,0.009381784126162529,-1.10440993309021,-0.05248637869954109
1726225823857909000,9.088908935546876,-0.015626097097992897,-1.056133508682251,0.021615546196699142
1726225823867905000,9.098905029296875,-0.036918070167303085,-0.9537943601608276,0.06482294201850891
1726225823877900800,9.10890087890625,-0.07855765521526337,-0.7829762697219849,0.07709398865699768
1726225823887896800,9.118896728515624,-0.08853252977132797,-0.5774945020675659,0.0822828859090805
1726225823897891800,9.128891845703125,-0.07151120156049728,-0.4104144275188446,0.1086878627538681
1726225823907887900,9.138887939453125,-0.04487532749772072,-0.2882605493068695,0.1616445630788803
1726225823917884000,9.1488837890625,0.0016000272007659078,-0.17266951501369476,0.22413510084152222
1726225823927879000,9.15887890625,0.0542275533080101,-0.0503166988492012,0.29649239778518677
1726225823937874700,9.168874755859376,0.10858799517154694,0.06740354001522064,0.3650203049182892
1726225823947871000,9.17887109375,0.16110792756080627,0.18890947103500366,0.42525410652160645
1726225823957867000,9.188866943359375,0.197123721241951,0.32372480630874634,0.47779160737991333
1726225823967862000,9.198862060546874,0.22593939304351807,0.46622201800346375,0.5134885907173157
1726225823977857800,9.20885791015625,0.26196423172950745,0.6176560521125793,0.5212187170982361
1726225823987853800,9.218853759765626,0.28658169507980347,0.7683550119400024,0.5088584423065186
1726225823997849900,9.228849853515625,0.3044528365135193,0.8659742474555969,0.4833410978317261
1726225824007844900,9.238844970703125,0.3099866211414337,0.9129893779754639,0.4365951716899872
1726225824017841000,9.2488408203125,0.28970053791999817,0.9091224670410156,0.3884233832359314
1726225824027836700,9.258836669921875,0.23513555526733398,0.8479491472244263,0.32436344027519226
1726225824037833000,9.2688330078125,0.14357660710811615,0.7773181200027466,0.21195966005325317
1726225824047828000,9.278827880859374,0.07451284676790237,0.7188636064529419,0.027652133256196976
1726225824057824000,9.288823974609375,0.020184097811579704,0.6690657138824463,-0.19353671371936798
1726225824067819800,9.29881982421875,-0.03496011346578598,0.6191679239273071,-0.40790972113609314
1726225824077814800,9.308814697265625,-0.08239873498678207,0.5749285221099854,-0.603866457939148
1726225824087811000,9.31881103515625,-0.13273833692073822,0.4889499843120575,-0.7593782544136047
1726225824097806800,9.328806884765624,-0.14766216278076172,0.3115216791629791,-0.8472521901130676
1726225824107803000,9.338802978515625,-0.15007418394088745,0.08257104456424713,-0.8609059453010559
1726225824117798000,9.3487978515625,-0.1541682630777359,-0.13353808224201202,-0.8450425863265991
1726225824127793700,9.358793701171875,-0.17899052798748016,-0.3109155297279358,-0.833475649356842
1726225824137790000,9.3687900390625,-0.20013655722141266,-0.48068779706954956,-0.840857982635498
1726225824147786000,9.378785888671874,-0.24224485456943512,-0.6358046531677246,-0.8529580235481262
1726225824157781000,9.388781005859375,-0.2969496548175812,-0.7232609987258911,-0.8554014563560486
1726225824167776800,9.39877685546875,-0.32555386424064636,-0.7141580581665039,-0.8547583222389221
1726225824177772800,9.408772705078125,-0.34166279435157776,-0.6599366664886475,-0.8378464579582214
1726225824187768800,9.418768798828125,-0.3571072518825531,-0.5957448482513428,-0.8264052271842957
1726225824197763800,9.428763916015624,-0.3545173406600952,-0.5638745427131653,-0.7916771173477173
1726225824207760000,9.438759765625,-0.3147938847541809,-0.5101625919342041,-0.7138294577598572
1726225824217756000,9.448755859375,-0.2537885904312134,-0.36767736077308655,-0.5940201878547668
1726225824227750700,9.458750732421874,-0.21680182218551636,-0.15860721468925476,-0.43700796365737915
1726225824237747000,9.468746826171875,-0.21032261848449707,0.08178514242172241,-0.28510230779647827
1726225824247743000,9.478742919921874,-0.21772007644176483,0.3143952190876007,-0.15632516145706177
1726225824257738800,9.48873876953125,-0.22061972320079803,0.5587269067764282,-0.03720942139625549
1726225824267733800,9.498733642578125,-0.21013405919075012,0.8126732110977173,0.06286445260047913
1726225824277730000,9.50872998046875,-0.18903836607933044,1.0329104661941528,0.15929937362670898
1726225824287725800,9.518725830078125,-0.18038947880268097,1.2023324966430664,0.26510438323020935
1726225824297721900,9.528721923828124,-0.18188431859016418,1.3013888597488403,0.3892156779766083
1726225824307716900,9.538716796875,-0.1984691470861435,1.3165578842163086,0.4995187222957611
1726225824317713000,9.548712890625,-0.22809894382953644,1.2952251434326172,0.571519136428833
1726225824327709000,9.558708984375,-0.2651752233505249,1.270795464515686,0.5968657732009888
1726225824337704000,9.568703857421875,-0.32640233635902405,1.247563362121582,0.5809906721115112
1726225824347700000,9.578699951171876,-0.39308470487594604,1.1962552070617676,0.5166047811508179
1726225824357695700,9.58869580078125,-0.43653151392936707,1.116291880607605,0.4122791588306427
1726225824367692000,9.598692138671876,-0.43493014574050903,0.988061249256134,0.3095852732658386
1726225824377687000,9.60868701171875,-0.40556374192237854,0.819193959236145,0.2309141755104065
1726225824387682800,9.618682861328125,-0.3883480131626129,0.6540327072143555,0.18354825675487518
1726225824397678800,9.628678955078126,-0.38223978877067566,0.5480055809020996,0.1626051515340805
1726225824407675000,9.6386748046875,-0.38859620690345764,0.4660222828388214,0.13421373069286346
1726225824417670000,9.648669921875,-0.3973263204097748,0.3307875096797943,0.08236891031265259
1726225824427666000,9.658666015625,-0.3934580683708191,0.15077726542949677,0.005276521202176809
1726225824437662000,9.668661865234375,-0.37453925609588623,0.006065615452826023,-0.04819895327091217
1726225824447657700,9.67865771484375,-0.35794615745544434,-0.09162365645170212,-0.07900959998369217
1726225824457652700,9.68865283203125,-0.37485218048095703,-0.197010800242424,-0.12626339495182037
1726225824467649000,9.69864892578125,-0.4038026034832001,-0.3485665023326874,-0.22076007723808289
1726225824477644800,9.708644775390624,-0.4180566370487213,-0.517425537109375,-0.3205639123916626
1726225824487639800,9.718639892578125,-0.44082558155059814,-0.6748732328414917,-0.4110450744628906
1726225824497635800,9.7286357421875,-0.4801658093929291,-0.7609668374061584,-0.46571868658065796
1726225824507631900,9.7386318359375,-0.5004697442054749,-0.7860154509544373,-0.5004633665084839
1726225824517628000,9.7486279296875,-0.5038540959358215,-0.7829744219779968,-0.5347853899002075
1726225824527623000,9.758622802734376,-0.5013211369514465,-0.7838966846466064,-0.5660021305084229
1726225824537619200,9.768619140625,-0.48954999446868896,-0.7897718548774719,-0.5891604423522949
1726225824547615000,9.778614990234376,-0.46894511580467224,-0.7811722755432129,-0.6003422737121582
1726225824557611000,9.788611083984375,-0.4483759105205536,-0.795967698097229,-0.5950191617012024
1726225824567606000,9.79860595703125,-0.4293031692504883,-0.8792325258255005,-0.5678567886352539
1726225824577602000,9.80860205078125,-0.398203045129776,-0.9793484807014465,-0.5448042154312134
1726225824587598000,9.81859814453125,-0.3768327534198761,-1.0388280153274536,-0.5209883451461792
1726225824597594000,9.828593994140626,-0.3536432981491089,-1.0658090114593506,-0.48926421999931335
1726225824607589000,9.838589111328124,-0.32923462986946106,-1.0798007249832153,-0.4477703273296356
1726225824617585200,9.848585205078125,-0.2948097884654999,-1.0791254043579102,-0.38721269369125366
1726225824627581200,9.858581298828126,-0.25371667742729187,-1.0546331405639648,-0.30307331681251526
1726225824637576200,9.868576171875,-0.20584610104560852,-1.0144259929656982,-0.2074836790561676
1726225824647572000,9.878572021484375,-0.15945623815059662,-0.9254354238510132,-0.13385047018527985
1726225824657568000,9.888568115234374,-0.11126420646905899,-0.7921947836875916,-0.07643565535545349
1726225824667564000,9.89856396484375,-0.06455741822719574,-0.6528840661048889,-0.034089259803295135
1726225824677559000,9.90855908203125,-0.041480597108602524,-0.5378751754760742,-0.008078699000179768
1726225824687555000,9.91855517578125,-0.03582164645195007,-0.4305324852466583,0.004366518929600716
1726225824697551000,9.928551025390625,-0.017555290833115578,-0.34464552998542786,0.03128761425614357
1726225824707547100,9.938547119140624,0.01648683100938797,-0.30969393253326416,0.07651820778846741
1726225824717542100,9.948542236328125,0.04169045388698578,-0.2897205054759979,0.12171950936317444
1726225824727538200,9.9585380859375,0.050394728779792786,-0.22492899000644684,0.1488286256790161
1726225824737534000,9.968533935546875,0.06916149705648422,-0.1803809553384781,0.15668122470378876
1726225824747529000,9.978529052734375,0.1075134128332138,-0.25320351123809814,0.136398583650589
1726225824757525200,9.988525146484376,0.17863419651985168,-0.44272416830062866,0.11928138881921768
1726225824767521000,9.99852099609375,0.25735244154930115,-0.6456159949302673,0.1288200318813324
1726225824777517000,10.00851708984375,0.316425621509552,-0.7926398515701294,0.15970231592655182
1726225824787512000,10.018511962890624,0.3539503514766693,-0.9444602727890015,0.20562691986560822
1726225824797508000,10.028508056640625,0.36504054069519043,-1.0905561447143555,0.21724097430706024
1726225824807504100,10.038504150390626,0.36838388442993164,-1.1652711629867554,0.1876564472913742
1726225824817500200,10.048500244140625,0.3690672516822815,-1.1355782747268677,0.15160390734672546
1726225824827495200,10.0584951171875,0.34763625264167786,-1.0440161228179932,0.11497878283262253
1726225824837491000,10.068490966796874,0.3259919583797455,-0.944946825504303,0.058573298156261444
1726225824847487000,10.078487060546875,0.30519798398017883,-0.8294007778167725,-0.008712531067430973
1726225824857482200,10.088482177734376,0.28764429688453674,-0.7054444551467896,-0.07119188457727432
1726225824867478000,10.09847802734375,0.27077609300613403,-0.6139653921127319,-0.14950241148471832
1726225824877474000,10.10847412109375,0.241373211145401,-0.5448625087738037,-0.2458270788192749
1726225824887470000,10.118469970703124,0.1942664086818695,-0.49915415048599243,-0.3518957197666168
1726225824897465000,10.128465087890625,0.12057621777057648,-0.48728522658348083,-0.4547419548034668
1726225824907461000,10.138461181640626,0.04223427176475525,-0.4657842218875885,-0.5370775461196899
1726225824917457200,10.14845703125,-0.05555273965001106,-0.4224124848842621,-0.5988730192184448
1726225824927453000,10.158452880859375,-0.11115315556526184,-0.35090741515159607,-0.6299675703048706
1726225824937448000,10.168447998046876,-0.11252254992723465,-0.2415843904018402,-0.6168019771575928
1726225824947444200,10.1784443359375,-0.07895899564027786,-0.1237349882721901,-0.535280168056488
1726225824957440300,10.188440185546876,-0.029451897367835045,-0.05808141082525253,-0.3787510395050049
1726225824967435000,10.19843505859375,0.02955629490315914,-0.007573497481644154,-0.1794762760400772
1726225824977431000,10.20843115234375,0.06712017953395844,0.12212298065423965,0.041739724576473236
1726225824987427000,10.218427001953126,0.09686529636383057,0.3381756544113159,0.22931121289730072
1726225824997423000,10.228423095703125,0.1325567066669464,0.5658612847328186,0.3524744212627411
1726225825007418000,10.238418212890625,0.16297852993011475,0.753602147102356,0.4286818504333496
1726225825017414100,10.2484140625,0.1708814650774002,0.8890742063522339,0.44965797662734985
1726225825027410000,10.258409912109375,0.1526167094707489,0.993735134601593,0.4198116660118103
1726225825037406000,10.268406005859376,0.13431653380393982,1.0644950866699219,0.3658781051635742
1726225825047401200,10.278401123046875,0.12343085557222366,1.0688751935958862,0.2895069122314453
1726225825057397200,10.288397216796875,0.11449595540761948,1.0218405723571777,0.21790410578250885
1726225825067393000,10.29839306640625,0.10479085892438889,0.8961515426635742,0.15303935110569
1726225825077389000,10.30838916015625,0.09612520039081573,0.7367395162582397,0.11303147673606873
1726225825087384000,10.318384033203126,0.10857494920492172,0.5633174180984497,0.07258924841880798
1726225825097380000,10.328380126953125,0.11981455236673355,0.4442102015018463,0.0597355030477047
1726225825107376000,10.338376220703125,0.12309397011995316,0.38040006160736084,0.07787296175956726
1726225825117371100,10.34837109375,0.12555499374866486,0.30812934041023254,0.09513530135154724
1726225825127367000,10.358366943359375,0.12665274739265442,0.255760133266449,0.1266878992319107
1726225825137363200,10.36836328125,0.15188167989253998,0.22657695412635803,0.17006893455982208
1726225825147359200,10.378359130859375,0.20748475193977356,0.22890561819076538,0.22790800034999847
1726225825157354200,10.388354248046875,0.26381486654281616,0.27060407400131226,0.30674129724502563
1726225825167350000,10.39835009765625,0.32760876417160034,0.34294936060905457,0.4111212193965912
1726225825177346000,10.408345947265625,0.40881413221359253,0.4018496870994568,0.5244597792625427
1726225825187342000,10.418342041015626,0.4978500008583069,0.45032694935798645,0.6482376456260681
1726225825197337000,10.428337158203124,0.5661435723304749,0.5046442747116089,0.7572267055511475
1726225825207333000,10.4383330078125,0.6183620095252991,0.5740914940834045,0.8391684293746948
1726225825217329200,10.4483291015625,0.6610463857650757,0.6666147708892822,0.8882092237472534
1726225825227324000,10.458323974609375,0.687168538570404,0.7914389967918396,0.9131041765213013
1726225825237320200,10.4683203125,0.6684877872467041,0.9242492318153381,0.9076479077339172
1726225825247316200,10.478316162109374,0.6151041984558105,1.0427039861679077,0.8633464574813843
1726225825257312000,10.48831201171875,0.5274947285652161,1.1143182516098022,0.7922054529190063
1726225825267307000,10.49830712890625,0.43443214893341064,1.1137830018997192,0.6922295689582825
1726225825277303000,10.508302978515625,0.3747080862522125,1.0625168085098267,0.5572744607925415
1726225825287299000,10.518299072265625,0.344149112701416,1.0417399406433105,0.37852680683135986
1726225825297295000,10.528295166015624,0.29571688175201416,0.9596783518791199,0.1629985123872757
1726225825307290000,10.5382900390625,0.26019883155822754,0.8080976009368896,-0.08020962029695511
1726225825317286000,10.548285888671876,0.2337975800037384,0.6137329339981079,-0.3102364242076874
1726225825327282200,10.5582822265625,0.18102625012397766,0.3858640789985657,-0.49534982442855835
1726225825337278200,10.5682783203125,0.11220749467611313,0.10047414153814316,-0.6461984515190125
1726225825347273200,10.578273193359376,0.054838746786117554,-0.241581991314888,-0.7726727724075317
1726225825357269000,10.58826904296875,-0.004278101958334446,-0.5825377106666565,-0.869634211063385
1726225825367265000,10.59826513671875,-0.07856857776641846,-0.8307914733886719,-0.9547531008720398
1726225825377260000,10.608260009765624,-0.17448551952838898,-0.964297354221344,-1.0347079038619995
1726225825387256000,10.618256103515625,-0.28543227910995483,-1.0728248357772827,-1.1136554479599
1726225825397252000,10.628252197265626,-0.3804658353328705,-1.2077805995941162,-1.1724345684051514
1726225825407248100,10.638248046875,-0.4231845438480377,-1.2932316064834595,-1.1772407293319702
1726225825417243000,10.648242919921875,-0.43826043605804443,-1.363288164138794,-1.120145559310913
1726225825427239200,10.6582392578125,-0.44555190205574036,-1.4044382572174072,-1.014582872390747
1726225825437235200,10.668235107421875,-0.43773365020751953,-1.410581111907959,-0.8757701516151428
1726225825447231000,10.67823095703125,-0.42833030223846436,-1.3857399225234985,-0.7100046277046204
1726225825457226000,10.68822607421875,-0.4133202135562897,-1.2827600240707397,-0.5231556296348572
1726225825467222000,10.698221923828125,-0.3879874050617218,-1.1043332815170288,-0.30338624119758606
1726225825477218000,10.708218017578124,-0.36626267433166504,-0.8452436327934265,-0.06299201399087906
1726225825487213000,10.718213134765625,-0.32771608233451843,-0.5135080814361572,0.19483420252799988
1726225825497209000,10.728208984375,-0.30230632424354553,-0.08424723893404007,0.463545024394989
1726225825507205000,10.738205078125,-0.30324164032936096,0.4473109245300293,0.7045717239379883
1726225825517201200,10.748201171875,-0.29837045073509216,1.0018627643585205,0.9013396501541138
1726225825527196200,10.758196044921876,-0.2552775740623474,1.4519304037094116,1.0474175214767456
1726225825537192000,10.76819189453125,-0.17225459218025208,1.7479887008666992,1.1565165519714355
1726225825547187700,10.778187744140626,-0.06479870527982712,1.9368669986724854,1.2834433317184448
1726225825557184000,10.78818408203125,0.04571182653307915,2.02138352394104,1.4448498487472534
1726225825567179000,10.798178955078125,0.1328030526638031,1.9683897495269775,1.608380675315857
1726225825577174800,10.8081748046875,0.1926131248474121,1.7714647054672241,1.722990870475769
1726225825587170800,10.8181708984375,0.2504258155822754,1.4948676824569702,1.777469277381897
1726225825597165800,10.828165771484375,0.29693445563316345,1.2096847295761108,1.7688332796096802
1726225825607161900,10.838161865234374,0.3429733216762543,0.9918900728225708,1.7080698013305664
1726225825617158000,10.848157958984375,0.35159772634506226,0.8755512237548828,1.6187115907669067
1726225825627154000,10.85815380859375,0.352520227432251,0.7874131202697754,1.4820473194122314
1726225825637149000,10.86814892578125,0.36606132984161377,0.6455076336860657,1.2877686023712158
1726225825647144700,10.878144775390625,0.3868933916091919,0.42077359557151794,1.054561734199524
1726225825657141000,10.88814111328125,0.400003582239151,0.1638038456439972,0.7931788563728333
1726225825667137000,10.898136962890625,0.3769257068634033,-0.08186636865139008,0.5138289928436279
1726225825677131800,10.9081318359375,0.33695271611213684,-0.32497063279151917,0.2227925956249237
1726225825687127800,10.9181279296875,0.2922355830669403,-0.5926705002784729,-0.06824776530265808
1726225825697123800,10.928123779296875,0.2527076303958893,-0.8359220623970032,-0.3235708773136139
1726225825707119900,10.938119873046874,0.22018936276435852,-0.9492565989494324,-0.512789785861969
1726225825717115000,10.948114990234375,0.18128430843353271,-0.9485474228858948,-0.6606884598731995
1726225825727111000,10.95811083984375,0.14717906713485718,-0.8839300274848938,-0.7829949259757996
1726225825737106700,10.968106689453125,0.1254040002822876,-0.838854193687439,-0.8545671105384827
1726225825747101700,10.978101806640625,0.1085967868566513,-0.7968481779098511,-0.8259580731391907
1726225825757098000,10.988097900390626,0.09188225120306015,-0.6765512824058533,-0.6978616714477539
1726225825767094000,10.998093994140625,0.055811066180467606,-0.5318052768707275,-0.5103875994682312
1726225825777089800,11.00808984375,0.00177899154368788,-0.400219589471817,-0.3520006537437439
1726225825787084800,11.018084716796874,-0.05596579611301422,-0.32753393054008484,-0.2477181851863861
1726225825797081000,11.0280810546875,-0.09560295194387436,-0.2770712971687317,-0.17850902676582336
1726225825807076900,11.038076904296876,-0.134693905711174,-0.20718914270401,-0.1508166790008545
1726225825817073000,11.048072998046875,-0.15413284301757812,-0.11426212638616562,-0.13694027066230774
1726225825827068000,11.05806787109375,-0.14948083460330963,-0.03911064937710762,-0.09873456507921219
1726225825837063700,11.068063720703124,-0.13355965912342072,0.0031364047899842262,-0.038362834602594376
1726225825847060000,11.07806005859375,-0.08581743389368057,0.03170839324593544,0.051542285829782486
1726225825857055000,11.088054931640626,-0.023121297359466553,0.05525819584727287,0.15606363117694855
1726225825867051000,11.098051025390625,0.020238691940903664,0.08736979216337204,0.2589295506477356
1726225825877046800,11.108046875,0.04897979274392128,0.16510853171348572,0.32908788323402405
1726225825887042800,11.118042724609374,0.049550507217645645,0.24887773394584656,0.3526637852191925
1726225825897038000,11.1280380859375,0.04556562006473541,0.28228095173835754,0.3343140780925751
1726225825907033900,11.138033935546876,0.038849394768476486,0.33347436785697937,0.3193090260028839
1726225825917030000,11.14802978515625,0.03695322573184967,0.3653276562690735,0.30994027853012085
1726225825927026000,11.15802587890625,0.020365992560982704,0.33373695611953735,0.3100830316543579
1726225825937020700,11.168020751953126,-0.005598497111350298,0.26556456089019775,0.32018840312957764
1726225825947017000,11.178016845703125,-0.032101742923259735,0.20650416612625122,0.3126620352268219
1726225825957013000,11.188012939453126,-0.04562500864267349,0.1698167324066162,0.2826077342033386
1726225825967008000,11.198008056640624,-0.04770120978355408,0.17117413878440857,0.2326449602842331
1726225825977003800,11.208003662109375,-0.04331551492214203,0.19815462827682495,0.18212905526161194
1726225825987000000,11.218,-0.04719707369804382,0.2389497309923172,0.12480717897415161
1726225825996995800,11.227995849609375,-0.06399282813072205,0.22763875126838684,0.07232506573200226
1726225826006990800,11.237990966796875,-0.07363853603601456,0.18526972830295563,0.04361299052834511
1726225826016987000,11.24798681640625,-0.05277746170759201,0.17679262161254883,0.04850814864039421
1726225826026983000,11.25798291015625,0.0002889529860112816,0.19643768668174744,0.08113905787467957
1726225826036979000,11.26797900390625,0.05132018029689789,0.26989325881004333,0.14763686060905457
1726225826046974000,11.277973876953125,0.07646521180868149,0.3483063280582428,0.22007110714912415
1726225826056970000,11.287969970703125,0.08861588686704636,0.4640187919139862,0.2796180546283722
1726225826066965800,11.2979658203125,0.10253063589334488,0.6253107786178589,0.33331963419914246
1726225826076960800,11.307960693359375,0.11357875913381577,0.7641820907592773,0.34583356976509094
1726225826086957000,11.31795703125,0.09285324066877365,0.9025551676750183,0.3168077766895294
1726225826096952800,11.327952880859375,0.05281447991728783,1.0326646566390991,0.24837198853492737
1726225826106948900,11.337948974609375,0.035362519323825836,1.1108033657073975,0.13967294991016388
1726225826116944000,11.34794384765625,0.030607709661126137,1.0602350234985352,0.0010556770721450448
1726225826126939600,11.357939697265625,0.012010057456791401,0.90692138671875,-0.1326776146888733
1726225826136936000,11.36793603515625,-0.030115291476249695,0.6866492033004761,-0.25629276037216187
1726225826146932000,11.377931884765625,-0.07746070623397827,0.4257822036743164,-0.3818621337413788
1726225826156927000,11.387927001953125,-0.13478684425354004,0.1956150382757187,-0.5172194242477417
1726225826166922800,11.3979228515625,-0.2008761167526245,0.0017859158106148243,-0.663115918636322
1726225826176919000,11.4079189453125,-0.24829289317131042,-0.17113259434700012,-0.8144851922988892
1726225826186914000,11.4179140625,-0.29101505875587463,-0.32027894258499146,-0.9436730146408081
1726225826196909800,11.427909912109374,-0.31983497738838196,-0.4137588143348694,-1.0265495777130127
1726225826206905900,11.43790576171875,-0.3547714054584503,-0.4486193358898163,-1.0659472942352295
1726225826216902000,11.44790185546875,-0.3822648227214813,-0.4572114944458008,-1.0672639608383179
1726225826226896600,11.457896728515625,-0.3968171179294586,-0.5075010061264038,-1.0232235193252563
1726225826236893000,11.467892822265625,-0.38853150606155396,-0.6215586066246033,-0.9354816675186157
1726225826246889000,11.477888916015624,-0.37406015396118164,-0.7224678993225098,-0.8171899318695068
1726225826256884700,11.487884765625,-0.3571504056453705,-0.710185170173645,-0.6980512738227844
1726225826266879700,11.497879638671876,-0.3256627917289734,-0.5950969457626343,-0.5850328207015991
1726225826276876000,11.5078759765625,-0.28836122155189514,-0.43061476945877075,-0.4770083725452423
1726225826286871800,11.517871826171875,-0.2733106315135956,-0.2834828495979309,-0.3574864864349365
1726225826296867800,11.527867919921874,-0.29110482335090637,-0.15667909383773804,-0.23296400904655457
1726225826306862800,11.53786279296875,-0.29751265048980713,-0.028000475838780403,-0.14071451127529144
1726225826316859000,11.54785888671875,-0.27676767110824585,0.11894503235816956,-0.08347652107477188
1726225826326855000,11.55785498046875,-0.24305233359336853,0.2777935266494751,-0.04571608826518059
1726225826336850000,11.567849853515625,-0.23592278361320496,0.4247867166996002,-0.006160956807434559
1726225826346846000,11.577845947265626,-0.2481059432029724,0.5366109609603882,0.0389532595872879
1726225826356841700,11.587841796875,-0.2540130913257599,0.5734078884124756,0.058285944163799286
1726225826366838000,11.597838134765626,-0.2617186903953552,0.5225366950035095,0.050105512142181396
1726225826376833000,11.6078330078125,-0.276793509721756,0.43063420057296753,0.030414897948503494
1726225826386828800,11.617828857421875,-0.3031332492828369,0.32367926836013794,-0.004736165516078472
1726225826396824800,11.627824951171876,-0.32487794756889343,0.21352186799049377,-0.06458964198827744
1726225826406820900,11.63782080078125,-0.3387114703655243,0.09680777043104172,-0.13285551965236664
1726225826416815900,11.64781591796875,-0.35257774591445923,-0.03755296766757965,-0.19919300079345703
1726225826426812000,11.65781201171875,-0.3792535662651062,-0.18113330006599426,-0.26111602783203125
1726225826436808000,11.667807861328125,-0.4080356955528259,-0.32754218578338623,-0.3313595652580261
1726225826446803000,11.677802978515626,-0.4304714798927307,-0.4609343111515045,-0.39640727639198303
1726225826456798700,11.687798828125,-0.4678177833557129,-0.5493398308753967,-0.46169599890708923
1726225826466795000,11.697794921875,-0.513992190361023,-0.6245911717414856,-0.5502452850341797
1726225826476790800,11.707790771484374,-0.5550227165222168,-0.7169767618179321,-0.6596540808677673
1726225826486785800,11.717785888671875,-0.5729727149009705,-0.8388179540634155,-0.7741225957870483
1726225826496781800,11.72778173828125,-0.5683627724647522,-0.9873978495597839,-0.8398706912994385
1726225826506777900,11.73777783203125,-0.5643400549888611,-1.1296319961547852,-0.8493912816047668
1726225826516774000,11.74777392578125,-0.5757626295089722,-1.2614091634750366,-0.8049463033676147
1726225826526769000,11.757768798828126,-0.5635965466499329,-1.390574336051941,-0.7260216474533081
1726225826536765200,11.76776513671875,-0.500969648361206,-1.4758551120758057,-0.630992591381073
1726225826546761200,11.77776123046875,-0.4096232056617737,-1.4756578207015991,-0.5256028175354004
1726225826556756200,11.787756103515624,-0.3228425085544586,-1.388637661933899,-0.3955034017562866
1726225826566752300,11.797752197265625,-0.23194348812103271,-1.2532827854156494,-0.26292136311531067
1726225826576748000,11.807748046875,-0.1453220397233963,-1.1004605293273926,-0.13392584025859833
1726225826586744300,11.817744384765625,-0.07488888502120972,-0.9358723759651184,-0.0054634748958051205
1726225826596739300,11.8277392578125,-0.03807840868830681,-0.7853060364723206,0.09640350192785263
1726225826606735000,11.837735107421874,-0.01509932428598404,-0.7253912687301636,0.14986513555049896
1726225826616731100,11.847731201171875,-0.0010942928493022919,-0.8065583109855652,0.1327417939901352
1726225826626727200,11.85772705078125,0.0011965582380071282,-1.034298300743103,0.06046653911471367
1726225826636722400,11.867722412109375,-0.022370019927620888,-1.3302664756774902,-0.040174052119255066
1726225826646718200,11.87771826171875,-0.05356841906905174,-1.599536657333374,-0.1435004323720932
1726225826656714200,11.88771435546875,-0.08711706101894379,-1.824059247970581,-0.24584226310253143
1726225826666709200,11.897709228515625,-0.11820200830698013,-1.9736628532409668,-0.35306644439697266
1726225826676705000,11.907705078125,-0.1620893031358719,-2.0507352352142334,-0.460891455411911
1726225826686701300,11.917701416015625,-0.17858439683914185,-2.0672800540924072,-0.547146201133728
1726225826696697300,11.927697265625,-0.15332750976085663,-2.035942792892456,-0.6067402362823486
1726225826706692000,11.937692138671874,-0.08790828287601471,-1.9541248083114624,-0.6189846992492676
1726225826716688100,11.947688232421875,-0.024441959336400032,-1.822060227394104,-0.5697454810142517
1726225826726684200,11.95768408203125,0.010923488065600395,-1.6633987426757812,-0.4623250365257263
1726225826736680200,11.96768017578125,0.027905400842428207,-1.5197815895080566,-0.3309513032436371
1726225826746675200,11.97767529296875,0.03683684393763542,-1.3969670534133911,-0.19462594389915466
1726225826756671200,11.987671142578124,0.04102360084652901,-1.278352975845337,-0.08510397374629974
1726225826766667000,11.9976669921875,0.07329098880290985,-1.3675907850265503,-0.08822253346443176
1726225826776663300,12.007663330078126,0.07142092287540436,-1.5800390243530273,-0.177978515625
1726225826786658300,12.017658203125,0.021979067474603653,-1.768349289894104,-0.26571422815322876
1726225826796654300,12.027654296875,-0.09076292812824249,-1.763328194618225,-0.38463714718818665
1726225826806650000,12.037650146484374,-0.27171778678894043,-1.4902406930923462,-0.6496821641921997
1726225826816645000,12.04764501953125,-0.4169769883155823,-1.102225422859192,-0.8974895477294922
1726225826826641400,12.057641357421875,-0.49445393681526184,-0.6856752634048462,-1.0416797399520874
1726225826836637200,12.06763720703125,-0.5218179225921631,-0.24678581953048706,-1.0438427925109863
1726225826846633200,12.07763330078125,-0.474303662776947,0.1652241051197052,-0.8950697779655457
1726225826856628200,12.087628173828126,-0.3575863540172577,0.5153520107269287,-0.6778005957603455
1726225826866624000,12.0976240234375,-0.21766068041324615,0.8073471188545227,-0.4332299828529358
1726225826876620300,12.107620361328125,-0.06387245655059814,0.992165744304657,-0.19149060547351837
1726225826886616300,12.1176162109375,0.09767808765172958,1.0644433498382568,0.04417172074317932
1726225826896611300,12.127611328125,0.20031657814979553,1.0898046493530273,0.29297488927841187
1726225826906607000,12.137607177734376,0.23205667734146118,1.1731557846069336,0.5078219175338745
1726225826916603400,12.147603271484375,0.23813320696353912,1.3081839084625244,0.662146806716919
1726225826926598400,12.157598388671875,0.26539358496665955,1.4478200674057007,0.7567595839500427
1726225826936594200,12.16759423828125,0.30742040276527405,1.5857446193695068,0.8288697600364685
1726225826946590200,12.177590087890625,0.3398348093032837,1.6692893505096436,0.8873088359832764
1726225826956586200,12.187586181640626,0.36610475182533264,1.7001316547393799,0.9104785919189453
1726225826966581000,12.1975810546875,0.39109691977500916,1.7138175964355469,0.8827425241470337
1726225826976577300,12.207577392578125,0.3997814953327179,1.7355070114135742,0.8251304030418396
1726225826986573300,12.2175732421875,0.3661862313747406,1.75437331199646,0.761897623538971
1726225826996569000,12.227569091796875,0.33696284890174866,1.748012900352478,0.6834821701049805
1726225827006564000,12.237564208984375,0.33473432064056396,1.7274264097213745,0.5974066853523254
1726225827016560400,12.247560302734374,0.3531617820262909,1.6888468265533447,0.5287394523620605
1726225827026556200,12.25755615234375,0.3452359437942505,1.6495054960250854,0.47379234433174133
1726225827036551200,12.26755126953125,0.314410924911499,1.5875095129013062,0.4114038050174713
1726225827046547200,12.277547119140625,0.2574067711830139,1.4710217714309692,0.33080801367759705
1726225827056543200,12.287543212890625,0.18791557848453522,1.313014030456543,0.23173868656158447
1726225827066539300,12.297539306640624,0.13436979055404663,1.2444651126861572,0.11517079919576645
1726225827076534300,12.3075341796875,0.13404648005962372,1.24554443359375,0.019698070362210274
1726225827086530300,12.3175302734375,0.1656387597322464,1.2215179204940796,-0.03405250981450081
1726225827096526000,12.327526123046875,0.19383658468723297,1.128740906715393,-0.028929652646183968
1726225827106522400,12.3375224609375,0.21212317049503326,0.9651836156845093,0.004054396413266659
1726225827116517400,12.347517333984374,0.2192913442850113,0.7833443284034729,0.023303458467125893
1726225827126513200,12.35751318359375,0.18847350776195526,0.6253863573074341,0.01794011890888214
1726225827136509200,12.36750927734375,0.13716770708560944,0.5214961767196655,-0.04247928410768509
1726225827146504200,12.377504150390624,0.09002416580915451,0.438549667596817,-0.11659958213567734
1726225827156500200,12.387500244140625,0.05663638189435005,0.4020417034626007,-0.19570505619049072
1726225827166496300,12.397496337890624,0.05042429268360138,0.3956852853298187,-0.27043575048446655
1726225827176492300,12.4074921875,0.056356750428676605,0.4232569932937622,-0.3142862915992737
1726225827186487300,12.4174873046875,0.05143549293279648,0.47076112031936646,-0.2960721254348755
1726225827196483000,12.427483154296874,0.06701631844043732,0.48855850100517273,-0.22335852682590485
