time,seconds_elapsed,z,y,x
1726941123647687200,0.013687255859375,0.01079915463924408,-0.07201023399829865,0.23326845467090607
1726941123657673500,0.023673583984375,0.07315387576818466,-0.23164835572242737,0.20925793051719666
1726941123667659300,0.0336591796875,0.12933093309402466,-0.37979790568351746,0.19060717523097992
1726941123677646000,0.04364599609375,0.1362905651330948,-0.44352787733078003,0.20962560176849365
1726941123687632400,0.05363232421875,0.1214635819196701,-0.44649603962898254,0.3007776439189911
1726941123697618200,0.0636181640625,0.10156524181365967,-0.44485101103782654,0.456350713968277
1726941123707605200,0.073605224609375,0.08976945281028748,-0.42717239260673523,0.6880579590797424
1726941123717591300,0.08359130859375,0.10256674140691757,-0.407907098531723,0.9706361293792725
1726941123727577000,0.0935771484375,0.1535584181547165,-0.40407904982566833,1.2689063549041748
1726941123737563400,0.1035634765625,0.2513531744480133,-0.5247474312782288,1.5478028059005737
1726941123747550200,0.11355029296875,0.36765822768211365,-0.7669637799263,1.7533760070800781
1726941123757536300,0.123536376953125,0.5373966693878174,-1.0275682210922241,1.9483921527862549
1726941123767522300,0.133522216796875,0.6919026374816895,-1.3254668712615967,2.1438214778900146
1726941123777508400,0.14350830078125,0.7738416790962219,-1.6038275957107544,2.337430238723755
1726941123787495400,0.153495361328125,0.7726439833641052,-1.750242829322815,2.4997668266296387
1726941123797481200,0.163481201171875,0.6689881682395935,-1.7765660285949707,2.6041321754455566
1726941123807467300,0.17346728515625,0.5246310830116272,-1.8831957578659058,2.6083638668060303
1726941123817454300,0.183454345703125,0.5113291144371033,-1.7652168273925781,2.5437257289886475
1726941123827440400,0.1934404296875,0.6651370525360107,-1.805658221244812,2.4384982585906982
1726941123837426200,0.20342626953125,0.8576534986495972,-2.1251463890075684,2.3872017860412598
1726941123847412200,0.213412109375,1.0155380964279175,-2.516937017440796,2.3964078426361084
1726941123857399300,0.2233994140625,1.1483595371246338,-2.7048707008361816,2.2781808376312256
1726941123867385300,0.23338525390625,1.3306280374526978,-3.3753201961517334,2.0072786808013916
1726941123877371400,0.243371337890625,1.4242405891418457,-3.2389307022094727,2.0743234157562256
1726941123887357200,0.253357177734375,1.5695198774337769,-2.980283260345459,2.2343966960906982
1726941123897344300,0.26334423828125,1.8010884523391724,-3.0525248050689697,2.194021701812744
1726941123907330300,0.273330322265625,0.985004186630249,-3.320377826690674,1.7652817964553833
1726941123917316000,0.283316162109375,1.062143087387085,-3.3183650970458984,1.644118309020996
1726941123927303400,0.293303466796875,1.2090175151824951,-3.232111692428589,1.4905147552490234
1726941123937289200,0.303289306640625,1.564954161643982,-2.9288933277130127,1.5456920862197876
1726941123947275300,0.313275146484375,1.8232574462890625,-2.6665396690368652,1.675463318824768
1726941123957261300,0.32326123046875,1.9966731071472168,-2.471914529800415,1.7781380414962769
1726941123967248100,0.333248046875,2.384303569793701,-2.4281070232391357,1.6182953119277954
1726941123977234400,0.343234375,2.7744626998901367,-2.354109287261963,1.1560049057006836
1726941123987220200,0.35322021484375,3.3106417655944824,-2.0866446495056152,0.752717137336731
1726941123997206300,0.363206298828125,3.4910144805908203,-1.8138645887374878,0.47797346115112305
1726941124007193300,0.373193359375,3.2000491619110107,-1.836264967918396,0.33313876390457153
1726941124017179100,0.38317919921875,2.686354398727417,-1.8156590461730957,0.44865575432777405
1726941124027165200,0.393165283203125,2.615360736846924,-2.090373992919922,0.8514971137046814
1726941124037152300,0.40315234375,2.943727970123291,-2.2693793773651123,1.377393364906311
1726941124047138300,0.41313818359375,3.4214813709259033,-2.3319294452667236,1.8984953165054321
1726941124057124400,0.423124267578125,3.920811891555786,-2.3837058544158936,1.9820480346679688
1726941124067110400,0.4331103515625,4.3847150802612305,-1.973693609237671,1.6935629844665527
1726941124077097200,0.44309716796875,4.514840126037598,-1.084248423576355,1.3840616941452026
1726941124087083300,0.453083251953125,4.340692043304443,-0.31131160259246826,1.4102622270584106
1726941124097069300,0.4630693359375,4.026343822479248,-0.2772892117500305,1.1790058612823486
1726941124107056400,0.473056396484375,3.6870968341827393,-0.6800431609153748,1.0663294792175293
1726941124117042200,0.483042236328125,3.4929141998291016,-1.2462022304534912,1.4164355993270874
1726941124127028200,0.4930283203125,3.3029563426971436,-1.6364649534225464,2.087437391281128
1726941124137014300,0.50301416015625,3.05997633934021,-2.0711257457733154,2.6194396018981934
1726941124147001300,0.51300146484375,2.914010524749756,-2.4000325202941895,2.8753812313079834
1726941124156987100,0.522987060546875,2.9869439601898193,-1.9918575286865234,2.5492489337921143
1726941124166973400,0.532973388671875,3.017728090286255,-1.309630274772644,1.644765019416809
1726941124176959200,0.542959228515625,2.7731709480285645,-0.9950954914093018,0.6824816465377808
1726941124186946300,0.5529462890625,2.307171583175659,-0.83451247215271,-0.10388430207967758
1726941124196932900,0.562932861328125,1.7670350074768066,-0.7111508250236511,-0.5753234624862671
1726941124206919000,0.5729189453125,0.9591137766838074,-1.395666241645813,-0.616569995880127
1726941124216905700,0.58290576171875,0.034806739538908005,-2.502323627471924,-0.23652254045009613
1726941124226892000,0.59289208984375,-0.42063117027282715,-3.2911953926086426,0.5107173919677734
1726941124236877800,0.6028779296875,-0.1273564249277115,-3.2399258613586426,1.1792845726013184
1726941124246864000,0.61286376953125,0.2834171652793884,-2.2379515171051025,1.354017734527588
1726941124256851000,0.622850830078125,0.5868515968322754,-0.8841596245765686,1.002190113067627
1726941124266837000,0.6328369140625,1.2081480026245117,0.3471853733062744,0.4174010157585144
1726941124276822800,0.64282275390625,1.5632795095443726,1.5746445655822754,-0.28408199548721313
1726941124286809900,0.652809814453125,1.4382846355438232,1.7569794654846191,-1.0548090934753418
1726941124296796000,0.6627958984375,1.0390304327011108,1.363142967224121,-1.4857423305511475
1726941124306782000,0.672781982421875,0.7481259107589722,0.8974669575691223,-1.2292938232421875
1726941124316768000,0.68276806640625,0.42553427815437317,0.539289653301239,-0.7133848667144775
1726941124326754800,0.6927548828125,-0.25672104954719543,0.21039053797721863,-0.5151627063751221
1726941124336740900,0.702740966796875,-0.7626188397407532,0.3736625611782074,-0.41443315148353577
1726941124346727000,0.712726806640625,-0.7348183989524841,0.31468525528907776,-0.08915786445140839
1726941124356714000,0.7227138671875,-0.15735851228237152,0.08365311473608017,0.08973784744739532
1726941124366700000,0.732699951171875,0.07646545022726059,0.35091742873191833,0.14831987023353577
1726941124376685800,0.742685791015625,0.0030908340122550726,0.6053784489631653,0.21666324138641357
1726941124386671900,0.752671875,0.13854879140853882,0.9021456837654114,0.2746538519859314
1726941124396659000,0.762658935546875,0.5022655129432678,0.7149025797843933,0.5152571201324463
1726941124406644700,0.772644775390625,0.753562331199646,0.259262353181839,0.7972029447555542
1726941124416631000,0.782631103515625,0.6741423010826111,-0.27043479681015015,0.923865556716919
1726941124426617900,0.792617919921875,0.6225771307945251,-0.6129345297813416,1.0068602561950684
1726941124436604000,0.80260400390625,0.8932240605354309,-0.46266353130340576,1.1860727071762085
1726941124446590000,0.81258984375,1.359372615814209,-0.1670607030391693,1.3066468238830566
1726941124456575700,0.82257568359375,1.8668102025985718,0.07435698807239532,1.157614827156067
1726941124466563000,0.83256298828125,2.363541603088379,-0.08044759929180145,0.9140826463699341
1726941124476548900,0.842548828125,2.529794692993164,-0.576391339302063,0.5652061700820923
1726941124486535000,0.852534912109375,2.174389362335205,-1.237636923789978,0.2543181777000427
1726941124496522000,0.86252197265625,1.3707224130630493,-1.8624656200408936,0.20464569330215454
1726941124506507800,0.8725078125,0.475401371717453,-2.109046697616577,0.1393587589263916
1726941124516493800,0.882493896484375,-0.3318967819213867,-2.1899120807647705,0.18479521572589874
1726941124526480000,0.89247998046875,-1.0124226808547974,-2.4774880409240723,0.34794673323631287
1726941124536467000,0.902467041015625,-1.4538525342941284,-2.4660847187042236,0.401882141828537
1726941124546453000,0.912452880859375,-1.5145845413208008,-2.2294583320617676,0.2613562047481537
1726941124556439000,0.92243896484375,-1.2865610122680664,-1.7214149236679077,0.005014180205762386
1726941124566425900,0.93242578125,-0.8934425115585327,-1.13936185836792,-0.40658634901046753
1726941124576412000,0.942411865234375,-0.5130693316459656,-0.5609499216079712,-0.8513779044151306
1726941124586398000,0.95239794921875,-0.37796157598495483,0.2864455282688141,-1.1401293277740479
1726941124596383700,0.9623837890625,-0.05030488222837448,0.9989830851554871,-1.1204564571380615
1726941124606370800,0.972370849609375,-0.018925435841083527,1.1159602403640747,-0.9371193647384644
1726941124616356900,0.98235693359375,-0.13223974406719208,0.5804673433303833,-0.8446025252342224
1726941124626343000,0.992343017578125,-0.177282452583313,-0.026733137667179108,-0.6562479734420776
1726941124636330000,1.002330078125,-0.12792368233203888,-0.343193918466568,-0.33790701627731323
1726941124646315800,1.012315673828125,-0.029224347323179245,-0.5787200927734375,-0.007475229445844889
1726941124656302000,1.022302001953125,0.05687032639980316,-0.5534908771514893,0.11791571974754333
1726941124666287900,1.032287841796875,0.06700513511896133,-0.2795232832431793,0.30442243814468384
1726941124676275000,1.04227490234375,0.08976317942142487,-0.05917974188923836,0.428666353225708
1726941124686261000,1.052260986328125,0.12080255150794983,0.01641010120511055,0.5431677103042603
1726941124696246800,1.062246826171875,0.14463144540786743,-0.04875452071428299,0.622767448425293
1726941124706233900,1.07223388671875,0.15845981240272522,-0.13547109067440033,0.664812445640564
1726941124716220000,1.082219970703125,0.1140872910618782,-0.05890947952866554,0.6538487076759338
1726941124726206000,1.0922060546875,0.043167997151613235,0.09550521522760391,0.5409184694290161
1726941124736192000,1.10219189453125,-0.02390717901289463,0.32429125905036926,0.32182052731513977
1726941124746178800,1.1121787109375,-0.08099571615457535,0.4106336236000061,0.108950175344944
1726941124756164900,1.122164794921875,-0.16844992339611053,0.4314960241317749,-0.05285177379846573
1726941124766151000,1.13215087890625,-0.312843382358551,0.5661137104034424,-0.2289070188999176
1726941124776137700,1.1421376953125,-0.43114128708839417,0.5510559678077698,-0.3663857877254486
1726941124786124000,1.1521240234375,-0.5115949511528015,0.4133468270301819,-0.36724746227264404
1726941124796109800,1.16210986328125,-0.5360144972801208,0.3131941258907318,-0.3142617344856262
1726941124806096000,1.172095947265625,-0.49323537945747375,0.27686944603919983,-0.30867430567741394
1726941124816083000,1.1820830078125,-0.38986319303512573,0.3304966986179352,-0.32566529512405396
1726941124826069000,1.192069091796875,-0.3314512073993683,0.4600967764854431,-0.36599451303482056
1726941124836054800,1.2020546875,-0.38888654112815857,0.5853428840637207,-0.3682488799095154
1726941124846041900,1.212041748046875,-0.3428189158439636,0.5643477439880371,-0.40908166766166687
1726941124856028000,1.22202783203125,-0.2348565012216568,0.394972562789917,-0.4206898510456085
1726941124866014000,1.232013916015625,-0.16569818556308746,0.24972467124462128,-0.378292053937912
1726941124876000000,1.242,-0.15598562359809875,0.2257692813873291,-0.30660322308540344
1726941124885986800,1.25198681640625,-0.2010604590177536,0.17741581797599792,-0.20186205208301544
1726941124895972900,1.261972900390625,-0.22870805859565735,0.17773592472076416,-0.0986267477273941
1726941124905959000,1.271958984375,-0.2613376975059509,0.18622823059558868,-0.059432148933410645
1726941124915946000,1.281946044921875,-0.2917885482311249,0.19260117411613464,-0.07686760276556015
1726941124925932000,1.29193212890625,-0.2493845373392105,0.17198316752910614,-0.08977705240249634
1726941124935917800,1.301917724609375,-0.12437281757593155,0.15324942767620087,-0.08130074292421341
1726941124945904000,1.311904052734375,0.053309258073568344,0.1419408619403839,-0.05140697583556175
1726941124955891000,1.321890869140625,0.16978447139263153,0.1437171995639801,-0.042870212346315384
1726941124965876700,1.331876708984375,0.23396478593349457,0.17810367047786713,-0.05186210945248604
1726941124975863000,1.341863037109375,0.22371640801429749,0.22444427013397217,-0.04105953127145767
1726941124985849900,1.351849853515625,0.1715647280216217,0.2280113250017166,0.0025293193757534027
1726941124995836000,1.3618359375,0.1024426519870758,0.2133663296699524,0.008291068486869335
1726941125005822000,1.371822021484375,0.03485528752207756,0.22152282297611237,-0.006175926886498928
1726941125015807700,1.381807861328125,-0.02591777965426445,0.24776294827461243,-0.00609709694981575
1726941125025795000,1.391795166015625,-0.05205173045396805,0.30098167061805725,0.016634508967399597
1726941125035780900,1.40178076171875,-0.057565007358789444,0.34607911109924316,0.04679960012435913
1726941125045767000,1.411766845703125,-0.0413118340075016,0.3701956868171692,0.04966104403138161
1726941125055754000,1.42175390625,-0.01993517205119133,0.36468932032585144,0.03489301726222038
1726941125065739800,1.43173974609375,0.00034952873829752207,0.3179231584072113,0.01528878603130579
1726941125075725800,1.441725830078125,0.013979586772620678,0.27396368980407715,-0.010776370763778687
1726941125085712000,1.4517119140625,0.06232155114412308,0.23096980154514313,-0.0011829789727926254
1726941125095699000,1.461698974609375,0.15355823934078217,0.19189882278442383,0.028543490916490555
1726941125105685000,1.47168505859375,0.254132479429245,0.17935164272785187,0.0402069017291069
1726941125115671000,1.481671142578125,0.32858380675315857,0.1732223778963089,0.026803474873304367
1726941125125656800,1.49165673828125,0.32494714856147766,0.14620324969291687,-0.01135618332773447
1726941125135644000,1.501643798828125,0.2522737383842468,0.1253690868616104,-0.06905116885900497
1726941125145630000,1.5116298828125,0.1654021143913269,0.14922326803207397,-0.10963089019060135
1726941125155615700,1.52161572265625,0.08420208096504211,0.16750507056713104,-0.12734784185886383
1726941125165602800,1.531602783203125,0.06439628452062607,0.19516843557357788,-0.09486880153417587
1726941125175588900,1.5415888671875,0.05945771932601929,0.1729147881269455,-0.0001974198967218399
1726941125185575000,1.551574951171875,0.023168325424194336,0.143275186419487,0.08939172327518463
1726941125195560200,1.561560302734375,-0.032193999737501144,0.13492964208126068,0.1408671736717224
1726941125205547000,1.571547119140625,-0.09836888313293457,0.12111321091651917,0.13604304194450378
1726941125215533300,1.581533203125,-0.14122366905212402,0.12011958658695221,0.09954548627138138
1726941125225519000,1.59151904296875,-0.13483887910842896,0.1448633372783661,0.06606761366128922
1726941125235505200,1.601505126953125,-0.09891495853662491,0.12839248776435852,0.06175541877746582
1726941125245492200,1.6114921875,-0.08995486795902252,0.08421819657087326,0.09475775808095932
1726941125255478000,1.62147802734375,-0.15350376069545746,0.0628838837146759,0.16459143161773682
1726941125265464000,1.631464111328125,-0.27377527952194214,0.04283107444643974,0.2227540761232376
1726941125275451100,1.641451171875,-0.41032859683036804,0.022460822016000748,0.27381086349487305
1726941125285437200,1.651437255859375,-0.5194726586341858,-0.026572680100798607,0.31032392382621765
1726941125295423000,1.661423095703125,-0.5560303926467896,-0.028833704069256783,0.32716524600982666
1726941125305410000,1.67141015625,-0.5489018559455872,-0.0380418635904789,0.3574376106262207
1726941125315396000,1.68139599609375,-0.4863485097885132,0.002005954273045063,0.35783255100250244
1726941125325382100,1.691382080078125,-0.404834121465683,0.06601451337337494,0.32589012384414673
1726941125335368200,1.7013681640625,-0.33369097113609314,0.1134781688451767,0.28845301270484924
1726941125345355000,1.71135498046875,-0.307091623544693,0.13581061363220215,0.248231440782547
1726941125355341300,1.72134130859375,-0.3054415285587311,0.17018084228038788,0.22460494935512543
1726941125365327000,1.7313271484375,-0.28358277678489685,0.2224709689617157,0.20281055569648743
1726941125375313200,1.741313232421875,-0.26738330721855164,0.2663494646549225,0.19755932688713074
1726941125385300200,1.75130029296875,-0.25675642490386963,0.29799655079841614,0.19184845685958862
1726941125395286000,1.7612861328125,-0.25526344776153564,0.28379392623901367,0.1894793063402176
1726941125405272300,1.771272216796875,-0.24367056787014008,0.2772485017776489,0.21019825339317322
1726941125415259100,1.781259033203125,-0.2897118330001831,0.2481798231601715,0.2306465357542038
1726941125425245000,1.791244873046875,-0.3156018853187561,0.19176895916461945,0.217508926987648
1726941125435231200,1.801231201171875,-0.3069165050983429,0.12087346613407135,0.19580043852329254
1726941125445217000,1.811217041015625,-0.30445989966392517,0.0580277219414711,0.17095842957496643
1726941125455204400,1.821204345703125,-0.2979854941368103,0.012500450015068054,0.15949513018131256
1726941125465190100,1.831190185546875,-0.2902943193912506,-0.07051541656255722,0.16272152960300446
1726941125475176200,1.84117626953125,-0.26662150025367737,-0.14127692580223083,0.17557580769062042
1726941125485162200,1.851162353515625,-0.2511218190193176,-0.16269934177398682,0.20315761864185333
1726941125495149000,1.861149169921875,-0.2186964750289917,-0.17141692340373993,0.23714780807495117
1726941125505135000,1.871135009765625,-0.15583553910255432,-0.17493179440498352,0.2740103602409363
1726941125515121200,1.88112109375,-0.11028963327407837,-0.22395366430282593,0.2869029939174652
1726941125525108200,1.891108154296875,-0.08561062812805176,-0.247963085770607,0.27145975828170776
1726941125535094300,1.90109423828125,-0.062375083565711975,-0.2646872103214264,0.25271403789520264
1726941125545080000,1.911080078125,-0.009542026557028294,-0.29064419865608215,0.18923208117485046
1726941125555066000,1.921066162109375,0.031100740656256676,-0.30886128544807434,0.08761704713106155
1726941125565053200,1.93105322265625,0.03397408127784729,-0.3266361653804779,-0.05616616830229759
1726941125575039200,1.941039306640625,0.03204142674803734,-0.37862053513526917,-0.177557572722435
1726941125585025000,1.95102490234375,0.024535898119211197,-0.4382445812225342,-0.26175665855407715
1726941125595011300,1.96101123046875,-0.009874538518488407,-0.47383108735084534,-0.3166537284851074
1726941125604998100,1.970998046875,-0.03358525037765503,-0.5105776786804199,-0.3416784703731537
1726941125614984000,1.98098388671875,-0.05108195170760155,-0.5163910984992981,-0.33682939410209656
1726941125624970200,1.99097021484375,-0.10984431207180023,-0.5041768550872803,-0.3110610842704773
1726941125634957000,2.00095703125,-0.20397374033927917,-0.5022642016410828,-0.2979831099510193
1726941125644943400,2.010943359375,-0.22628819942474365,-0.47063061594963074,-0.2698921859264374
1726941125654929200,2.02092919921875,-0.22659684717655182,-0.4666702151298523,-0.2512929439544678
1726941125664915200,2.030915283203125,-0.1967189908027649,-0.42175769805908203,-0.23329469561576843
1726941125674902300,2.04090234375,-0.1429167538881302,-0.3542998135089874,-0.21614207327365875
1726941125684888000,2.05088818359375,-0.11010860651731491,-0.3276660144329071,-0.1629970818758011
1726941125694874000,2.0608740234375,-0.10070924460887909,-0.3204302191734314,-0.06138923391699791
1726941125704860200,2.070860107421875,-0.14313937723636627,-0.2935199439525604,0.0366644524037838
1726941125714847000,2.080846923828125,-0.2231692224740982,-0.22670257091522217,0.10869523882865906
1726941125724833300,2.090833251953125,-0.2379571944475174,-0.12621299922466278,0.16411130130290985
1726941125734819000,2.100819091796875,-0.2295466661453247,-0.04335566237568855,0.19478799402713776
1726941125744806100,2.11080615234375,-0.19892756640911102,0.02075197733938694,0.18977762758731842
1726941125754792200,2.120792236328125,-0.1566871702671051,0.07562055438756943,0.15316236019134521
1726941125764778200,2.1307783203125,-0.10281575471162796,0.11610254645347595,0.08898741006851196
1726941125774764000,2.140763916015625,-0.061819057911634445,0.1357601284980774,0.007025427184998989
1726941125784751000,2.150751220703125,-0.05003657564520836,0.1754435896873474,-0.09032395482063293
1726941125794737200,2.160737060546875,-0.057957082986831665,0.2362736463546753,-0.19223061203956604
1726941125804723200,2.17072314453125,-0.053530845791101456,0.30668309330940247,-0.2724911868572235
1726941125814709200,2.180709228515625,-0.04875286668539047,0.3734985888004303,-0.33023595809936523
1726941125824696000,2.190696044921875,-0.041732944548130035,0.42438602447509766,-0.3558754026889801
1726941125834682000,2.20068212890625,-0.05480001121759415,0.4432670474052429,-0.35222047567367554
1726941125844668200,2.210668212890625,-0.06624730676412582,0.39432844519615173,-0.33222368359565735
1726941125854655200,2.2206552734375,-0.05814756825566292,0.2898680865764618,-0.3005501925945282
1726941125864641300,2.230641357421875,-0.03767421096563339,0.20546461641788483,-0.2568061053752899
1726941125874627000,2.240626953125,-0.020551685243844986,0.1866336613893509,-0.18897591531276703
1726941125884613000,2.250613037109375,-0.01815797947347164,0.213607519865036,-0.11135929822921753
1726941125894600200,2.26060009765625,-0.028036177158355713,0.2297004759311676,-0.02608354762196541
1726941125904586000,2.2705859375,-0.01810624822974205,0.2104078233242035,0.059838924556970596
1726941125914572300,2.280572265625,-0.011909605003893375,0.13725292682647705,0.1272083818912506
1726941125924558000,2.29055810546875,-0.04067704826593399,0.06265690922737122,0.1891351044178009
1726941125934545200,2.300545166015625,-0.07810032367706299,0.050754446536302567,0.221743643283844
1726941125944531200,2.31053125,-0.12058430165052414,0.08825170993804932,0.23906467854976654
1726941125954517200,2.320517333984375,-0.14800314605236053,0.13344769179821014,0.27782219648361206
1726941125964504300,2.33050439453125,-0.1592758297920227,0.18746136128902435,0.3423691391944885
1726941125974490000,2.340489990234375,-0.15745316445827484,0.2493785172700882,0.4192575216293335
1726941125984476200,2.35047607421875,-0.1553734838962555,0.31114915013313293,0.5019356608390808
1726941125994462200,2.360462158203125,-0.17140118777751923,0.3529232144355774,0.5594577789306641
1726941126004449000,2.370448974609375,-0.1614593118429184,0.36448121070861816,0.5593808889389038
1726941126014435000,2.38043505859375,-0.12965983152389526,0.3299988806247711,0.5051873922348022
1726941126024421000,2.390421142578125,-0.07618659734725952,0.25591152906417847,0.44237783551216125
1726941126034407200,2.4004072265625,-0.06443300098180771,0.16574756801128387,0.4095442593097687
1726941126044394200,2.410394287109375,-0.07751709967851639,0.08600208163261414,0.39685648679733276
1726941126054380300,2.42038037109375,-0.09174823760986328,0.027920931577682495,0.39590707421302795
1726941126064366000,2.430365966796875,-0.12683269381523132,0.0002677774173207581,0.39938583970069885
1726941126074352400,2.440352294921875,-0.15468057990074158,-0.0012129400856792927,0.3960970938205719
1726941126084339200,2.450339111328125,-0.16417807340621948,-0.010023847222328186,0.3706728518009186
1726941126094325000,2.460324951171875,-0.14590798318386078,-0.011648641899228096,0.33378779888153076
1726941126104311300,2.470311279296875,-0.13393892347812653,-0.00007231446215882897,0.30176419019699097
1726941126114298000,2.480298095703125,-0.10708281397819519,0.022000230848789215,0.25728273391723633
1726941126124284200,2.4902841796875,-0.07458052039146423,0.05022435635328293,0.18325278162956238
1726941126134270200,2.500270263671875,-0.052372418344020844,0.08926363289356232,0.08252216875553131
1726941126144256000,2.510256103515625,-0.036852963268756866,0.16015233099460602,0.0004300109576433897
1726941126154243300,2.520243408203125,-0.042449597269296646,0.23152132332324982,-0.060132935643196106
1726941126164229000,2.53022900390625,-0.05973924696445465,0.264079749584198,-0.09674280136823654
1726941126174215200,2.540215087890625,-0.0663156509399414,0.30228039622306824,-0.08841749280691147
1726941126184201200,2.550201171875,-0.047378893941640854,0.3528136610984802,-0.02495269663631916
1726941126194188500,2.5601884765625,-0.03533128648996353,0.4206262528896332,0.05387500301003456
1726941126204174600,2.570174560546875,-0.049616508185863495,0.4869042932987213,0.12699991464614868
1726941126214160400,2.580160400390625,-0.08347060531377792,0.5365528464317322,0.19146251678466797
1726941126224147500,2.5901474609375,-0.1489921510219574,0.5746673941612244,0.22813600301742554
1726941126234133500,2.600133544921875,-0.19830723106861115,0.5728021264076233,0.2222653180360794
1726941126244119300,2.610119384765625,-0.203787162899971,0.4920673370361328,0.18684619665145874
1726941126254105600,2.620105712890625,-0.19209055602550507,0.34155985713005066,0.12094628065824509
1726941126264092400,2.630092529296875,-0.15088844299316406,0.19754518568515778,0.07058118283748627
1726941126274078700,2.64007861328125,-0.08418584614992142,0.12404035031795502,0.08805791288614273
1726941126284064500,2.650064453125,-0.019024774432182312,0.09627287834882736,0.14715978503227234
1726941126294050600,2.660050537109375,0.022478193044662476,0.12256786972284317,0.25463297963142395
1726941126304037600,2.67003759765625,0.04798384755849838,0.16942457854747772,0.37387728691101074
1726941126314023400,2.6800234375,0.055704619735479355,0.16754944622516632,0.46098580956459045
1726941126324009500,2.690009521484375,0.046111732721328735,0.13309243321418762,0.4995737671852112
1726941126333995500,2.69999560546875,0.003981324378401041,0.11069577187299728,0.4936724603176117
1726941126343982300,2.709982421875,-0.04010011628270149,0.0949769914150238,0.4746069014072418
1726941126353968600,2.71996875,-0.07946909219026566,0.08484099805355072,0.43295320868492126
1726941126363954400,2.729954345703125,-0.09297440946102142,0.0823502168059349,0.3673425018787384
1726941126373940500,2.7399404296875,-0.08049483597278595,0.051944635808467865,0.2778981029987335
1726941126383927600,2.749927490234375,-0.06417602300643921,0.021252281963825226,0.16600632667541504
1726941126393913600,2.75991357421875,-0.04157377406954765,0.019317228347063065,0.04742163419723511
1726941126403899400,2.7698994140625,-0.03765042498707771,0.03214237838983536,-0.06093079224228859
1726941126413886500,2.779886474609375,-0.039582815021276474,0.04101736098527908,-0.13139404356479645
1726941126423872500,2.78987255859375,-0.04415624961256981,0.06628671288490295,-0.1823570430278778
1726941126433858600,2.799858642578125,-0.05847180634737015,0.14142780005931854,-0.23064415156841278
1726941126443844600,2.8098447265625,-0.05337526649236679,0.22420533001422882,-0.27488264441490173
1726941126453831400,2.81983154296875,-0.026943663135170937,0.3010234236717224,-0.2931002676486969
1726941126463817500,2.8298173828125,-0.009726786985993385,0.26777297258377075,-0.286920964717865
1726941126473803500,2.839803466796875,-0.02336190640926361,0.2239205539226532,-0.266892671585083
1726941126483789600,2.84978955078125,-0.04263429716229439,0.23878425359725952,-0.2778121829032898
1726941126493776600,2.859776611328125,-0.051284242421388626,0.2765832841396332,-0.32823142409324646
1726941126503762400,2.869762451171875,-0.049494627863168716,0.26977837085723877,-0.39349374175071716
1726941126513748500,2.87974853515625,-0.07305934280157089,0.17785833775997162,-0.43522945046424866
1726941126523734500,2.889734619140625,-0.1059609055519104,0.048852864652872086,-0.46280571818351746
1726941126533721300,2.899721435546875,-0.1316007524728775,-0.08970528095960617,-0.4650646150112152
1726941126543707600,2.909707763671875,-0.136370450258255,-0.18753263354301453,-0.436282753944397
1726941126553693400,2.919693359375,-0.09080801904201508,-0.22452287375926971,-0.3868699371814728
1726941126563679500,2.929679443359375,-0.01444861851632595,-0.22815091907978058,-0.33168825507164
1726941126573666600,2.93966650390625,0.05764741078019142,-0.2131733000278473,-0.29666927456855774
1726941126583652600,2.949652587890625,0.09365080296993256,-0.1969721019268036,-0.3031652867794037
1726941126593638400,2.959638427734375,0.08941584080457687,-0.17289607226848602,-0.34442776441574097
1726941126603625500,2.96962548828125,0.07174398005008698,-0.14568807184696198,-0.3997360169887543
1726941126613611500,2.979611572265625,0.038940224796533585,-0.13542237877845764,-0.4363113343715668
1726941126623597600,2.98959765625,-0.0033947532065212727,-0.18500131368637085,-0.4324699938297272
1726941126633583600,2.99958349609375,-0.029265498742461205,-0.2595735490322113,-0.39217957854270935
1726941126643570400,3.0095703125,-0.02318529225885868,-0.3314720094203949,-0.32304322719573975
1726941126653556500,3.019556396484375,0.0263468399643898,-0.37131211161613464,-0.21228022873401642
1726941126663542500,3.02954248046875,0.08454815298318863,-0.39150017499923706,-0.08080196380615234
1726941126673528300,3.0395283203125,0.12253255397081375,-0.39995142817497253,0.04855628311634064
1726941126683515600,3.049515625,0.15100322663784027,-0.3734080493450165,0.15150798857212067
1726941126693501400,3.05950146484375,0.18212120234966278,-0.2993263602256775,0.22207963466644287
1726941126703487700,3.06948779296875,0.22326503694057465,-0.1988452821969986,0.25399550795555115
1726941126713473500,3.0794736328125,0.26342228055000305,-0.06973124295473099,0.232187420129776
1726941126723460400,3.08946044921875,0.28433477878570557,0.03471637889742851,0.1934465765953064
1726941126733446700,3.09944677734375,0.29500871896743774,0.09342736750841141,0.15505550801753998
1726941126743432400,3.109432373046875,0.31717753410339355,0.10951639711856842,0.13279205560684204
1726941126753418500,3.11941845703125,0.3316366374492645,0.09494118392467499,0.11716328561306
1726941126763405600,3.129405517578125,0.3060627579689026,0.05455724149942398,0.07392727583646774
1726941126773391400,3.139391357421875,0.21172693371772766,0.0058879731222987175,0.0032025061082094908
1726941126783377400,3.14937744140625,0.09670032560825348,-0.088138647377491,-0.08782324939966202
1726941126793363500,3.159363525390625,-0.01730640046298504,-0.1834859400987625,-0.20956405997276306
1726941126803350500,3.1693505859375,-0.09408670663833618,-0.19941338896751404,-0.3501523435115814
1726941126813336600,3.179336669921875,-0.11193601042032242,-0.1558517962694168,-0.5149602293968201
1726941126823322600,3.189322509765625,-0.1051461473107338,-0.05327918753027916,-0.6504148840904236
1726941126833309400,3.199309326171875,-0.09950211644172668,0.10275302082300186,-0.737051784992218
1726941126843295500,3.20929541015625,-0.0632292702794075,0.2334233969449997,-0.7824733853340149
1726941126853281500,3.219281494140625,-0.02837354876101017,0.25813671946525574,-0.792165994644165
1726941126863267300,3.229267333984375,-0.019514748826622963,0.199319988489151,-0.7758187651634216
1726941126873254700,3.239254638671875,-0.013979901559650898,0.09849271178245544,-0.7314228415489197
1726941126883240400,3.249240478515625,-0.012679807841777802,-0.015593882650136948,-0.696766197681427
1726941126893226500,3.2592265625,0.038927726447582245,-0.12139461189508438,-0.6492130756378174
1726941126903212500,3.269212646484375,0.1673000156879425,-0.19972805678844452,-0.5945156216621399
1726941126913199400,3.279199462890625,0.34410595893859863,-0.27800583839416504,-0.5260739922523499
1726941126923185700,3.289185546875,0.4695172607898712,-0.40218695998191833,-0.4582993686199188
1726941126933171500,3.29917138671875,0.535551130771637,-0.5289190411567688,-0.43801701068878174
1726941126943157500,3.309157470703125,0.5347259640693665,-0.649299681186676,-0.47001826763153076
1726941126953144600,3.31914453125,0.5067225694656372,-0.7750581502914429,-0.483978807926178
1726941126963130400,3.32913037109375,0.4827551245689392,-0.8846209049224854,-0.4901435971260071
1726941126973116700,3.33911669921875,0.4519924223423004,-0.8746364712715149,-0.5354311466217041
1726941126983102500,3.3491025390625,0.47815650701522827,-0.6528641581535339,-0.5916520953178406
1726941126993089500,3.359089599609375,0.5736375451087952,-0.28764116764068604,-0.6369894742965698
1726941127003075600,3.36907568359375,0.6828409433364868,0.08988582342863083,-0.6351355314254761
1726941127013061600,3.3790615234375,0.8160269260406494,0.22175569832324982,-0.5123265385627747
1726941127023047400,3.38904736328125,0.8664218783378601,0.13759484887123108,-0.3641814887523651
1726941127033034500,3.399034423828125,0.9020326137542725,-0.0223666001111269,-0.21986158192157745
1726941127043020500,3.4090205078125,0.9514439105987549,-0.20499446988105774,-0.08237481117248535
1726941127053006300,3.41900634765625,1.1337331533432007,-0.4867984652519226,0.10530480742454529
1726941127062993400,3.428993408203125,1.5230278968811035,-0.6718336343765259,0.2740578353404999
1726941127072979500,3.4389794921875,2.1672558784484863,-0.7664480209350586,0.48133164644241333
1726941127082965500,3.448965576171875,2.9252281188964844,-0.471375972032547,0.569294810295105
1726941127092951600,3.45895166015625,3.416550874710083,-0.020376557484269142,0.46774977445602417
1726941127102938400,3.4689384765625,3.3339412212371826,0.2792174816131592,0.4534699320793152
1726941127112924700,3.478924560546875,3.2125120162963867,0.4243949055671692,0.46536627411842346
1726941127122910500,3.488910400390625,2.823380708694458,0.594697117805481,0.5168748497962952
1726941127132896500,3.498896484375,2.4461982250213623,0.8734281063079834,0.5919184684753418
1726941127142883600,3.508883544921875,2.1081645488739014,1.0522862672805786,0.7216066718101501
1726941127152869400,3.518869384765625,1.7091014385223389,1.2317537069320679,0.7823429703712463
1726941127162855700,3.528855712890625,1.3558893203735352,1.2981767654418945,0.8560339212417603
1726941127172841500,3.538841552734375,1.0409317016601562,1.1966509819030762,0.9024959206581116
1726941127182828500,3.54882861328125,0.7911603450775146,0.9784978032112122,0.9160193204879761
1726941127192814600,3.558814697265625,0.5466960072517395,0.6741014122962952,0.8881282806396484
1726941127202800600,3.568800537109375,0.3120412230491638,0.3539176285266876,0.8337836861610413
1726941127212786700,3.57878662109375,0.09976544976234436,-0.04383561760187149,0.7605422139167786
1726941127222773500,3.5887734375,-0.042867984622716904,-0.37000706791877747,0.673022985458374
1726941127232759800,3.598759765625,-0.1534155309200287,-0.3483140170574188,0.5138477087020874
1726941127242745600,3.60874560546875,-0.19087563455104828,-0.1671133041381836,0.34758302569389343
1726941127252731600,3.618731689453125,-0.2705366611480713,-0.13191457092761993,0.2499975860118866
1726941127262718700,3.62871875,-0.41193848848342896,-0.18399009108543396,0.2000950127840042
1726941127272704500,3.63870458984375,-0.5460720658302307,-0.14059069752693176,0.20353154838085175
1726941127282690800,3.64869091796875,-0.695770263671875,0.10285896062850952,0.1939755380153656
1726941127292676600,3.658676513671875,-0.8590366840362549,0.2584618628025055,0.16103516519069672
1726941127302663700,3.66866357421875,-0.9629168510437012,0.21048100292682648,0.040789056569337845
1726941127312649700,3.678649658203125,-0.9002774357795715,0.021813079714775085,-0.11403248459100723
1726941127322635800,3.6886357421875,-0.5997183322906494,-0.02053789608180523,-0.23397241532802582
1726941127332621600,3.69862158203125,-0.11773841828107834,0.1093524619936943,-0.2991833984851837
1726941127342608600,3.708608642578125,0.3670273423194885,0.2195059061050415,-0.2795010805130005
1726941127352594700,3.7185947265625,0.6054969429969788,0.27790504693984985,-0.20535388588905334
1726941127362580500,3.72858056640625,0.6736208200454712,0.3469858765602112,-0.09840379655361176
1726941127372566800,3.73856689453125,0.6927830576896667,0.42982378602027893,0.018416298553347588
1726941127382553600,3.7485537109375,0.6793199181556702,0.46167412400245667,0.1308189332485199
1726941127392539600,3.75853955078125,0.6012855768203735,0.36993086338043213,0.2425747662782669
1726941127402525700,3.768525634765625,0.4348605275154114,0.09015125036239624,0.3375130593776703
1726941127412511500,3.778511474609375,0.18902014195919037,-0.17292645573616028,0.4307332932949066
1726941127422498800,3.788498779296875,-0.10028813034296036,-0.3474545478820801,0.44652268290519714
1726941127432484600,3.798484619140625,-0.3011320233345032,-0.5953349471092224,0.4422190189361572
1726941127442470700,3.808470703125,-0.3269868493080139,-0.6673853397369385,0.4304412007331848
1726941127452457700,3.818457763671875,-0.23885458707809448,-0.6000773906707764,0.4052625894546509
1726941127462443500,3.828443603515625,-0.13041970133781433,-0.5155386924743652,0.36019590497016907
1726941127472429800,3.838429931640625,-0.07633835077285767,-0.36493372917175293,0.28980910778045654
1726941127482415600,3.84841552734375,-0.03089210018515587,-0.26780375838279724,0.19910037517547607
1726941127492402400,3.85840234375,-0.00503147579729557,-0.1027868390083313,0.1027008667588234
1726941127502388700,3.868388671875,-0.15603646636009216,0.08797933906316757,0.10777215659618378
1726941127512374500,3.87837451171875,-0.4271417558193207,0.12649530172348022,0.21357741951942444
1726941127522360600,3.888360595703125,-0.6034368276596069,-0.20325987040996552,0.1972895860671997
1726941127532347600,3.89834765625,-0.6229271292686462,-1.0755953788757324,0.003684441326186061
1726941127542333700,3.908333740234375,-0.6163042783737183,-2.1486141681671143,-0.18326163291931152
1726941127552319700,3.91831982421875,-0.5506874918937683,-2.4098281860351562,-0.09359058737754822
1726941127562305800,3.928305908203125,-0.4479850232601166,-1.392645239830017,-0.021480590105056763
1726941127572292600,3.938292724609375,-0.21592676639556885,-0.27035850286483765,0.04023364186286926
1726941127582278700,3.948278564453125,-0.03450293838977814,0.20831117033958435,0.17537686228752136
1726941127592264700,3.9582646484375,0.07758817821741104,0.41141876578330994,0.25121062994003296
1726941127602250500,3.96825048828125,-0.01768794283270836,0.41288772225379944,0.3694983124732971
1726941127612237600,3.978237548828125,-0.2884451150894165,0.1209631860256195,0.4842991828918457
1726941127622223600,3.9882236328125,-0.5135295987129211,-0.2693246304988861,0.5615075826644897
1726941127632209700,3.998209716796875,-0.6008053421974182,-0.5878975987434387,0.5749682188034058
1726941127642195700,4.00819580078125,-0.6100655198097229,-0.8663973808288574,0.5071296095848083
1726941127652182500,4.0181826171875,-0.600429356098175,-1.018768548965454,0.3626967966556549
1726941127662168800,4.0281689453125,-0.6348215937614441,-0.8469611406326294,0.09955823421478271
1726941127672154600,4.038154541015625,-0.6700946688652039,-0.5350999236106873,-0.19888117909431458
1726941127682140700,4.048140625,-0.6567763090133667,-0.28773432970046997,-0.43991395831108093
1726941127692127700,4.058127685546875,-0.5360738635063171,-0.14563791453838348,-0.5521973371505737
1726941127702113500,4.068113525390625,-0.3866415023803711,-0.03507918864488602,-0.5929139852523804
1726941127712099600,4.078099609375,-0.25789761543273926,0.09344895929098129,-0.6534246802330017
1726941127722085600,4.088085693359375,-0.17733269929885864,0.20743954181671143,-0.6897053718566895
1726941127732072700,4.09807275390625,-0.15797391533851624,0.22120915353298187,-0.689960777759552
1726941127742058800,4.108058837890625,-0.1736506074666977,0.053476482629776,-0.6675654053688049
1726941127752044800,4.118044921875,-0.19629892706871033,-0.256259024143219,-0.6472162008285522
1726941127762030600,4.128030517578125,-0.21867887675762177,-0.46786758303642273,-0.650843620300293
1726941127772017700,4.138017578125,-0.16926099359989166,-0.38443607091903687,-0.7203124761581421
1726941127782003700,4.148003662109375,-0.01850118488073349,-0.14300505816936493,-0.8100572228431702
1726941127791989500,4.157989501953125,0.12375608831644058,0.14071720838546753,-0.8952522277832031
1726941127801975800,4.167975830078125,0.19826853275299072,0.42840003967285156,-0.9510317444801331
1726941127811962600,4.177962646484375,0.17375200986862183,0.6491193175315857,-0.9550299644470215
1726941127821948700,4.18794873046875,0.09285014122724533,0.6912348866462708,-0.8842504620552063
1726941127831934700,4.197934814453125,0.00010981819650623947,0.5957080721855164,-0.7753479480743408
1726941127841920500,4.20792041015625,-0.07160405069589615,0.4684595763683319,-0.6752927303314209
1726941127851907800,4.217907958984375,-0.10868590325117111,0.35212472081184387,-0.5933067798614502
1726941127861893600,4.2278935546875,-0.1024683490395546,0.266592413187027,-0.5552684664726257
1726941127871879700,4.237879638671875,-0.08678126335144043,0.17182914912700653,-0.5793868899345398
1726941127881865700,4.24786572265625,-0.13079746067523956,0.045575547963380814,-0.650751531124115
1726941127891852500,4.2578525390625,-0.20394517481327057,-0.030037719756364822,-0.7435238361358643
1726941127901838600,4.267838623046875,-0.25578203797340393,-0.01500549353659153,-0.8119481205940247
1726941127911824600,4.27782470703125,-0.2451978325843811,0.00902980100363493,-0.7930857539176941
1726941127921810700,4.287810791015625,-0.20194506645202637,0.004208108875900507,-0.6814786791801453
1726941127931797800,4.2977978515625,-0.14415128529071808,-0.006445067934691906,-0.5077446699142456
1726941127941783600,4.307783447265625,-0.12417426705360413,0.018919890746474266,-0.3531990051269531
1726941127951769600,4.31776953125,-0.13418935239315033,0.025522399693727493,-0.22948025166988373
1726941127961755600,4.327755615234375,-0.1617763191461563,-0.01601376011967659,-0.13779497146606445
1726941127971742700,4.33774267578125,-0.20663674175739288,-0.15234656631946564,-0.08140626549720764
1726941127981728500,4.347728515625,-0.25282466411590576,-0.35432764887809753,-0.055434416979551315
1726941127991714800,4.35771484375,-0.25671130418777466,-0.5909183621406555,-0.051173094660043716
1726941128001700600,4.36770068359375,-0.2088046669960022,-0.7801142334938049,-0.04873479902744293
1726941128011687700,4.377687744140625,-0.1349906325340271,-0.9298831820487976,-0.006303985603153706
1726941128021673700,4.387673828125,-0.08385828882455826,-0.9384774565696716,0.045290376991033554
1726941128031659500,4.397659423828125,-0.11280019581317902,-0.8370237946510315,0.14479805529117584
1726941128041645800,4.407645751953125,-0.19775204360485077,-0.7234556674957275,0.2624201774597168
1726941128051632600,4.417632568359375,-0.27689531445503235,-0.6577315330505371,0.35679274797439575
1726941128061618700,4.42761865234375,-0.28967684507369995,-0.6194638013839722,0.39075782895088196
1726941128071604700,4.437604736328125,-0.23651722073554993,-0.6267704963684082,0.4386313259601593
1726941128081590500,4.447590576171875,-0.20247602462768555,-0.6465036273002625,0.48866620659828186
1726941128091577600,4.45757763671875,-0.19263137876987457,-0.7348310947418213,0.5418250560760498
1726941128101563600,4.467563720703125,-0.21222908794879913,-0.8358772993087769,0.578486979007721
1726941128111549700,4.4775498046875,-0.23568780720233917,-0.8597362637519836,0.571010172367096
1726941128121535500,4.487535400390625,-0.24693989753723145,-0.8340376019477844,0.522167444229126
1726941128131522600,4.4975224609375,-0.25158682465553284,-0.7733510732650757,0.4295187294483185
1726941128141508600,4.507508544921875,-0.2692835330963135,-0.6745938062667847,0.26599472761154175
1726941128151494700,4.51749462890625,-0.31861674785614014,-0.5351658463478088,-0.022053558379411697
1726941128161480700,4.527480712890625,-0.36815541982650757,-0.48979851603507996,-0.378135085105896
1726941128171467500,4.537467529296875,-0.475638747215271,-0.48694679141044617,-0.7188774943351746
1726941128181453800,4.547453857421875,-0.5663861036300659,-0.5491302609443665,-1.0184756517410278
1726941128191439600,4.557439697265625,-0.5903018116950989,-0.5883684754371643,-1.1279799938201904
1726941128201425200,4.567425048828125,-0.48274990916252136,-0.5060770511627197,-1.0070170164108276
1726941128211412000,4.577411865234375,-0.307039350271225,-0.34780433773994446,-0.8500863909721375
1726941128221398000,4.58739794921875,-0.10706227272748947,-0.08788266032934189,-0.737862229347229
1726941128231384000,4.597384033203125,0.005173191893845797,0.17671358585357666,-0.6157259345054626
1726941128241369900,4.607369873046875,0.0314517579972744,0.33769503235816956,-0.48299530148506165
1726941128251357200,4.617357177734375,-0.010507944971323013,0.39220061898231506,-0.3852279782295227
1726941128261343000,4.627343017578125,-0.11587700992822647,0.28540870547294617,-0.3212604522705078
1726941128271329300,4.637329345703125,-0.2476150542497635,0.10832556337118149,-0.26859402656555176
1726941128281315000,4.647315185546875,-0.3675554394721985,-0.1520107537508011,-0.27871325612068176
1726941128291302000,4.657302001953125,-0.44946256279945374,-0.45310962200164795,-0.33489900827407837
1726941128301288200,4.6672880859375,-0.44052091240882874,-0.6807457208633423,-0.3241522014141083
1726941128311274000,4.67727392578125,-0.35771793127059937,-0.8489245772361755,-0.21729151904582977
1726941128321260000,4.687260009765625,-0.24764923751354218,-0.9204755425453186,-0.043873563408851624
1726941128331247000,4.6972470703125,-0.11819244176149368,-0.8863247632980347,0.14384867250919342
1726941128341233000,4.70723291015625,0.06276227533817291,-0.7803085446357727,0.30153152346611023
1726941128351219200,4.71721923828125,0.19710436463356018,-0.6360301971435547,0.3802764117717743
1726941128361205000,4.727205078125,0.19936591386795044,-0.4041024446487427,0.3481070399284363
1726941128371192000,4.737192138671875,0.14214204251766205,-0.15615922212600708,0.2402292937040329
1726941128381178000,4.74717822265625,0.1845366507768631,0.019231565296649933,0.10128440707921982
1726941128391164200,4.7571640625,0.23448503017425537,0.014521499164402485,-0.08245933055877686
1726941128401150000,4.76714990234375,0.2995680272579193,-0.010555676184594631,-0.20954318344593048
1726941128411137000,4.777136962890625,0.32356444001197815,-0.026320790871977806,-0.17685207724571228
1726941128421123000,4.787123046875,0.25706422328948975,-0.1115642562508583,-0.06817223876714706
1726941128431108900,4.79710888671875,0.1666661500930786,-0.2336619347333908,0.09877759963274002
1726941128441095200,4.80709521484375,0.09752235561609268,-0.31376948952674866,0.25877469778060913
1726941128451082000,4.81708203125,0.05419458821415901,-0.3335258960723877,0.340189665555954
1726941128461068000,4.827068115234375,0.06730074435472488,-0.30184122920036316,0.39014244079589844
1726941128471054000,4.83705419921875,0.0915064811706543,-0.2722545862197876,0.42530789971351624
1726941128481040100,4.8470400390625,0.013754251413047314,-0.28034743666648865,0.513576328754425
1726941128491027200,4.857027099609375,-0.12732084095478058,-0.24387836456298828,0.6681227684020996
1726941128501013000,4.867012939453125,-0.24423912167549133,-0.15842144191265106,0.8446970582008362
1726941128510999000,4.8769990234375,-0.29977110028266907,-0.08784980326890945,0.9793944358825684
1726941128520985000,4.886985107421875,-0.30543431639671326,-0.022178972139954567,1.0454906225204468
1726941128530972000,4.896971923828125,-0.30408594012260437,0.028432007879018784,1.0644091367721558
1726941128540958200,4.906958251953125,-0.3321225047111511,0.03970516100525856,1.038669228553772
1726941128550944000,4.916944091796875,-0.39319249987602234,0.035339176654815674,0.9739730358123779
1726941128560930000,4.926929931640625,-0.45196256041526794,0.004764196462929249,0.8673484921455383
1726941128570916000,4.936916015625,-0.43620169162750244,-0.11310864239931107,0.7400763034820557
1726941128580903200,4.946903076171875,-0.32477664947509766,-0.27566418051719666,0.5794199705123901
1726941128590889000,4.956888916015625,-0.14364680647850037,-0.4734662175178528,0.3602655529975891
1726941128600875300,4.966875244140625,0.04674495756626129,-0.6149479746818542,0.1454712599515915
1726941128610862000,4.976862060546875,0.1714368313550949,-0.5995240211486816,-0.04222087562084198
1726941128620848000,4.98684814453125,0.19519834220409393,-0.42553311586380005,-0.14727666974067688
1726941128630834200,4.996834228515625,0.14894455671310425,-0.25443246960639954,-0.2407464236021042
1726941128640820000,5.006820068359375,0.10352331399917603,-0.10607703775167465,-0.32500389218330383
1726941128650806000,5.016805908203125,0.08683008700609207,0.0139689389616251,-0.43331092596054077
1726941128660793000,5.02679296875,0.11571884900331497,0.030612904578447342,-0.546504020690918
1726941128670779000,5.03677880859375,0.19062957167625427,-0.022919297218322754,-0.6043175458908081
1726941128680765200,5.04676513671875,0.2745009660720825,-0.1068667396903038,-0.5645038485527039
1726941128690751000,5.0567509765625,0.3807680010795593,-0.2889143228530884,-0.4688234031200409
1726941128700738000,5.066738037109375,0.4810650944709778,-0.5621224045753479,-0.37323734164237976
1726941128710724000,5.07672412109375,0.6071932315826416,-0.9433611035346985,-0.28229811787605286
1726941128720710100,5.086710205078125,0.8083224892616272,-1.2235510349273682,-0.23838311433792114
1726941128730696000,5.096696044921875,1.1513595581054688,-1.1923757791519165,-0.26230815052986145
1726941128740683000,5.10668310546875,1.5366533994674683,-0.8591213226318359,-0.3092458248138428
1726941128750669000,5.1166689453125,1.793358325958252,-0.3169877231121063,-0.2998693585395813
1726941128760655000,5.126655029296875,1.9317907094955444,0.16781701147556305,-0.24130742251873016
1726941128770641200,5.13664111328125,2.013463020324707,0.24978724122047424,-0.035095665603876114
1726941128780628000,5.1466279296875,1.9321568012237549,-0.02630792371928692,0.18382760882377625
1726941128790614000,5.156614013671875,1.7387473583221436,-0.30364444851875305,0.259758859872818
1726941128800600000,5.16660009765625,1.4730790853500366,-0.3050294518470764,0.20220915973186493
1726941128810585900,5.1765859375,1.314420223236084,-0.12770526111125946,0.10772952437400818
1726941128820573200,5.1865732421875,1.2827339172363281,0.02631506137549877,0.10417400300502777
1726941128830559000,5.19655908203125,1.3514785766601562,0.016530340537428856,0.21428613364696503
1726941128840545300,5.206545166015625,1.5764057636260986,-0.20882636308670044,0.399065762758255
1726941128850531000,5.216531005859375,1.5856802463531494,-0.3427732586860657,0.566403329372406
1726941128860518000,5.226517822265625,1.6500595808029175,-0.3100389242172241,0.7228260636329651
1726941128870504200,5.236504150390625,1.6530290842056274,-0.13960513472557068,0.8112073540687561
1726941128880490000,5.246489990234375,1.5447556972503662,0.1002739891409874,0.8409445285797119
1726941128890476000,5.25647607421875,1.3342591524124146,0.32670286297798157,0.844464123249054
1726941128900463000,5.266463134765625,1.0204805135726929,0.3853866159915924,0.8246273398399353
1726941128910449200,5.27644921875,0.6680165529251099,0.1422450840473175,0.7584890723228455
1726941128920435000,5.28643505859375,0.3780049979686737,-0.3960708677768707,0.6964064836502075
1726941128930421000,5.2964208984375,0.2345016449689865,-0.9151998162269592,0.6403480172157288
1726941128940408000,5.306407958984375,0.3092006742954254,-1.059533715248108,0.5521442890167236
1726941128950394000,5.31639404296875,0.5035749673843384,-0.7030286192893982,0.46842142939567566
1726941128960380200,5.326380126953125,0.6334959864616394,-0.12337523698806763,0.31180277466773987
1726941128970366000,5.336365966796875,0.6430490612983704,0.15738745033740997,0.10381307452917099
1726941128980352300,5.346352294921875,0.5190232992172241,0.27348408102989197,-0.005936808418482542
1726941128990339000,5.356339111328125,0.28943026065826416,0.49947434663772583,-0.1378232091665268
1726941129000324900,5.366324951171875,0.06963210552930832,0.7388323545455933,-0.24241134524345398
1726941129010311200,5.376311279296875,-0.07803831249475479,1.0208872556686401,-0.2844533324241638
1726941129020297000,5.386296875,-0.19601495563983917,1.2698324918746948,-0.3615819811820984
1726941129030284300,5.3962841796875,-0.31776162981987,1.3823797702789307,-0.4454481303691864
1726941129040270000,5.40627001953125,-0.393538236618042,1.2431176900863647,-0.49241745471954346
1726941129050256100,5.416256103515625,-0.3710542321205139,0.9245216250419617,-0.5045005083084106
1726941129060242200,5.4262421875,-0.2949252128601074,0.654072642326355,-0.5112203359603882
1726941129070229000,5.43622900390625,-0.21405217051506042,0.4598275423049927,-0.5655121207237244
1726941129080215000,5.446215087890625,-0.11990302056074142,0.3033382296562195,-0.6463302373886108
1726941129090201000,5.456201171875,-0.001746556255966425,0.12032448500394821,-0.6785568594932556
1726941129100187100,5.466187255859375,0.10839616507291794,-0.08967699855566025,-0.6274719834327698
1726941129110174200,5.47617431640625,0.15572266280651093,-0.18979588150978088,-0.5317971706390381
1726941129120160000,5.486159912109375,0.10639704018831253,-0.08166413009166718,-0.4645474851131439
1726941129130146000,5.49614599609375,-0.020216025412082672,0.1492825448513031,-0.4247332215309143
1726941129140131800,5.5061318359375,-0.19620417058467865,0.23296600580215454,-0.4213019013404846
1726941129150119200,5.516119140625,-0.3967258036136627,0.16419333219528198,-0.4431355595588684
1726941129160105000,5.52610498046875,-0.6145939826965332,0.029548464342951775,-0.506105899810791
1726941129170091300,5.53609130859375,-0.8460714221000671,-0.21767385303974152,-0.5948296189308167
1726941129180077000,5.5460771484375,-1.105491280555725,-0.5188525915145874,-0.7205302715301514
1726941129190063900,5.55606396484375,-1.331585168838501,-0.7348634600639343,-0.8465710282325745
1726941129200050200,5.56605029296875,-1.4331755638122559,-0.7945500612258911,-0.8609142899513245
1726941129210036200,5.5760361328125,-1.3680839538574219,-0.8373068571090698,-0.6861006617546082
1726941129220022300,5.586022216796875,-1.2365608215332031,-0.9087282419204712,-0.3653670847415924
1726941129230009000,5.596009033203125,-1.1372227668762207,-0.9185090065002441,-0.08189091086387634
1726941129239995100,5.6059951171875,-1.0550003051757812,-0.8309736847877502,0.10025732219219208
1726941129249981200,5.615981201171875,-1.0057555437088013,-0.40031662583351135,0.0797208920121193
1726941129259967000,5.625967041015625,-0.9197002649307251,0.12090933322906494,-0.03914353996515274
1726941129269954300,5.635954345703125,-0.6623680591583252,0.4115108251571655,-0.06152954325079918
1726941129279940000,5.645940185546875,-0.36241069436073303,0.5093570947647095,0.02979501709342003
1726941129289926400,5.655926513671875,-0.19526086747646332,0.47391119599342346,0.14016786217689514
1726941129299912200,5.665912109375,-0.16847534477710724,0.28541696071624756,0.20361341536045074
1726941129309898200,5.675898193359375,-0.15995723009109497,0.17528194189071655,0.1430848240852356
1726941129319885300,5.68588525390625,-0.15926167368888855,0.24400345981121063,-0.04064358398318291
1726941129329871000,5.69587109375,-0.1269111931324005,0.36337512731552124,-0.20724241435527802
1726941129339857200,5.705857177734375,-0.07725868374109268,0.4278308153152466,-0.26199886202812195
1726941129349843200,5.71584326171875,-0.03818345442414284,0.45792558789253235,-0.23282074928283691
1726941129359830000,5.725830078125,-0.052101340144872665,0.4572010338306427,-0.1525074690580368
1726941129369816300,5.73581640625,-0.09917803853750229,0.38868269324302673,-0.06069764494895935
1726941129379802000,5.745802001953125,-0.12160440534353256,0.26308363676071167,-0.05842984467744827
1726941129389788200,5.7557880859375,-0.11922486871480942,0.2098555862903595,-0.14275911450386047
1726941129399775200,5.765775146484375,-0.0966045930981636,0.22758422791957855,-0.2983764708042145
1726941129409761300,5.77576123046875,-0.08188024163246155,0.2361617386341095,-0.4768838882446289
1726941129419747000,5.7857470703125,-0.007003047503530979,0.18948829174041748,-0.5879239439964294
1726941129429733400,5.7957333984375,0.12285854667425156,0.10846800357103348,-0.5684607625007629
1726941129439720200,5.80572021484375,0.24124455451965332,0.04632442817091942,-0.45477646589279175
1726941129449706000,5.8157060546875,0.24394899606704712,0.01684456877410412,-0.3414568305015564
1726941129459692300,5.8256923828125,0.1215706393122673,-0.013203772716224194,-0.32041695713996887
1726941129469678000,5.835677978515625,0.04324867203831673,-0.04277205094695091,-0.33965110778808594
1726941129479665200,5.8456650390625,0.036551181226968765,-0.005331359803676605,-0.3600831627845764
1726941129489651200,5.855651123046875,0.08866684138774872,-0.07775869220495224,-0.37291479110717773
1726941129499637200,5.86563720703125,0.16990724205970764,-0.1999737024307251,-0.3461261987686157
1726941129509623300,5.875623291015625,0.1984691172838211,-0.23076944053173065,-0.3017432689666748
1726941129519609000,5.885609130859375,0.15296368300914764,-0.16860507428646088,-0.25988271832466125
1726941129529596200,5.89559619140625,0.10732217133045197,-0.2205265909433365,-0.2649347186088562
1726941129539582200,5.905582275390625,0.1071765199303627,-0.2749476134777069,-0.3396645784378052
1726941129549568300,5.915568359375,0.13671177625656128,-0.2320116013288498,-0.4365738034248352
1726941129559554000,5.925553955078125,0.1694306582212448,-0.12840904295444489,-0.5082288980484009
1726941129569541000,5.935541015625,0.20404082536697388,-0.019216768443584442,-0.5232086181640625
1726941129579527200,5.945527099609375,0.22975939512252808,0.09143684059381485,-0.5002209544181824
1726941129589513200,5.95551318359375,0.21980689465999603,0.19768497347831726,-0.44377124309539795
1726941129599499300,5.965499267578125,0.18976937234401703,0.20582525432109833,-0.44556230306625366
1726941129609486000,5.975486083984375,0.20864878594875336,0.14665620028972626,-0.5062874555587769
1726941129619472400,5.985472412109375,0.2845302224159241,0.10751194506883621,-0.6218373775482178
1726941129629458200,5.995458251953125,0.4009852111339569,0.14778931438922882,-0.7595651745796204
1726941129639444200,6.0054443359375,0.5583897233009338,0.22610683739185333,-0.8528021574020386
1726941129649431300,6.015431396484375,0.6792990565299988,0.28947514295578003,-0.8967917561531067
1726941129659417000,6.0254169921875,0.706343412399292,0.32058408856391907,-0.8715866804122925
1726941129669403100,6.035403076171875,0.6656116843223572,0.3582257628440857,-0.7984123229980469
1726941129679389200,6.04538916015625,0.5999013781547546,0.3794213533401489,-0.7473258376121521
1726941129689376000,6.0553759765625,0.5419315099716187,0.3541349172592163,-0.7435627579689026
1726941129699362300,6.0653623046875,0.4807586967945099,0.2584039866924286,-0.7963210344314575
1726941129709348000,6.07534814453125,0.4267178475856781,0.14116765558719635,-0.8283059000968933
1726941129719334100,6.085334228515625,0.4378969371318817,0.04211486503481865,-0.7833297848701477
1726941129729320200,6.0953203125,0.4864269196987152,-0.053949084132909775,-0.5926141738891602
1726941129739307300,6.105307373046875,0.43019360303878784,-0.09633802622556686,-0.3033384084701538
1726941129749293000,6.11529296875,0.2886577844619751,-0.06330816447734833,-0.01736844703555107
1726941129759279400,6.125279296875,0.19055572152137756,-0.01743968203663826,0.18586984276771545
1726941129769265200,6.13526513671875,0.10332068800926208,-0.026731984689831734,0.26890695095062256
1726941129779252200,6.145252197265625,-0.040927689522504807,-0.07720774412155151,0.2598000168800354
1726941129789238300,6.15523828125,-0.22712738811969757,-0.19252634048461914,0.22850920259952545
1726941129799224000,6.16522412109375,-0.3615102469921112,-0.30099815130233765,0.22798851132392883
1726941129809210400,6.17521044921875,-0.41460487246513367,-0.35493409633636475,0.2771803140640259
1726941129819197200,6.185197265625,-0.3956911265850067,-0.3680361807346344,0.350364089012146
1726941129829183000,6.195182861328125,-0.35354793071746826,-0.3702988028526306,0.44789329171180725
1726941129839169300,6.205169189453125,-0.3269379138946533,-0.3670763075351715,0.5170600414276123
1726941129849155000,6.215155029296875,-0.3706084191799164,-0.3116932213306427,0.5182417631149292
1726941129859142400,6.225142333984375,-0.42664414644241333,-0.27354612946510315,0.45388469099998474
1726941129869128200,6.235128173828125,-0.4507950246334076,-0.259737104177475,0.38230985403060913
1726941129879114200,6.2451142578125,-0.3804326355457306,-0.25622275471687317,0.32266178727149963
1726941129889100000,6.25510009765625,-0.24441008269786835,-0.22858555614948273,0.2839577794075012
1726941129899087000,6.265087158203125,-0.09757813066244125,-0.18649570643901825,0.27244359254837036
1726941129909073200,6.2750732421875,0.013623756356537342,-0.15184344351291656,0.3302032947540283
1726941129919059200,6.28505908203125,0.039852701127529144,-0.1620805859565735,0.38373011350631714
1726941129929045200,6.295045166015625,-0.02925633080303669,-0.13800853490829468,0.39981400966644287
1726941129939031000,6.305031005859375,-0.1319563239812851,-0.09642387926578522,0.3971569836139679
1726941129949018000,6.31501806640625,-0.19071471691131592,-0.0886964499950409,0.3793705403804779
1726941129959004200,6.325004150390625,-0.18956339359283447,-0.12526006996631622,0.34411609172821045
1726941129968990200,6.334990234375,-0.17123524844646454,-0.20035694539546967,0.3046261966228485
1726941129978976300,6.344976318359375,-0.12792091071605682,-0.3117348253726959,0.2886226773262024
1726941129988963000,6.354963134765625,-0.0414842925965786,-0.3925500512123108,0.33975428342819214
1726941129998949400,6.364949462890625,0.0030581392347812653,-0.39599695801734924,0.4325537383556366
1726941130008935200,6.37493505859375,-0.04942584037780762,-0.3558191955089569,0.5221312642097473
1726941130018921200,6.384921142578125,-0.10211014747619629,-0.32193151116371155,0.5825505256652832
1726941130028908300,6.394908203125,-0.12560802698135376,-0.36282220482826233,0.6294146776199341
1726941130038894000,6.40489404296875,-0.09428197145462036,-0.42264118790626526,0.6305866241455078
1726941130048880000,6.414880126953125,-0.045736804604530334,-0.5106703639030457,0.5739249587059021
1726941130058866200,6.4248662109375,0.018084434792399406,-0.5287693738937378,0.5011107921600342
1726941130068852200,6.434852294921875,0.05840415880084038,-0.4648053050041199,0.44282376766204834
1726941130078839300,6.44483935546875,0.08915964514017105,-0.3642062544822693,0.38556212186813354
1726941130088825300,6.454825439453125,0.12040172517299652,-0.2611405849456787,0.33974191546440125
1726941130098811100,6.46481103515625,0.21372061967849731,-0.2102501094341278,0.3138063848018646
1726941130108797200,6.474797119140625,0.3835200369358063,-0.26181158423423767,0.3082424998283386
1726941130118784300,6.4847841796875,0.5908138155937195,-0.32601702213287354,0.3158041536808014
1726941130128770000,6.49477001953125,0.7920073866844177,-0.3526177406311035,0.3403225541114807
1726941130138756400,6.50475634765625,0.9488773941993713,-0.3698594272136688,0.3784812092781067
1726941130148742100,6.5147421875,1.1044642925262451,-0.4685404598712921,0.4191575348377228
1726941130158729000,6.52472900390625,1.302529215812683,-0.4813612997531891,0.442470908164978
1726941130168715300,6.53471533203125,1.5047065019607544,-0.24163766205310822,0.4711800515651703
1726941130178701000,6.544701171875,1.537535309791565,0.14269980788230896,0.4606064260005951
1726941130188687000,6.55468701171875,1.5654617547988892,0.45928946137428284,0.47351983189582825
1726941130198673200,6.564673095703125,1.569260597229004,0.5530473589897156,0.5798139572143555
1726941130208660200,6.57466015625,1.490435004234314,0.5174944400787354,0.7009137272834778
1726941130218646000,6.58464599609375,1.2663475275039673,0.6594258546829224,0.7670854330062866
1726941130228632300,6.59463232421875,0.9703790545463562,0.9214337468147278,0.783882200717926
1726941130238618000,6.6046181640625,0.6547468304634094,1.0166187286376953,0.7946193218231201
1726941130248605200,6.614605224609375,0.35488396883010864,0.7787920236587524,0.8232496380805969
1726941130258591200,6.62459130859375,0.02631673775613308,0.29956957697868347,0.8608709573745728
1726941130268577000,6.634576904296875,-0.3618645668029785,-0.16190272569656372,0.8404780626296997
1726941130278563300,6.644563232421875,-0.711654007434845,-0.3900143802165985,0.7294985055923462
1726941130288550100,6.654550048828125,-0.8909603953361511,-0.5463361144065857,0.6038276553153992
1726941130298536000,6.664535888671875,-0.8647788763046265,-0.7633293271064758,0.5140910148620605
1726941130308522200,6.674522216796875,-0.7212414145469666,-0.9604008793830872,0.5090019702911377
1726941130318508000,6.684508056640625,-0.5340961813926697,-1.0261244773864746,0.533955991268158
1726941130328495400,6.694495361328125,-0.3500951826572418,-0.8555026650428772,0.45663729310035706
1726941130338481200,6.704481201171875,-0.19028069078922272,-0.6008408665657043,0.2964874505996704
1726941130348467200,6.71446728515625,-0.06291261315345764,-0.21670757234096527,0.10997643321752548
1726941130358453000,6.724452880859375,-0.011780965141952038,0.19220049679279327,-0.06958320736885071
1726941130368439300,6.734439208984375,-0.018895599991083145,0.5118983387947083,-0.23250821232795715
1726941130378426000,6.744426025390625,-0.07428662478923798,0.6098026037216187,-0.4132222533226013
1726941130388412200,6.754412109375,-0.13057279586791992,0.5424840450286865,-0.6326494216918945
1726941130398398200,6.764398193359375,-0.19702734053134918,0.47286635637283325,-0.8493934273719788
1726941130408384000,6.774384033203125,-0.2929823696613312,0.4592602550983429,-1.0072922706604004
1726941130418371300,6.784371337890625,-0.37486687302589417,0.592362105846405,-1.078126072883606
1726941130428357000,6.794357177734375,-0.4433668255805969,0.7423015236854553,-1.1137791872024536
1726941130438343200,6.80434326171875,-0.4965113699436188,0.7207022309303284,-1.1250746250152588
1726941130448329200,6.8143291015625,-0.5527985692024231,0.5624439120292664,-1.131554365158081
1726941130458316000,6.82431591796875,-0.5964924097061157,0.4272209405899048,-1.1208821535110474
1726941130468302300,6.83430224609375,-0.6111118197441101,0.5144480466842651,-1.1491910219192505
1726941130478288100,6.8442880859375,-0.5798317790031433,0.6509491205215454,-1.1725258827209473
1726941130488274200,6.854274169921875,-0.5603118538856506,0.6475730538368225,-1.1089156866073608
1726941130498261200,6.86426123046875,-0.552143931388855,0.5196233987808228,-0.9688350558280945
1726941130508247000,6.8742470703125,-0.5510240793228149,0.32373085618019104,-0.8427152037620544
1726941130518233000,6.884233154296875,-0.5641190409660339,0.10562129318714142,-0.7293751239776611
1726941130528219100,6.89421923828125,-0.5431386828422546,-0.10249142348766327,-0.6256135702133179
1726941130538205200,6.904205078125,-0.4611467123031616,-0.2693115174770355,-0.5427123308181763
1726941130548192300,6.914192138671875,-0.3004608750343323,-0.442658007144928,-0.44462940096855164
1726941130558178300,6.92417822265625,-0.09438247233629227,-0.5928528904914856,-0.33781856298446655
1726941130568164000,6.9341640625,0.08714098483324051,-0.637276291847229,-0.2547082304954529
1726941130578150100,6.944150146484375,0.2205922156572342,-0.5077809691429138,-0.191437765955925
1726941130588137200,6.95413720703125,0.31698399782180786,-0.17055927217006683,-0.1500655561685562
1726941130598123000,6.964123046875,0.38083431124687195,0.21143823862075806,-0.09449842572212219
1726941130608109300,6.974109375,0.31267523765563965,0.4694894850254059,-0.047412145882844925
1726941130618095000,6.98409521484375,0.18997880816459656,0.5315326452255249,-0.05955973640084267
1726941130628082000,6.99408203125,0.06696552783250809,0.3915584981441498,-0.06771274656057358
1726941130638068200,7.004068115234375,0.026164792478084564,0.1864776909351349,-0.04915037006139755
1726941130648054000,7.014053955078125,-0.0018018599366769195,0.08354757726192474,-0.046101849526166916
1726941130658040000,7.0240400390625,-0.03738444298505783,0.0474846325814724,-0.08655373752117157
1726941130668026000,7.034026123046875,-0.07845491915941238,0.03179062530398369,-0.14879688620567322
1726941130678013200,7.04401318359375,-0.13118132948875427,-0.003940965980291367,-0.2262158840894699
1726941130687999200,7.053999267578125,-0.16033336520195007,-0.06971598416566849,-0.3040936291217804
1726941130697985300,7.0639853515625,-0.15299518406391144,-0.15288662910461426,-0.3463456332683563
1726941130707971000,7.07397119140625,-0.14388850331306458,-0.245967835187912,-0.34292668104171753
1726941130717958100,7.083958251953125,-0.1318516582250595,-0.3093108534812927,-0.29000741243362427
1726941130727944200,7.093944091796875,-0.12205442786216736,-0.3240562677383423,-0.2205122411251068
1726941130737930000,7.103929931640625,-0.14613381028175354,-0.25375935435295105,-0.21827027201652527
1726941130747916300,7.113916259765625,-0.22434338927268982,-0.09832371026277542,-0.2712264358997345
1726941130757903000,7.123903076171875,-0.3292395770549774,0.03543495014309883,-0.421964555978775
1726941130767889200,7.13388916015625,-0.4076662063598633,0.1342049390077591,-0.6995455622673035
1726941130777875200,7.143875244140625,-0.4512181282043457,0.2661277949810028,-0.9901522397994995
1726941130787861000,7.153861083984375,-0.4331379234790802,0.42768579721450806,-1.1699507236480713
1726941130797847000,7.163846923828125,-0.3246570825576782,0.4988548755645752,-1.140043020248413
1726941130807834000,7.173834228515625,-0.08114191889762878,0.4470856785774231,-1.001503348350525
1726941130817820200,7.183820068359375,0.23611678183078766,0.3109329044818878,-0.8571110963821411
1726941130827806200,7.19380615234375,0.5393946170806885,0.17818868160247803,-0.730105459690094
1726941130837792300,7.203792236328125,0.6990722417831421,0.10651254653930664,-0.6055617332458496
1726941130847779000,7.213779052734375,0.6434755325317383,0.0661986768245697,-0.5370343327522278
1726941130857765000,7.22376513671875,0.45712289214134216,-0.030505908653140068,-0.4894821047782898
1726941130867751200,7.233751220703125,0.2134883999824524,-0.17183533310890198,-0.4508039355278015
1726941130877737000,7.243737060546875,-0.04980374127626419,-0.2833832800388336,-0.4134676158428192
1726941130887724300,7.253724365234375,-0.2811405658721924,-0.3832339644432068,-0.3433481752872467
1726941130897710000,7.2637099609375,-0.4499551057815552,-0.5005285143852234,-0.23327666521072388
1726941130907696000,7.273696044921875,-0.5806047320365906,-0.5675696134567261,-0.08067967742681503
1726941130917682200,7.28368212890625,-0.6092906594276428,-0.5335810780525208,0.14246073365211487
1726941130927668000,7.29366796875,-0.5928749442100525,-0.42682430148124695,0.412251740694046
1726941130937655300,7.3036552734375,-0.5741984844207764,-0.27258604764938354,0.6817474961280823
1726941130947641000,7.31364111328125,-0.5710428953170776,-0.10768257081508636,0.9144715666770935
1726941130957627100,7.323627197265625,-0.5632197856903076,-0.0025865223724395037,1.070697546005249
1726941130967613200,7.33361328125,-0.5817462801933289,0.007227226626127958,1.113882064819336
1726941130977600000,7.34360009765625,-0.5595517754554749,-0.06368576735258102,1.0727481842041016
1726941130987586300,7.35358642578125,-0.48089051246643066,-0.19677911698818207,0.9902069568634033
1726941130997572000,7.363572021484375,-0.3509199321269989,-0.2890319526195526,0.8890739679336548
1726941131007558100,7.37355810546875,-0.2759101390838623,-0.29993441700935364,0.7581034302711487
1726941131017544000,7.3835439453125,-0.25845327973365784,-0.3013756275177002,0.6476065516471863
1726941131027531300,7.39353125,-0.24285517632961273,-0.2801044285297394,0.5426771640777588
1726941131037517000,7.40351708984375,-0.15968166291713715,-0.2993021011352539,0.4643433690071106
1726941131047503400,7.41350341796875,-0.015715695917606354,-0.3254554271697998,0.40038302540779114
1726941131057489200,7.4234892578125,0.11208201944828033,-0.24169565737247467,0.3425953984260559
1726941131067476000,7.43347607421875,0.17776942253112793,-0.11535263061523438,0.2756973206996918
1726941131077462300,7.443462158203125,0.15494896471500397,-0.026059051975607872,0.19542670249938965
1726941131087448000,7.453447998046875,0.11604151129722595,0.09165319800376892,0.17577363550662994
1726941131097434000,7.46343408203125,0.13797010481357574,0.20466025173664093,0.19606690108776093
1726941131107421200,7.473421142578125,0.2005607783794403,0.2193388044834137,0.2254042774438858
1726941131117407000,7.483406982421875,0.2529161870479584,0.03421111777424812,0.2217269241809845
1726941131127393300,7.493393310546875,0.30352771282196045,-0.23518279194831848,0.152182474732399
1726941131137379000,7.503379150390625,0.333219438791275,-0.46336424350738525,0.05694541335105896
1726941131147365000,7.513365234375,0.3719223439693451,-0.6186223030090332,0.012192858383059502
1726941131157352200,7.523352294921875,0.4665221571922302,-0.7340419888496399,0.06443217396736145
1726941131167338200,7.533338134765625,0.5833734273910522,-0.7942810654640198,0.1997620314359665
1726941131177324000,7.543323974609375,0.734908938407898,-0.7803468704223633,0.3677809238433838
1726941131187310300,7.553310302734375,0.9290400743484497,-0.6951385140419006,0.4988590478897095
1726941131197297700,7.563297607421875,1.1129240989685059,-0.5644604563713074,0.5391873121261597
1726941131207283700,7.57328369140625,1.3025648593902588,-0.4008427560329437,0.5191768407821655
1726941131217269800,7.583269775390625,1.4629936218261719,-0.3156786262989044,0.508881688117981
1726941131227255600,7.593255615234375,1.5104774236679077,-0.37388840317726135,0.5800773501396179
1726941131237242600,7.60324267578125,1.4440970420837402,-0.4241785407066345,0.6906105875968933
1726941131247228700,7.613228759765625,1.348460078239441,-0.38353896141052246,0.7592149376869202
1726941131257214700,7.623214599609375,1.2840665578842163,-0.26971617341041565,0.7653661370277405
1726941131267200800,7.63320068359375,1.2267651557922363,-0.11603552103042603,0.7217131853103638
1726941131277186600,7.6431865234375,1.192689299583435,-0.08149605989456177,0.6955611705780029
1726941131287173600,7.653173583984375,1.1650997400283813,-0.34102776646614075,0.7323660850524902
1726941131297159700,7.66315966796875,1.113257884979248,-0.8348222374916077,0.8737194538116455
1726941131307145500,7.6731455078125,0.9808739423751831,-1.206345558166504,1.0696772336959839
1726941131317131800,7.6831318359375,0.770831286907196,-1.290833592414856,1.2855762243270874
1726941131327118600,7.69311865234375,0.547797679901123,-1.2499756813049316,1.3942300081253052
1726941131337105000,7.70310498046875,0.28439339995384216,-1.2536040544509888,1.3397257328033447
1726941131347090700,7.713090576171875,0.004865626804530621,-1.2846953868865967,1.1290132999420166
1726941131357076700,7.72307666015625,-0.3056841790676117,-1.2545768022537231,0.8742225766181946
1726941131367062800,7.733062744140625,-0.612943708896637,-0.8859913349151611,0.6288051009178162
1726941131377049600,7.743049560546875,-0.7927389144897461,-0.37110617756843567,0.39570948481559753
1726941131387035600,7.75303564453125,-0.8682592511177063,-0.0902087390422821,0.20368704199790955
1726941131397021700,7.763021728515625,-0.8465880751609802,-0.138694167137146,0.1469029188156128
1726941131407007700,7.7730078125,-0.7861857414245605,-0.1377873569726944,0.12458881735801697
1726941131416994600,7.78299462890625,-0.6918745636940002,0.06660888344049454,0.07408927381038666
1726941131426980600,7.792980712890625,-0.48408275842666626,0.28469035029411316,-0.014007292687892914
1726941131436966700,7.802966552734375,-0.24982956051826477,0.45413053035736084,-0.1496119350194931
1726941131446952700,7.81295263671875,-0.10036070644855499,0.49028533697128296,-0.2836730480194092
1726941131456938800,7.822938720703125,-0.08014682680368423,0.4650852680206299,-0.38078996539115906
1726941131466925600,7.832925537109375,-0.16037136316299438,0.5279507637023926,-0.4922645688056946
1726941131476911900,7.842911865234375,-0.25758296251296997,0.5635191202163696,-0.6110309362411499
1726941131486897700,7.852897705078125,-0.3721771836280823,0.6445287466049194,-0.6752645373344421
1726941131496883700,7.8628837890625,-0.47616496682167053,0.7204000353813171,-0.7339475154876709
1726941131506870800,7.872870849609375,-0.5743056535720825,0.8089767694473267,-0.8046091198921204
1726941131516856600,7.882856689453125,-0.6426211595535278,0.8608683943748474,-0.8683298230171204
1726941131526842600,7.892842529296875,-0.6862051486968994,0.8902792930603027,-0.8927672505378723
1726941131536828700,7.90282861328125,-0.6713446974754333,0.8165145516395569,-0.8574116230010986
1726941131546815700,7.912815673828125,-0.6197880506515503,0.6812515258789062,-0.7474204301834106
1726941131556801800,7.9228017578125,-0.5405982136726379,0.5201464891433716,-0.5812395811080933
1726941131566787800,7.932787841796875,-0.43231382966041565,0.43992388248443604,-0.4818570911884308
1726941131576773600,7.942773681640625,-0.34111571311950684,0.46239426732063293,-0.41109880805015564
1726941131586759700,7.952759765625,-0.31314319372177124,0.4581766128540039,-0.3889426589012146
1726941131596746800,7.962746826171875,-0.30888378620147705,0.4324345886707306,-0.3695486783981323
1726941131606732500,7.972732666015625,-0.27868300676345825,0.4223406910896301,-0.35922810435295105
1726941131616718800,7.98271875,-0.20149601995944977,0.3773411512374878,-0.3005206286907196
1726941131626704600,7.99270458984375,-0.12356661260128021,0.3669463098049164,-0.18501988053321838
1726941131636691700,8.002691650390625,-0.13207709789276123,0.431813508272171,-0.05839867517352104
1726941131646677800,8.012677734375,-0.23182445764541626,0.4993877410888672,0.03501942381262779
1726941131656663600,8.02266357421875,-0.3311658501625061,0.5186213850975037,0.05731574818491936
1726941131666649600,8.032649658203125,-0.3546386957168579,0.5032991170883179,0.03217151015996933
1726941131676635600,8.0426357421875,-0.3094581067562103,0.45490574836730957,-0.014899209141731262
1726941131686622700,8.052622802734374,-0.24121618270874023,0.39705708622932434,-0.03546387329697609
1726941131696608800,8.06260888671875,-0.2090173065662384,0.37011173367500305,-0.03678412362933159
1726941131706594800,8.0725947265625,-0.19943419098854065,0.3274604082107544,-0.06335528194904327
1726941131716580600,8.08258056640625,-0.16995452344417572,0.30245068669319153,-0.14865700900554657
1726941131726567700,8.092567626953125,-0.10448736697435379,0.32782289385795593,-0.2253858745098114
1726941131736553700,8.1025537109375,0.0180708859115839,0.229049414396286,-0.2387399524450302
1726941131746539500,8.11253955078125,0.11429782211780548,0.094227135181427,-0.2020900696516037
1726941131756525800,8.12252587890625,0.12911070883274078,0.07504919171333313,-0.14934960007667542
1726941131766511600,8.13251171875,0.08479410409927368,0.15145795047283173,-0.12420962750911713
1726941131776498700,8.142498779296876,0.0562078021466732,0.23819899559020996,-0.15090903639793396
1726941131786484700,8.152484619140624,0.08664000779390335,0.21343691647052765,-0.2153111845254898
1726941131796470500,8.162470458984375,0.1438952386379242,0.05857407674193382,-0.28225597739219666
1726941131806456800,8.172456787109375,0.1402411162853241,-0.0660349652171135,-0.3325050473213196
1726941131816443600,8.182443603515624,0.05312212184071541,-0.023120813071727753,-0.43399882316589355
1726941131826429700,8.1924296875,-0.029482213780283928,0.11919718235731125,-0.5412139892578125
1726941131836415700,8.202415771484375,-0.07513795047998428,0.23342546820640564,-0.6139438152313232
1726941131846401800,8.21240185546875,-0.18829300999641418,0.35709866881370544,-0.6859367489814758
1726941131856388900,8.222388916015625,-0.33554503321647644,0.4499659836292267,-0.7109652161598206
1726941131866374700,8.232374755859375,-0.5160764455795288,0.515957236289978,-0.6682736873626709
1726941131876360700,8.242360595703126,-0.6612812876701355,0.5134322047233582,-0.6005481481552124
1726941131886346500,8.252346435546874,-0.725564181804657,0.45164555311203003,-0.5367356538772583
1726941131896332800,8.262332763671875,-0.6478180885314941,0.38396337628364563,-0.5281066298484802
1726941131906319600,8.272319580078126,-0.5249803066253662,0.34047287702560425,-0.49153241515159607
1726941131916305700,8.2823056640625,-0.4063059985637665,0.26788610219955444,-0.38148215413093567
1726941131926291700,8.292291748046875,-0.33278465270996094,0.12073127180337906,-0.25605154037475586
1726941131936277500,8.302277587890625,-0.30041053891181946,-0.10657474398612976,-0.2242218405008316
1726941131946264800,8.312264892578124,-0.26867738366127014,-0.33590298891067505,-0.30450281500816345
1726941131956250600,8.322250732421875,-0.22714990377426147,-0.5365539193153381,-0.43925741314888
1726941131966236700,8.332236572265625,-0.18207989633083344,-0.656042218208313,-0.5028545260429382
1726941131976222700,8.34222265625,-0.14500735700130463,-0.6133961081504822,-0.425038605928421
1726941131986208800,8.352208740234374,-0.1531025618314743,-0.42921727895736694,-0.24979621171951294
1726941131996195800,8.36219580078125,-0.24053607881069183,-0.20456120371818542,-0.03770672529935837
1726941132006181600,8.372181640625,-0.3441295921802521,-0.006104305852204561,0.16541576385498047
1726941132016167700,8.382167724609374,-0.3621605634689331,0.12981553375720978,0.32020068168640137
1726941132026153700,8.39215380859375,-0.2806054949760437,0.15333816409111023,0.38083022832870483
1726941132036140800,8.402140869140625,-0.17047448456287384,0.04980352893471718,0.4272739291191101
1726941132046126600,8.412126708984376,-0.1621483862400055,-0.1195407509803772,0.49803200364112854
1726941132056112600,8.422112548828125,-0.22283028066158295,-0.3134731650352478,0.5770003795623779
1726941132066098700,8.4320986328125,-0.2815609574317932,-0.5099366903305054,0.6526000499725342
1726941132076084700,8.442084716796876,-0.3243325352668762,-0.5872711539268494,0.7133870124816895
1726941132086071800,8.45207177734375,-0.3420636057853699,-0.5431979894638062,0.7529813051223755
1726941132096057600,8.4620576171875,-0.3613392114639282,-0.4514557123184204,0.7248386740684509
1726941132106043600,8.472043701171875,-0.38063541054725647,-0.349527508020401,0.6458322405815125
1726941132116029700,8.48202978515625,-0.36257728934288025,-0.24946171045303345,0.5473093390464783
1726941132126016500,8.4920166015625,-0.24803553521633148,-0.17499040067195892,0.4655199646949768
1726941132136002800,8.5020029296875,-0.10870847851037979,-0.16552768647670746,0.36767613887786865
1726941132145988600,8.511988525390626,-0.04612845182418823,-0.18547876179218292,0.25391894578933716
1726941132155974700,8.521974609375,-0.08738375455141068,-0.12847286462783813,0.17652371525764465
1726941132165960700,8.531960693359375,-0.17301316559314728,-0.04280082881450653,0.11473331600427628
1726941132175947800,8.54194775390625,-0.2140340954065323,0.026079626753926277,0.10210273414850235
1726941132185933600,8.55193359375,-0.13587963581085205,-0.06941653043031693,0.16198550164699554
1726941132195919400,8.56191943359375,0.006745295133441687,-0.29880133271217346,0.19402708113193512
1726941132205905200,8.5719052734375,0.1809844821691513,-0.5829752683639526,0.1756078600883484
1726941132215892200,8.581892333984374,0.33566591143608093,-0.8260648846626282,0.1750483214855194
1726941132225878300,8.591878173828125,0.45293235778808594,-0.9644203782081604,0.22884498536586761
1726941132235864300,8.6018642578125,0.5927814245223999,-1.0100116729736328,0.3421074450016022
1726941132245850400,8.611850341796876,0.8044278621673584,-1.0218638181686401,0.4490591883659363
1726941132255836200,8.621836181640624,1.0855108499526978,-0.9979562163352966,0.47784096002578735
1726941132265823500,8.631823486328125,1.3567922115325928,-0.939193844795227,0.47603562474250793
1726941132275809300,8.641809326171876,1.562329888343811,-0.9200318455696106,0.448102742433548
1726941132285795300,8.65179541015625,1.7963013648986816,-1.048805832862854,0.4810478985309601
1726941132295781400,8.661781494140625,2.015425205230713,-1.2241935729980469,0.63140869140625
1726941132305768200,8.671768310546875,2.075314521789551,-1.0156174898147583,0.720105767250061
1726941132315754500,8.68175439453125,2.0609283447265625,-0.41611018776893616,0.6516588926315308
1726941132325740300,8.691740234375,1.9869532585144043,0.0555577352643013,0.5605481863021851
1726941132335726300,8.701726318359375,1.8601781129837036,0.31274521350860596,0.5560635328292847
1726941132345712400,8.71171240234375,1.7174265384674072,0.17044664919376373,0.6976494193077087
1726941132355699200,8.72169921875,1.5567913055419922,-0.057794760912656784,0.8564921021461487
1726941132365685200,8.731685302734375,1.3399841785430908,-0.004477211274206638,0.9528969526290894
1726941132375671300,8.74167138671875,1.0711170434951782,0.22864554822444916,1.0010547637939453
1726941132385657300,8.7516572265625,0.7863015532493591,0.27986589074134827,0.9004964828491211
1726941132395644400,8.76164453125,0.4170175790786743,0.09179314970970154,0.7233904004096985
1726941132405630500,8.77163037109375,-0.02064737305045128,-0.10551406443119049,0.5529975891113281
1726941132415616300,8.7816162109375,-0.44795945286750793,-0.172613263130188,0.42230698466300964
1726941132425602300,8.791602294921875,-0.7682613134384155,-0.19318830966949463,0.3029092252254486
1726941132435588400,8.80158837890625,-0.9149987101554871,-0.19682082533836365,0.23119202256202698
1726941132445575200,8.8115751953125,-0.8481003642082214,-0.381453275680542,0.30785033106803894
1726941132455561500,8.8215615234375,-0.5953196287155151,-0.5885351300239563,0.5558520555496216
1726941132465547300,8.83154736328125,-0.4084453284740448,-0.4088228642940521,0.6839810013771057
1726941132475533300,8.841533203125,-0.2625742256641388,-0.07401667535305023,0.5989428758621216
1726941132485520400,8.851520263671874,-0.0805029347538948,0.12478668987751007,0.4442004859447479
1726941132495506200,8.861506103515625,0.007146412506699562,0.05712093785405159,0.3715359568595886
1726941132505492200,8.8714921875,-0.050297174602746964,-0.036353617906570435,0.356608122587204
1726941132515478300,8.881478271484376,-0.11805369704961777,-0.0010273249354213476,0.28572142124176025
1726941132525464300,8.89146435546875,-0.16982927918434143,0.12159685790538788,0.12509766221046448
1726941132535451400,8.901451416015625,-0.19282689690589905,0.20301103591918945,-0.09149694442749023
1726941132545437400,8.9114375,-0.22340130805969238,0.3353363275527954,-0.30929210782051086
1726941132555423200,8.92142333984375,-0.31289541721343994,0.48064446449279785,-0.4974991977214813
1726941132565409500,8.931409423828125,-0.44348832964897156,0.5987833738327026,-0.6987299919128418
1726941132575396400,8.941396240234376,-0.5935927629470825,0.7738755941390991,-0.9369931221008301
1726941132585382100,8.951382080078124,-0.7562916278839111,0.9358812570571899,-1.1386300325393677
1726941132595368400,8.961368408203125,-0.8995959758758545,1.0424193143844604,-1.282118558883667
1726941132605354200,8.971354248046875,-1.021553635597229,1.0192457437515259,-1.3558121919631958
1726941132615340300,8.98134033203125,-1.1171131134033203,0.9974756836891174,-1.3318129777908325
1726941132625327400,8.991327392578125,-1.1872024536132812,1.0016584396362305,-1.2455835342407227
1726941132635313200,9.001313232421875,-1.2184005975723267,1.0403133630752563,-1.1515785455703735
1726941132645299200,9.01129931640625,-1.1513984203338623,0.976844310760498,-1.0259021520614624
1726941132655285200,9.02128515625,-0.99648118019104,0.8590735197067261,-0.8826082944869995
1726941132665272300,9.031272216796875,-0.7848551869392395,0.8176642656326294,-0.7876572608947754
1726941132675258400,9.04125830078125,-0.4325594902038574,0.8270278573036194,-0.7515680193901062
1726941132685244400,9.051244384765624,-0.10403648763895035,0.8088890910148621,-0.7103859186172485
1726941132695230200,9.061230224609375,0.09233498573303223,0.6969083547592163,-0.5917651653289795
1726941132705216500,9.071216552734375,0.13202647864818573,0.5211133360862732,-0.4627342224121094
1726941132715203300,9.081203369140624,0.08474969863891602,0.3673020601272583,-0.34919580817222595
1726941132725189000,9.091189208984375,-0.034217167645692825,0.27772635221481323,-0.271707147359848
1726941132735175400,9.101175537109375,-0.16423097252845764,0.24999308586120605,-0.1551697999238968
1726941132745161200,9.1111611328125,-0.25614094734191895,0.21427983045578003,-0.055472493171691895
1726941132755148300,9.121148193359375,-0.2699032425880432,0.16690272092819214,0.015396645292639732
1726941132765134300,9.13113427734375,-0.22894912958145142,0.13180679082870483,0.05990711972117424
1726941132775120400,9.141120361328126,-0.20098993182182312,0.12131007015705109,0.09179865568876266
1726941132785106400,9.1511064453125,-0.22482149302959442,0.09127360582351685,0.1220598891377449
1726941132795092200,9.16109228515625,-0.30132532119750977,0.06732247769832611,0.11305472254753113
1726941132805079300,9.171079345703125,-0.33451923727989197,0.05202235281467438,0.053942665457725525
1726941132815065300,9.1810654296875,-0.2915329337120056,0.006234575994312763,-0.032760173082351685
1726941132825051400,9.191051513671875,-0.17636479437351227,-0.02576437033712864,-0.0679064467549324
1726941132835037200,9.201037109375,-0.07710465788841248,-0.043973930180072784,-0.03568088263273239
1726941132845024300,9.211024169921876,-0.11044556647539139,-0.04737238958477974,0.00728948786854744
1726941132855010300,9.22101025390625,-0.21967609226703644,0.005312275141477585,-0.011216973885893822
1726941132864996400,9.230996337890625,-0.23233862221240997,0.03656766563653946,-0.0775187686085701
1726941132874982400,9.240982421875,-0.16371995210647583,0.04138936102390289,-0.13934150338172913
1726941132884968200,9.25096826171875,-0.06545251607894897,-0.03144489973783493,-0.17541109025478363
1726941132894955500,9.26095556640625,-0.04099779948592186,-0.11677322536706924,-0.1662367433309555
1726941132904941300,9.27094140625,-0.1325141340494156,-0.04208061099052429,-0.2285778820514679
1726941132914927400,9.28092724609375,-0.2403005063533783,0.12174899131059647,-0.32333502173423767
1726941132924913400,9.290913330078125,-0.325499027967453,0.26308026909828186,-0.42397162318229675
1726941132934900200,9.300900146484375,-0.3885360658168793,0.38708817958831787,-0.4596550166606903
1726941132944886300,9.31088623046875,-0.44708994030952454,0.411469429731369,-0.3745987117290497
1726941132954872300,9.320872314453124,-0.5031384825706482,0.33252349495887756,-0.3086087107658386
1726941132964858400,9.3308583984375,-0.5058266520500183,0.19389158487319946,-0.35026079416275024
1726941132974844200,9.34084423828125,-0.3797326683998108,0.14364860951900482,-0.4276077151298523
1726941132984831200,9.350831298828124,-0.15898138284683228,0.187792107462883,-0.4163374900817871
1726941132994817300,9.3608173828125,0.08709283918142319,0.12015893310308456,-0.384798139333725
1726941133004803300,9.37080322265625,0.18672941625118256,-0.06372621655464172,-0.36083048582077026
1726941133014789400,9.380789306640626,0.18134315311908722,-0.27739712595939636,-0.3360319435596466
1726941133024775200,9.390775146484375,0.11396997421979904,-0.4515590965747833,-0.30390650033950806
1726941133034762500,9.400762451171875,0.0582401305437088,-0.49099570512771606,-0.24182474613189697
1726941133044748300,9.410748291015626,0.04091200605034828,-0.3433085083961487,-0.12344829738140106
1726941133054734300,9.420734375,-0.010170296765863895,-0.15335245430469513,0.018495963886380196
1726941133064720400,9.430720458984375,-0.11951489746570587,-0.03225905820727348,0.12144311517477036
1726941133074707200,9.440707275390626,-0.20150864124298096,-0.0024127012584358454,0.18310555815696716
1726941133084693500,9.450693603515624,-0.190839484333992,-0.06506036967039108,0.257942795753479
1726941133094679300,9.46067919921875,-0.08796370774507523,-0.26542648673057556,0.33785173296928406
1726941133104665300,9.470665283203125,-0.04390863701701164,-0.39754724502563477,0.44924962520599365
1726941133114651100,9.480651123046876,-0.12688614428043365,-0.4028611481189728,0.5195370316505432
1726941133124638200,9.49063818359375,-0.2270447015762329,-0.37464627623558044,0.5351846814155579
1726941133134624300,9.500624267578125,-0.26387643814086914,-0.3796963393688202,0.5184699892997742
1726941133144610300,9.5106103515625,-0.23458990454673767,-0.3731082081794739,0.49243518710136414
1726941133154596400,9.520596435546874,-0.18678118288516998,-0.34255024790763855,0.4694189727306366
1726941133164583200,9.530583251953125,-0.15745684504508972,-0.2694115936756134,0.434422105550766
1726941133174569500,9.540569580078126,-0.16763144731521606,-0.19240425527095795,0.36576899886131287
1726941133184555300,9.55055517578125,-0.1915207952260971,-0.08481306582689285,0.28994932770729065
1726941133194541300,9.560541259765625,-0.1693812608718872,0.023518532514572144,0.24146486818790436
1726941133204527400,9.57052734375,-0.1155121847987175,0.10630795359611511,0.20431724190711975
1726941133214514200,9.58051416015625,-0.07439050823450089,0.16290076076984406,0.14642378687858582
1726941133224500200,9.590500244140625,-0.041559863835573196,0.13830141723155975,0.07641725987195969
1726941133234486300,9.600486328125,0.022289186716079712,-0.0006788599421270192,0.02650558203458786
1726941133244472300,9.610472412109376,0.14520499110221863,-0.131422758102417,0.040856026113033295
1726941133254458000,9.6204580078125,0.27233171463012695,-0.20366431772708893,0.03816517814993858
1726941133264445200,9.630445068359375,0.3846137821674347,-0.30066540837287903,0.06998089700937271
1726941133274431200,9.64043115234375,0.5016375780105591,-0.5350646376609802,0.13475097715854645
1726941133284417300,9.650417236328124,0.6008397936820984,-0.7893379330635071,0.21817050874233246
1726941133294403300,9.6604033203125,0.7509525418281555,-1.0140091180801392,0.31778138875961304
1726941133304390100,9.67039013671875,0.9812946319580078,-1.2415131330490112,0.4357575476169586
1726941133314376400,9.68037646484375,1.2995160818099976,-1.4424601793289185,0.580571174621582
1726941133324362200,9.6903623046875,1.6262747049331665,-1.511967658996582,0.7263743877410889
1726941133334348300,9.700348388671875,1.9764795303344727,-1.4680464267730713,0.8385580778121948
1726941133344334300,9.710334228515626,2.0945284366607666,-1.2359788417816162,0.9063392877578735
1726941133354321200,9.720321044921874,2.072202205657959,-0.8649598360061646,0.8805685639381409
1726941133364307200,9.73030712890625,2.037022590637207,-0.45149028301239014,0.8037539720535278
1726941133374293200,9.740293212890625,1.9425491094589233,-0.0512913279235363,0.7660613059997559
1726941133384279300,9.750279296875,1.7822757959365845,0.2292330116033554,0.8094436526298523
1726941133394266400,9.760266357421875,1.5455940961837769,0.0034742371644824743,0.8915424346923828
1726941133404252400,9.77025244140625,1.2132971286773682,-0.4850778579711914,1.001786708831787
1726941133414238200,9.78023828125,0.8535204529762268,-0.7912879586219788,1.057426929473877
1726941133424224300,9.790224365234375,0.5264493823051453,-0.826460063457489,0.9947633743286133
1726941133434210300,9.800210205078125,0.23521453142166138,-0.7573304176330566,0.9012273550033569
1726941133444197000,9.810197021484376,-0.02500773034989834,-0.6937450170516968,0.8117896318435669
1726941133454183400,9.820183349609374,-0.26051947474479675,-0.6370413303375244,0.7199958562850952
1726941133464169200,9.830169189453125,-0.4683142304420471,-0.5281997919082642,0.6083928942680359
1726941133474155300,9.8401552734375,-0.6564785242080688,-0.32002031803131104,0.5229637622833252
1726941133484142300,9.850142333984374,-0.7714242339134216,-0.009183078072965145,0.4623885750770569
1726941133494128000,9.860128173828125,-0.7985650897026062,0.37370821833610535,0.3874945044517517
1726941133504114400,9.870114501953125,-0.7795597314834595,0.30136293172836304,0.36516043543815613
1726941133514100200,9.880100341796876,-0.8306639194488525,0.0420837365090847,0.39953935146331787
1726941133524086300,9.890086181640624,-0.8422423005104065,0.015263307839632034,0.342149019241333
1726941133534073300,9.9000732421875,-0.7440676689147949,0.11431410908699036,0.19278191030025482
1726941133544059400,9.910059326171876,-0.6067151427268982,0.14363950490951538,0.020648496225476265
1726941133554045200,9.920045166015624,-0.5030851364135742,0.11986839771270752,-0.11655063182115555
1726941133564031500,9.930031494140625,-0.4119783937931061,0.05632537603378296,-0.24872811138629913
1726941133574017300,9.940017333984375,-0.34246450662612915,0.0475786030292511,-0.3763165771961212
1726941133584004000,9.950004150390624,-0.29103779792785645,0.06640342622995377,-0.536195695400238
1726941133593990400,9.959990478515625,-0.262528657913208,0.16149884462356567,-0.6813037991523743
1726941133603976200,9.96997607421875,-0.2771014869213104,0.29281798005104065,-0.8203152418136597
1726941133613962200,9.979962158203126,-0.32594168186187744,0.4151585102081299,-0.9538498520851135
1726941133623949300,9.98994921875,-0.4262693524360657,0.5860987901687622,-1.025183916091919
1726941133633935000,9.99993505859375,-0.5649749040603638,0.7594148516654968,-1.016182541847229
1726941133643921400,10.00992138671875,-0.6971018314361572,0.8648017644882202,-0.9659183025360107
1726941133653907200,10.0199072265625,-0.7760350108146667,1.0070805549621582,-0.9010484218597412
1726941133663893200,10.029893310546875,-0.8331528902053833,1.2262518405914307,-0.8036733865737915
1726941133673880300,10.03988037109375,-0.7951989769935608,1.3911497592926025,-0.6885442137718201
1726941133683866400,10.049866455078124,-0.6340487003326416,1.4335381984710693,-0.6329254508018494
1726941133693852200,10.05985205078125,-0.4193773865699768,1.2851513624191284,-0.6955310702323914
1726941133703838500,10.06983837890625,-0.21997402608394623,1.0893319845199585,-0.7700308561325073
1726941133713825300,10.0798251953125,-0.05372629687190056,0.8807218074798584,-0.7581787705421448
1726941133723811300,10.089811279296875,0.010679325088858604,0.7320029139518738,-0.64533531665802
1726941133733797400,10.09979736328125,-0.05627097561955452,0.6781136393547058,-0.4837162494659424
1726941133743783200,10.109783203125,-0.18417194485664368,0.592021107673645,-0.36630919575691223
1726941133753769200,10.119769287109374,-0.3169429898262024,0.4627778232097626,-0.3069503605365753
1726941133763756300,10.12975634765625,-0.4035756289958954,0.3518875241279602,-0.26259303092956543
1726941133773742000,10.1397421875,-0.4495740830898285,0.23730075359344482,-0.18418064713478088
1726941133783728400,10.149728271484374,-0.4436887800693512,0.15568259358406067,-0.07643420249223709
1726941133793714200,10.159714111328125,-0.4044780731201172,0.08436191827058792,0.019153263419866562
1726941133803700200,10.1697001953125,-0.3238831162452698,0.031236646696925163,0.04758623242378235
1726941133813687300,10.179687255859376,-0.22428947687149048,-0.05426257848739624,0.04122195392847061
1726941133823673300,10.18967333984375,-0.10730240494012833,-0.1022719144821167,0.007866129279136658
1726941133833659100,10.1996591796875,0.023440364748239517,-0.012242989614605904,-0.024003244936466217
1726941133843645400,10.2096455078125,0.1589832752943039,0.1901087909936905,-0.02629862353205681
1726941133853632300,10.21963232421875,0.28477051854133606,0.32381731271743774,-0.060935743153095245
1726941133863618300,10.229618408203125,0.37105560302734375,0.3745262920856476,-0.1156487911939621
1726941133873604400,10.239604248046875,0.3847009837627411,0.39941170811653137,-0.1730860024690628
1726941133883590100,10.249590087890626,0.3056109547615051,0.3914744257926941,-0.23511289060115814
1726941133893576400,10.259576416015625,0.20943495631217957,0.3522547781467438,-0.2957201600074768
1726941133903563300,10.269563232421875,0.15416371822357178,0.23463866114616394,-0.38497090339660645
1726941133913549300,10.27954931640625,0.09031355381011963,0.12972532212734222,-0.4648062288761139
1726941133923535400,10.289535400390625,0.014990569092333317,0.09097526967525482,-0.5129923820495605
1726941133933521200,10.299521240234375,-0.11182242631912231,0.15875068306922913,-0.522612988948822
1726941133943508500,10.309508544921876,-0.26917025446891785,0.3023661673069,-0.49204307794570923
1726941133953494300,10.319494384765624,-0.3866789937019348,0.3966084122657776,-0.43704646825790405
1726941133963480300,10.329480224609375,-0.4455289840698242,0.4448361396789551,-0.40825292468070984
1726941133973466000,10.339466064453125,-0.4529726803302765,0.4509222209453583,-0.38903090357780457
1726941133983452400,10.349452392578126,-0.4301222264766693,0.3534659743309021,-0.37532201409339905
1726941133993439200,10.359439208984375,-0.4022602438926697,0.1828264445066452,-0.3799211084842682
1726941134003425300,10.36942529296875,-0.35530364513397217,-0.017351647838950157,-0.3629128336906433
1726941134013411300,10.379411376953126,-0.2767082452774048,-0.20900653302669525,-0.33377528190612793
1726941134023397000,10.389397216796874,-0.18049517273902893,-0.3112953305244446,-0.2985653579235077
1726941134033383400,10.399383544921875,-0.07159914821386337,-0.35454702377319336,-0.2781272530555725
1726941134043370200,10.409370361328126,0.02842811867594719,-0.33724445104599,-0.2914081811904907
1726941134053356300,10.419356201171874,0.098457470536232,-0.3072839379310608,-0.317020446062088
1726941134063342300,10.42934228515625,0.15680865943431854,-0.23188400268554688,-0.33727726340293884
1726941134073328400,10.439328369140625,0.2733197808265686,-0.10241334140300751,-0.30239057540893555
1726941134083315500,10.4493154296875,0.3538111746311188,0.06720897555351257,-0.16780374944210052
1726941134093301200,10.45930126953125,0.3429524302482605,0.1858075112104416,-0.023077769204974174
1726941134103287300,10.469287353515625,0.20384886860847473,0.1413593590259552,0.11288246512413025
1726941134113273300,10.4792734375,0.015712682157754898,-0.01609518937766552,0.18136505782604218
1726941134123259400,10.48925927734375,-0.08726110309362411,-0.23050229251384735,0.2293890416622162
1726941134133246200,10.49924609375,-0.09840141236782074,-0.47254571318626404,0.2905155420303345
1726941134143232300,10.509232177734376,-0.11475455015897751,-0.6673128008842468,0.35872548818588257
1726941134153218300,10.51921826171875,-0.1656324714422226,-0.7264153957366943,0.4160284399986267
1726941134163204000,10.5292041015625,-0.23062825202941895,-0.6617048382759094,0.4603823125362396
1726941134173190400,10.5391904296875,-0.26936471462249756,-0.549009382724762,0.4914909303188324
1726941134183177200,10.54917724609375,-0.24275469779968262,-0.4576661288738251,0.5139312744140625
1726941134193163300,10.559163330078125,-0.1813487410545349,-0.3649746775627136,0.48407942056655884
1726941134203148500,10.5691484375,-0.1593606173992157,-0.23757436871528625,0.3978944718837738
1726941134213134800,10.579134765625,-0.13807757198810577,-0.03233639523386955,0.299931138753891
1726941134223120600,10.58912060546875,-0.10103406757116318,0.2214609980583191,0.1506790816783905
1726941134233107700,10.599107666015625,-0.045049771666526794,0.33307021856307983,0.007679900154471397
1726941134243093800,10.60909375,0.03470710664987564,0.20111191272735596,-0.06521614640951157
1726941134253079600,10.61907958984375,0.09309452027082443,0.10746678709983826,-0.1289333701133728
1726941134263065600,10.629065673828125,0.20598405599594116,-0.025249183177947998,-0.1603544056415558
1726941134273052700,10.639052734375,0.3137762248516083,-0.12814490497112274,-0.10767313838005066
1726941134283038700,10.649038818359376,0.41673722863197327,-0.17925842106342316,-0.016055338084697723
1726941134293024800,10.659024658203125,0.5753831267356873,-0.40503713488578796,0.15338116884231567
1726941134303010800,10.6690107421875,0.7956276535987854,-0.885353684425354,0.36985647678375244
1726941134312996600,10.67899658203125,1.0648176670074463,-1.2034885883331299,0.47946131229400635
1726941134322983700,10.688983642578124,1.3438520431518555,-1.2548387050628662,0.44496965408325195
1726941134332969700,10.6989697265625,1.6594982147216797,-1.1378471851348877,0.36572548747062683
1726941134342955500,10.70895556640625,1.9718259572982788,-0.9451070427894592,0.37546414136886597
1726941134352941800,10.71894189453125,2.1099565029144287,-0.7504967451095581,0.4508737623691559
1726941134362928600,10.7289287109375,2.038228988647461,-0.526587188243866,0.49811023473739624
1726941134372914700,10.738914794921875,1.889034628868103,-0.38471344113349915,0.5402816534042358
1726941134382900700,10.748900634765626,1.7423796653747559,-0.31677088141441345,0.6735065579414368
1726941134392886500,10.758886474609374,1.5347639322280884,-0.31693780422210693,0.8549872636795044
1726941134402872800,10.768872802734375,1.3289601802825928,-0.5025255084037781,1.0279319286346436
1726941134412859600,10.778859619140626,1.1147282123565674,-0.5820174217224121,1.1000314950942993
1726941134422845700,10.788845703125,0.9025060534477234,-0.5808799862861633,1.0989336967468262
1726941134432831700,10.798831787109375,0.6772403120994568,-0.6317991614341736,1.0389060974121094
1726941134442817800,10.80881787109375,0.438656747341156,-0.6934564113616943,0.8824102878570557
1726941134452803600,10.818803466796876,0.17025776207447052,-0.7582750916481018,0.7058722376823425
1726941134462790700,10.828790771484375,-0.18384064733982086,-0.7299283742904663,0.5729730725288391
1726941134472776700,10.838776611328125,-0.5650961399078369,-0.5346954464912415,0.522161602973938
1726941134482762500,10.848762451171876,-0.9159215688705444,-0.3445175290107727,0.5517151951789856
1726941134492748800,10.858748779296874,-1.1674431562423706,-0.2555825710296631,0.5977552533149719
1726941134502735600,10.868735595703125,-1.2247083187103271,-0.25628137588500977,0.6882702708244324
1726941134512721700,10.8787216796875,-1.0998477935791016,-0.23037903010845184,0.7999008893966675
1726941134522707700,10.888707763671874,-0.8996093273162842,-0.06061768904328346,0.7895161509513855
1726941134532693500,10.898693603515625,-0.6584882736206055,0.14110395312309265,0.6645278334617615
1726941134542679800,10.9086796875,-0.4527268707752228,0.2629827558994293,0.49810630083084106
1726941134552666600,10.91866650390625,-0.26991724967956543,0.1956617534160614,0.24560430645942688
1726941134562652700,10.928652587890625,-0.16896158456802368,0.12404535710811615,-0.03027493879199028
1726941134572638700,10.938638671875,-0.15548042953014374,0.20400093495845795,-0.3243539333343506
1726941134582624800,10.948624755859376,-0.198794886469841,0.32657209038734436,-0.5769731402397156
1726941134592610600,10.958610595703124,-0.2846190333366394,0.4293089509010315,-0.7570350170135498
1726941134602597600,10.96859765625,-0.38216742873191833,0.47938036918640137,-0.8837519288063049
1726941134612583700,10.978583740234376,-0.43860262632369995,0.4763330817222595,-0.9883067011833191
1726941134622569700,10.98856982421875,-0.4456437826156616,0.4601586163043976,-1.0267446041107178
1726941134632555800,10.9985556640625,-0.4693298637866974,0.4609754681587219,-0.9935897588729858
1726941134642542600,11.00854248046875,-0.5060244798660278,0.5070220232009888,-0.972136378288269
1726941134652528600,11.018528564453124,-0.5505640506744385,0.7199915647506714,-0.9620697498321533
1726941134662514700,11.0285146484375,-0.6050204038619995,0.9104787111282349,-0.9843505024909973
1726941134672500700,11.038500732421875,-0.6239320039749146,1.0212366580963135,-0.9892857670783997
1726941134682486800,11.04848681640625,-0.6756620407104492,1.1039690971374512,-0.926651120185852
1726941134692473600,11.0584736328125,-0.6574053764343262,1.1418204307556152,-0.8672999143600464
1726941134702459600,11.068459716796875,-0.5735600590705872,1.2074103355407715,-0.8284409642219543
1726941134712445700,11.07844580078125,-0.4785146415233612,1.195005178451538,-0.7886795997619629
1726941134722431700,11.088431640625,-0.40499913692474365,1.1006864309310913,-0.6973432898521423
1726941134732417500,11.09841748046875,-0.3723843991756439,0.9774630069732666,-0.5712659358978271
1726941134742404600,11.108404541015625,-0.3726182281970978,0.8469936847686768,-0.4598163366317749
1726941134752390700,11.118390625,-0.37588995695114136,0.6864859461784363,-0.3768410384654999
1726941134762376700,11.128376708984375,-0.36889514327049255,0.555012583732605,-0.2964082658290863
1726941134772362800,11.13836279296875,-0.36909589171409607,0.3758290708065033,-0.22533144056797028
1726941134782349600,11.148349609375,-0.376687228679657,0.22345338761806488,-0.1522098332643509
1726941134792336000,11.1583359375,-0.3675583600997925,0.10357174277305603,-0.0977124273777008
1726941134802321700,11.16832177734375,-0.3422812521457672,0.034284546971321106,-0.059491533786058426
1726941134812307700,11.1783076171875,-0.29377055168151855,0.002124547027051449,-0.03578915819525719
1726941134822293800,11.188293701171874,-0.2139415293931961,0.039985910058021545,-0.031205588951706886
1726941134832280600,11.198280517578125,-0.09369804710149765,0.1343257874250412,-0.03598256781697273
1726941134842267000,11.208266845703125,0.026164710521697998,0.20807617902755737,-0.06283628940582275
1726941134852252700,11.218252685546876,0.10288041085004807,0.1906212717294693,-0.12012117356061935
1726941134862238700,11.22823876953125,0.13413205742835999,0.14035223424434662,-0.18058133125305176
1726941134872224800,11.238224853515625,0.13976456224918365,0.06829314678907394,-0.23381102085113525
1726941134882211600,11.248211669921876,0.09506658464670181,0.06573916971683502,-0.26203814148902893
1726941134892197600,11.25819775390625,0.0704977959394455,0.09042730927467346,-0.26057618856430054
1726941134902183700,11.26818359375,0.07462063431739807,0.0884523093700409,-0.2563047409057617
1726941134912169700,11.278169677734375,0.09270378947257996,0.05314810574054718,-0.26214540004730225
1726941134922155500,11.288155517578126,0.08516944199800491,0.07139075547456741,-0.269867479801178
1726941134932142800,11.298142822265625,0.059091370552778244,0.13868597149848938,-0.2929121255874634
1726941134942128600,11.308128662109375,0.06152256950736046,0.1699109971523285,-0.40166550874710083
1726941134952114700,11.31811474609375,0.08411384373903275,0.20464465022087097,-0.5065308213233948
1726941134962100700,11.328100830078125,0.12482798099517822,0.172645702958107,-0.5401127338409424
1726941134972087600,11.338087646484375,0.10767601430416107,0.14433123171329498,-0.5162190794944763
1726941134982073900,11.348073974609376,0.08076716959476471,0.1251298487186432,-0.5015046000480652
1726941134992059600,11.3580595703125,0.12082058191299438,0.1082797646522522,-0.4817436635494232
1726941135002045700,11.368045654296875,0.1853817254304886,0.11782053858041763,-0.4084230959415436
1726941135012031700,11.37803173828125,0.22929148375988007,0.12745241820812225,-0.3037613332271576
1726941135022018600,11.3880185546875,0.24438148736953735,0.12317191809415817,-0.224321648478508
1726941135032004600,11.398004638671875,0.22692206501960754,0.10498838871717453,-0.26374226808547974
1726941135041990700,11.40799072265625,0.22343438863754272,0.04961806908249855,-0.3614642918109894
1726941135051976700,11.417976806640626,0.28233009576797485,-0.057967253029346466,-0.3919506072998047
1726941135061962500,11.42796240234375,0.35314086079597473,-0.14686782658100128,-0.3041405975818634
1726941135071949800,11.43794970703125,0.30948519706726074,-0.17084982991218567,-0.1820382922887802
1726941135081935600,11.447935546875,0.10380503535270691,-0.1029762476682663,-0.1086394414305687
1726941135091922000,11.457921875,-0.06812546402215958,-0.030045373365283012,-0.04587375000119209
1726941135101907700,11.46790771484375,-0.0809405967593193,-0.059238411486148834,0.03808719664812088
1726941135111894500,11.47789453125,0.06823277473449707,-0.18752387166023254,0.15046964585781097
1726941135121880800,11.487880859375,0.21711653470993042,-0.2791059911251068,0.250301718711853
1726941135131866600,11.49786669921875,0.2221015840768814,-0.2776593863964081,0.27966171503067017
1726941135141852700,11.507852783203125,0.18111127614974976,-0.21261459589004517,0.2620164155960083
1726941135151838700,11.517838623046876,0.1837155818939209,-0.13106854259967804,0.27253076434135437
1726941135161825500,11.527825439453125,0.19670835137367249,-0.06927867233753204,0.26466965675354004
1726941135171811600,11.5378115234375,0.16598394513130188,-0.070212222635746,0.21614274382591248
1726941135181797600,11.547797607421876,0.10118630528450012,-0.12261417508125305,0.12216989696025848
1726941135191783700,11.55778369140625,0.029141312465071678,-0.11477438360452652,0.017289483919739723
1726941135201770200,11.567770263671875,0.03505513072013855,-0.06219985708594322,-0.0704217255115509
1726941135211757300,11.57775732421875,0.11171723902225494,0.08538243174552917,-0.1490839719772339
1726941135221743400,11.587743408203124,0.1600552201271057,0.1613387167453766,-0.15847614407539368
1726941135231729400,11.5977294921875,0.12476418912410736,0.032100845128297806,-0.09003234654664993
1726941135241715500,11.607715576171875,0.07527200877666473,-0.1752813756465912,-0.004611454904079437
1726941135251701200,11.617701171875,0.12370260804891586,-0.45921382308006287,0.059961773455142975
1726941135261688600,11.6276884765625,0.3172694146633148,-0.9088345170021057,0.1383737474679947
1726941135271674400,11.63767431640625,0.5619405508041382,-1.2645713090896606,0.1983594000339508
1726941135281660400,11.647660400390626,0.7918445467948914,-1.3876559734344482,0.23460368812084198
1726941135291646500,11.657646484375,1.067270040512085,-1.3803702592849731,0.27480921149253845
1726941135301633300,11.66763330078125,1.3674315214157104,-1.3589997291564941,0.416240394115448
1726941135311619300,11.677619384765626,1.5020009279251099,-1.2913810014724731,0.6226668953895569
1726941135321605400,11.68760546875,1.4430676698684692,-1.3075029850006104,0.7596737742424011
1726941135331591400,11.69759130859375,1.4571603536605835,-1.4099208116531372,0.8542778491973877
1726941135341577200,11.7075771484375,1.4887821674346924,-1.4238858222961426,0.9116591215133667
1726941135351564300,11.717564208984374,1.5348083972930908,-1.2489173412322998,0.9381183981895447
1726941135361550300,11.72755029296875,1.5917390584945679,-1.1661317348480225,0.9337071776390076
1726941135371536400,11.737536376953125,1.636553406715393,-1.1372931003570557,0.8975070118904114
1726941135381522400,11.7475224609375,1.532608985900879,-0.9117993116378784,0.9471467733383179
1726941135391508200,11.75750830078125,1.3052915334701538,-0.8624453544616699,1.0299886465072632
1726941135401495600,11.76749560546875,0.9146870374679565,-0.9989528656005859,1.0305808782577515
1726941135411481300,11.7774814453125,0.3857865631580353,-1.0379507541656494,0.9107942581176758
1726941135421467400,11.78746728515625,-0.21188697218894958,-0.9888750314712524,0.7199527025222778
1726941135431453400,11.797453369140625,-0.775692343711853,-0.9422343969345093,0.48326680064201355
1726941135441439500,11.807439453125,-1.2580286264419556,-0.9436956644058228,0.293643593788147
1726941135451426600,11.817426513671874,-1.6569554805755615,-1.0038591623306274,0.30537283420562744
1726941135461412400,11.827412353515625,-1.7976484298706055,-0.8219096660614014,0.5223437547683716
1726941135471398400,11.8373984375,-1.6639764308929443,-0.5793249011039734,0.7094526290893555
1726941135481384400,11.847384521484376,-1.3455569744110107,-0.5422601103782654,0.8400689959526062
1726941135491371500,11.85737158203125,-0.9777159094810486,-0.5653428435325623,0.9629934430122375
1726941135501357300,11.867357421875,-0.7175357341766357,-0.37919217348098755,0.9844523668289185
1726941135511343400,11.87734326171875,-0.53612220287323,0.0428844690322876,0.8469405174255371
1726941135521329400,11.887329345703124,-0.39535361528396606,0.2589408755302429,0.5242123007774353
1726941135531315200,11.897315185546875,-0.27625152468681335,0.3054729700088501,0.10867565870285034
1726941135541302500,11.907302490234375,-0.2657746374607086,0.4049849212169647,-0.3279740810394287
1726941135551288300,11.917288330078126,-0.34616851806640625,0.6106749176979065,-0.6948214769363403
1726941135561274400,11.9272744140625,-0.4038086533546448,0.7775225043296814,-0.8882393836975098
1726941135571260400,11.937260498046875,-0.4223081171512604,0.8574104905128479,-0.940207839012146
1726941135581246500,11.94724658203125,-0.4448099732398987,0.8910272717475891,-0.9711508750915527
1726941135591233500,11.957233642578124,-0.48305779695510864,0.9658066630363464,-0.9844409823417664
1726941135601219300,11.96721923828125,-0.5415184497833252,1.1000866889953613,-0.9872927069664001
1726941135611205400,11.977205322265625,-0.5474337935447693,1.1782853603363037,-0.9474163055419922
1726941135621191400,11.98719140625,-0.5054085850715637,1.1548665761947632,-0.8791791796684265
1726941135631177500,11.997177490234375,-0.4691275954246521,1.095913052558899,-0.8633323907852173
1726941135641164300,12.007164306640625,-0.4991033375263214,1.0994232892990112,-0.9165410399436951
1726941135651150600,12.017150634765626,-0.549247682094574,1.2147290706634521,-0.9331186413764954
1726941135661136400,12.027136474609375,-0.5648441910743713,1.3626203536987305,-0.89406818151474
1726941135671122400,12.037122314453125,-0.5151144862174988,1.4373118877410889,-0.7863945364952087
1726941135681109500,12.047109619140626,-0.37517818808555603,1.2960724830627441,-0.6838617920875549
1726941135691095300,12.05709521484375,-0.26718080043792725,1.072366714477539,-0.5874632000923157
1726941135701081600,12.06708154296875,-0.18963274359703064,0.92636638879776,-0.49077925086021423
1726941135711067400,12.0770673828125,-0.1446911245584488,0.8456433415412903,-0.357835590839386
1726941135721053400,12.087053466796876,-0.12335760146379471,0.7783287763595581,-0.2334989756345749
1726941135731040500,12.09704052734375,-0.0936267301440239,0.624772310256958,-0.1690494418144226
1726941135741026300,12.1070263671875,-0.0791870728135109,0.3528968393802643,-0.19467836618423462
1726941135751012400,12.117012451171876,-0.07946210354566574,0.1490832269191742,-0.20326054096221924
1726941135760998400,12.126998291015624,-0.10201002657413483,0.07067709416151047,-0.1730344593524933
1726941135770984400,12.136984375,-0.15513716638088226,0.04374268278479576,-0.10046253353357315
1726941135780971300,12.14697119140625,-0.22755970060825348,0.03304023668169975,-0.03588540479540825
1726941135790957600,12.15695751953125,-0.24619653820991516,0.052612368017435074,-0.018506314605474472
1726941135800943400,12.166943359375,-0.22136203944683075,0.09780701249837875,-0.035134825855493546
1726941135810929400,12.176929443359375,-0.19272592663764954,0.13644157350063324,-0.06115426495671272
1726941135820915500,12.18691552734375,-0.17011143267154694,0.16974413394927979,-0.08928737044334412
1726941135830902300,12.19690234375,-0.13784471154212952,0.128199964761734,-0.13674652576446533
1726941135840888600,12.206888671875,-0.12406497448682785,-0.005471013020724058,-0.18044206500053406
1726941135850874400,12.216874267578126,-0.11441455036401749,-0.14351364970207214,-0.19355908036231995
1726941135860860400,12.2268603515625,-0.11431441456079483,-0.17954808473587036,-0.18659837543964386
1726941135870847500,12.236847412109375,-0.13224822282791138,-0.07682361453771591,-0.18901212513446808
1726941135880833300,12.246833251953126,-0.14002197980880737,0.07288438826799393,-0.17761379480361938
1726941135890819300,12.2568193359375,-0.11549540609121323,0.1975204199552536,-0.195960134267807
1726941135900805400,12.266805419921875,-0.08752609044313431,0.351694792509079,-0.2730836868286133
1726941135910791400,12.27679150390625,-0.05069258064031601,0.5335712432861328,-0.38887712359428406
1726941135920778500,12.286778564453124,-0.025891097262501717,0.5413695573806763,-0.47966909408569336
1726941135930764500,12.2967646484375,-0.027164198458194733,0.42844080924987793,-0.5060527920722961
1726941135940750300,12.306750244140625,-0.0509243868291378,0.28487351536750793,-0.4961543381214142
1726941135950736400,12.316736328125,-0.05755528062582016,0.06014486774802208,-0.45649826526641846
1726941135960722400,12.326722412109374,-0.0499170683324337,-0.1480458825826645,-0.38553035259246826
1726941135970709200,12.336709228515625,-0.06505278497934341,-0.2380531281232834,-0.3053669333457947
