time,seconds_elapsed,z,y,x
1726941123642694100,0.008694091796875,-0.005511944647878408,-0.0033004553988575935,0.23560133576393127
1726941123652680200,0.01868017578125,0.03857215866446495,-0.14776203036308289,0.21591338515281677
1726941123662666200,0.028666259765625,0.1064998134970665,-0.31184712052345276,0.1943042278289795
1726941123672653300,0.0386533203125,0.13803616166114807,-0.4230410158634186,0.18743674457073212
1726941123682639400,0.048639404296875,0.12993936240673065,-0.4465300738811493,0.243408665060997
1726941123692625400,0.05862548828125,0.11282375454902649,-0.44311991333961487,0.3670983910560608
1726941123702611200,0.068611083984375,0.09446072578430176,-0.4378194212913513,0.5576222538948059
1726941123712598300,0.078598388671875,0.09047424048185349,-0.4154989421367645,0.8228776454925537
1726941123722584300,0.088584228515625,0.12377680093050003,-0.401643306016922,1.114571213722229
1726941123732570000,0.098570068359375,0.1964544653892517,-0.43861889839172363,1.4125730991363525
1726941123742556400,0.108556396484375,0.30426880717277527,-0.636299192905426,1.6532504558563232
1726941123752543200,0.118543212890625,0.44682595133781433,-0.8973475694656372,1.8447719812393188
1726941123762529300,0.128529296875,0.6209977865219116,-1.1683132648468018,2.0410666465759277
1726941123772515300,0.138515380859375,0.7459484934806824,-1.475123643875122,2.2386553287506104
1726941123782502100,0.148502197265625,0.7825219631195068,-1.694071650505066,2.4208924770355225
1726941123792488400,0.158488525390625,0.726625919342041,-1.7739417552947998,2.5536129474639893
1726941123802474200,0.16847412109375,0.597745954990387,-1.8402661085128784,2.6146342754364014
1726941123812460300,0.178460205078125,0.4886549115180969,-1.8376191854476929,2.583437919616699
1726941123822447400,0.188447265625,0.575469970703125,-1.7402082681655884,2.4829540252685547
1726941123832433200,0.19843310546875,0.7611846923828125,-1.9448628425598145,2.398082733154297
1726941123842419500,0.20841943359375,0.9459676146507263,-2.3245749473571777,2.3874995708465576
1726941123852406300,0.21840625,1.0776526927947998,-2.5752835273742676,2.377573251724243
1726941123862392000,0.22839208984375,1.2415558099746704,-3.063340187072754,2.114466905593872
1726941123872378400,0.23837841796875,1.384965181350708,-3.4049875736236572,1.9994605779647827
1726941123882364200,0.2483642578125,1.4891009330749512,-3.0547971725463867,2.155081033706665
1726941123892351500,0.2583515625,1.6802852153778076,-3.0109901428222656,2.2263448238372803
1726941123902337300,0.268337158203125,1.6402292251586914,-3.215822458267212,2.027848720550537
1726941123912323300,0.2783232421875,0.9390726685523987,-3.2810027599334717,1.6955547332763672
1726941123922309000,0.28830908203125,1.1220515966415405,-3.3262810707092285,1.544265866279602
1726941123932296200,0.298296142578125,1.3862254619598389,-3.082819938659668,1.4989956617355347
1726941123942282200,0.3082822265625,1.7173609733581543,-2.7984931468963623,1.6052634716033936
1726941123952268300,0.318268310546875,1.8933110237121582,-2.552290201187134,1.741065263748169
1726941123962255400,0.32825537109375,2.1620290279388428,-2.448476791381836,1.7354215383529663
1726941123972241200,0.3382412109375,2.575573444366455,-2.4024925231933594,1.4057031869888306
1726941123982227200,0.348227294921875,3.0363566875457764,-2.2359089851379395,0.935010552406311
1726941123992213200,0.358213134765625,3.4200868606567383,-1.9554047584533691,0.5557820200920105
1726941124002200300,0.368200439453125,3.43733549118042,-1.7905713319778442,0.4175700843334198
1726941124012186400,0.378186279296875,2.887260675430298,-1.8283149003982544,0.3054792284965515
1726941124022172200,0.388172119140625,2.589792013168335,-1.9336405992507935,0.6332964897155762
1726941124032158500,0.398158447265625,2.7428090572357178,-2.2188239097595215,1.088108777999878
1726941124042145300,0.408145263671875,3.1804816722869873,-2.313354969024658,1.667392373085022
1726941124052131000,0.418131103515625,3.6556708812713623,-2.3820221424102783,1.9918348789215088
1726941124062117400,0.428117431640625,4.161289691925049,-2.241123914718628,1.8363488912582397
1726941124072104200,0.438104248046875,4.496377944946289,-1.5898683071136475,1.5094650983810425
1726941124082090500,0.448090576171875,4.456063270568848,-0.5735242366790771,1.4053093194961548
1726941124092076300,0.458076171875,4.1988844871521,-0.23965759575366974,1.315765619277954
1726941124102062300,0.468062255859375,3.8494789600372314,-0.4137929081916809,1.0602585077285767
1726941124112049400,0.47804931640625,3.5724258422851562,-0.9727515578269958,1.185453176498413
1726941124122035200,0.48803515625,3.3987982273101807,-1.4455068111419678,1.7573193311691284
1726941124132021200,0.498021240234375,3.1785354614257812,-1.8499126434326172,2.386536121368408
1726941124142008300,0.50800830078125,2.93566632270813,-2.265345573425293,2.7947399616241455
1726941124151994000,0.517994140625,2.953601360321045,-2.330547332763672,2.8007972240448
1726941124161980400,0.52798046875,2.9960474967956543,-1.6042925119400024,2.1332480907440186
1726941124171966200,0.53796630859375,2.943913221359253,-1.0696206092834473,1.1540534496307373
1726941124181953300,0.547953369140625,2.553966999053955,-0.9622333645820618,0.23299889266490936
1726941124191939800,0.55793994140625,2.0624849796295166,-0.60648512840271,-0.40490514039993286
1726941124201926000,0.56792578125,1.4086140394210815,-0.9747510552406311,-0.6395890116691589
1726941124211912000,0.577911865234375,0.4568439722061157,-1.906356692314148,-0.4910866320133209
1726941124221898800,0.587898681640625,-0.2723010182380676,-3.0433435440063477,0.11677854508161545
1726941124231885000,0.597885009765625,-0.35645318031311035,-3.4247450828552246,0.8758803606033325
1726941124241870800,0.607870849609375,0.1300962120294571,-2.8554232120513916,1.3293226957321167
1726941124251858000,0.61785791015625,0.3850691318511963,-1.5379563570022583,1.2355974912643433
1726941124261844000,0.627843994140625,0.8945456743240356,-0.28138479590415955,0.715715765953064
1726941124271829800,0.637829833984375,1.4108167886734009,1.0307223796844482,0.0792282447218895
1726941124281816000,0.647816162109375,1.5699741840362549,1.7680071592330933,-0.6819514036178589
1726941124291803000,0.657802978515625,1.2380410432815552,1.575480580329895,-1.339224100112915
1726941124301789000,0.667788818359375,0.8604351282119751,1.1374040842056274,-1.4412896633148193
1726941124311775000,0.67777490234375,0.6694632768630981,0.7163106799125671,-0.9662691354751587
1726941124321761800,0.68776171875,-0.175790473818779,0.3909706771373749,-0.5498886704444885
1726941124331748000,0.697748046875,-0.40235862135887146,0.21606571972370148,-0.5073287487030029
1726941124341734000,0.70773388671875,-0.8339118957519531,0.43582871556282043,-0.2680729925632477
1726941124351720000,0.717719970703125,-0.49488669633865356,0.14954128861427307,0.011421765200793743
1726941124361707000,0.72770703125,0.03988057002425194,0.18097804486751556,0.10259934514760971
1726941124371692800,0.73769287109375,0.057625479996204376,0.5044330954551697,0.1885315626859665
1726941124381678800,0.747678955078125,0.04820055142045021,0.7845885753631592,0.23534247279167175
1726941124391666000,0.757666015625,0.29623138904571533,0.8640729784965515,0.3723970055580139
1726941124401652000,0.76765185546875,0.6768983006477356,0.5162364840507507,0.6686971187591553
1726941124411637800,0.7776376953125,0.727451503276825,-0.02810327336192131,0.8475518226623535
1726941124421624000,0.7876240234375,0.6298104524612427,-0.48792412877082825,0.9799010753631592
1726941124431611000,0.79761083984375,0.7033810615539551,-0.5861676335334778,1.0638364553451538
1726941124441597000,0.807596923828125,1.1278295516967773,-0.2961970269680023,1.2882813215255737
1726941124451583000,0.8175830078125,1.5964773893356323,-0.0375918485224247,1.2411928176879883
1726941124461569800,0.82756982421875,2.141310930252075,0.07041744142770767,1.0492018461227417
1726941124471555800,0.837555908203125,2.4928529262542725,-0.2949533462524414,0.7437540292739868
1726941124481542000,0.8475419921875,2.426593065261841,-0.8887554407119751,0.386182576417923
1726941124491527700,0.857527587890625,1.7902021408081055,-1.542034387588501,0.21224728226661682
1726941124501515000,0.867514892578125,0.9123387932777405,-2.1673240661621094,0.16765184700489044
1726941124511500800,0.877500732421875,0.07422895729541779,-2.088634490966797,0.1299271136522293
1726941124521487000,0.887487060546875,-0.6884945034980774,-2.3568623065948486,0.2676045298576355
1726941124531474000,0.897473876953125,-1.287893533706665,-2.4947726726531982,0.395071417093277
1726941124541459700,0.907459716796875,-1.5283194780349731,-2.3685193061828613,0.34819793701171875
1726941124551446000,0.917446044921875,-1.4293200969696045,-2.0057826042175293,0.13791659474372864
1726941124561431800,0.927431884765625,-1.107002854347229,-1.4253374338150024,-0.18529076874256134
1726941124571419000,0.9374189453125,-0.6755347847938538,-0.8971614241600037,-0.6405296325683594
1726941124581405000,0.947405029296875,-0.40847110748291016,-0.17900995910167694,-1.0437511205673218
1726941124591391000,0.957390869140625,-0.21005336940288544,0.7011695504188538,-1.1655523777008057
1726941124601378000,0.9673779296875,-0.0027800737880170345,1.143405556678772,-1.0294978618621826
1726941124611363800,0.97736376953125,-0.057971689850091934,0.8936034440994263,-0.8951542377471924
1726941124621350000,0.987349853515625,-0.1815090775489807,0.24765773117542267,-0.773629367351532
1726941124631336000,0.9973359375,-0.13256017863750458,-0.19619427621364594,-0.5095894932746887
1726941124641322800,1.00732275390625,-0.07992918789386749,-0.4901167154312134,-0.150819331407547
1726941124651309000,1.01730908203125,0.016809606924653053,-0.6127278208732605,0.04066300764679909
1726941124661294800,1.027294921875,0.07210934907197952,-0.4242130517959595,0.20584210753440857
1726941124671282000,1.037281982421875,0.07302041351795197,-0.14738492667675018,0.37133973836898804
1726941124681268000,1.04726806640625,0.10806308686733246,-0.002775546396151185,0.4841211438179016
1726941124691254000,1.05725390625,0.1326722949743271,0.005850964691489935,0.5966671109199524
1726941124701239800,1.06723974609375,0.15932174026966095,-0.10809478163719177,0.6444953680038452
1726941124711227000,1.077226806640625,0.1433667540550232,-0.10985352843999863,0.6706593036651611
1726941124721213000,1.087212890625,0.0794554129242897,0.01284309383481741,0.606478750705719
1726941124731198700,1.09719873046875,0.004120708908885717,0.21647371351718903,0.43355730175971985
1726941124741185800,1.107185791015625,-0.047622114419937134,0.3890686631202698,0.20451904833316803
1726941124751171800,1.117171875,-0.1110444962978363,0.40245503187179565,0.025670742616057396
1726941124761158000,1.127157958984375,-0.23345589637756348,0.49969717860221863,-0.14661766588687897
1726941124771144000,1.13714404296875,-0.3710971176624298,0.576895534992218,-0.3153057396411896
1726941124781130800,1.147130859375,-0.4791426360607147,0.49080541729927063,-0.3870222866535187
1726941124791117000,1.157116943359375,-0.5387611985206604,0.3573418855667114,-0.3431304693222046
1726941124801102800,1.167102783203125,-0.5374722480773926,0.27754825353622437,-0.3361324667930603
1726941124811090000,1.17708984375,-0.44014543294906616,0.29411470890045166,-0.30396202206611633
1726941124821076000,1.187075927734375,-0.35163527727127075,0.39286473393440247,-0.3546816408634186
1726941124831061800,1.197061767578125,-0.34021642804145813,0.5350919365882874,-0.3601885437965393
1726941124841048000,1.207048095703125,-0.38142138719558716,0.592726469039917,-0.3879821002483368
1726941124851035000,1.217034912109375,-0.2861047387123108,0.49218571186065674,-0.42835694551467896
1726941124861021000,1.22702099609375,-0.1945047676563263,0.30510905385017395,-0.4106799364089966
1726941124871007000,1.237007080078125,-0.15119431912899017,0.23535792529582977,-0.34949809312820435
1726941124880993800,1.246993896484375,-0.17332623898983002,0.20221568644046783,-0.25891146063804626
1726941124890980000,1.25697998046875,-0.21954220533370972,0.1732783019542694,-0.1495964080095291
1726941124900966000,1.2669658203125,-0.24053724110126495,0.18116073310375214,-0.07220255583524704
1726941124910952000,1.276951904296875,-0.284146249294281,0.19567042589187622,-0.07112690806388855
1726941124920939000,1.28693896484375,-0.27867236733436584,0.18047204613685608,-0.08672317862510681
1726941124930924800,1.2969248046875,-0.2000233680009842,0.1662696748971939,-0.09399174153804779
1726941124940910800,1.306910888671875,-0.03233210742473602,0.14359818398952484,-0.07089574635028839
1726941124950898000,1.31689794921875,0.12121084332466125,0.13806653022766113,-0.04577174782752991
1726941124960884000,1.326884033203125,0.206386998295784,0.15956754982471466,-0.054912783205509186
1726941124970869800,1.336869873046875,0.2365153282880783,0.2038138508796692,-0.055938366800546646
1726941124980856000,1.34685595703125,0.20119090378284454,0.23546046018600464,-0.02317056618630886
1726941124990843000,1.3568427734375,0.1391030251979828,0.219574436545372,0.005977198481559753
1726941125000829000,1.366828857421875,0.06724295020103455,0.21503028273582458,-0.0004575310740619898
1726941125010815000,1.37681494140625,0.0005347627447918057,0.23180286586284637,-0.011730159632861614
1726941125020801800,1.3868017578125,-0.041617218405008316,0.2737140953540802,0.0008189220097847283
1726941125030787800,1.396787841796875,-0.060858555138111115,0.32494720816612244,0.02901247702538967
1726941125040774000,1.40677392578125,-0.05228424444794655,0.3634301424026489,0.04822159186005592
1726941125050759700,1.416759765625,-0.030903587117791176,0.37744075059890747,0.039575640112161636
1726941125060747000,1.4267470703125,-0.011365040205419064,0.34408947825431824,0.025791384279727936
1726941125070732800,1.43673291015625,0.0051654670387506485,0.2983267605304718,-0.003457848448306322
1726941125080719000,1.446718994140625,0.030405841767787933,0.24941489100456238,-0.01452834252268076
1726941125090706000,1.456705810546875,0.10486862808465958,0.20919902622699738,0.01050324086099863
1726941125100691700,1.466691650390625,0.205959290266037,0.1835959255695343,0.03449592366814613
1726941125110678000,1.476677978515625,0.3025473356246948,0.17625732719898224,0.03335263207554817
1726941125120663800,1.486663818359375,0.3379974961280823,0.1615963578224182,0.007514375261962414
1726941125130651000,1.49665087890625,0.29206061363220215,0.1298474818468094,-0.04596935585141182
1726941125140637000,1.506636962890625,0.2108033150434494,0.14081943035125732,-0.09320877492427826
1726941125150622700,1.516622802734375,0.12307852506637573,0.15759602189064026,-0.1221112608909607
1726941125160609000,1.526609130859375,0.06333156675100327,0.18755364418029785,-0.12542742490768433
1726941125170595800,1.536595947265625,0.06840382516384125,0.18976034224033356,-0.05373992770910263
1726941125180582000,1.546581787109375,0.048058606684207916,0.15642821788787842,0.04362284392118454
1726941125190567200,1.556567138671875,-0.006102367304265499,0.14389565587043762,0.11764939874410629
1726941125200554200,1.56655419921875,-0.06379149854183197,0.12916837632656097,0.14043967425823212
1726941125210540000,1.5765400390625,-0.12877795100212097,0.11996768414974213,0.11498463898897171
1726941125220526300,1.5865263671875,-0.1454264372587204,0.13291198015213013,0.07648518681526184
1726941125230512000,1.59651220703125,-0.11538305133581161,0.1453678458929062,0.05375990271568298
1726941125240499200,1.606499267578125,-0.08733037859201431,0.10547689348459244,0.07035751640796661
1726941125250485200,1.6164853515625,-0.114682637155056,0.069710373878479,0.12618349492549896
1726941125260471000,1.626470947265625,-0.20627354085445404,0.05416656658053398,0.19164879620075226
1726941125270458000,1.6364580078125,-0.3412902057170868,0.03966725245118141,0.24644413590431213
1726941125280444200,1.646444091796875,-0.47114887833595276,-0.005143096670508385,0.29516878724098206
1726941125290430000,1.656429931640625,-0.5465773344039917,-0.025298697873950005,0.31418803334236145
1726941125300416300,1.666416259765625,-0.5590134859085083,-0.03566558659076691,0.33882254362106323
1726941125310403000,1.676403076171875,-0.5226908922195435,-0.024353809654712677,0.35840874910354614
1726941125320389000,1.68638916015625,-0.44386613368988037,0.031559791415929794,0.3400457203388214
1726941125330375200,1.696375244140625,-0.3669412434101105,0.10014311224222183,0.30414578318595886
1726941125340361200,1.706361328125,-0.31190943717956543,0.12734784185886383,0.26392537355422974
1726941125350348300,1.716348388671875,-0.3056584596633911,0.15096953511238098,0.2317269742488861
1726941125360334000,1.726333984375,-0.29386064410209656,0.19352179765701294,0.20769886672496796
1726941125370320100,1.736320068359375,-0.2739047706127167,0.24540576338768005,0.19697991013526917
1726941125380307200,1.74630712890625,-0.2618236243724823,0.28695693612098694,0.19141896069049835
1726941125390293200,1.756293212890625,-0.25367727875709534,0.29124224185943604,0.1865573674440384
1726941125400279000,1.766279052734375,-0.2528991103172302,0.2832072079181671,0.19078752398490906
1726941125410265000,1.77626513671875,-0.2587372958660126,0.2563422918319702,0.22026020288467407
1726941125420252200,1.786252197265625,-0.3115499019622803,0.22250817716121674,0.22143198549747467
1726941125430238200,1.79623828125,-0.3090862035751343,0.15889857709407806,0.20657049119472504
1726941125440224300,1.806224365234375,-0.3022368252277374,0.09275151044130325,0.17781127989292145
1726941125450211000,1.816211181640625,-0.3079516887664795,0.03785949945449829,0.15708096325397491
1726941125460197000,1.826197021484375,-0.29074448347091675,-0.02359587326645851,0.15703515708446503
1726941125470183200,1.83618310546875,-0.28149133920669556,-0.11311670392751694,0.16188929975032806
1726941125480169000,1.8461689453125,-0.25481605529785156,-0.15318608283996582,0.18921919167041779
1726941125490156300,1.85615625,-0.24006693065166473,-0.16920553147792816,0.21330295503139496
1726941125500142000,1.86614208984375,-0.18500687181949615,-0.17062793672084808,0.2556765079498291
1726941125510128400,1.87612841796875,-0.12961098551750183,-0.19225066900253296,0.2838823199272156
1726941125520114200,1.8861142578125,-0.10380788892507553,-0.2422240823507309,0.2742810845375061
1726941125530101000,1.89610107421875,-0.07452669739723206,-0.2561412453651428,0.26148831844329834
1726941125540087300,1.90608740234375,-0.04163053259253502,-0.27653759717941284,0.2219981700181961
1726941125550073000,1.916072998046875,0.016021577641367912,-0.30155664682388306,0.1400202214717865
1726941125560060200,1.92606005859375,0.036556679755449295,-0.31109821796417236,0.013971475884318352
1726941125570046200,1.936046142578125,0.030610106885433197,-0.34983816742897034,-0.1266346424818039
1726941125580032000,1.946031982421875,0.0346011184155941,-0.4038686454296112,-0.2271798849105835
1726941125590018000,1.95601806640625,0.00723580876365304,-0.4629220962524414,-0.2962436378002167
1726941125600005000,1.966005126953125,-0.02273673750460148,-0.490335613489151,-0.33545443415641785
1726941125609991200,1.9759912109375,-0.043833233416080475,-0.516144871711731,-0.34677714109420776
1726941125619977200,1.985977294921875,-0.07057084143161774,-0.5113628506660461,-0.327786386013031
1726941125629963300,1.99596337890625,-0.16661028563976288,-0.5074499249458313,-0.30919113755226135
1726941125639950000,2.0059501953125,-0.21845537424087524,-0.4833536148071289,-0.28624266386032104
1726941125649936100,2.01593603515625,-0.2321549355983734,-0.4678902328014374,-0.26259541511535645
1726941125659922200,2.025922119140625,-0.2138339877128601,-0.44893917441368103,-0.24468271434307098
1726941125669909200,2.0359091796875,-0.17262530326843262,-0.38833680748939514,-0.2281186580657959
1726941125679895000,2.04589501953125,-0.12641891837120056,-0.3373686969280243,-0.20251742005348206
1726941125689881000,2.055881103515625,-0.10191570967435837,-0.3178274929523468,-0.11746484786272049
1726941125699867100,2.0658671875,-0.11889256536960602,-0.3099115192890167,-0.01817873679101467
1726941125709854200,2.075854248046875,-0.18483296036720276,-0.2676631212234497,0.07260975241661072
1726941125719840000,2.085840087890625,-0.24381345510482788,-0.1767798364162445,0.1318882554769516
1726941125729826300,2.095826416015625,-0.23935054242610931,-0.07802955061197281,0.1827450543642044
1726941125739812000,2.10581201171875,-0.21750196814537048,-0.009154349565505981,0.19322112202644348
1726941125749799200,2.115799072265625,-0.18113543093204498,0.04912227392196655,0.1730109304189682
1726941125759785200,2.12578515625,-0.1297401487827301,0.09902991354465485,0.11958924680948257
1726941125769771000,2.13577099609375,-0.07735896855592728,0.12423167377710342,0.048296958208084106
1726941125779758300,2.14575830078125,-0.05116092041134834,0.15391872823238373,-0.04411286488175392
1726941125789744000,2.155744140625,-0.05228663980960846,0.20477497577667236,-0.14581365883350372
1726941125799730200,2.165730224609375,-0.05481238290667534,0.27350372076034546,-0.23925945162773132
1726941125809716200,2.17571630859375,-0.05212152376770973,0.3436764180660248,-0.3085237443447113
1726941125819703000,2.185703125,-0.04494563490152359,0.4027511775493622,-0.35015374422073364
1726941125829689300,2.195689453125,-0.045695316046476364,0.43990039825439453,-0.36277392506599426
1726941125839675100,2.205675048828125,-0.06184792146086693,0.4273814260959625,-0.34880539774894714
1726941125849661200,2.2156611328125,-0.06488392502069473,0.34796142578125,-0.321772962808609
1726941125859648300,2.225648193359375,-0.047078561037778854,0.24498578906059265,-0.28817400336265564
1726941125869634000,2.235634033203125,-0.030459105968475342,0.19018298387527466,-0.22833223640918732
1726941125879620000,2.2456201171875,-0.01666899211704731,0.197251558303833,-0.15617336332798004
1726941125889607200,2.255607177734375,-0.021342307329177856,0.22647441923618317,-0.07169149816036224
1726941125899593200,2.26559326171875,-0.02604757994413376,0.22963719069957733,0.01407773606479168
1726941125909579000,2.2755791015625,-0.012121910229325294,0.17844191193580627,0.09376218169927597
1726941125919565300,2.2855654296875,-0.02099023573100567,0.09348760545253754,0.15850122272968292
1726941125929552100,2.29555224609375,-0.05606699734926224,0.048586975783109665,0.20878064632415771
1726941125939538200,2.3055380859375,-0.1017250269651413,0.06656064838171005,0.22551195323467255
1726941125949524200,2.315524169921875,-0.13546274602413177,0.1135992631316185,0.25322747230529785
1726941125959510000,2.325510009765625,-0.15550144016742706,0.158234104514122,0.30082881450653076
1726941125969497000,2.3354970703125,-0.15864050388336182,0.2182801365852356,0.37886980175971985
1726941125979483100,2.345483154296875,-0.15521275997161865,0.28242558240890503,0.45694997906684875
1726941125989469000,2.355468994140625,-0.16462330520153046,0.33464428782463074,0.532441258430481
1726941125999455200,2.365455322265625,-0.17233234643936157,0.36647918820381165,0.5628196597099304
1726941126009442000,2.375442138671875,-0.14923235774040222,0.3512576222419739,0.5323467254638672
1726941126019428400,2.385428466796875,-0.09072404354810715,0.29397544264793396,0.4647120237350464
1726941126029414100,2.3954140625,-0.06536915153265,0.21503214538097382,0.41784703731536865
1726941126039401000,2.40540087890625,-0.06923899054527283,0.1223357692360878,0.3977510929107666
1726941126049387300,2.41538720703125,-0.08482460677623749,0.05794825404882431,0.39169028401374817
1726941126059373000,2.425373046875,-0.10554400086402893,0.007201720029115677,0.39347538352012634
1726941126069359000,2.435359130859375,-0.13989372551441193,-0.0007486145477741957,0.39709728956222534
1726941126079346200,2.44534619140625,-0.1636003851890564,-0.002192846732214093,0.3830714821815491
1726941126089332200,2.455332275390625,-0.1564980000257492,-0.009865946136415005,0.3494535982608795
1726941126099318300,2.465318359375,-0.1409778892993927,-0.005365470424294472,0.31281331181526184
1726941126109304000,2.475303955078125,-0.11879190057516098,0.011831891722977161,0.27885904908180237
1726941126119291100,2.485291015625,-0.08833012729883194,0.03370150551199913,0.22153958678245544
1726941126129277200,2.495277099609375,-0.0639699250459671,0.06891355663537979,0.1294994056224823
1726941126139263200,2.50526318359375,-0.04067898541688919,0.12282632291316986,0.03573669120669365
1726941126149249000,2.5152490234375,-0.03856789693236351,0.1998172402381897,-0.03893221914768219
1726941126159236000,2.525236083984375,-0.054791342467069626,0.25009238719940186,-0.08348104357719421
1726941126169222100,2.53522216796875,-0.06895962357521057,0.28124818205833435,-0.1031159982085228
1726941126179208000,2.5452080078125,-0.05630455166101456,0.323677659034729,-0.0674181878566742
1726941126189195300,2.5551953125,-0.037821415811777115,0.38871100544929504,0.011071559973061085
1726941126199181600,2.565181640625,-0.04008084163069725,0.4563518166542053,0.08823905140161514
1726941126209167400,2.57516748046875,-0.0644916445016861,0.5161978602409363,0.1551765352487564
1726941126219153700,2.585153564453125,-0.11401551961898804,0.5601189732551575,0.21053273975849152
1726941126229140500,2.595140380859375,-0.17546077072620392,0.583240270614624,0.2285170555114746
1726941126239126500,2.60512646484375,-0.20347562432289124,0.5406256914138794,0.20822617411613464
1726941126249112600,2.615112548828125,-0.20098529756069183,0.4263688921928406,0.15270166099071503
1726941126259098600,2.6250986328125,-0.17544931173324585,0.2618262767791748,0.08467733860015869
1726941126269085400,2.63508544921875,-0.1162528395652771,0.15471553802490234,0.07040438801050186
1726941126279071500,2.645071533203125,-0.04857046529650688,0.10506809502840042,0.10655387490987778
1726941126289057500,2.6550576171875,0.005371329374611378,0.10498473793268204,0.19275586307048798
1726941126299043300,2.665043212890625,0.03906990587711334,0.14864060282707214,0.3132902681827545
1726941126309030700,2.67503076171875,0.05325922742486,0.17737771570682526,0.41858235001564026
1726941126319016400,2.685016357421875,0.05241553857922554,0.15275704860687256,0.479945570230484
1726941126329002500,2.69500244140625,0.02467471919953823,0.12233097106218338,0.49861353635787964
1726941126338989600,2.704989501953125,-0.01673104241490364,0.10344143956899643,0.48294001817703247
1726941126348975400,2.714975341796875,-0.06120583415031433,0.08939485996961594,0.4535384476184845
1726941126358961700,2.724961669921875,-0.09309639036655426,0.08710507303476334,0.39727625250816345
1726941126368947500,2.734947509765625,-0.08982256054878235,0.06936735659837723,0.3218315541744232
1726941126378934500,2.7449345703125,-0.07113809138536453,0.03256593272089958,0.21973422169685364
1726941126388920600,2.754920654296875,-0.054910119622945786,0.018336663022637367,0.10172316431999207
1726941126398906400,2.76490625,-0.03521497920155525,0.02689073607325554,-0.014553110115230083
1726941126408892700,2.774892578125,-0.03930559381842613,0.03581631928682327,-0.10523534566164017
1726941126418879500,2.78487939453125,-0.041244640946388245,0.05006423220038414,-0.16288772225379944
1726941126428865500,2.794865478515625,-0.050688743591308594,0.1007860004901886,-0.21035750210285187
1726941126438851600,2.8048515625,-0.05988863483071327,0.18102064728736877,-0.25789332389831543
1726941126448837600,2.814837646484375,-0.0416845977306366,0.27081790566444397,-0.29248273372650146
1726941126458824700,2.82482470703125,-0.013440974056720734,0.3037737309932709,-0.2947320342063904
1726941126468810500,2.834810546875,-0.014024739153683186,0.237189382314682,-0.28104284405708313
1726941126478796500,2.844796630859375,-0.032472189515829086,0.2257590889930725,-0.2709505259990692
1726941126488783600,2.85478369140625,-0.048893772065639496,0.26006248593330383,-0.3029944896697998
1726941126498769400,2.864769287109375,-0.04713502153754234,0.2861364185810089,-0.3642551898956299
1726941126508755500,2.87475537109375,-0.058212704956531525,0.23460185527801514,-0.421668142080307
1726941126518741500,2.884741455078125,-0.09199011325836182,0.11543019115924835,-0.4535680115222931
1726941126528728600,2.894728515625,-0.11725951731204987,-0.021889053285121918,-0.47076377272605896
1726941126538714400,2.90471435546875,-0.13865534961223602,-0.14504188299179077,-0.4587222933769226
1726941126548700700,2.91470068359375,-0.11986994743347168,-0.21031782031059265,-0.42000633478164673
1726941126558686500,2.9246865234375,-0.05423340946435928,-0.22988033294677734,-0.3608223795890808
1726941126568673500,2.934673583984375,0.025371402502059937,-0.2198476791381836,-0.31303727626800537
1726941126578659600,2.94465966796875,0.08069165050983429,-0.2045249044895172,-0.29908043146133423
1726941126588645400,2.954645263671875,0.09676489233970642,-0.1848721206188202,-0.32253411412239075
1726941126598631700,2.964631591796875,0.08053292334079742,-0.15718109905719757,-0.3766210377216339
1726941126608618500,2.974618408203125,0.05986466631293297,-0.1371874213218689,-0.42458802461624146
1726941126618604500,2.9846044921875,0.01744583621621132,-0.15353789925575256,-0.4431385397911072
1726941126628590600,2.994590576171875,-0.02045360952615738,-0.2172795832157135,-0.4182981848716736
1726941126638576400,3.004576416015625,-0.03128202259540558,-0.2980726957321167,-0.3649372160434723
1726941126648563700,3.014563720703125,-0.003433347214013338,-0.3559485077857971,-0.27375245094299316
1726941126658549500,3.024549560546875,0.055993761867284775,-0.38257133960723877,-0.15155863761901855
1726941126668535600,3.03453564453125,0.10702711343765259,-0.40125688910484314,-0.018457038328051567
1726941126678522600,3.044522705078125,0.1358715444803238,-0.38851577043533325,0.09906746447086334
1726941126688508400,3.05450830078125,0.1675969809293747,-0.3416998088359833,0.18631847202777863
1726941126698494500,3.064494384765625,0.20094987750053406,-0.25376197695732117,0.2408541589975357
1726941126708480500,3.07448046875,0.2437298446893692,-0.13215164840221405,0.2413918524980545
1726941126718467600,3.084467529296875,0.2774063050746918,-0.010969027876853943,0.21169893443584442
1726941126728453600,3.09445361328125,0.28941822052001953,0.0741322860121727,0.17024549841880798
1726941126738439700,3.104439697265625,0.30589574575424194,0.10988815128803253,0.14115312695503235
1726941126748425500,3.114425537109375,0.3257717192173004,0.10662045329809189,0.12504419684410095
1726941126758412500,3.12441259765625,0.3239937722682953,0.07566839456558228,0.09448309242725372
1726941126768398600,3.134398681640625,0.2673496901988983,0.03906271234154701,0.03747200965881348
1726941126778384400,3.14438427734375,0.15272510051727295,-0.03458354249596596,-0.04658374562859535
1726941126788370700,3.15437060546875,0.039138879626989365,-0.14287565648555756,-0.14782407879829407
1726941126798357500,3.164357421875,-0.06823684275150299,-0.20412969589233398,-0.2819477915763855
1726941126808343300,3.17434326171875,-0.10570592433214188,-0.18550914525985718,-0.4346867501735687
1726941126818329600,3.18432958984375,-0.10937229543924332,-0.11215689778327942,-0.5947602987289429
1726941126828315400,3.1943154296875,-0.10619994252920151,0.02052684687077999,-0.7031884789466858
1726941126838302700,3.204302734375,-0.08487574011087418,0.1779119372367859,-0.7702839374542236
1726941126848288500,3.21428857421875,-0.04273867607116699,0.25482669472694397,-0.7970532178878784
1726941126858274600,3.224274658203125,-0.020077837631106377,0.24304886162281036,-0.7916187644004822
1726941126868260600,3.234260498046875,-0.014815164729952812,0.15148086845874786,-0.7599346041679382
1726941126878247400,3.244247314453125,-0.014448980800807476,0.037407826632261276,-0.713473379611969
1726941126888233500,3.2542333984375,0.004603806417435408,-0.06813191622495651,-0.6807447075843811
1726941126898219500,3.264219482421875,0.09710045158863068,-0.16499267518520355,-0.6236537098884583
1726941126908205600,3.27420556640625,0.25618118047714233,-0.2340007722377777,-0.562628984451294
1726941126918192600,3.284192626953125,0.4173378348350525,-0.336190789937973,-0.4968787431716919
1726941126928178400,3.294178466796875,0.5129956603050232,-0.47486451268196106,-0.44383177161216736
1726941126938164500,3.30416455078125,0.5417926907539368,-0.5837832689285278,-0.4546825587749481
1726941126948151600,3.314151611328125,0.5229777097702026,-0.7109857201576233,-0.4875241219997406
1726941126958137600,3.3241376953125,0.49741455912590027,-0.8343161940574646,-0.485474556684494
1726941126968123400,3.334123291015625,0.46326884627342224,-0.9018115997314453,-0.5115090608596802
1726941126978109700,3.344109619140625,0.4520529508590698,-0.7894765138626099,-0.5636918544769287
1726941126988096500,3.354096435546875,0.5216343998908997,-0.4803527593612671,-0.6218241453170776
1726941126998082600,3.36408251953125,0.6291630268096924,-0.08777166157960892,-0.6496168971061707
1726941127008068600,3.374068603515625,0.7526769638061523,0.1968504786491394,-0.592288076877594
1726941127018054400,3.384054443359375,0.8399045467376709,0.2075585126876831,-0.4488361179828644
1726941127028041700,3.394041748046875,0.8946375846862793,0.05528802424669266,-0.2909327745437622
1726941127038027500,3.404027587890625,0.909841001033783,-0.09251315891742706,-0.16207411885261536
1726941127048013600,3.414013671875,1.018540620803833,-0.34607911109924316,0.006816626992076635
1726941127057999600,3.42399951171875,1.2996928691864014,-0.6020627021789551,0.18630781769752502
1726941127067986400,3.433986328125,1.8213638067245483,-0.7374609708786011,0.37493792176246643
1726941127077972500,3.443972412109375,2.55436635017395,-0.6706209778785706,0.5506450533866882
1726941127087958500,3.45395849609375,3.234445333480835,-0.23205187916755676,0.5214743614196777
1726941127097944600,3.463944580078125,3.4206440448760986,0.14701926708221436,0.43804606795310974
1726941127107931600,3.473931640625,3.2861554622650146,0.36842596530914307,0.4565875232219696
1726941127117917400,3.48391748046875,3.0396945476531982,0.49559617042541504,0.47924569249153137
1726941127127903500,3.493903564453125,2.6238412857055664,0.7419707775115967,0.5523225665092468
1726941127137889500,3.5038896484375,2.2847039699554443,0.960574746131897,0.6486546993255615
1726941127147876600,3.513876708984375,1.9074324369430542,1.1577743291854858,0.7533707022666931
1726941127157862400,3.5238623046875,1.533434510231018,1.2871975898742676,0.8119323253631592
1726941127167848700,3.5338486328125,1.1857706308364868,1.2637606859207153,0.8831862211227417
1726941127177834500,3.54383447265625,0.9136357307434082,1.1005630493164062,0.9116692543029785
1726941127187821600,3.553821533203125,0.6645476222038269,0.8322229385375977,0.9036550521850586
1726941127197807600,3.5638076171875,0.43189549446105957,0.5269327759742737,0.8602846264839172
1726941127207793700,3.573793701171875,0.20142659544944763,0.15997715294361115,0.7959016561508179
1726941127217779700,3.58377978515625,0.013946175575256348,-0.23587697744369507,0.7186737060546875
1726941127227766800,3.593766845703125,-0.10154499858617783,-0.3964434862136841,0.5965515375137329
1726941127237752600,3.603752685546875,-0.17161090672016144,-0.2594296932220459,0.4259691536426544
1726941127247738600,3.613738525390625,-0.22432471811771393,-0.11832131445407867,0.2828788459300995
1726941127257724700,3.623724609375,-0.3415147066116333,-0.15796247124671936,0.22172094881534576
1726941127267711700,3.633711669921875,-0.47600728273391724,-0.18733100593090057,0.19207969307899475
1726941127277697500,3.643697509765625,-0.6169412136077881,-0.022363895550370216,0.1960776299238205
1726941127287683800,3.653683837890625,-0.778624415397644,0.1963157206773758,0.17722856998443604
1726941127297670700,3.663670654296875,-0.9253720641136169,0.2679579555988312,0.1069493517279625
1726941127307656700,3.67365673828125,-0.9594666361808777,0.11511087417602539,-0.03984248638153076
1726941127317642800,3.683642822265625,-0.7791187167167664,-0.02738981321454048,-0.1838792860507965
1726941127327628500,3.693628662109375,-0.37317463755607605,0.030842067673802376,-0.27697673439979553
1726941127337615600,3.70361572265625,0.14011502265930176,0.17195364832878113,-0.3063375651836395
1726941127347601700,3.7136015625,0.5234895944595337,0.25272199511528015,-0.2522210478782654
1726941127357587500,3.72358740234375,0.6459699869155884,0.3100297749042511,-0.1586141437292099
1726941127367573800,3.73357373046875,0.6874598860740662,0.38986068964004517,-0.045403435826301575
1726941127377560600,3.743560546875,0.6914080381393433,0.460186243057251,0.07215195894241333
1726941127387546600,3.753546630859375,0.6445470452308655,0.4356262981891632,0.1826385259628296
1726941127397532700,3.76353271484375,0.5292845964431763,0.25100693106651306,0.2886136770248413
1726941127407518700,3.773518798828125,0.3216525912284851,-0.053828611969947815,0.38352715969085693
1726941127417505800,3.783505859375,0.04149870574474335,-0.24284033477306366,0.4411952495574951
1726941127427491600,3.79349169921875,-0.22284212708473206,-0.4776107668876648,0.4390473961830139
1726941127437477600,3.8034775390625,-0.3340485394001007,-0.662148654460907,0.43781009316444397
1726941127447463700,3.813463623046875,-0.29183903336524963,-0.6314136385917664,0.41557908058166504
1726941127457450800,3.82345068359375,-0.1816323846578598,-0.5671723484992981,0.3819763958454132
1726941127467436500,3.8334365234375,-0.09539656341075897,-0.4396793842315674,0.32436344027519226
1726941127477422600,3.843422607421875,-0.05372687801718712,-0.3143850862979889,0.2438502162694931
1726941127487408600,3.85340869140625,-0.008945558220148087,-0.19255267083644867,0.14540672302246094
1726941127497395700,3.863395751953125,-0.0519886314868927,-0.003469566348940134,0.07971160858869553
1726941127507381800,3.8733818359375,-0.28480270504951477,0.15119750797748566,0.15819735825061798
1726941127517367600,3.883367431640625,-0.5370485186576843,0.023427028208971024,0.24116654694080353
1726941127527353900,3.893353759765625,-0.6211362481117249,-0.5774718523025513,0.11411964893341064
1726941127537340700,3.903340576171875,-0.6212385296821594,-1.6420763731002808,-0.11405599862337112
1726941127547326500,3.913326416015625,-0.5858888030052185,-2.437892436981201,-0.18430592119693756
1726941127557312800,3.923312744140625,-0.51450115442276,-2.0092835426330566,-0.030547522008419037
1726941127567298600,3.933298583984375,-0.3338269591331482,-0.7538471817970276,-0.012603942304849625
1726941127577286000,3.943285888671875,-0.11720997840166092,0.028068386018276215,0.10759863257408142
1726941127587271700,3.953271728515625,0.032036229968070984,0.3307936191558838,0.2079409509897232
1726941127597257700,3.9632578125,0.06005534902215004,0.442439466714859,0.30826008319854736
1726941127607243500,3.973243408203125,-0.14364825189113617,0.30121657252311707,0.42219704389572144
1726941127617230600,3.983230712890625,-0.4179439842700958,-0.08063359558582306,0.5221886038780212
1726941127627216600,3.993216552734375,-0.5749295949935913,-0.4290091395378113,0.5716707110404968
1726941127637202700,4.00320263671875,-0.6104324460029602,-0.7236482501029968,0.5511699318885803
1726941127647188700,4.013188720703125,-0.603350043296814,-0.9713563323020935,0.43962371349334717
1726941127657175600,4.023175537109375,-0.6125512719154358,-0.9671999216079712,0.24116547405719757
1726941127667161600,4.03316162109375,-0.6540217399597168,-0.6928293704986572,-0.05486058443784714
1726941127677147600,4.043147705078125,-0.6757574081420898,-0.3931209146976471,-0.342241495847702
1726941127687134700,4.053134765625,-0.6064568758010864,-0.20453263819217682,-0.5149120688438416
1726941127697120800,4.063120849609375,-0.4619487226009369,-0.08956397324800491,-0.5788521766662598
1726941127707106600,4.0731064453125,-0.31771644949913025,0.02743508666753769,-0.6257901191711426
1726941127717092900,4.0830927734375,-0.21504759788513184,0.16116757690906525,-0.6799407005310059
1726941127727078700,4.09307861328125,-0.1606847494840622,0.23291714489459991,-0.6953843832015991
1726941127737065500,4.1030654296875,-0.15820720791816711,0.1609790325164795,-0.6820211410522461
1726941127747051800,4.1130517578125,-0.18436478078365326,-0.094424769282341,-0.6612847447395325
1726941127757037600,4.12303759765625,-0.20857425034046173,-0.400709331035614,-0.6437931060791016
1726941127767024600,4.133024658203125,-0.20837052166461945,-0.45111045241355896,-0.6850576996803284
1726941127777010700,4.1430107421875,-0.10289256274700165,-0.27060484886169434,-0.7700708508491516
1726941127786996500,4.15299658203125,0.0604524239897728,-0.002433863002806902,-0.8544992208480835
1726941127796982800,4.162982666015625,0.17660459876060486,0.2892129123210907,-0.9317572116851807
1726941127806968600,4.172968505859375,0.20063216984272003,0.5537537336349487,-0.9660004377365112
1726941127816955600,4.18295556640625,0.13684174418449402,0.7050266265869141,-0.932479202747345
1726941127826941700,4.192941650390625,0.043893955647945404,0.6489758491516113,-0.8348312377929688
1726941127836927700,4.202927734375,-0.039689090102910995,0.535575807094574,-0.7289031744003296
1726941127846914600,4.21291455078125,-0.09593292325735092,0.4078679084777832,-0.6341109275817871
1726941127856900600,4.222900634765625,-0.10941170901060104,0.3085724711418152,-0.568829357624054
1726941127866886700,4.23288671875,-0.08975917845964432,0.22660118341445923,-0.5661100149154663
1726941127876872400,4.24287255859375,-0.1024765744805336,0.11197926849126816,-0.6121997237205505
1726941127886859800,4.25285986328125,-0.16407202184200287,-0.009105348028242588,-0.699878990650177
1726941127896845600,4.262845458984375,-0.23728951811790466,-0.025193503126502037,-0.7916592359542847
1726941127906831600,4.27283154296875,-0.2547694444656372,0.0010876349406316876,-0.8181532025337219
1726941127916817700,4.282817626953125,-0.22574257850646973,0.010207363404333591,-0.7480353116989136
1726941127926804500,4.292804443359375,-0.17055362462997437,-0.0016045545926317573,-0.6017414927482605
1726941127936790800,4.302790771484375,-0.13038410246372223,0.002463690238073468,-0.42863231897354126
1726941127946776600,4.312776611328125,-0.1283678263425827,0.026158366352319717,-0.2891383469104767
1726941127956762600,4.3227626953125,-0.14485758543014526,0.011141334660351276,-0.18316689133644104
1726941127966749700,4.332749755859375,-0.18121053278446198,-0.07108323276042938,-0.11068390309810638
1726941127976735500,4.342735595703125,-0.23230673372745514,-0.2484220564365387,-0.06524424999952316
1726941127986721800,4.3527216796875,-0.26461541652679443,-0.46845829486846924,-0.05590454488992691
1726941127996707600,4.36270751953125,-0.24083471298217773,-0.6967311501502991,-0.05407948046922684
1726941128006694700,4.372694580078125,-0.17157042026519775,-0.8725194931030273,-0.03328924626111984
1726941128016680700,4.3826806640625,-0.1049831435084343,-0.9410184025764465,0.013819674961268902
1726941128026666800,4.392666748046875,-0.08906915783882141,-0.8952034711837769,0.08507388085126877
1726941128036652500,4.402652587890625,-0.14945660531520844,-0.7793365120887756,0.198353573679924
1726941128046638800,4.412638916015625,-0.24374981224536896,-0.6790741086006165,0.3141917586326599
1726941128056625700,4.422625732421875,-0.29360899329185486,-0.6334842443466187,0.3726356327533722
1726941128066611700,4.43261181640625,-0.26440155506134033,-0.6234963536262512,0.40609052777290344
1726941128076597800,4.44259765625,-0.21335196495056152,-0.6301747560501099,0.4621577858924866
1726941128086584600,4.45258447265625,-0.19481049478054047,-0.6815130114555359,0.5098366141319275
1726941128096570600,4.462570556640625,-0.20085561275482178,-0.7870780825614929,0.5598981976509094
1726941128106556700,4.472556640625,-0.22456413507461548,-0.8589078187942505,0.5790388584136963
1726941128116542500,4.48254248046875,-0.24293647706508636,-0.8469976186752319,0.5465182065963745
1726941128126529800,4.49252978515625,-0.24627608060836792,-0.8049713373184204,0.47853222489356995
1726941128136515600,4.502515625,-0.25614815950393677,-0.719450831413269,0.35839810967445374
1726941128146501600,4.512501708984375,-0.2906520664691925,-0.5993920564651489,0.13705691695213318
1726941128156487700,4.52248779296875,-0.347957968711853,-0.5010178089141846,-0.2096533626317978
1726941128166474500,4.532474609375,-0.40687960386276245,-0.4722250699996948,-0.5467669367790222
1726941128176460800,4.542460693359375,-0.5300720930099487,-0.5198748707771301,-0.8908084630966187
1726941128186446600,4.552446533203125,-0.5862549543380737,-0.578387439250946,-1.098868489265442
1726941128196432100,4.56243212890625,-0.553348958492279,-0.5626398921012878,-1.0948460102081299
1726941128206418000,4.57241796875,-0.3957926034927368,-0.4357312321662903,-0.9227757453918457
1726941128216405200,4.5824052734375,-0.2029951959848404,-0.23336827754974365,-0.7968534827232361
1726941128226391000,4.59239111328125,-0.03894287347793579,0.054966311901807785,-0.6756775379180908
1726941128236377000,4.602377197265625,0.028734974563121796,0.2668626010417938,-0.5531268119812012
1726941128246364200,4.6123642578125,0.015360048040747643,0.38399773836135864,-0.4311293065547943
1726941128256350000,4.622349853515625,-0.05663291737437248,0.3548971116542816,-0.3562614321708679
1726941128266336000,4.6323359375,-0.17963527143001556,0.2069406658411026,-0.2915639281272888
1726941128276322000,4.642322021484375,-0.31493479013442993,-0.013283581472933292,-0.2706131041049957
1726941128286308000,4.65230810546875,-0.4109598398208618,-0.30577537417411804,-0.3127978444099426
1726941128296295200,4.662295166015625,-0.4508020579814911,-0.5779525637626648,-0.3482794165611267
1726941128306281200,4.67228125,-0.4032747447490692,-0.7686074376106262,-0.2802242040634155
1726941128316267000,4.68226708984375,-0.30757245421409607,-0.9002776145935059,-0.1406705677509308
1726941128326253000,4.692253173828125,-0.18753953278064728,-0.9079368710517883,0.04837765172123909
1726941128336240000,4.702240234375,-0.02871100604534149,-0.841320276260376,0.22816498577594757
1726941128346226000,4.712225830078125,0.1383562833070755,-0.7116861343383789,0.3476048409938812
1726941128356212200,4.722212158203125,0.20116400718688965,-0.5311443209648132,0.37205639481544495
1726941128366198000,4.732197998046875,0.15800294280052185,-0.2790446877479553,0.2944526672363281
1726941128376185000,4.74218505859375,0.16104081273078918,-0.051844820380210876,0.17415475845336914
1726941128386171100,4.752171142578125,0.21184301376342773,0.03645095229148865,0.008236091583967209
1726941128396157000,4.762156982421875,0.2604062855243683,-0.00036911413189955056,-0.1701088845729828
1726941128406143000,4.77214306640625,0.3231050968170166,-0.015861786901950836,-0.20813775062561035
1726941128416130000,4.782130126953125,0.2970484495162964,-0.05858821049332619,-0.13489682972431183
1726941128426116000,4.7921162109375,0.21361960470676422,-0.17556676268577576,0.0033244239166378975
1726941128436102100,4.80210205078125,0.12695874273777008,-0.2819206416606903,0.18164142966270447
1726941128446088200,4.812088134765625,0.07216527312994003,-0.3304111957550049,0.30455270409584045
1726941128456075000,4.822074951171875,0.05089886859059334,-0.3207324743270874,0.3657321631908417
1726941128466061000,4.83206103515625,0.08706912398338318,-0.2787432074546814,0.4018230736255646
1726941128476047000,4.842047119140625,0.06895536184310913,-0.2757687270641327,0.4579973816871643
1726941128486033000,4.852032958984375,-0.05547870323061943,-0.2702469229698181,0.5820484757423401
1726941128496020000,4.86202001953125,-0.19223494827747345,-0.20358455181121826,0.7523097395896912
1726941128506006000,4.872006103515625,-0.27739620208740234,-0.12046622484922409,0.9167212843894958
1726941128515992000,4.881991943359375,-0.3053250312805176,-0.05510453134775162,1.016982078552246
1726941128525978000,4.89197802734375,-0.30471888184547424,0.00666296249255538,1.057008147239685
1726941128535965000,4.90196484375,-0.3115871846675873,0.040703486651182175,1.0535517930984497
1726941128545951200,4.911951171875,-0.3623393177986145,0.0379503108561039,1.0054205656051636
1726941128555937000,4.92193701171875,-0.4247552752494812,0.027936026453971863,0.9223685264587402
1726941128565923000,4.931923095703125,-0.45550093054771423,-0.04207315295934677,0.7992239594459534
1726941128575910100,4.94191015625,-0.3924942910671234,-0.18476586043834686,0.662963330745697
1726941128585896000,4.95189599609375,-0.2379148304462433,-0.37549105286598206,0.46947136521339417
1726941128595882200,4.96188232421875,-0.04472566023468971,-0.556425154209137,0.2504287660121918
1726941128605868000,4.971867919921875,0.12050457298755646,-0.6291723251342773,0.0385039821267128
1726941128615855000,4.981855224609375,0.19888752698898315,-0.5237002372741699,-0.1076793223619461
1726941128625841200,4.991841064453125,0.17518752813339233,-0.32994675636291504,-0.1963346302509308
1726941128635827000,5.001826904296875,0.12347080558538437,-0.17850689589977264,-0.2851260006427765
1726941128645813000,5.01181298828125,0.08844783902168274,-0.03672392666339874,-0.3782503604888916
1726941128655800000,5.021800048828125,0.09295976907014847,0.0357995443046093,-0.49623772501945496
1726941128665786000,5.0317861328125,0.15058551728725433,0.01372167095541954,-0.5904776453971863
1726941128675772000,5.04177197265625,0.2323533445596695,-0.05666540935635567,-0.59931480884552
1726941128685758200,5.05175830078125,0.32546359300613403,-0.18382015824317932,-0.5249364972114563
1726941128695745000,5.0617451171875,0.43342944979667664,-0.4136251211166382,-0.4216124713420868
1726941128705731000,5.07173095703125,0.5414505004882812,-0.7465183734893799,-0.332457035779953
1726941128715717000,5.081717041015625,0.6881999969482422,-1.1128002405166626,-0.2522769868373871
1726941128725703000,5.091702880859375,0.967730700969696,-1.2477167844772339,-0.2480952888727188
1726941128735689200,5.101689208984375,1.3513169288635254,-1.059065341949463,-0.29250431060791016
1726941128745676000,5.111676025390625,1.6847013235092163,-0.6084063649177551,-0.3158344030380249
1726941128755662000,5.121662109375,1.8749042749404907,-0.04352164268493652,-0.28894364833831787
1726941128765648100,5.131648193359375,1.984870433807373,0.2748315632343292,-0.1572660505771637
1726941128775634200,5.14163427734375,1.988540768623352,0.1288362741470337,0.08263282477855682
1726941128785621200,5.151621337890625,1.8585412502288818,-0.18360604345798492,0.23724371194839478
1726941128795607000,5.16160693359375,1.5968122482299805,-0.3409045934677124,0.23896917700767517
1726941128805593000,5.171593017578125,1.3789587020874023,-0.2297157496213913,0.14721794426441193
1726941128815579100,5.1815791015625,1.2870091199874878,-0.04332670196890831,0.08548694103956223
1726941128825566000,5.19156591796875,1.297990083694458,0.05428401008248329,0.14406715333461761
1726941128835552000,5.201552001953125,1.4558947086334229,-0.08441874384880066,0.29103928804397583
1726941128845538000,5.2115380859375,1.6027753353118896,-0.298235684633255,0.4833565354347229
1726941128855524000,5.221524169921875,1.6031742095947266,-0.3521662950515747,0.6440399885177612
1726941128865511200,5.23151123046875,1.663650631904602,-0.2309352159500122,0.7721470594406128
1726941128875497200,5.241497314453125,1.6123030185699463,-0.02406751923263073,0.8311043977737427
1726941128885483000,5.25148291015625,1.4486429691314697,0.22416839003562927,0.8397138714790344
1726941128895469000,5.261468994140625,1.1850630044937134,0.38647767901420593,0.8361257910728455
1726941128905456000,5.2714560546875,0.8465094566345215,0.3106873035430908,0.793275773525238
1726941128915442000,5.28144189453125,0.509352445602417,-0.10470297932624817,0.716011643409729
1726941128925428200,5.29142822265625,0.2837555408477783,-0.688679575920105,0.6749510169029236
1726941128935414000,5.3014140625,0.24024748802185059,-1.0472129583358765,0.5926942229270935
1726941128945400800,5.31140087890625,0.40389126539230347,-0.9331612586975098,0.5083646774291992
1726941128955387100,5.32138720703125,0.5870072841644287,-0.41046369075775146,0.40491074323654175
1726941128965373000,5.331373046875,0.6523732542991638,0.06931835412979126,0.19673649966716766
1726941128975359000,5.34135888671875,0.5965033173561096,0.21039772033691406,0.03882941976189613
1726941128985346000,5.351345947265625,0.4133255183696747,0.3802703619003296,-0.06884804368019104
1726941128995332000,5.36133203125,0.17093339562416077,0.6181103587150574,-0.2061648815870285
1726941129005318100,5.371318115234375,-0.010823353193700314,0.879418671131134,-0.2684149444103241
1726941129015304200,5.38130419921875,-0.13773202896118164,1.154768705368042,-0.32123422622680664
1726941129025291000,5.391291015625,-0.2608640789985657,1.3535395860671997,-0.4093211889266968
1726941129035277000,5.401277099609375,-0.3661265969276428,1.3505984544754028,-0.474344402551651
1726941129045263000,5.41126318359375,-0.39160796999931335,1.0929479598999023,-0.5072101950645447
1726941129055249000,5.421248779296875,-0.34105798602104187,0.7780236005783081,-0.5083963871002197
1726941129065236000,5.431236083984375,-0.2546304166316986,0.5423341393470764,-0.5383023619651794
1726941129075222000,5.441221923828125,-0.1689959466457367,0.3884420096874237,-0.6110034584999084
1726941129085208000,5.4512080078125,-0.06270518898963928,0.2180364578962326,-0.6768530607223511
1726941129095194000,5.461194091796875,0.05787555128335953,0.017603227868676186,-0.6649979948997498
1726941129105181000,5.471180908203125,0.1452551931142807,-0.16711468994617462,-0.5838964581489563
1726941129115167200,5.481167236328125,0.1418202519416809,-0.15966743230819702,-0.4950914978981018
1726941129125153000,5.491153076171875,0.04983413591980934,0.04867193102836609,-0.44381046295166016
1726941129135139000,5.50113916015625,-0.10244674980640411,0.21190959215164185,-0.42286843061447144
1726941129145125000,5.511125,-0.29311177134513855,0.21258656680583954,-0.431493878364563
1726941129155112000,5.52111181640625,-0.5058216452598572,0.10212770104408264,-0.47307088971138
1726941129165098000,5.531097900390625,-0.7306004166603088,-0.07816564291715622,-0.5473741292953491
1726941129175084000,5.541083984375,-0.9710151553153992,-0.37519571185112,-0.658267080783844
1726941129185071000,5.551071044921875,-1.2245723009109497,-0.6457041501998901,-0.79350346326828
1726941129195057200,5.56105712890625,-1.4123438596725464,-0.7739883661270142,-0.8756811618804932
1726941129205043200,5.571043212890625,-1.4097189903259277,-0.8199588060379028,-0.7976018190383911
1726941129215029200,5.581029296875,-1.3120230436325073,-0.8663252592086792,-0.5375776886940002
1726941129225015000,5.59101513671875,-1.1775035858154297,-0.9212952852249146,-0.2127213180065155
1726941129235002400,5.60100244140625,-1.0911455154418945,-0.9091480374336243,0.027955468744039536
1726941129244988200,5.61098828125,-1.0235878229141235,-0.6458402872085571,0.10732965171337128
1726941129254974200,5.62097412109375,-0.9817061424255371,-0.11910295486450195,0.014700649306178093
1726941129264960300,5.630960205078125,-0.8003464937210083,0.2948273718357086,-0.07138895988464355
1726941129274947000,5.640947021484375,-0.5102797746658325,0.49205896258354187,-0.020302874967455864
1726941129284933000,5.65093310546875,-0.25772741436958313,0.5045579671859741,0.08108553290367126
1726941129294919200,5.660919189453125,-0.16983456909656525,0.38479483127593994,0.17767173051834106
1726941129304905200,5.6709052734375,-0.1650584638118744,0.20570255815982819,0.18742342293262482
1726941129314892300,5.680892333984375,-0.16090074181556702,0.19116702675819397,0.05362221598625183
1726941129324878300,5.69087841796875,-0.14443974196910858,0.30769097805023193,-0.13866227865219116
1726941129334864100,5.700864013671875,-0.10519059747457504,0.4008009433746338,-0.25335556268692017
1726941129344850200,5.71085009765625,-0.05289996787905693,0.446698397397995,-0.25975674390792847
1726941129354837200,5.720837158203125,-0.03741368278861046,0.46146562695503235,-0.19989420473575592
1726941129364823000,5.730822998046875,-0.07382149249315262,0.4394708573818207,-0.10329602658748627
1726941129374809300,5.740809326171875,-0.11455001682043076,0.3228693902492523,-0.04933132976293564
1726941129384795100,5.750795166015625,-0.12365589290857315,0.2286960333585739,-0.09495420753955841
1726941129394781200,5.76078125,-0.10884126275777817,0.21277964115142822,-0.21847908198833466
1726941129404768300,5.770768310546875,-0.09026598185300827,0.2358335703611374,-0.3932705819606781
1726941129414754000,5.780754150390625,-0.05547257885336876,0.2235228419303894,-0.5503843426704407
1726941129424740000,5.790739990234375,0.05145067349076271,0.15516774356365204,-0.5993550419807434
1726941129434726100,5.80072607421875,0.1902029663324356,0.06594279408454895,-0.5247857570648193
1726941129444713200,5.810713134765625,0.26622235774993896,0.030524618923664093,-0.3904082179069519
1726941129454699300,5.82069921875,0.18670517206192017,0.01341380923986435,-0.3256441354751587
1726941129464685300,5.830685302734375,0.07279244810342789,-0.03906803950667381,-0.32831501960754395
1726941129474671000,5.840671142578125,0.031094003468751907,-0.011665444821119308,-0.3533881604671478
1726941129484658200,5.850658203125,0.05489307641983032,-0.03280029073357582,-0.3737325668334961
1726941129494644200,5.860644287109375,0.13376711308956146,-0.14110545814037323,-0.3650999367237091
1726941129504630000,5.870630126953125,0.19570878148078918,-0.23058660328388214,-0.32779091596603394
1726941129514616300,5.8806162109375,0.18007522821426392,-0.20010779798030853,-0.2812548279762268
1726941129524603100,5.89060302734375,0.12566524744033813,-0.17941583693027496,-0.2540101706981659
1726941129534589200,5.900589111328125,0.10400309413671494,-0.25713086128234863,-0.29605430364608765
1726941129544575200,5.9105751953125,0.11358674615621567,-0.2640926241874695,-0.3953004479408264
1726941129554561000,5.92056103515625,0.15800002217292786,-0.1834276169538498,-0.478300005197525
1726941129564548400,5.93054833984375,0.18429447710514069,-0.07033488154411316,-0.5266358256340027
1726941129574534100,5.9405341796875,0.2199840247631073,0.032764337956905365,-0.5217809081077576
1726941129584520200,5.950520263671875,0.22947420179843903,0.15141695737838745,-0.47435319423675537
1726941129594506200,5.96050634765625,0.2040972113609314,0.2128550112247467,-0.44100162386894226
1726941129604492300,5.9704921875,0.18790864944458008,0.18485933542251587,-0.471280962228775
1726941129614479400,5.980479248046875,0.24731577932834625,0.11375239491462708,-0.563676655292511
1726941129624465200,5.990465087890625,0.3370746970176697,0.11693673580884933,-0.6925182938575745
1726941129634451200,6.000451171875,0.47603312134742737,0.18702740967273712,-0.8134444355964661
1726941129644437000,6.01043701171875,0.6291755437850952,0.25778335332870483,-0.8875783085823059
1726941129654424000,6.020424072265625,0.6996654272079468,0.3055647015571594,-0.8950415849685669
1726941129664410000,6.03041015625,0.6928232312202454,0.340410053730011,-0.8394677639007568
1726941129674396200,6.040396240234375,0.6321936845779419,0.37205770611763,-0.7702748775482178
1726941129684382200,6.05038232421875,0.5674639344215393,0.3792434632778168,-0.7454627156257629
1726941129694369000,6.060369140625,0.5101082921028137,0.31009766459465027,-0.7659522891044617
1726941129704355300,6.070355224609375,0.4524758458137512,0.20494143664836884,-0.826674222946167
1726941129714341000,6.080341064453125,0.4215136766433716,0.08847926557064056,-0.8209380507469177
1726941129724327200,6.0903271484375,0.4644017517566681,-0.005294364411383867,-0.711378812789917
1726941129734314200,6.100314208984375,0.4768296778202057,-0.08571597188711166,-0.45677846670150757
1726941129744300000,6.110300048828125,0.3615286350250244,-0.08609573543071747,-0.1563027948141098
1726941129754286300,6.120286376953125,0.23039086163043976,-0.034806981682777405,0.09646289050579071
1726941129764272000,6.130272216796875,0.1535424143075943,-0.014668424613773823,0.23654410243034363
1726941129774259200,6.14025927734375,0.03846403583884239,-0.04638906940817833,0.27229517698287964
1726941129784245200,6.150245361328125,-0.1326342076063156,-0.12464872002601624,0.23608656227588654
1726941129794231300,6.160231201171875,-0.30528533458709717,-0.2571553587913513,0.21978642046451569
1726941129804217000,6.170217041015625,-0.39704960584640503,-0.3385902941226959,0.24266430735588074
1726941129814203100,6.180203125,-0.40590915083885193,-0.34789058566093445,0.3043348491191864
1726941129824190200,6.190190185546875,-0.37640851736068726,-0.37006887793540955,0.39502453804016113
1726941129834176300,6.20017626953125,-0.33513590693473816,-0.37561357021331787,0.48448997735977173
1726941129844162300,6.210162353515625,-0.33924436569213867,-0.34181272983551025,0.5264861583709717
1726941129854148000,6.220148193359375,-0.4032590389251709,-0.27940526604652405,0.4895041882991791
1726941129864135200,6.23013525390625,-0.44801080226898193,-0.2677811086177826,0.4087057411670685
1726941129874121200,6.240121337890625,-0.4237275719642639,-0.2584981322288513,0.35298654437065125
1726941129884107000,6.25010693359375,-0.318186491727829,-0.23989009857177734,0.29598212242126465
1726941129894093300,6.26009326171875,-0.16885532438755035,-0.2136310636997223,0.26711371541023254
1726941129904080100,6.270080078125,-0.034820299595594406,-0.1546580195426941,0.2940356135368347
1726941129914066200,6.280066162109375,0.03545892611145973,-0.1566210389137268,0.36108627915382385
1726941129924052200,6.29005224609375,0.010463027283549309,-0.15454483032226562,0.3909453749656677
1726941129934038300,6.300038330078125,-0.07914355397224426,-0.1148509532213211,0.4009668529033661
1726941129944025300,6.310025390625,-0.1733291745185852,-0.08797140419483185,0.3835359513759613
1726941129954011100,6.32001123046875,-0.19505764544010162,-0.10382306575775146,0.36267992854118347
1726941129963997200,6.3299970703125,-0.183841735124588,-0.153691828250885,0.3220001459121704
1726941129973983200,6.339983154296875,-0.15385080873966217,-0.2535960376262665,0.2881673574447632
1726941129983969300,6.34996923828125,-0.09178531169891357,-0.3604055941104889,0.3005760908126831
1726941129993956000,6.3599560546875,-0.004206995479762554,-0.4043509364128113,0.3815627992153168
1726941130003942100,6.369942138671875,-0.015281750820577145,-0.3776887059211731,0.4758469760417938
1726941130013928200,6.37992822265625,-0.07844927161931992,-0.3194717466831207,0.5551252961158752
1726941130023914000,6.3899140625,-0.11994317919015884,-0.3410518765449524,0.6065660715103149
1726941130033901300,6.3999013671875,-0.11754367500543594,-0.3902684152126312,0.6348251700401306
1726941130043887000,6.40988720703125,-0.06816067546606064,-0.4661053717136383,0.603347659111023
1726941130053873400,6.419873291015625,-0.009969010949134827,-0.5303083658218384,0.5347409248352051
1726941130063859200,6.429859130859375,0.04047525301575661,-0.5009722709655762,0.46500763297080994
1726941130073846000,6.439845947265625,0.0752558708190918,-0.4219573736190796,0.4119446873664856
1726941130083832300,6.449832275390625,0.10148774087429047,-0.310674786567688,0.3576023578643799
1726941130093818000,6.459818115234375,0.15639813244342804,-0.22413963079452515,0.3191455006599426
1726941130103804200,6.46980419921875,0.2902113199234009,-0.22534656524658203,0.30724355578422546
1726941130113791200,6.479791259765625,0.4831877052783966,-0.291245698928833,0.307017982006073
1726941130123777000,6.489777099609375,0.6933169960975647,-0.3465198576450348,0.3252798318862915
1726941130133763000,6.49976318359375,0.8749253749847412,-0.35849690437316895,0.35088878870010376
1726941130143749000,6.5097490234375,1.0258057117462158,-0.40594378113746643,0.392114520072937
1726941130153735200,6.519735107421875,1.1886014938354492,-0.4955894947052002,0.4306994676589966
1726941130163722200,6.52972216796875,1.4335534572601318,-0.4002794921398163,0.4529658854007721
1726941130173708300,6.539708251953125,1.518770456314087,-0.051784634590148926,0.4657384157180786
1726941130183694000,6.549694091796875,1.554114818572998,0.32219934463500977,0.45722639560699463
1726941130193680400,6.559680419921875,1.5767788887023926,0.5392631888389587,0.5089561939239502
1726941130203667200,6.569667236328125,1.5498939752578735,0.5310226082801819,0.6407355070114136
1726941130213653000,6.579653076171875,1.3935965299606323,0.5580342411994934,0.7377323508262634
1726941130223639300,6.589639404296875,1.124507188796997,0.7935807108879089,0.7741374969482422
1726941130233625000,6.599625,0.8094659447669983,1.0079220533370972,0.7887188792228699
1726941130243612200,6.609612060546875,0.5043981671333313,0.9459039568901062,0.8023390769958496
1726941130253598200,6.61959814453125,0.20192140340805054,0.5450931191444397,0.8398028016090393
1726941130263584300,6.629584228515625,-0.1648464798927307,0.04873877763748169,0.8616995811462402
1726941130273570000,6.639570068359375,-0.5558520555496216,-0.2945035398006439,0.7884504199028015
1726941130283557000,6.64955712890625,-0.8232688307762146,-0.4690260887145996,0.6621257662773132
1726941130293543200,6.659543212890625,-0.8992323279380798,-0.6380230784416199,0.5457163453102112
1726941130303529200,6.669529296875,-0.8080518245697021,-0.8642650246620178,0.5028911232948303
1726941130313515300,6.679515380859375,-0.6265981197357178,-1.0186692476272583,0.5187163949012756
1726941130323501000,6.6895009765625,-0.43923380970954895,-0.9530553221702576,0.509879469871521
1726941130333488000,6.699488037109375,-0.2692487835884094,-0.7440704107284546,0.37893399596214294
1726941130343474200,6.70947412109375,-0.12276320159435272,-0.42685118317604065,0.20456139743328094
1726941130353460000,6.7194599609375,-0.023433420807123184,-0.00478463526815176,0.016596553847193718
1726941130363446300,6.7294462890625,-0.009980196133255959,0.3732449412345886,-0.16003680229187012
1726941130373433000,6.73943310546875,-0.03994262218475342,0.589677631855011,-0.31862324476242065
1726941130383419100,6.749419189453125,-0.10279002785682678,0.5851358771324158,-0.5247564315795898
1726941130393405200,6.7594052734375,-0.15706418454647064,0.5128989815711975,-0.7488678693771362
1726941130403391200,6.76939111328125,-0.24142806231975555,0.44543951749801636,-0.9437137842178345
1726941130413378300,6.77937841796875,-0.33753541111946106,0.5104829668998718,-1.0491397380828857
1726941130423364000,6.789364013671875,-0.40967699885368347,0.6852100491523743,-1.1027816534042358
1726941130433350100,6.79935009765625,-0.47055020928382874,0.7564248442649841,-1.1225069761276245
1726941130443336200,6.809336181640625,-0.5281743407249451,0.6624181866645813,-1.1331212520599365
1726941130453322200,6.819322265625,-0.5782865285873413,0.47405439615249634,-1.1314677000045776
1726941130463309000,6.82930908203125,-0.6142815351486206,0.44541582465171814,-1.1310144662857056
1726941130473295000,6.839295166015625,-0.5942918658256531,0.5949720144271851,-1.172913908958435
1726941130483281200,6.84928125,-0.5672117471694946,0.6620983481407166,-1.1606191396713257
1726941130493267000,6.859266845703125,-0.5553263425827026,0.6005949974060059,-1.047824501991272
1726941130503254300,6.869254150390625,-0.5494596362113953,0.42143699526786804,-0.9060364365577698
1726941130513240000,6.879239990234375,-0.5581011176109314,0.21543587744235992,-0.7877968549728394
1726941130523226400,6.889226318359375,-0.5542101860046387,-0.0010277138790115714,-0.6789204478263855
1726941130533212200,6.899212158203125,-0.5132417678833008,-0.18815313279628754,-0.5860477685928345
1726941130543199000,6.909198974609375,-0.3875911235809326,-0.3546092212200165,-0.504126787185669
1726941130553185300,6.919185302734375,-0.19565871357917786,-0.5221441388130188,-0.393873006105423
1726941130563171000,6.929171142578125,0.005682120565325022,-0.6250428557395935,-0.29222095012664795
1726941130573157000,6.9391572265625,0.15857578814029694,-0.6083927750587463,-0.22908085584640503
1726941130583143200,6.94914306640625,0.271632581949234,-0.35379961133003235,-0.17105190455913544
1726941130593130000,6.9591298828125,0.36189135909080505,0.0231146402657032,-0.13035427033901215
1726941130603116000,6.969115966796875,0.35781726241111755,0.3575882315635681,-0.06601283699274063
1726941130613102000,6.97910205078125,0.2538567781448364,0.5425854921340942,-0.049373142421245575
1726941130623088000,6.989088134765625,0.12266945838928223,0.4741382896900177,-0.07148456573486328
1726941130633075200,6.9990751953125,0.041782066226005554,0.28717583417892456,-0.06154405325651169
1726941130643061200,7.009061279296875,0.012439358979463577,0.12177037447690964,-0.0469488650560379
1726941130653047000,7.019047119140625,-0.02088530734181404,0.06410974264144897,-0.06536542624235153
1726941130663033300,7.029033447265625,-0.051060788333415985,0.035834964364767075,-0.1208055168390274
1726941130673020200,7.039020263671875,-0.10906550288200378,0.023796675726771355,-0.1896817833185196
1726941130683006000,7.049005859375,-0.15208807587623596,-0.038907453417778015,-0.27291327714920044
1726941130692992300,7.0589921875,-0.15835954248905182,-0.11045034229755402,-0.33597588539123535
1726941130702978000,7.06897802734375,-0.1491689831018448,-0.20003269612789154,-0.35606464743614197
1726941130712964000,7.078964111328125,-0.13712748885154724,-0.2831858992576599,-0.32464784383773804
1726941130722951200,7.088951171875,-0.12760509550571442,-0.324980229139328,-0.25759291648864746
1726941130732937200,7.098937255859375,-0.12536831200122833,-0.3034592270851135,-0.21249735355377197
1726941130742923300,7.10892333984375,-0.18072903156280518,-0.1747521013021469,-0.2395598590373993
1726941130752909000,7.118908935546875,-0.2765953838825226,-0.02989771217107773,-0.33359020948410034
1726941130762896100,7.128896240234375,-0.37035834789276123,0.0887218788266182,-0.5563146471977234
1726941130772882200,7.138882080078125,-0.43453121185302734,0.1934962272644043,-0.8539308905601501
1726941130782868200,7.1488681640625,-0.4567238688468933,0.3560185730457306,-1.1100904941558838
1726941130792854000,7.15885400390625,-0.3948913812637329,0.4814566373825073,-1.1815135478973389
1726941130802841000,7.168841064453125,-0.21243077516555786,0.4862695038318634,-1.0801177024841309
1726941130812827100,7.1788271484375,0.07059241086244583,0.38402703404426575,-0.9256817698478699
1726941130822813000,7.18881298828125,0.3946077525615692,0.2374279946088791,-0.8030024766921997
1726941130832799200,7.19879931640625,0.6476155519485474,0.13081127405166626,-0.666260838508606
1726941130842785000,7.208784912109375,0.6980558037757874,0.08679375052452087,-0.5669012665748596
1726941130852772400,7.2187724609375,0.5560619235038757,0.03941372036933899,-0.5222722291946411
1726941130862758100,7.228758056640625,0.3387735188007355,-0.09926214069128036,-0.4695744216442108
1726941130872744200,7.238744140625,0.0833476185798645,-0.23696008324623108,-0.4394735097885132
1726941130882730200,7.248730224609375,-0.17823871970176697,-0.3338610529899597,-0.38772615790367126
1726941130892717000,7.258717041015625,-0.3690803050994873,-0.4448288679122925,-0.2987659275531769
1726941130902703000,7.268703125,-0.5292785167694092,-0.5451977849006653,-0.1690382957458496
1726941130912689200,7.278689208984375,-0.6065173745155334,-0.5577521920204163,0.02166774496436119
1726941130922675200,7.28867529296875,-0.6012163162231445,-0.48805463314056396,0.2698642313480377
1726941130932662300,7.298662353515625,-0.5825100541114807,-0.3527284860610962,0.5440566539764404
1726941130942648000,7.30864794921875,-0.5696166157722473,-0.18531100451946259,0.8020386695861816
1726941130952634000,7.318634033203125,-0.5666950941085815,-0.04434589296579361,1.0021629333496094
1726941130962620200,7.3286201171875,-0.5744878053665161,0.01570093259215355,1.1002708673477173
1726941130972606200,7.338606201171875,-0.5793728232383728,-0.02039848268032074,1.0968338251113892
1726941130982593000,7.348593017578125,-0.5318683981895447,-0.12294989079236984,1.0288169384002686
1726941130992579300,7.358579345703125,-0.41259661316871643,-0.2541444003582001,0.9425044059753418
1726941131002565000,7.368565185546875,-0.3030394911766052,-0.2956090271472931,0.8208141922950745
1726941131012551200,7.37855126953125,-0.2607727348804474,-0.30738285183906555,0.6953393816947937
1726941131022538200,7.388538330078125,-0.25542590022087097,-0.2880411148071289,0.5895154476165771
1726941131032524000,7.39852392578125,-0.21377460658550262,-0.2825310230255127,0.49877119064331055
1726941131042510000,7.408510009765625,-0.08630505949258804,-0.32115086913108826,0.4281960725784302
1726941131052496100,7.41849609375,0.04764608293771744,-0.297146201133728,0.36514148116111755
1726941131062483200,7.428483154296875,0.15872998535633087,-0.17415128648281097,0.3079304099082947
1726941131072469200,7.43846923828125,0.17520244419574738,-0.07119162380695343,0.22785153985023499
1726941131082455000,7.448455078125,0.1294618546962738,0.028295021504163742,0.1712905317544937
1726941131092441000,7.458441162109375,0.11872052401304245,0.1529594510793686,0.18456558883190155
1726941131102427100,7.46842724609375,0.17277736961841583,0.23930206894874573,0.2012106031179428
1726941131112414200,7.478414306640625,0.22796392440795898,0.1474088877439499,0.23129421472549438
1726941131122400000,7.48839990234375,0.274695485830307,-0.09465247392654419,0.18310751020908356
1726941131132386300,7.49838623046875,0.31976309418678284,-0.3552371859550476,0.09964776039123535
1726941131142372000,7.5083720703125,0.35029250383377075,-0.5444654226303101,0.023746874183416367
1726941131152359200,7.518359130859375,0.4146174192428589,-0.6810693740844727,0.016685236245393753
1726941131162345200,7.52834521484375,0.5221816897392273,-0.7727324366569519,0.1204499825835228
1726941131172331000,7.5383310546875,0.6549330949783325,-0.7914725542068481,0.28028517961502075
1726941131182317300,7.5483173828125,0.8271623849868774,-0.7466667294502258,0.4359631836414337
1726941131192303000,7.55830322265625,1.0252985954284668,-0.6350350379943848,0.5216799378395081
1726941131202290700,7.568290771484375,1.2130403518676758,-0.48206835985183716,0.5333198308944702
1726941131212276700,7.57827685546875,1.3920427560806274,-0.3423498868942261,0.5001115798950195
1726941131222262500,7.588262451171875,1.5075033903121948,-0.3294561803340912,0.5330879092216492
1726941131232248800,7.598248779296875,1.4803487062454224,-0.4139425754547119,0.6374744772911072
1726941131242235600,7.608235595703125,1.3994812965393066,-0.4110051095485687,0.7260363101959229
1726941131252221700,7.6182216796875,1.3182170391082764,-0.33946409821510315,0.7650923728942871
1726941131262207700,7.628207763671875,1.2542146444320679,-0.19214600324630737,0.7437178492546082
1726941131272193800,7.63819384765625,1.2064093351364136,-0.06521202623844147,0.6982238292694092
1726941131282180900,7.648180908203125,1.180148720741272,-0.16780897974967957,0.6955769062042236
1726941131292166700,7.658166748046875,1.1432018280029297,-0.5679877996444702,0.7936006784439087
1726941131302152700,7.668152587890625,1.059273362159729,-1.0546056032180786,0.9639079570770264
1726941131312138800,7.678138671875,0.88630211353302,-1.286922574043274,1.177333950996399
1726941131322124800,7.688124755859375,0.6578758955001831,-1.268335223197937,1.3549848794937134
1726941131332111600,7.698111572265625,0.4234103858470917,-1.2408053874969482,1.3867162466049194
1726941131342097700,7.70809765625,0.14551618695259094,-1.2659528255462646,1.2421526908874512
1726941131352083700,7.718083740234375,-0.14551246166229248,-1.2968941926956177,1.0010857582092285
1726941131362069500,7.728069580078125,-0.4645277261734009,-1.1132903099060059,0.7454051971435547
1726941131372056800,7.738056884765625,-0.7240855097770691,-0.6160032749176025,0.5112446546554565
1726941131382042600,7.748042724609375,-0.84699547290802,-0.1798427402973175,0.2799466848373413
1726941131392029000,7.75802880859375,-0.8659494519233704,-0.09162099659442902,0.1568404734134674
1726941131402014700,7.7680146484375,-0.8162007927894592,-0.17177122831344604,0.13434608280658722
1726941131412000800,7.778000732421875,-0.7506393790245056,-0.04430381581187248,0.100550577044487
1726941131421987800,7.78798779296875,-0.5982453227043152,0.17897747457027435,0.03152916207909584
1726941131431973600,7.7979736328125,-0.366263210773468,0.3885147273540497,-0.0807129517197609
1726941131441959700,7.807959716796875,-0.15819789469242096,0.48751533031463623,-0.22461606562137604
1726941131451945700,7.81794580078125,-0.07650116831064224,0.48251551389694214,-0.33576229214668274
1726941131461932500,7.8279326171875,-0.12005317211151123,0.4750584065914154,-0.4286078214645386
1726941131471918600,7.837918701171875,-0.206986203789711,0.5484793782234192,-0.5627456307411194
1726941131481904600,7.847904541015625,-0.3166924715042114,0.6064483523368835,-0.6479990482330322
1726941131491890700,7.857890625,-0.42558059096336365,0.684568464756012,-0.7114725112915039
1726941131501877800,7.867877685546875,-0.5236712098121643,0.7729809284210205,-0.7708823084831238
1726941131511863800,7.87786376953125,-0.6148136258125305,0.8350527882575989,-0.8400384783744812
1726941131521849600,7.887849609375,-0.6739155650138855,0.8909011483192444,-0.8892606496810913
1726941131531836000,7.8978359375,-0.6839045286178589,0.8594105839729309,-0.8864760398864746
1726941131541821700,7.90782177734375,-0.6508254408836365,0.7596824169158936,-0.8201737403869629
1726941131551808500,7.91780859375,-0.5855316519737244,0.5849769115447998,-0.6671655178070068
1726941131561794800,7.927794921875,-0.49200117588043213,0.4680106043815613,-0.5417839288711548
1726941131571780600,7.937780517578125,-0.3778937757015228,0.44706404209136963,-0.4379211366176605
1726941131581766700,7.9477666015625,-0.3143182396888733,0.47495266795158386,-0.4036148488521576
1726941131591753700,7.957753662109375,-0.3182501494884491,0.4481990933418274,-0.3776993453502655
1726941131601739500,7.967739501953125,-0.29854461550712585,0.43103501200675964,-0.37269315123558044
1726941131611725800,7.977725830078125,-0.24584785103797913,0.40296050906181335,-0.33917275071144104
1726941131621711600,7.987711669921875,-0.15607455372810364,0.36454787850379944,-0.25007614493370056
1726941131631697700,7.99769775390625,-0.11397317051887512,0.3858576714992523,-0.12397707253694534
1726941131641684700,8.007684814453125,-0.17092646658420563,0.4726985692977905,-0.0062360577285289764
1726941131651670800,8.0176708984375,-0.28610286116600037,0.512481153011322,0.05095985159277916
1726941131661656600,8.027656494140626,-0.35520869493484497,0.5178327560424805,0.04652116447687149
1726941131671643000,8.037642822265624,-0.3365849554538727,0.48251497745513916,0.008167382329702377
1726941131681629700,8.047629638671875,-0.2748289108276367,0.42227107286453247,-0.0332314558327198
1726941131691615500,8.057615478515626,-0.22174172103405,0.38449519872665405,-0.04001106694340706
1726941131701601800,8.067601806640624,-0.20467272400856018,0.355358362197876,-0.04801066964864731
1726941131711587600,8.077587646484375,-0.18703140318393707,0.3090513348579407,-0.10451602190732956
1726941131721573600,8.08757373046875,-0.1476893275976181,0.3212541937828064,-0.1939055621623993
1726941131731560700,8.097560791015624,-0.04658907279372215,0.2989875078201294,-0.24434423446655273
1726941131741546800,8.107546630859375,0.06908532977104187,0.15023396909236908,-0.22630397975444794
1726941131751532800,8.11753271484375,0.13129784166812897,0.07026084512472153,-0.1772136688232422
1726941131761518600,8.1275185546875,0.11126767098903656,0.10821355879306793,-0.13568033277988434
1726941131771505700,8.137505615234375,0.06662989407777786,0.19747605919837952,-0.1352853924036026
1726941131781491700,8.14749169921875,0.0648903176188469,0.24680206179618835,-0.18098203837871552
1726941131791477800,8.157477783203126,0.12146038562059402,0.15034662187099457,-0.2531779408454895
1726941131801463600,8.167463623046874,0.15248620510101318,-0.0226251520216465,-0.31081005930900574
1726941131811450600,8.17745068359375,0.10148508101701736,-0.0691726803779602,-0.383491188287735
1726941131821436700,8.187436767578125,0.00558065390214324,0.04892253503203392,-0.4940054714679718
1726941131831422700,8.197422607421874,-0.058575429022312164,0.183224156498909,-0.5814205408096313
1726941131841408800,8.20740869140625,-0.12464126199483871,0.2911871075630188,-0.6560481786727905
1726941131851394600,8.21739453125,-0.25446078181266785,0.4069957137107849,-0.7116336822509766
1726941131861382000,8.2273818359375,-0.42386606335639954,0.48652783036231995,-0.6998465061187744
1726941131871367700,8.23736767578125,-0.5996647477149963,0.5302103161811829,-0.6357514262199402
1726941131881353700,8.247353759765625,-0.7077137231826782,0.48548442125320435,-0.5737903118133545
1726941131891339800,8.25733984375,-0.7075784802436829,0.4186268150806427,-0.5289887189865112
1726941131901326600,8.26732666015625,-0.5861181020736694,0.36395159363746643,-0.5208889842033386
1726941131911312600,8.277312744140625,-0.4686553478240967,0.3114825189113617,-0.4558596611022949
1726941131921298700,8.287298583984375,-0.351961225271225,0.2054722011089325,-0.31503650546073914
1726941131931284700,8.29728466796875,-0.3171193599700928,0.010103766806423664,-0.22809575498104095
1726941131941270500,8.3072705078125,-0.2865864932537079,-0.2231454700231552,-0.2535419762134552
1726941131951257600,8.317257568359375,-0.25015151500701904,-0.4457841217517853,-0.3751680254936218
1726941131961243600,8.32724365234375,-0.20927944779396057,-0.6113384962081909,-0.4902400076389313
1726941131971229700,8.337229736328124,-0.162920743227005,-0.658262312412262,-0.483754962682724
1726941131981215700,8.3472158203125,-0.1423899084329605,-0.5307312607765198,-0.3490365445613861
1726941131991202600,8.35720263671875,-0.18900001049041748,-0.3120684027671814,-0.14796122908592224
1726941132001188900,8.36718896484375,-0.29793769121170044,-0.10255806893110275,0.06359469145536423
1726941132011174700,8.377174560546875,-0.3636423945426941,0.0752691850066185,0.2507166266441345
1726941132021160700,8.38716064453125,-0.335069864988327,0.15590038895606995,0.3571179211139679
1726941132031146800,8.397146728515626,-0.21895551681518555,0.11887764930725098,0.39579927921295166
1726941132041133600,8.407133544921875,-0.1490858942270279,-0.03015284240245819,0.4580860733985901
1726941132051119900,8.417119873046875,-0.1914794147014618,-0.20949970185756683,0.5339667201042175
1726941132061105700,8.427105712890626,-0.256321519613266,-0.4170571565628052,0.6128349304199219
1726941132071091700,8.437091796875,-0.30785077810287476,-0.569274365901947,0.6794576048851013
1726941132081078800,8.447078857421875,-0.3300950825214386,-0.5758824944496155,0.7391068339347839
1726941132091064600,8.457064697265626,-0.34986400604248047,-0.4995986223220825,0.744922399520874
1726941132101050600,8.467050537109374,-0.3735349774360657,-0.39678943157196045,0.6885624527931213
1726941132111036700,8.47703662109375,-0.37894731760025024,-0.30121496319770813,0.5943847894668579
1726941132121022700,8.487022705078125,-0.3131949305534363,-0.20383381843566895,0.5023038983345032
1726941132131009500,8.497009521484374,-0.17430974543094635,-0.1571051925420761,0.4173056185245514
1726941132140995800,8.506995849609375,-0.06123859062790871,-0.18170587718486786,0.3056584596633911
1726941132150981600,8.516981689453125,-0.05982178822159767,-0.16278332471847534,0.2057715356349945
1726941132160967700,8.5269677734375,-0.12972497940063477,-0.08633675426244736,0.14102104306221008
1726941132170954800,8.536954833984375,-0.2108813375234604,0.003689543344080448,0.09318267554044724
1726941132180940500,8.5469404296875,-0.1837722212076187,0.006848851218819618,0.1240532398223877
1726941132190926800,8.5569267578125,-0.06936202943325043,-0.17426954209804535,0.18521806597709656
1726941132200912100,8.566912109375,0.0943901538848877,-0.43939974904060364,0.18317808210849762
1726941132210898400,8.5768984375,0.26510515809059143,-0.7188284397125244,0.16600202023983002
1726941132220885200,8.58688525390625,0.3946375846862793,-0.9100282192230225,0.19114145636558533
1726941132230871300,8.596871337890626,0.5190088152885437,-0.9965983033180237,0.27898797392845154
1726941132240857300,8.606857421875,0.6835543513298035,-1.0113743543624878,0.39492255449295044
1726941132250843400,8.616843505859375,0.9418069124221802,-1.010703444480896,0.47101038694381714
1726941132260830500,8.62683056640625,1.2258200645446777,-0.9664073586463928,0.47660595178604126
1726941132270816300,8.636816162109374,1.4701509475708008,-0.9251171946525574,0.4632398188114166
1726941132280802300,8.64680224609375,1.6686650514602661,-0.9546108841896057,0.44171881675720215
1726941132290788400,8.656788330078125,1.9251930713653564,-1.1653172969818115,0.5487619042396545
1726941132300774400,8.6667744140625,2.0572431087493896,-1.1765395402908325,0.688751220703125
1726941132310761200,8.67676123046875,2.0687665939331055,-0.7312433123588562,0.6955122351646423
1726941132320747300,8.686747314453125,2.030057668685913,-0.151678204536438,0.5964263677597046
1726941132330733300,8.6967333984375,1.9353686571121216,0.22367943823337555,0.5367353558540344
1726941132340719000,8.706718994140624,1.7883297204971313,0.2918685972690582,0.6088460087776184
1726941132350706400,8.71670654296875,1.6416842937469482,0.03744218125939369,0.7811155319213867
1726941132360692200,8.726692138671876,1.4553745985031128,-0.07825645804405212,0.8991079330444336
1726941132370678500,8.736678466796874,1.2093422412872314,0.12645195424556732,0.9921654462814331
1726941132380664300,8.746664306640625,0.9338424801826477,0.28656357526779175,0.9646491408348083
1726941132390650400,8.756650390625,0.6140895485877991,0.20169183611869812,0.808214545249939
1726941132400637400,8.766637451171874,0.20338134467601776,-0.025799905881285667,0.6267757415771484
1726941132410623200,8.776623291015625,-0.24536661803722382,-0.14381016790866852,0.4843869209289551
1726941132420609300,8.786609375,-0.62642502784729,-0.1909414529800415,0.35680684447288513
1726941132430595300,8.79659521484375,-0.8676943778991699,-0.18785539269447327,0.25804218649864197
1726941132440582400,8.80658251953125,-0.9128897786140442,-0.2522021532058716,0.2403753250837326
1726941132450568200,8.816568115234375,-0.7200263142585754,-0.5120060443878174,0.42528924345970154
1726941132460554200,8.82655419921875,-0.490105539560318,-0.5442420244216919,0.6427054405212402
1726941132470540300,8.836540283203124,-0.3394473195075989,-0.23268118500709534,0.6617521047592163
1726941132480526300,8.8465263671875,-0.17104284465312958,0.059358131140470505,0.5147850513458252
1726941132490513400,8.856513427734376,-0.017419736832380295,0.1174938753247261,0.38695651292800903
1726941132500499200,8.866499267578124,-0.009940515272319317,-0.000055660068028373644,0.36533641815185547
1726941132510485500,8.876485595703125,-0.09025053679943085,-0.03747493773698807,0.32791048288345337
1726941132520471300,8.88647119140625,-0.1510409116744995,0.07356130331754684,0.21677225828170776
1726941132530458000,8.8964580078125,-0.17765282094478607,0.16598418354988098,0.015087073668837547
1726941132540444400,8.9064443359375,-0.20829515159130096,0.26523593068122864,-0.2012963593006134
1726941132550430200,8.91643017578125,-0.25671541690826416,0.4094791114330292,-0.4106959104537964
1726941132560416300,8.926416259765626,-0.3727288246154785,0.5430251955986023,-0.5959113240242004
1726941132570402300,8.93640234375,-0.5182561874389648,0.6827998757362366,-0.8221681714057922
1726941132580389400,8.946389404296875,-0.677838146686554,0.863355278968811,-1.0486564636230469
1726941132590375400,8.95637548828125,-0.8374791741371155,1.0286664962768555,-1.2174746990203857
1726941132600361500,8.966361572265624,-0.9615572094917297,1.0244810581207275,-1.3344208002090454
1726941132610347300,8.97634716796875,-1.075709581375122,1.0180481672286987,-1.358365774154663
1726941132620334300,8.986334228515625,-1.1572792530059814,0.9824680685997009,-1.2928930521011353
1726941132630320400,8.9963203125,-1.2140594720840454,1.039033055305481,-1.2047860622406006
1726941132640306200,9.00630615234375,-1.2050918340682983,1.025407075881958,-1.0972628593444824
1726941132650292500,9.01629248046875,-1.0791645050048828,0.9160783886909485,-0.9562767148017883
1726941132660278300,9.0262783203125,-0.9034699201583862,0.8201441764831543,-0.8278835415840149
1726941132670265000,9.03626513671875,-0.6214483976364136,0.8282294869422913,-0.7689054608345032
1726941132680251400,9.04625146484375,-0.2549670338630676,0.8230012059211731,-0.7394775152206421
1726941132690237200,9.0562373046875,0.012006862089037895,0.7664393782615662,-0.6613789796829224
1726941132700223200,9.06622314453125,0.12831269204616547,0.6100788116455078,-0.5287972688674927
1726941132710210300,9.076210205078125,0.11632048338651657,0.4357701241970062,-0.40896061062812805
1726941132720196400,9.0861962890625,0.020022444427013397,0.3140343725681305,-0.331108957529068
1726941132730182400,9.096182373046876,-0.10169200599193573,0.2609999179840088,-0.21904659271240234
1726941132740168400,9.10616845703125,-0.2206551432609558,0.240196093916893,-0.10252077877521515
1726941132750154200,9.116154296875,-0.2735649645328522,0.18720531463623047,-0.0201627928763628
1726941132760141300,9.126141357421876,-0.2514926791191101,0.14489886164665222,0.038770031183958054
1726941132770127400,9.13612744140625,-0.21049891412258148,0.12673477828502655,0.07326436042785645
1726941132780113200,9.146113037109375,-0.19956398010253906,0.10734137147665024,0.10810836404561996
1726941132790099500,9.156099365234375,-0.2589929401874542,0.0801619440317154,0.1188235878944397
1726941132800086300,9.166086181640624,-0.3278135657310486,0.0590854249894619,0.08437053859233856
1726941132810072300,9.176072265625,-0.3214355409145355,0.031886026263237,0.007023821119219065
1726941132820058400,9.186058349609375,-0.23950925469398499,-0.012881177477538586,-0.061940863728523254
1726941132830044200,9.196044189453126,-0.11254492402076721,-0.03645654395222664,-0.06005747616291046
1726941132840030500,9.206030517578125,-0.07748280465602875,-0.052140697836875916,-0.016443155705928802
1726941132850017300,9.216017333984375,-0.16511811316013336,-0.023574834689497948,0.008620119653642178
1726941132860003300,9.22600341796875,-0.24373649060726166,0.023137276992201805,-0.051662396639585495
1726941132869989400,9.2359892578125,-0.202821284532547,0.047817058861255646,-0.10978082567453384
1726941132879975400,9.245975341796875,-0.11167779564857483,0.01531983446329832,-0.16936425864696503
1726941132889962200,9.255962158203126,-0.03440138325095177,-0.08153214305639267,-0.17501762509346008
1726941132899948300,9.2659482421875,-0.08363630622625351,-0.10568594932556152,-0.19352951645851135
1726941132909934300,9.275934326171875,-0.18587985634803772,0.04042971506714821,-0.2790848910808563
1726941132919920000,9.285920166015625,-0.2788923382759094,0.18610994517803192,-0.37773850560188293
1726941132929906400,9.295906494140626,-0.3621289134025574,0.3374035954475403,-0.4640728533267975
1726941132939893200,9.305893310546875,-0.4185434579849243,0.41077980399131775,-0.42570364475250244
1726941132949879300,9.31587939453125,-0.4744322896003723,0.3906095623970032,-0.33528584241867065
1726941132959865300,9.325865234375,-0.519368588924408,0.265803724527359,-0.31351345777511597
1726941132969851100,9.33585107421875,-0.45659682154655457,0.14683204889297485,-0.39799609780311584
1726941132979837400,9.34583740234375,-0.27835705876350403,0.16507869958877563,-0.43544548749923706
1726941132989824300,9.35582421875,-0.02636263146996498,0.17940650880336761,-0.40324467420578003
1726941132999810300,9.365810302734374,0.15852412581443787,0.03904034197330475,-0.37856221199035645
1726941133009796400,9.37579638671875,0.1981050968170166,-0.17293715476989746,-0.35302862524986267
1726941133019782400,9.385782470703125,0.1485830843448639,-0.3699825704097748,-0.32485905289649963
1726941133029769500,9.39576953125,0.08036434650421143,-0.493954062461853,-0.2812005281448364
1726941133039755300,9.40575537109375,0.04387398064136505,-0.4358353614807129,-0.1974068135023117
1726941133049741300,9.4157412109375,0.02786731719970703,-0.24168133735656738,-0.05501771345734596
1726941133059727400,9.425727294921876,-0.06378670036792755,-0.0856403335928917,0.07414107024669647
1726941133069713400,9.43571337890625,-0.17314328253269196,-0.004400873556733131,0.1498320996761322
1726941133079700200,9.4457001953125,-0.20974203944206238,-0.011205516755580902,0.2184782773256302
1726941133089686300,9.455686279296875,-0.1494123935699463,-0.16119448840618134,0.2860104441642761
1726941133099672300,9.46567236328125,-0.04722130671143532,-0.3494967520236969,0.39184021949768066
1726941133109658400,9.475658447265625,-0.07392242550849915,-0.4088447690010071,0.4876902997493744
1726941133119645400,9.4856455078125,-0.1803029328584671,-0.3836275637149811,0.5301371216773987
1726941133129631200,9.49563134765625,-0.2559928894042969,-0.3745134174823761,0.5234903693199158
1726941133139617300,9.5056171875,-0.2519763112068176,-0.3770460784435272,0.5031137466430664
1726941133149603300,9.515603271484375,-0.21041502058506012,-0.36310258507728577,0.47796550393104553
1726941133159589400,9.52558935546875,-0.16628484427928925,-0.30721133947372437,0.4497879445552826
1726941133169576400,9.535576416015624,-0.15811613202095032,-0.23274482786655426,0.4009828269481659
1726941133179562200,9.545562255859375,-0.1840907484292984,-0.1399879902601242,0.32176923751831055
1726941133189548300,9.55554833984375,-0.18724073469638824,-0.029450833797454834,0.2597498297691345
1726941133199534000,9.5655341796875,-0.13971075415611267,0.07341962307691574,0.22473298013210297
1726941133209521400,9.575521484375,-0.09683945775032043,0.13840128481388092,0.17336726188659668
1726941133219507200,9.585507080078125,-0.059253204613924026,0.16522277891635895,0.11164823174476624
1726941133229493500,9.595493408203126,-0.01896543614566326,0.08388344943523407,0.03887442871928215
1726941133239479300,9.605479248046874,0.0804799273610115,-0.08088632673025131,0.029450034722685814
1726941133249465300,9.61546533203125,0.21406036615371704,-0.1757686287164688,0.03792234882712364
1726941133259452400,9.625452392578126,0.324830561876297,-0.23782294988632202,0.04872972145676613
1726941133269438200,9.635438232421874,0.4495442509651184,-0.4062343239784241,0.09823761880397797
1726941133279424300,9.64542431640625,0.5476418137550354,-0.6659297943115234,0.1710050404071808
1726941133289410300,9.655410400390625,0.6691876649856567,-0.9018166661262512,0.26072585582733154
1726941133299397000,9.665397216796874,0.8520682454109192,-1.1246920824050903,0.3707959055900574
1726941133309383400,9.675383544921875,1.1324738264083862,-1.3485267162322998,0.501051664352417
1726941133319369200,9.685369140625,1.4611891508102417,-1.4894676208496094,0.664162814617157
1726941133329355300,9.695355224609376,1.803389072418213,-1.506762981414795,0.7774795293807983
1726941133339341000,9.705341064453124,2.058666467666626,-1.3750278949737549,0.8783472776412964
1726941133349328400,9.715328369140625,2.09226393699646,-1.0565228462219238,0.9023820161819458
1726941133359314200,9.725314208984376,2.055325984954834,-0.6621334552764893,0.8419128060340881
1726941133369300500,9.735300537109374,2.0015482902526855,-0.24984978139400482,0.7724639773368835
1726941133379286300,9.745286376953125,1.8685922622680664,0.126532644033432,0.7793440222740173
1726941133389272300,9.755272216796875,1.6780061721801758,0.17887787520885468,0.8418648838996887
1726941133399259400,9.76525927734375,1.3894659280776978,-0.24276737868785858,0.9431605935096741
1726941133409245200,9.7752451171875,1.032883644104004,-0.6780328154563904,1.041190266609192
1726941133419231200,9.785231201171875,0.6843042969703674,-0.8285935521125793,1.0323176383972168
1726941133429217300,9.79521728515625,0.37838539481163025,-0.8034128546714783,0.9424538016319275
1726941133439204000,9.8052041015625,0.09915987402200699,-0.7197394967079163,0.8554534316062927
1726941133449190400,9.8151904296875,-0.14835751056671143,-0.664380669593811,0.7622398138046265
1726941133459176200,9.82517626953125,-0.36575189232826233,-0.5912342667579651,0.6637702584266663
1726941133469162200,9.835162353515624,-0.5651230216026306,-0.43899041414260864,0.553274393081665
1726941133479148300,9.845148193359375,-0.7324939370155334,-0.1886945515871048,0.4937750995159149
1726941133489135400,9.85513525390625,-0.7926685810089111,0.18911080062389374,0.4271657168865204
1726941133499121200,9.86512109375,-0.792302668094635,0.424465537071228,0.3524656295776367
1726941133509107500,9.875107421875,-0.7949495911598206,0.14662912487983704,0.38602760434150696
1726941133519093200,9.88509326171875,-0.8517358899116516,0.007104780990630388,0.3786199986934662
1726941133529080300,9.895080322265626,-0.8071508407592773,0.055256862193346024,0.2695646286010742
1726941133539066400,9.90506640625,-0.6705203056335449,0.14415158331394196,0.09946427494287491
1726941133549052200,9.91505224609375,-0.5503049492835999,0.1257440745830536,-0.05539907515048981
1726941133559038200,9.9250380859375,-0.4538964033126831,0.08545577526092529,-0.18728573620319366
1726941133569024300,9.935024169921874,-0.3725288212299347,0.049382198601961136,-0.3135821521282196
1726941133579011300,9.94501123046875,-0.3155704736709595,0.049552373588085175,-0.45892417430877686
1726941133588997400,9.954997314453125,-0.2736794948577881,0.10702098906040192,-0.6136109232902527
1726941133598983200,9.964983154296876,-0.26441460847854614,0.22732476890087128,-0.7534436583518982
1726941133608969200,9.97496923828125,-0.2991718053817749,0.35570111870765686,-0.8936042785644531
1726941133618955300,9.984955322265625,-0.3670496344566345,0.4898666441440582,-1.0030231475830078
1726941133628942300,9.9949423828125,-0.4973125755786896,0.699275016784668,-1.0280414819717407
1726941133638928100,10.00492822265625,-0.630617082118988,0.8044935464859009,-0.9971860647201538
1726941133648914400,10.01491455078125,-0.7411694526672363,0.9286767840385437,-0.9407920241355896
1726941133658900200,10.024900146484375,-0.8158319592475891,1.12128484249115,-0.8602803945541382
1726941133668887300,10.03488720703125,-0.8283685445785522,1.313961386680603,-0.7491743564605713
1726941133678873300,10.044873291015625,-0.725732147693634,1.448617696762085,-0.6439393162727356
1726941133688859100,10.054859130859375,-0.5267413258552551,1.3700541257858276,-0.6603693962097168
1726941133698845400,10.064845458984376,-0.3201811909675598,1.1907533407211304,-0.7431185841560364
1726941133708831200,10.074831298828125,-0.12832868099212646,0.9859189987182617,-0.7822732329368591
1726941133718818300,10.084818359375,-0.0028333370573818684,0.7920517921447754,-0.7158433198928833
1726941133728804400,10.094804443359376,-0.01107475534081459,0.7009186744689941,-0.568603515625
1726941133738790400,10.104790283203124,-0.1178443431854248,0.6437627077102661,-0.4191722273826599
1726941133748776200,10.114776123046875,-0.2526836395263672,0.5312468409538269,-0.33410048484802246
1726941133758763300,10.12476318359375,-0.36592286825180054,0.41275879740715027,-0.2900427281856537
1726941133768749300,10.134749267578124,-0.4305098354816437,0.29264652729034424,-0.22661636769771576
1726941133778735000,10.144735107421875,-0.45393553376197815,0.19519905745983124,-0.13794055581092834
1726941133788721400,10.154721435546875,-0.43051624298095703,0.11365705728530884,-0.018223213031888008
1726941133798707200,10.164707275390626,-0.36373400688171387,0.06399549543857574,0.031007450073957443
1726941133808694300,10.1746943359375,-0.2738238275051117,-0.011036938056349754,0.044318996369838715
1726941133818680300,10.184680419921875,-0.16570107638835907,-0.09217173606157303,0.023605726659297943
1726941133828666000,10.194666015625,-0.04218367114663124,-0.07974542677402496,-0.016745690256357193
1726941133838652400,10.20465234375,0.09477391093969345,0.0801805928349495,-0.031627167016267776
1726941133848638200,10.21463818359375,0.21815256774425507,0.2766614258289337,-0.04192694276571274
1726941133858625300,10.224625244140626,0.3332589268684387,0.35210850834846497,-0.08993441611528397
1726941133868611300,10.234611328125,0.3866425156593323,0.39417046308517456,-0.14560860395431519
1726941133878597400,10.244597412109375,0.3511977195739746,0.4073725640773773,-0.2085002064704895
1726941133888583200,10.254583251953125,0.25481072068214417,0.3743690848350525,-0.27137264609336853
1726941133898570200,10.2645703125,0.17764216661453247,0.30480465292930603,-0.3373924195766449
1726941133908556300,10.274556396484375,0.12171338498592377,0.17408524453639984,-0.43323424458503723
1726941133918542300,10.284542236328125,0.058229219168424606,0.10000542551279068,-0.49424034357070923
1726941133928528400,10.2945283203125,-0.03825897350907326,0.10125791281461716,-0.5303434729576111
1726941133938514200,10.30451416015625,-0.18854941427707672,0.22983932495117188,-0.5193827152252197
1726941133948501200,10.314501220703125,-0.33229246735572815,0.35848918557167053,-0.4629812240600586
1726941133958487300,10.3244873046875,-0.4208713173866272,0.4251459538936615,-0.42347031831741333
1726941133968473000,10.33447314453125,-0.45375365018844604,0.46183687448501587,-0.4042172431945801
1726941133978459400,10.34445947265625,-0.4464520514011383,0.4158989489078522,-0.3849372863769531
1726941133988445200,10.354445068359375,-0.414156436920166,0.27750271558761597,-0.38206321001052856
1726941133998432300,10.364432373046874,-0.38526540994644165,0.09022816270589828,-0.3772985637187958
1726941134008418300,10.374418212890625,-0.31813108921051025,-0.12290914356708527,-0.35193273425102234
1726941134018404400,10.384404296875,-0.2299373298883438,-0.2700442671775818,-0.31777289509773254
1726941134028390100,10.39439013671875,-0.12473687529563904,-0.340559184551239,-0.2863377630710602
1726941134038377200,10.404377197265624,-0.01853719912469387,-0.34761229157447815,-0.28624266386032104
1726941134048363300,10.41436328125,0.06605784595012665,-0.3214491307735443,-0.3070491552352905
1726941134058349300,10.424349365234375,0.13200144469738007,-0.2771431803703308,-0.3296564519405365
1726941134068335400,10.43433544921875,0.20271874964237213,-0.16669471561908722,-0.3366195559501648
1726941134078321200,10.444321044921875,0.3222004175186157,-0.019175026565790176,-0.2474212497472763
1726941134088308200,10.45430810546875,0.36089107394218445,0.1433933824300766,-0.09889595210552216
1726941134098294300,10.464294189453126,0.2878781259059906,0.1885824352502823,0.050157178193330765
1726941134108280000,10.474280029296875,0.10631951689720154,0.06880702823400497,0.149118110537529
1726941134118266400,10.484266357421875,-0.0530879870057106,-0.11523497849702835,0.20204471051692963
1726941134128252200,10.494252197265626,-0.09700910747051239,-0.34888502955436707,0.25718334317207336
1726941134138239500,10.504239501953125,-0.09940088540315628,-0.583992063999176,0.31908664107322693
1726941134148225300,10.514225341796875,-0.1370806246995926,-0.7120400667190552,0.3864281475543976
1726941134158211300,10.52421142578125,-0.20189397037029266,-0.7018467783927917,0.43681833148002625
1726941134168197000,10.534197021484376,-0.26091495156288147,-0.6066901683807373,0.47553589940071106
1726941134178184200,10.54418408203125,-0.2648846507072449,-0.4972308278083801,0.4974752962589264
1726941134188170200,10.554170166015625,-0.21312426030635834,-0.4136589467525482,0.5071588158607483
1726941134198155500,10.564155517578126,-0.15918752551078796,-0.31179678440093994,0.44136515259742737
1726941134208141800,10.574141845703124,-0.14645974338054657,-0.1487007886171341,0.35569366812705994
1726941134218127600,10.584127685546875,-0.12125931680202484,0.09745758026838303,0.22471193969249725
1726941134228114700,10.59411474609375,-0.07927271723747253,0.3110279142856598,0.06633374840021133
1726941134238100700,10.604100830078124,0.002122006844729185,0.28216350078582764,-0.03291933238506317
1726941134248086800,10.614086669921875,0.055205464363098145,0.14562751352787018,-0.1017732322216034
1726941134258072600,10.624072509765625,0.1538763791322708,0.05341928079724312,-0.15056660771369934
1726941134268059000,10.634058837890626,0.2551279067993164,-0.08590931445360184,-0.15099404752254486
1726941134278045700,10.644045654296875,0.36077868938446045,-0.156626895070076,-0.0692986473441124
1726941134288031500,10.654031494140625,0.48952603340148926,-0.23942643404006958,0.0557282418012619
1726941134298017800,10.664017822265626,0.6790091395378113,-0.6420987844467163,0.26111680269241333
1726941134308003600,10.674003662109374,0.9306557774543762,-1.083552360534668,0.4418889880180359
1726941134317990700,10.68399072265625,1.2002677917480469,-1.250913143157959,0.4756546914577484
1726941134327976700,10.693976806640626,1.4981085062026978,-1.215266466140747,0.3946916460990906
1726941134337962800,10.703962646484374,1.814074993133545,-1.03865647315979,0.34990209341049194
1726941134347948800,10.71394873046875,2.0753164291381836,-0.8510919213294983,0.40912890434265137
1726941134357934600,10.7239345703125,2.091020345687866,-0.6422601938247681,0.4808369278907776
1726941134367921700,10.733921630859374,1.964532732963562,-0.43528276681900024,0.5064935684204102
1726941134377907700,10.74390771484375,1.8231287002563477,-0.35392212867736816,0.5949743986129761
1726941134387893800,10.753893798828125,1.6428598165512085,-0.2881748080253601,0.7559102773666382
1726941134397879600,10.763879638671876,1.426348090171814,-0.4008907079696655,0.9468797445297241
1726941134407865900,10.773865966796874,1.2243858575820923,-0.5685372352600098,1.079383134841919
1726941134417852700,10.783852783203125,1.008920431137085,-0.572780191898346,1.0997390747070312
1726941134427838700,10.793838623046875,0.7898592352867126,-0.59699547290802,1.0777815580368042
1726941134437824800,10.80382470703125,0.5572608709335327,-0.6633870601654053,0.9655277132987976
1726941134447810600,10.813810546875,0.31278133392333984,-0.7303141355514526,0.7913562059402466
1726941134457798000,10.8237978515625,0.004025368019938469,-0.7649096846580505,0.6299893856048584
1726941134467783700,10.83378369140625,-0.3753184974193573,-0.64765465259552,0.5323451161384583
1726941134477769700,10.843769775390625,-0.7462472915649414,-0.42875003814697266,0.5281516909599304
1726941134487755800,10.853755859375,-1.0581263303756714,-0.28488367795944214,0.5705295205116272
1726941134497741800,10.863741943359376,-1.2224884033203125,-0.2561587989330292,0.6257411241531372
1726941134507728600,10.873728759765624,-1.1808445453643799,-0.25229349732398987,0.7511366009712219
1726941134517714700,10.883714599609375,-1.0052679777145386,-0.16646593809127808,0.8085516691207886
1726941134527700700,10.89370068359375,-0.7745401859283447,0.04505376145243645,0.7298528552055359
1726941134537686500,10.9036865234375,-0.5545412302017212,0.2167602777481079,0.5887516736984253
1726941134547672800,10.9136728515625,-0.35253435373306274,0.24621883034706116,0.3749472498893738
1726941134557659600,10.92365966796875,-0.20885175466537476,0.14424319565296173,0.1032789871096611
1726941134567645700,10.933645751953126,-0.1534886211156845,0.15048271417617798,-0.17715027928352356
1726941134577631700,10.9436318359375,-0.17177708446979523,0.26441115140914917,-0.46960026025772095
1726941134587617500,10.953617431640625,-0.23496697843074799,0.3961324393749237,-0.6764311790466309
1726941134597604900,10.96360498046875,-0.3391879200935364,0.45538297295570374,-0.8311419486999512
1726941134607590700,10.973590576171874,-0.4167175889015198,0.4833136796951294,-0.9393743872642517
1726941134617576700,10.98357666015625,-0.4432719647884369,0.470417320728302,-1.0242376327514648
1726941134627562800,10.993562744140625,-0.45448920130729675,0.4579332172870636,-1.0144721269607544
1726941134637548800,11.003548828125,-0.48545750975608826,0.4550338387489319,-0.9877986907958984
1726941134647535900,11.013535888671875,-0.5268193483352661,0.6077868938446045,-0.9673314690589905
1726941134657521700,11.023521728515625,-0.5746036171913147,0.8271783590316772,-0.974469006061554
1726941134667507700,11.0335078125,-0.616493284702301,0.9738354682922363,-1.002018928527832
1726941134677493500,11.043493408203124,-0.6448375582695007,1.0630254745483398,-0.9707770943641663
1726941134687479800,11.053479736328125,-0.6843650341033936,1.1262156963348389,-0.896018922328949
1726941134697466600,11.063466552734376,-0.6217466592788696,1.1767563819885254,-0.8493121862411499
1726941134707452700,11.07345263671875,-0.5249034762382507,1.2119965553283691,-0.815690815448761
1726941134717438700,11.083438720703125,-0.43779197335243225,1.1565152406692505,-0.7527017593383789
1726941134727424500,11.093424560546875,-0.38327309489250183,1.0397121906280518,-0.6373034715652466
1726941134737411800,11.103411865234374,-0.3729344308376312,0.9166656136512756,-0.5142343044281006
1726941134747397600,11.113397705078125,-0.37536296248435974,0.7705201506614685,-0.42048969864845276
1726941134757383700,11.1233837890625,-0.37406760454177856,0.6196070313453674,-0.34073522686958313
1726941134767369700,11.13336962890625,-0.37006646394729614,0.4739880859851837,-0.26606816053390503
1726941134777355800,11.143355712890624,-0.3749624192714691,0.29520687460899353,-0.19104719161987305
1726941134787342800,11.1533427734375,-0.3727586567401886,0.15684446692466736,-0.12355788797140121
1726941134797328600,11.16332861328125,-0.35846787691116333,0.06871887296438217,-0.08157128840684891
1726941134807314700,11.173314697265624,-0.3191569447517395,0.01062175165861845,-0.0493483729660511
1726941134817300700,11.18330078125,-0.25595080852508545,0.010215353220701218,-0.03280694782733917
1726941134827286800,11.193286865234375,-0.16201473772525787,0.08714262396097183,-0.040888842195272446
1726941134837273600,11.203273681640624,-0.031324900686740875,0.18153730034828186,-0.04538479074835777
1726941134847259600,11.213259765625,0.06833671033382416,0.20753401517868042,-0.09571187943220139
1726941134857245700,11.22324560546875,0.12028220295906067,0.17234860360622406,-0.15441620349884033
1726941134867231500,11.2332314453125,0.1426045447587967,0.09802030771970749,-0.2147703617811203
1726941134877218800,11.24321875,0.11786218732595444,0.06023591011762619,-0.2525409162044525
1726941134887204600,11.25320458984375,0.07796164602041245,0.08509598672389984,-0.26245078444480896
1726941134897191000,11.26319091796875,0.06912127882242203,0.09338853508234024,-0.26324254274368286
1726941134907176700,11.2731767578125,0.08315960317850113,0.07378686964511871,-0.26446279883384705
1726941134917162800,11.283162841796875,0.09012722969055176,0.058642808347940445,-0.26852521300315857
1726941134927149800,11.29314990234375,0.07177059352397919,0.10853127390146255,-0.27377429604530334
1726941134937135600,11.303135498046874,0.054853927344083786,0.15985330939292908,-0.34166064858436584
1726941134947121700,11.31312158203125,0.07024993002414703,0.1935606747865677,-0.46293994784355164
1726941134957107700,11.323107666015625,0.10917308926582336,0.19779910147190094,-0.5380112528800964
1726941134967093800,11.33309375,0.11685364693403244,0.16003361344337463,-0.5315610766410828
1726941134977080600,11.34308056640625,0.08536123484373093,0.13476073741912842,-0.5146476030349731
1726941134987066600,11.353066650390625,0.08944226801395416,0.11929550021886826,-0.499820739030838
1726941134997052700,11.363052734375,0.15363642573356628,0.11075767129659653,-0.45641812682151794
1726941135007038700,11.373038818359374,0.2117346227169037,0.12322472780942917,-0.3602146506309509
1726941135017024800,11.383024658203125,0.24094976484775543,0.12708444893360138,-0.251947820186615
1726941135027011600,11.393011474609375,0.23609216511249542,0.11799827218055725,-0.23559974133968353
1726941135036998000,11.402997802734374,0.22297368943691254,0.08825209736824036,-0.31595876812934875
1726941135046983700,11.412983642578125,0.23623037338256836,0.006915696896612644,-0.3961702287197113
1726941135056969700,11.4229697265625,0.328867644071579,-0.11180110275745392,-0.3635507822036743
1726941135066956800,11.432956787109376,0.3524581789970398,-0.16456684470176697,-0.2431788295507431
1726941135076942600,11.442942626953124,0.21836109459400177,-0.14615720510482788,-0.14434438943862915
1726941135086928600,11.4529287109375,0.0006527407676912844,-0.055576443672180176,-0.08403658121824265
1726941135096914700,11.462914794921875,-0.10392932593822479,-0.028802087530493736,-0.004998220596462488
1726941135106900700,11.472900634765624,-0.018148910254240036,-0.11809521168470383,0.08595006167888641
1726941135116887800,11.4828876953125,0.159486323595047,-0.2416973114013672,0.20707276463508606
1726941135126873900,11.492873779296875,0.23163029551506042,-0.28706321120262146,0.2701111137866974
1726941135136859600,11.502859619140626,0.2030564397573471,-0.2507656514644623,0.2664428651332855
1726941135146845700,11.512845703125,0.1761433333158493,-0.16974829137325287,0.262259304523468
1726941135156831700,11.522831787109375,0.19404883682727814,-0.09686928987503052,0.2677323818206787
1726941135166818600,11.532818603515626,0.1910911351442337,-0.05813068151473999,0.24374821782112122
1726941135176804900,11.542804931640624,0.13354527950286865,-0.10141397267580032,0.16446644067764282
1726941135186790700,11.552790771484375,0.06246950104832649,-0.12397947162389755,0.06280665844678879
1726941135196776700,11.562776611328125,0.018087657168507576,-0.1012192964553833,-0.03159813955426216
1726941135206764500,11.5727646484375,0.0657995194196701,0.006710899528115988,-0.1183234453201294
1726941135216750300,11.582750244140625,0.15429076552391052,0.15357650816440582,-0.16750776767730713
1726941135226736400,11.592736328125,0.1463598757982254,0.11889442801475525,-0.1345495581626892
1726941135236722400,11.602722412109374,0.0923517644405365,-0.0743487998843193,-0.052208077162504196
1726941135246708500,11.61270849609375,0.07787375897169113,-0.27946385741233826,0.019181683659553528
1726941135256695600,11.622695556640625,0.19945958256721497,-0.6779441237449646,0.09060739725828171
1726941135266681300,11.632681396484376,0.4414977729320526,-1.1133049726486206,0.1701432317495346
1726941135276667400,11.64266748046875,0.6764248013496399,-1.3490670919418335,0.2129591405391693
1726941135286653200,11.652653076171875,0.9209170937538147,-1.3853819370269775,0.25072383880615234
1726941135296639500,11.662639404296876,1.2151412963867188,-1.3681467771530151,0.318519651889801
1726941135306626300,11.672626220703124,1.4776413440704346,-1.331622838973999,0.5134870409965515
1726941135316612600,11.682612548828125,1.4664866924285889,-1.2817118167877197,0.6958847641944885
1726941135326598400,11.692598388671875,1.4491939544677734,-1.3598015308380127,0.8103253245353699
1726941135336584400,11.70258447265625,1.4680325984954834,-1.4329031705856323,0.8834980726242065
1726941135346570500,11.712570556640625,1.5111010074615479,-1.3582912683486938,0.9245840311050415
1726941135356557300,11.722557373046875,1.5559697151184082,-1.150504231452942,0.936651349067688
1726941135366543400,11.73254345703125,1.6229101419448853,-1.1756404638290405,0.9107095003128052
1726941135376529400,11.742529296875,1.6026149988174438,-1.0182939767837524,0.9061123132705688
1726941135386515500,11.752515380859375,1.432913064956665,-0.8483534455299377,0.9946067929267883
1726941135396502500,11.76250244140625,1.1337907314300537,-0.9291659593582153,1.0413061380386353
1726941135406488300,11.77248828125,0.6635705232620239,-1.032659888267517,0.9792935848236084
1726941135416474400,11.782474365234375,0.08892534673213959,-1.010703444480896,0.8194597363471985
1726941135426460400,11.79246044921875,-0.5046783685684204,-0.9643700122833252,0.6013053059577942
1726941135436446500,11.802446533203126,-1.0302833318710327,-0.9354584813117981,0.3707895278930664
1726941135446433300,11.812433349609375,-1.470007061958313,-0.9702463150024414,0.2608819305896759
1726941135456419600,11.822419677734375,-1.765264630317688,-0.9564039707183838,0.40033063292503357
1726941135466405400,11.8324052734375,-1.7539809942245483,-0.6776661276817322,0.6264522075653076
1726941135476391400,11.842391357421874,-1.5209845304489136,-0.5412787199020386,0.7678500413894653
1726941135486377500,11.85237744140625,-1.1559677124023438,-0.5577327609062195,0.8954636454582214
1726941135496364300,11.8623642578125,-0.8306114673614502,-0.5168647170066833,0.9903108477592468
1726941135506350600,11.8723505859375,-0.6204193234443665,-0.1722540557384491,0.9407576322555542
1726941135516336400,11.88233642578125,-0.4729483723640442,0.1958608478307724,0.6993921399116516
1726941135526322400,11.892322509765625,-0.3182797133922577,0.28312546014785767,0.3172445297241211
1726941135536308200,11.90230810546875,-0.2615503668785095,0.34059619903564453,-0.11795060336589813
1726941135546295300,11.91229541015625,-0.29876166582107544,0.5024378299713135,-0.5289133787155151
1726941135556281300,11.92228125,-0.3793230950832367,0.6966861486434937,-0.8219037055969238
1726941135566267400,11.932267333984376,-0.412929505109787,0.8340410590171814,-0.9215890169143677
1726941135576253400,11.94225341796875,-0.4359288513660431,0.8748484253883362,-0.9648280739784241
1726941135586240300,11.952240234375,-0.45897582173347473,0.9266982674598694,-0.9798890948295593
1726941135596226600,11.9622265625,-0.5105900168418884,1.0326420068740845,-0.9883115887641907
1726941135606212400,11.97221240234375,-0.5480202436447144,1.1496261358261108,-0.977745771408081
1726941135616198400,11.982198486328125,-0.5330066680908203,1.1813870668411255,-0.9165806770324707
1726941135626184400,11.992184326171875,-0.4815005958080292,1.1238198280334473,-0.8609235286712646
1726941135636171300,12.002171142578124,-0.47294119000434875,1.083186388015747,-0.8920897245407104
1726941135646157600,12.012157470703125,-0.5252081155776978,1.145586371421814,-0.9303827881813049
1726941135656143400,12.022143310546875,-0.5657938718795776,1.2917317152023315,-0.9294725060462952
1726941135666129400,12.03212939453125,-0.5487496852874756,1.4180786609649658,-0.8450886607170105
1726941135676115500,12.042115478515624,-0.44565123319625854,1.3914278745651245,-0.7391707301139832
1726941135686102300,12.052102294921875,-0.3138388991355896,1.1826874017715454,-0.6355577707290649
1726941135696088300,12.06208837890625,-0.22730372846126556,0.9856417775154114,-0.5505209565162659
1726941135706074400,12.072074462890624,-0.1640363335609436,0.8800258636474609,-0.42930155992507935
1726941135716060400,12.082060302734375,-0.12935052812099457,0.8139461874961853,-0.29564550518989563
1726941135726046200,12.092046142578125,-0.11208126693964005,0.7244208455085754,-0.18921174108982086
1726941135736033500,12.102033447265624,-0.08193694055080414,0.49550774693489075,-0.18156632781028748
1726941135746019300,12.112019287109375,-0.07993344962596893,0.23668284714221954,-0.20455260574817657
1726941135756005400,12.12200537109375,-0.08483260124921799,0.0979984700679779,-0.20003162324428558
1726941135765991400,12.131991455078126,-0.1219291016459465,0.05862283334136009,-0.14435477554798126
1726941135775978200,12.141978271484374,-0.1924607902765274,0.033367544412612915,-0.07078549265861511
1726941135785964500,12.151964599609375,-0.2450297325849533,0.03784351795911789,-0.02419641613960266
1726941135795950300,12.161950439453125,-0.2352639138698578,0.07168377190828323,-0.02870568074285984
1726941135805936400,12.171936279296874,-0.20582985877990723,0.11584004759788513,-0.05128209665417671
1726941135815922400,12.18192236328125,-0.18125075101852417,0.16051538288593292,-0.07305290549993515
1726941135825909500,12.191909423828125,-0.1517607718706131,0.15662609040737152,-0.1128956601023674
1726941135835895300,12.201895263671876,-0.12686286866664886,0.07161080092191696,-0.16615967452526093
1726941135845881300,12.21188134765625,-0.11848270148038864,-0.08495643734931946,-0.19420649111270905
1726941135855867400,12.221867431640625,-0.11280643939971924,-0.17430122196674347,-0.19590772688388824
1726941135865853200,12.231853271484376,-0.12284016609191895,-0.13930675387382507,-0.19354389607906342
1726941135875840500,12.241840576171874,-0.14346608519554138,0.0005073322099633515,-0.18794380128383636
1726941135885826300,12.251826416015625,-0.1328352838754654,0.14629197120666504,-0.18086965382099152
1726941135895812600,12.2618125,-0.10617037862539291,0.26243826746940613,-0.22775007784366608
1726941135905798400,12.27179833984375,-0.07234130799770355,0.4561571478843689,-0.3400425314903259
1726941135915785200,12.28178515625,-0.033541448414325714,0.5560826659202576,-0.44778257608413696
1726941135925771500,12.291771484375,-0.018916433677077293,0.4935529828071594,-0.5011799931526184
1726941135935757300,12.30175732421875,-0.04439755901694298,0.36995887756347656,-0.5112201571464539
1726941135945743400,12.311743408203125,-0.0584220290184021,0.18427637219429016,-0.48043638467788696
1726941135955729400,12.3217294921875,-0.054019294679164886,-0.05471171438694,-0.4292336404323578
1726941135965716500,12.331716552734376,-0.052332181483507156,-0.20968718826770782,-0.3462575376033783
