time,seconds_elapsed,z,y,x
1726407169338013000,0.028012939453125,-0.35697920846939085,0.1306742523536086,0.42476402005925773
1726407169348009000,0.038009033203125,-0.5767945103049278,-0.06320639775842428,0.0033357933592051267
1726407169358005000,0.0480048828125,0.04873100542128086,-0.27834698578119277,-0.6352194459404796
1726407169368001000,0.0580009765625,0.19079262096881866,-0.5872299796015024,-1.2725377638563513
1726407169377996800,0.067996826171875,0.3068184625059366,-0.2646589444294572,-1.3016016535162924
1726407169387992800,0.077992919921875,0.3093202161937952,-0.1398912857711315,-1.0479662804696708
1726407169397989000,0.087989013671875,0.47796121110916134,-0.025511165614426134,-0.6866867444578558
1726407169407986000,0.09798583984375,0.41153848165273665,0.2758987158462405,-0.6479284131269901
1726407169417982000,0.10798193359375,-0.2603670924544334,-0.0368038362622261,-0.8692846607942134
1726407169427978000,0.11797802734375,-0.9621037412017583,-0.5242649893835186,-1.2084713882677256
1726407169437974000,0.12797412109375,-1.5878648192495106,-0.8804197297275066,-1.047477327908948
1726407169447969800,0.1379697265625,-2.0867074903458356,-0.9272805573627352,-0.21472440843731164
1726407169457965800,0.1479658203125,-2.225171958184242,-0.31801088764965535,-0.0056642363067716354
1726407169467962000,0.157962158203125,-2.3466426211237907,-0.07104688212573528,-0.4091448645144701
1726407169477959000,0.167958984375,-2.0026924055755138,0.5286205542445183,-0.332498847207427
1726407169487955000,0.177954833984375,-0.30048984400629997,2.0678052214771507,-0.7078201333794742
1726407169497951000,0.187950927734375,1.317460901427269,3.309599764284491,-1.4167239703424275
1726407169507947000,0.197947021484375,2.3721201767295597,3.732637545073032,-1.703201509478688
1726407169517942800,0.20794287109375,2.7163024474680424,1.8250468509495257,-0.9278403101373464
1726407169527939000,0.21793896484375,3.060854720562696,-0.07729016042947769,-0.47200873244553804
1726407169537935000,0.22793505859375,2.6894641249030826,0.3073749273449182,-0.4222240532528609
1726407169547931000,0.237930908203125,2.392213116687536,1.1801222227483987,-1.1079680369678884
1726407169557928200,0.24792822265625,2.1713900991141797,0.6862526638895273,-1.579395389328897
1726407169567924000,0.257924072265625,2.284675117510557,-0.9622598085463047,-1.061908150452003
1726407169577920000,0.267919921875,1.91386904374063,-2.043582634368539,0.31277178141977635
1726407169587915800,0.277915771484375,3.3977363128989935,-0.6615016689926385,0.1731049155216664
1726407169597912000,0.287912109375,3.586133563163876,-0.9591375848725437,0.73629504417032
1726407169607908000,0.297908203125,3.6164579742789265,-2.0311010461971164,4.4526130303442475
1726407169617903900,0.30790380859375,2.068871389403939,0.3240878694757819,2.723938349173963
1726407169627901200,0.317901123046875,0.5143792629241943,2.1040558077707887,-1.1362323737479745
1726407169637897000,0.32789697265625,-0.2405827800542116,1.1523942578673363,-1.896293347300589
1726407169647893000,0.33789306640625,-1.4722528192102908,-0.0715337888598442,-2.7335245081648227
1726407169657888800,0.347888671875,-1.6203613137066364,-0.3066661945536733,-4.922913497567176
1726407169667885000,0.357885009765625,-0.340324426266551,0.4971963651940226,-5.642504367434978
1726407169677881000,0.367881103515625,0.40896249368488785,1.070709077349305,-4.600569841410219
1726407169687876900,0.377876953125,1.082613450154662,2.011826729145646,-3.002816080830991
1726407169697874200,0.387874267578125,0.7353267836600542,3.358780851560831,-1.6153537146776913
1726407169707870000,0.397869873046875,0.5550093794763088,4.517866131499409,-0.5660273248359561
1726407169717866000,0.407865966796875,0.41407589117586613,5.0669145567446945,0.12795447200089693
1726407169727861800,0.41786181640625,0.7383002465128898,5.702503785845637,0.3551484859108925
1726407169737858000,0.427858154296875,1.385850547042489,6.725251673102378,0.5669383022010326
1726407169747854000,0.43785400390625,1.5041729750841855,7.649028313997388,1.0483213044524191
1726407169757849900,0.447849853515625,1.4090946445077657,8.61310072492361,1.5924638374775648
1726407169767847200,0.45784716796875,1.1576195913001894,9.758763628709316,1.9968466021567581
1726407169777843000,0.467843017578125,0.5397019202291965,10.621443119084834,2.5338988846600055
1726407169787839000,0.4778388671875,-0.22847543202266096,12.092764210402965,3.6732904530912633
1726407169797834800,0.487834716796875,-0.5662006355762481,13.91452955546379,4.041034801203012
1726407169807831000,0.4978310546875,0.908753843808174,14.85395092473626,4.196101444274187
1726407169817827000,0.5078271484375,4.9158583183586595,15.257399623435735,4.940252170380949
1726407169827822800,0.51782275390625,5.838278283947706,15.179868639987706,3.2704607630729674
1726407169837820200,0.527820068359375,3.8691818585038185,15.033212097865341,1.1820435461997985
1726407169847816000,0.53781591796875,1.4383376901268958,16.487947965085507,-0.6783434982001781
1726407169857812000,0.54781201171875,-1.8626099811464547,18.43439416730404,-1.6944003633856772
1726407169867807700,0.557807861328125,-3.925578283986449,18.535099105590582,-4.556908102077245
1726407169877804000,0.567803955078125,-3.8458202721387145,16.282327192819118,-8.813073846691847
1726407169887800000,0.577800048828125,-4.962610717183352,13.962923291754722,-11.149785440909861
1726407169897795800,0.5877958984375,-6.522438359472155,12.271821969914436,-11.147667133581638
1726407169907793200,0.597793212890625,-5.8055736996978515,10.205337183386087,-10.237208823943137
1726407169917789000,0.607788818359375,-4.755297754046321,9.651382865920663,-8.956563449215889
1726407169927785000,0.617784912109375,-6.143600954937934,10.29108654460311,-8.644415900641679
1726407169937780700,0.62778076171875,-9.577842413413524,9.75679554350674,-11.493542764234542
1726407169947777000,0.637777099609375,-13.086640807962416,9.299019042292237,-15.009093555653095
1726407169957773000,0.64777294921875,-14.28921042484045,8.831416728112101,-17.4179597009778
1726407169967768800,0.657768798828125,-13.377891698980331,7.804777094113827,-19.21368342680931
1726407169977765000,0.66776513671875,-11.734456968200206,7.44562580230236,-21.341029801535605
1726407169987762000,0.677761962890625,-10.632518639850616,6.570445726794004,-24.51402738472223
1726407169997758000,0.687758056640625,-8.360235970923304,4.682829899206757,-28.458813642525673
1726407170007753700,0.697753662109375,-5.437474546799064,2.8696131867825985,-31.663630259299275
1726407170017750000,0.70775,-3.47773280967772,1.40897481752038,-33.488986906850336
1726407170027746000,0.71774609375,-1.2111048055112361,-0.422416434019804,-35.29797226531505
1726407170037741800,0.727741943359375,2.026691120800376,-2.6607261061966416,-35.776375374972815
1726407170047738000,0.737738037109375,4.673621341356635,-4.3219227036386725,-33.89668391064405
1726407170057735000,0.74773486328125,8.064117181608081,-3.5275866816490886,-32.063307622766494
1726407170067732000,0.75773193359375,12.192211257582903,-3.3435277528494596,-29.21727287997007
1726407170077728000,0.76772802734375,14.553332485914229,-3.375509283521771,-25.113022036397457
1726407170087724300,0.777724365234375,15.624503920078277,-2.7405039917886254,-20.9474501704216
1726407170097720000,0.787719970703125,15.730224056178331,-1.5487597203075885,-18.335155209916827
1726407170107716000,0.797716064453125,15.594756432068348,-0.4722556929439306,-16.41091499428749
1726407170117712100,0.807712158203125,15.302931540554761,0.8305553363621234,-14.014728297793864
1726407170127709200,0.817709228515625,14.682090967774391,2.019654061770439,-10.956565885055065
1726407170137705000,0.827705078125,13.70283443171978,2.926713961142301,-8.55502496805191
1726407170147701000,0.837700927734375,13.211446752804518,4.137504878398776,-5.549955847597122
1726407170157697300,0.847697265625,12.49568683940172,4.947945647493005,-2.6285566517367958
1726407170167693000,0.857693115234375,10.500835210454463,5.475385467520356,-0.56413157421723
1726407170177689000,0.867689208984375,8.454304832196236,5.936392621219158,2.179606723317504
1726407170187685000,0.87768505859375,5.52879147901535,6.510172167617082,3.8630741892784832
1726407170197682200,0.88768212890625,2.6369384033739567,6.934033539748191,4.001409770040214
1726407170207678000,0.897677978515625,2.6917975362867117,5.863318617179989,2.3335715426266193
1726407170217674000,0.907674072265625,2.9866812308490274,5.479733141335845,5.223317416855693
1726407170227670300,0.917670166015625,3.757742760235071,6.490118390625715,6.726691935038566
1726407170237666000,0.927666015625,3.7656478342711925,7.131489125737548,7.38466016920805
1726407170247662000,0.937662109375,1.3976432761669157,6.412600266659259,8.02174577434659
1726407170257658000,0.947658203125,-0.9042413348197936,5.913482870274782,8.177049733304976
1726407170267655200,0.9576552734375,-2.9943630175232885,5.711778979191184,8.522321552845835
1726407170277651000,0.96765087890625,-3.7277579563379284,4.3249750769466155,7.056265250188112
1726407170287647000,0.97764697265625,-3.3772616801470514,2.2660534191489217,4.557971931916475
1726407170297643300,0.987643310546875,-1.170973870652914,0.8764753760159015,1.8684341572552918
1726407170307639000,0.99763916015625,0.6740700586646795,1.778290360471606,0.36471710924506184
1726407170317635000,1.007635009765625,1.3198019115954638,3.196226483082771,-0.09749299050271511
1726407170327631000,1.017631103515625,1.8327789065062998,2.9475819771260023,-0.6787947490990162
1726407170337628200,1.027628173828125,1.2515627803668379,1.562736807733774,-1.5064619628041982
1726407170347624000,1.0376240234375,0.09393091410696507,1.3155477612823248,-2.636171510654688
1726407170357620000,1.047619873046875,0.5361082796514034,2.072672535252571,-2.2342986829698086
1726407170367616300,1.0576162109375,1.8127026254221796,2.7665800978094337,-1.6946826874583958
1726407170377612000,1.067612060546875,2.5091990354284643,2.5597943734169006,-1.2170008778125048
1726407170387608000,1.077608154296875,2.6209803712636233,1.7536597770839928,-0.9191653477072715
1726407170397604000,1.08760400390625,3.077943218007684,1.2981184875756502,-1.033459250885248
1726407170407601200,1.09760107421875,1.547484878066182,1.8888398164242506,-1.057124204111099
1726407170417597000,1.107596923828125,0.3888400353714824,1.9614660766959189,-1.2914134369790553
1726407170427593000,1.117593017578125,1.076270803129673,1.6226508859485387,-1.5481436342358588
1726407170437589200,1.12758935546875,1.3141080838680266,1.6749679331630467,-1.099635312104225
1726407170447585000,1.1375849609375,1.5382114382863044,1.451248609626293,-0.43242227972745895
1726407170457581000,1.1475810546875,1.662791173157096,1.0314777216792106,-0.4932651632249355
1726407170467577000,1.1575771484375,1.4415446694746612,0.21702596337795257,-1.162814529594779
1726407170477573000,1.167572998046875,1.0540516647979616,-0.38238019170761106,-1.104702532365918
1726407170487570000,1.17756982421875,1.8479028258800505,-1.0023054032087326,-1.5653081195265053
1726407170497566000,1.18756591796875,2.736554961901903,-1.308952600800991,-2.3866420385569334
1726407170507562200,1.197562255859375,0.0510819524616003,-0.4902887777626514,-2.1163719762474296
1726407170517558000,1.20755810546875,-2.092201411587,-0.37823593150973317,-1.2325754635632038
1726407170527554000,1.217553955078125,-2.3100603186577557,-1.39286130258739,-1.1254898843288421
1726407170537550300,1.22755029296875,3.066424337388575,-3.477044827413559,-3.254319191089272
1726407170547546000,1.237546142578125,4.406917447096109,-4.745872338575125,-4.622378060853481
1726407170557543000,1.24754296875,2.3815336095020174,-4.4499896961033345,-3.967494933217764
1726407170567539000,1.2575390625,-2.629652922540903,-1.9201509004890918,-2.4593875412940975
1726407170577535200,1.26753515625,-2.9426369219392536,-1.8658166682332753,-3.9768706643283367
1726407170587531000,1.277531005859375,-1.4002607651889323,-2.5251462538838383,-4.378416159754991
1726407170597527000,1.287527099609375,-2.122421193283796,-2.2253929074585437,-1.3070382916122674
1726407170607523300,1.2975234375,-4.206908669492602,-2.5169419046401975,2.784661113423109
1726407170617519000,1.30751904296875,-4.444754133537411,-1.5476982285559175,4.24495870642364
1726407170627516000,1.317515869140625,-3.3289483156159516,-0.8034563170343637,6.275470846816897
1726407170637512200,1.32751220703125,-2.634065770547092,-2.0168401733934878,7.307379361128807
1726407170647508200,1.33750830078125,-0.6211541687741875,-3.3975720622479915,6.350794675609469
1726407170657504000,1.34750390625,1.9529320571064948,-3.3885698406249283,5.261056488141417
1726407170667500000,1.3575,2.767181863094866,-2.6526100197583435,4.863590955504775
1726407170677496300,1.367496337890625,-0.009604571430385112,-1.6239555388063192,4.5430338905036445
1726407170687492000,1.3774921875,-1.4693462841138243,-2.8021611142784355,3.4343238760620354
1726407170697489000,1.387489013671875,-1.1247861199736595,-4.143099921926856,2.984280014926195
1726407170707485200,1.397485107421875,-0.42787236133813855,-3.5744355265855785,0.6894973448991775
1726407170717481200,1.407481201171875,1.667039185990393,-3.5041795025765894,-1.2680226245194672
1726407170727477000,1.41747705078125,2.691345993126929,-2.9120640890210865,-1.7083984935998915
1726407170737473000,1.42747314453125,2.759880600170791,-0.35748365086019035,-2.6188398521035907
1726407170747469300,1.43746923828125,2.966924390977621,2.3619898278594014,0.2161445043683052
1726407170757465000,1.447465087890625,-2.4152999777644872,5.1397430615901945,-3.7958231923043724
1726407170767462000,1.4574619140625,-3.82195599694848,4.3420261649906635,-2.7259306920349595
1726407170777458200,1.467458251953125,-3.775366679731011,1.7086930926322936,-1.4159890801966188
1726407170787454200,1.4774541015625,-1.2090971189506352,1.1689479177832602,-2.883511948275566
1726407170797450000,1.487449951171875,1.7205214775919913,0.7497434315472841,-1.9904373196363447
1726407170807446000,1.497446044921875,3.5657401789546013,1.0797685821175576,0.7049076799988746
1726407170817442300,1.5074423828125,3.6276334482878445,2.2123159837424753,1.2544541178941726
1726407170827438000,1.51743798828125,2.7377386187285184,3.089132720541954,0.3863713071703911
1726407170837435000,1.527434814453125,0.8001672854263335,2.7170488819211718,-1.091740759462118
1726407170847431200,1.53743115234375,-0.2131499987274408,1.5521142914325,-2.334219192880392
1726407170857427200,1.54742724609375,-1.510944076654315,0.4244558308929205,-3.22508023712337
1726407170867423000,1.557423095703125,-1.9056582647562026,-0.8636421979278326,-2.445180152243376
1726407170877419000,1.5674189453125,-2.3765853394448757,-2.5383617092877624,0.6394529187917709
1726407170887415300,1.577415283203125,-3.310922537320852,-2.4450065492421387,1.5384791493117809
1726407170897411000,1.5874111328125,-3.707409580314159,-2.1649229489266872,1.5038596713513135
1726407170907408000,1.597407958984375,-3.530044596195221,-2.4624907680064436,1.0262462507665158
1726407170917404200,1.607404052734375,-2.12095389721021,-3.7789877928376194,0.4868693247079849
1726407170927400200,1.617400146484375,0.6193699157059193,-3.2246506135344504,-1.0439718770712614
1726407170937396000,1.62739599609375,0.767951580671966,-2.0908529195874928,-1.6837041973263025
1726407170947392000,1.63739208984375,-0.3062614131450653,-1.2425187654286622,-1.0899626438736916
1726407170957388300,1.64738818359375,-1.0096215714409946,-0.8172124551862477,-1.7667136121854186
1726407170967384000,1.657384033203125,-2.04592042966634,-0.2618015091717243,-2.438556642450392
1726407170977380000,1.667380126953125,0.13254706048816442,-0.4012193322122097,-2.0524685361355544
1726407170987377200,1.677377197265625,2.326656648671627,-2.286113041359186,-3.5123213079780338
1726407170997373200,1.687373291015625,1.444340729933977,-3.6118355751752853,-2.370019697318971
1726407171007369000,1.697368896484375,-0.9514014376625418,-1.9051245962709187,1.1141280939675866
1726407171017365000,1.707364990234375,-1.2785541015364228,-0.02243570369184017,1.2333379723682998
1726407171027361300,1.717361328125,-1.8294753349162638,0.6264280175238848,0.6701449211101979
1726407171037357000,1.727357177734375,0.016559212873876093,0.660232671970129,-0.23380656391754745
1726407171047353000,1.73735302734375,1.0557799498952924,1.7919734333872794,0.21930554394880308
1726407171057350100,1.74735009765625,-2.0839314497612413,3.215560713627934,0.9307360315788537
1726407171067346200,1.75734619140625,-2.6828619501590727,6.01395399980545,1.662024572698772
1726407171077342000,1.767342041015625,-4.458665169990063,6.687021018907427,1.6948443077608941
1726407171087338200,1.777338134765625,-4.294386461937427,5.772973160344362,-0.5588039859862998
1726407171097334300,1.787334228515625,-3.34410467595458,3.6867590064734217,-2.554161628226936
1726407171107330000,1.797330078125,-2.014638863956928,0.18490765458345412,-4.587368706792593
1726407171117326000,1.807326171875,-0.8984265110611915,-0.961020622140169,-4.277829294890165
1726407171127323100,1.8173232421875,-0.379482132178545,0.07777648264169693,-2.3166356053948403
1726407171137319200,1.827319091796875,-0.3227742295939475,1.3028338256597518,-0.7269516078941524
1726407171147315000,1.83731494140625,0.1989993083000183,1.352444536525011,-0.18646003512460738
1726407171157311200,1.847311279296875,1.1000328600544482,0.8675614171981811,-0.07123617588644847
1726407171167307300,1.857307373046875,1.3533423621475695,1.848362844607234,0.7925023768216372
1726407171177303000,1.867302978515625,2.033794815325737,3.7890117587238548,1.4987733079977332
1726407171187299000,1.877299072265625,2.790672336536646,4.17151528455019,0.345342437091656
1726407171197296000,1.887296142578125,1.8450315082274376,3.230362561440468,-1.3598603657394648
1726407171207292200,1.897292236328125,0.22786299921274183,1.9564140540033579,-1.1281205981586129
1726407171217288000,1.907287841796875,-0.5278257506050169,1.4231272615134716,0.034552038747444745
1726407171227284200,1.9172841796875,-0.3291081818558276,0.39954233891069885,0.5405405630104243
1726407171237280300,1.9272802734375,0.4301100572623312,-0.2543032623708248,1.5880013051107524
1726407171247276000,1.937276123046875,1.586613504014164,-0.6525310115516185,2.9423452455163
1726407171257272000,1.94727197265625,1.403817142496258,-1.7211106756567953,3.0217542977958916
1726407171267268000,1.95726806640625,0.28721418284773825,-2.3925872106969357,2.8460946562901137
1726407171277265200,1.96726513671875,-0.2404525778032839,-2.180799732494354,2.6687664970502256
1726407171287261000,1.977260986328125,-0.8496436293222009,-0.6646551645874976,1.664131774111092
1726407171297257200,1.98725732421875,-1.575066420213878,-0.06824176157712936,0.18293416255339978
1726407171307253200,1.997253173828125,-0.9962833664402365,-0.028757892450690267,-0.39640900932103396
1726407171317249000,2.0072490234375,0.07062427279949188,0.4538777402102947,-1.0398653185352682
1726407171327245000,2.0172451171875,-1.6047303215935826,0.31866379860043526,-2.412510054785013
1726407171337241000,2.027240966796875,-1.517655849252641,0.136335639116168,-1.1723451590061187
1726407171347238100,2.037238037109375,0.41650311832278963,-0.14216039974689482,2.2864443191401658
1726407171357234000,2.04723388671875,-1.367062552203238,-2.3834236610323187,0.8143306161396205
1726407171367230200,2.057230224609375,-0.22804653908610342,-5.083325008797646,-2.1127945561520756
1726407171377226200,2.067226318359375,-0.1992842627212405,-4.210397680652141,-0.9606000586405395
1726407171387222000,2.077221923828125,-1.130085103164613,-3.070368398839235,1.4398898880049587
1726407171397218000,2.087218017578125,0.6722837597697973,-1.6760428689181803,5.248570516055822
1726407171407214000,2.097214111328125,1.5683011638626456,-1.3023287987470626,5.900488948667049
1726407171417211100,2.107211181640625,2.5630063212007284,-0.8267968606114388,4.990999776321649
1726407171427207000,2.11720703125,4.024121075803041,0.9129027801811694,3.771851365086436
1726407171437203200,2.127203125,3.4045328411713243,1.5656506493538618,0.3375651906862855
1726407171447199200,2.13719921875,0.0021758827343583108,-0.008007949888706206,-5.029909060430526
1726407171457195000,2.147195068359375,-3.862056244407594,-3.443027991521358,-10.122061518806218
1726407171467191000,2.15719091796875,-3.7178880119696256,-5.4753159094154835,-10.180708938086033
1726407171477187000,2.16718701171875,-1.0389397281229495,-3.8866011953383683,-5.410504122287034
1726407171487184100,2.17718408203125,0.3713014560714364,-0.43112756374180317,0.24642989864721893
1726407171497180000,2.187179931640625,-2.048584534309059,-0.029023849910497664,2.795328637909889
1726407171507176200,2.19717626953125,-3.787259946620464,2.062127175840735,3.6234494406014677
1726407171517172200,2.207172119140625,-1.4583615103714167,5.831776646968722,1.4592546598188578
1726407171527168000,2.21716796875,0.5100353885009885,6.17633944145739,-2.4317674207016826
1726407171537164300,2.227164306640625,1.0521883551441131,8.337325635457038,-0.8640177532419562
1726407171547160000,2.23716015625,4.363436032766104,7.979827956071496,-0.9796545954614877
1726407171557157000,2.2471572265625,3.9679391698539255,5.100902166542411,0.20523469555824994
1726407171567153000,2.25715283203125,0.19133271919488906,3.669817224022746,-0.15525661268532276
1726407171577149200,2.267149169921875,-2.403763269227743,3.650558981323242,-1.5463647879950702
1726407171587145200,2.277145263671875,-2.924530187362432,5.707742271021008,-0.5137156113836914
1726407171597141000,2.28714111328125,-2.3444085784614086,7.095441076278686,-0.40110772506389764
1726407171607137300,2.29713720703125,-0.2635200765926391,5.686489639633893,-1.8343106461182235
1726407171617133000,2.307133056640625,2.9163702617824074,5.803123968458175,-1.1183991954155266
1726407171627130000,2.317130126953125,6.476841560423374,4.420467833542824,1.2337287252515554
1726407171637126100,2.327126220703125,9.322190074521302,2.9638123964369294,5.732008112749457
1726407171647122200,2.3371220703125,8.558831374597549,1.984252493521571,6.631750967106223
1726407171657118200,2.3471181640625,6.191015032541752,0.6933043359667063,4.009625225199759
1726407171667114000,2.357114013671875,2.247147643148899,-2.2864275141358372,0.7818450814679264
1726407171677110300,2.3671103515625,-1.7071334421001374,-6.533887974247336,2.5237270347356793
1726407171687106000,2.37710595703125,-4.146348110067844,-7.737932924374937,2.5494693787574767
1726407171697103000,2.38710302734375,-3.7175603874504564,-6.728495185068249,-0.13782090923786164
1726407171707099100,2.39709912109375,-2.7068016286730763,-7.587253118085861,4.307746001987159
1726407171717095200,2.40709521484375,-3.071066317975521,-9.32409620040357,3.405230468046665
1726407171727091200,2.41709130859375,-3.905186068820953,-8.71431185916662,1.0352414581269025
1726407171737087000,2.4270869140625,-5.004516260498762,-6.425287898796796,1.7271633998245
1726407171747083300,2.437083251953125,-7.33713970862031,-4.104087761965394,0.609120324370265
1726407171757079000,2.4470791015625,-8.925257625848054,-2.241722110968828,-2.4728815213784574
1726407171767076000,2.457076171875,-7.841308543175458,-0.6011264030069112,-4.638470240737497
1726407171777072000,2.467072021484375,-7.407995452088117,0.5192407314807176,-4.775128828197717
1726407171787068200,2.477068115234375,-7.873438542407751,-0.14904197595417498,-4.649288571871817
1726407171797064200,2.487064208984375,-7.51726129797101,-1.290425594985485,-3.9944875695616004
1726407171807060000,2.49706005859375,-5.517692577373981,-0.5442986003696918,-3.0907784419223665
1726407171817056300,2.50705615234375,-2.4437749616205693,1.0377823747813701,-1.8362746396675704
1726407171827052000,2.517052001953125,-0.3953320277392864,2.2786656479626894,-1.3672294332027435
1726407171837049000,2.527049072265625,-0.36538821343965827,2.565777539479732,-0.9507163780078292
1726407171847045000,2.537045166015625,1.593735172587633,3.507375083747506,-0.05188859266936779
1726407171857041200,2.547041259765625,4.648405651557446,5.002003400894999,0.1395218679368496
1726407171867037200,2.557037109375,5.237597871142626,5.432170595172047,0.5466454557567835
1726407171877033000,2.567032958984375,5.717798970133066,5.159322791329026,1.489145794083178
1726407171887029200,2.577029296875,6.107452952235937,3.0532021599829196,1.7311013237953186
1726407171897025000,2.58702490234375,4.742171730491519,2.1335358770161865,3.3719501297354695
1726407171907022000,2.59702197265625,2.935129907310009,3.3243215325981375,4.8637370859771965
1726407171917018000,2.60701806640625,3.1751024465113877,6.363897318288683,4.101744121448696
1726407171927014100,2.61701416015625,2.6188158867061135,8.40651373797357,1.8742158093966543
1726407171937010200,2.62701025390625,0.8480980073153972,8.137811947894097,0.8549255152478814
1726407171947006000,2.637005859375,1.113179268810153,5.880762503933906,0.6439423391655087
1726407171957002200,2.647002197265625,2.1301941653728482,4.585438615512848,0.7201223463959991
1726407171966998000,2.656998046875,2.1255051307737824,1.6067857928186655,3.239246709641814
1726407171976995000,2.6669951171875,1.7028315071225166,0.050177112576365465,4.75922603340596
1726407171986991000,2.6769912109375,2.389181201645732,-1.0987433317005633,1.7808512970007955
1726407171996987100,2.686987060546875,0.5355705195128917,-3.837382114139199,-2.8280460816413164
1726407172006983200,2.696983154296875,-1.0942811646599322,-5.439470689052343,-2.963336011096835
1726407172016979000,2.70697900390625,-3.9745249779850242,-5.919219368100166,-1.0564645711585878
1726407172026975200,2.716975341796875,-4.719250289109349,-5.882473984026909,-0.2905648084498942
1726407172036971000,2.726970947265625,-3.7801422235697504,-6.926859118074178,-0.8954850507818162
1726407172046968000,2.736968017578125,-2.3976842415750026,-8.554190855315326,-1.23723074202314
1726407172056964000,2.746964111328125,-0.7447551217406988,-9.514732754027843,-0.7848116761885583
1726407172066960000,2.7569599609375,-2.3018606455892323,-8.158342694747448,1.5454768992446362
1726407172076956000,2.766955810546875,-2.8990333425343033,-5.57114593514204,4.279854955498874
1726407172086951700,2.77695166015625,-0.8597627261459827,-2.6773306195169684,4.572877532364428
1726407172096948000,2.786947998046875,0.2606558462679386,-2.2279338241130113,1.8796233675286174
1726407172106943700,2.79694384765625,-0.0743758804179728,-3.0356746865987776,-0.9334728361316025
1726407172116940800,2.80694091796875,-1.1819956884700804,-4.75643581816554,-3.1551974303409454
1726407172126936800,2.816936767578125,-1.7008276199541985,-7.204509938284755,-3.9333231990247963
1726407172136932900,2.826932861328125,-1.6243265640757978,-7.9159981657177205,-3.30589038837254
1726407172146929000,2.836928955078125,0.33784327697530386,-6.21192454957962,-1.5014282064206896
1726407172156924700,2.846924560546875,3.419387588214874,-1.7496487878769635,3.419930024528503
1726407172166921000,2.8569208984375,6.28781185747385,1.0719359887957571,6.330916255185008
1726407172176916700,2.866916748046875,9.106405635637044,3.047220162963867,3.516925586903095
1726407172186913800,2.876913818359375,10.585770917201042,0.3698813601404428,0.8437854048132896
1726407172196909800,2.886909912109375,9.177903184139728,-1.9631471616506575,-5.3883168403983115
1726407172206905900,2.89690576171875,2.9099677012637257,-1.480570565700531,-3.7447020768761634
1726407172216902000,2.90690185546875,-0.3207049490392208,3.1452661111742257,-1.471758605952561
1726407172226898000,2.91689794921875,-1.2498308420076965,5.550303638121485,-1.4445751232117414
1726407172236894000,2.92689404296875,0.5137243061468005,6.89794924993217,-0.6298331497922539
1726407172246889700,2.9368896484375,1.7472095780313015,6.230483119577169,-1.1836748006634414
1726407172256887000,2.946886962890625,2.1102289434477686,5.766805869886279,0.48503801762759685
1726407172266882800,2.9568828125,2.4860440775513646,6.537550588408112,3.0753286515951155
1726407172276878800,2.96687890625,2.354111641830206,6.333303442582488,1.5308124140761792
1726407172286875000,2.976875,1.6806734513282775,4.951555070161819,0.2971484246239066
1726407172296871000,2.986870849609375,-0.11242109504342078,3.6954935170710086,0.8181647874750196
1726407172306867000,2.996866943359375,-1.6176386107444762,2.440911973404884,1.8691443513512611
1726407172316862700,3.00686279296875,-4.053726232732832,0.05826105031073093,1.3444561681196092
1726407172326860000,3.016860107421875,-17.117950333964824,-0.973344681662321,-1.1394330694854258
1726407172336855800,3.026855712890625,-6.81825728905797,6.563941751727461,3.113014531388879
1726407172346851800,3.036851806640625,2.7992192156076428,3.384150270617008,1.4234269751124082
1726407172356847900,3.046847900390625,6.582117459887265,4.920731477352977,1.5849265738405287
1726407172366844000,3.056843994140625,5.311377393102646,7.387076582700014,2.484254856047034
1726407172376840000,3.06683984375,0.9056365885704756,8.787570572122931,1.6211653235659003
1726407172386835700,3.076835693359375,0.5643535464048385,9.42154418272078,-0.6308348741807043
1726407172396833000,3.0868330078125,2.3518162243694065,6.557605534443259,-4.157752132135629
1726407172406828800,3.096828857421875,4.616777756628394,2.2590064232468605,-4.832478316621482
1726407172416824800,3.106824951171875,5.285961796817183,0.5016109667658806,-5.216353423061967
1726407172426820900,3.11682080078125,3.110910252586007,-0.22206629563271998,-4.396649151059985
1726407172436817000,3.12681689453125,0.6689490623891353,-2.9570225901663303,-0.2234881451293826
1726407172446813000,3.13681298828125,-1.321220546221733,-3.865920810881257,2.23902366566509
1726407172456808700,3.14680859375,-1.582050141621381,-3.369571125644445,3.229237356802821
1726407172466806000,3.156805908203125,-1.3454700213372706,-3.385928970727324,3.513609594222903
1726407172476801800,3.1668017578125,-1.2253566182255744,-3.2629373818308114,2.778956179779768
1726407172486797800,3.1767978515625,0.2854394282601774,-3.9915708053320644,1.1345841681495308
1726407172496793900,3.1867939453125,-0.11811448437944054,-5.4767777986615895,-0.7623540529258549
1726407172506790000,3.196789794921875,-0.5402238982766866,-7.434553204146027,-2.237125430828333
1726407172516786000,3.206785888671875,0.8303367251753807,-9.066413816988467,-2.7254832405284044
1726407172526781700,3.21678173828125,1.113788194488734,-11.003079798948765,1.4594909527927635
1726407172536777700,3.22677783203125,3.042233606722951,-12.516449056923388,6.315915669929981
1726407172546774800,3.23677490234375,4.505161548227072,-12.654770316898823,3.6884982513561844
1726407172556770800,3.246770751953125,1.2400047367811202,-12.830510330164431,1.9794170361891388
1726407172566766800,3.256766845703125,-1.5332307272642849,-13.04381639623642,0.4820328444622457
1726407172576763000,3.266762939453125,-0.7820441111713647,-11.634873142898082,0.6707470517218113
1726407172586759000,3.276759033203125,-0.6722913585543632,-10.693872395479678,1.6747263794921337
1726407172596754700,3.286754638671875,-0.8645803555607795,-8.171993618959188,3.2994910427242514
1726407172606750700,3.296750732421875,-2.0107881798781455,-6.142379888710379,4.815744916224479
1726407172616747800,3.306747802734375,-3.2417057932317257,-3.5899884850263595,6.122965578666329
1726407172626743800,3.316743896484375,-5.03501193652749,1.2516992662280797,7.048850005495548
1726407172636739800,3.32673974609375,-5.959145720297098,3.180495245465636,4.433542419171333
1726407172646736000,3.33673583984375,1.0306408324636518,7.908526222401857,2.79845992167294
1726407172656732000,3.34673193359375,4.833440731912851,15.705535020601749,-0.7828373073756695
1726407172666727700,3.356727783203125,8.175977720159292,14.430227499771117,-1.8420318880200386
1726407172676724000,3.366723876953125,11.54567393348813,14.148338311338424,-5.749439140021801
1726407172686720800,3.376720703125,7.907514999532699,14.062447495824097,-7.5692100963950155
1726407172696716800,3.386716796875,5.08078000048995,10.041777437257766,-3.8551153392285107
1726407172706713000,3.396713134765625,2.6781176782414318,7.11434626775682,1.047341499634832
1726407172716708900,3.406708984375,1.3654644693568347,3.8035628466457125,0.46136941113993524
1726407172726705000,3.416704833984375,-0.7549719798505306,0.9046604370146989,0.6788534935489297
1726407172736700700,3.42670068359375,-2.2401789731800554,0.03554068445861339,1.64269706415534
1726407172746697000,3.436697021484375,0.10803279695659876,1.7848937042593955,0.5054840088069439
1726407172756693800,3.44669384765625,-4.701799680353701,-3.0130174491107464,3.1566683796763417
1726407172766689800,3.456689697265625,-3.258113030414283,-1.5553367606103419,5.992088204956055
1726407172776686000,3.46668603515625,0.6976829894423484,-0.5706745661199093,6.924709831085801
1726407172786681900,3.476681884765625,5.664129339265823,3.7268051856577395,2.7352242978200314
1726407172796678000,3.486677978515625,5.756910498815775,2.736991015231609,-2.1523338087275623
1726407172806673700,3.496673583984375,2.618723824508488,1.9327794959157705,-1.3550485815435647
1726407172816670000,3.506669921875,-2.4497198414996264,0.9603747254520654,0.19334785840958355
1726407172826666800,3.516666748046875,-6.457810696738958,0.8017448369413613,1.9638976877570151
1726407172836662800,3.526662841796875,-1.5328829367399215,0.5272083493590355,-1.0811556525617838
1726407172846659000,3.5366591796875,1.463621184465289,0.5897510225117206,-2.5511685838907954
1726407172856654800,3.54665478515625,3.137193279355764,3.0011446404874325,-3.6656969292223454
1726407172866651000,3.55665087890625,1.1279288019135594,6.004198329466581,-6.023444297206401
1726407172876646700,3.566646728515625,-1.6733946924969554,6.337459393218159,-6.072870883676409
1726407172886643000,3.576642822265625,-2.0773954721212387,6.588479396134614,-4.473919437745213
1726407172896639700,3.5866396484375,-2.657277427047491,5.626119049823284,-4.1376223672986026
1726407172906635800,3.5966357421875,-3.9351968839421865,4.535170902043581,-0.8956786736577749
1726407172916632000,3.606632080078125,-5.3448471165061,1.7621540491849184,1.438586988712847
1726407172926627800,3.6166279296875,-8.39254600289762,-0.03119768681824207,2.364639173324406
1726407172936623900,3.626623779296875,-10.459453398752212,-2.2459628172785044,2.9316768442466854
1726407172946619600,3.63661962890625,-10.289892950904369,-5.253153167670965,3.7009856847465037
1726407172956616000,3.646615966796875,-7.784030074161291,-4.081926783561706,5.233997216302156
1726407172966612000,3.656612060546875,-4.108275861304998,3.2562492823690175,3.9270439726248383
1726407172976608800,3.66660888671875,-1.2659598467707633,6.200424081400037,2.178368121433258
1726407172986605000,3.67660498046875,-0.47953620534092184,4.9202925014138215,2.0555247088357804
1726407172996600800,3.686600830078125,-0.6926739291086793,4.237878392773866,-0.0030459435671567913
1726407173006596900,3.696596923828125,-0.12599690819233655,1.585221611264348,0.06812602624297141
1726407173016592600,3.706592529296875,-1.1346088641993701,0.07523205885589122,1.2057657825708388
1726407173026589000,3.7165888671875,-2.9163068411573767,-1.3237275606065988,-1.7000322317928074
1726407173036585000,3.7265849609375,-4.146357462418079,-3.461124789226055,-3.4467157401233908
1726407173046581800,3.736581787109375,-3.7710184213936326,-5.003050279599428,-3.5847266189754006
1726407173056578000,3.746578125,-1.7009985926069318,-5.786809377995133,-3.2142975618243215
1726407173066573800,3.75657373046875,-0.10257292411550879,-5.243355996277928,-2.4169722948908805
1726407173076569900,3.76656982421875,1.4902724600255488,-3.737175188502669,-0.4618348366945982
1726407173086565600,3.776565673828125,4.120361435896158,-2.159072469332814,2.517000356829166
1726407173096561700,3.786561767578125,10.919495506811142,-0.890419145694375,4.618651733806729
1726407173106558000,3.796557861328125,15.680890408688782,0.6682797848254441,4.41459981829226
1726407173116554800,3.8065546875,13.108109127926825,1.4360054477870463,0.9858224704414605
1726407173126550800,3.81655078125,6.100532213062047,1.460426187816262,-0.5225614003360272
1726407173136546800,3.826546875,2.1772762345433234,2.390488192591071,-0.11707973450422286
1726407173146542800,3.83654296875,-0.1752402470499277,2.5138930384635922,0.36699674461483955
1726407173156538600,3.84653857421875,-0.4014531409680843,0.7974059309542179,0.339462841001153
1726407173166534700,3.85653466796875,-1.1094368674114345,0.11931786881983279,3.314971520450711
1726407173176531000,3.866531005859375,-0.5370259790182114,-0.16587153020203113,2.4249568639039993
1726407173186527700,3.87652783203125,0.2127919790700078,-2.1181062526941297,-2.0170383263140916
1726407173196523800,3.886523681640625,0.5427177609190345,-2.58838567712903,-1.1824895364016295
1726407173206519800,3.896519775390625,-0.5947638822376727,-2.1379875957280396,-1.2011381227701903
1726407173216515800,3.906515869140625,-1.2381322209075092,-1.7140835534989833,-0.4207768501192331
1726407173226511600,3.91651171875,-1.1765662838324904,-1.6854945878744125,-0.22854572077989577
1726407173236507600,3.926507568359375,-1.2537681814566255,-1.5311054056733846,-0.2635895616322756
1726407173246504000,3.93650390625,-1.208693360455334,-1.3149895428776741,-0.01409457632601261
1726407173256499700,3.946499755859375,-0.8657362475976348,-0.9732400522440672,0.09682897363603114
1726407173266496800,3.956496826171875,-0.3413444169640541,-0.8322463581889867,0.3411217141240835
1726407173276492800,3.966492919921875,0.18407967932671307,-0.9815969617009163,0.06158464177548885
1726407173286488800,3.97648876953125,0.48053193838000297,-1.2898334743112325,-0.17056465645432473
1726407173296484600,3.986484619140625,0.5833376483380794,-1.504287541374564,-0.45600189275741576
1726407173306480600,3.996480712890625,0.5669229585014284,-1.555241483542323,-0.6689929015308618
1726407173316477000,4.006476806640625,0.4695110704109072,-1.3926719174951314,-0.6478478221714496
1726407173326472700,4.01647265625,0.29473084208816286,-1.0571651206433772,-0.4357610687613487
1726407173336469800,4.0264697265625,0.17084435017853974,-0.7535171048671007,-0.3742144209086895
1726407173346465800,4.0364658203125,0.027538725919276474,-0.4158271187573671,-0.12816519214212893
1726407173356461800,4.0464619140625,-0.11042641409486531,-0.12632511723339557,0.047099020305275914
1726407173366457600,4.05645751953125,-0.2153250046789646,0.16340426330566404,0.11489888333380222
1726407173376454000,4.066453857421875,-0.31580358686372634,0.48163434666395183,0.31354455589056013
1726407173386450000,4.076449951171875,-0.4089391128093004,0.6895476137816906,0.533162289327383
1726407173396445700,4.08644580078125,-0.6340579278804361,0.937611104980111,0.8519874159693718
1726407173406442800,4.09644287109375,-0.7682040941283106,1.1970020458787678,1.161214108660817
1726407173416438800,4.106438720703125,-0.6500546845659613,1.340381758287549,1.512484291833639
1726407173426434800,4.116434814453125,-0.25249840490594505,1.1092279008358716,1.787006166368723
1726407173436430600,4.1264306640625,0.17330255698561667,0.27600363752543927,1.482267432746291
1726407173446427000,4.136427001953125,0.664318772239983,-0.30250176835060116,1.2543272766441107
1726407173456423000,4.1464228515625,1.218602175529301,-0.39860301223397254,1.4421300681471825
1726407173466418700,4.156418701171875,1.280651219946146,-0.577502950835228,1.5217968945801257
1726407173476416000,4.166416015625,0.794837541770935,-0.8511006962627172,1.3982710526764393
1726407173486411800,4.176411865234375,0.182830263787508,-0.7840911068290471,0.8816331971704959
1726407173496407800,4.18640771484375,-0.05214022934287786,-0.28135961160063744,0.4665951829642057
1726407173506403600,4.196403564453125,-0.2646893395677209,0.23579496125578878,0.09134031309187411
1726407173516399900,4.20639990234375,-0.49525575252026316,0.921221695715189,-0.4763946924448013
1726407173526396000,4.21639599609375,-0.8276705747060478,1.1430015756219625,-1.3503396732002495
1726407173536391700,4.2263916015625,-1.0461840001627802,1.2700947546184063,-2.1292963397502898
1726407173546389000,4.236388916015625,-1.0299822224244475,1.6938164260178803,-2.5239842243671418
1726407173556384800,4.246384765625,-0.7847305737763642,2.386919101932645,-2.553400872987509
1726407173566380800,4.256380859375,-0.4332835727319121,2.8327690185099836,-2.548441204753518
1726407173576376600,4.26637646484375,-0.4272963150158524,3.0035856038987636,-2.584829445952177
1726407173586372900,4.276372802734375,-0.6620940819278359,2.747314256325364,-2.550597506004572
1726407173596369000,4.286368896484375,-0.8199448027595877,2.534869775518775,-2.395821954834461
1726407173606364700,4.29636474609375,-0.9443548801518976,2.8709581716507673,-2.108682590788603
1726407173616360700,4.306360595703125,-1.1037956466540693,3.0211557473808526,-1.5491145250946283
1726407173626357800,4.316357666015625,-1.3071721471250057,2.7502485562115906,-0.7127016948759556
1726407173636353800,4.326353759765625,-1.5091042940065265,2.3883213699460026,-0.052205403533577915
1726407173646349600,4.336349609375,-1.5739990832433104,1.9827204616487024,0.17726970705091952
1726407173656345900,4.346345947265625,-1.2969298623129724,1.2588105595380068,0.1918973673403263
1726407173666342000,4.356341796875,-1.06210199252367,0.5715174466848373,-0.032765374526381494
1726407173676337700,4.366337646484375,-0.8943116230882704,0.12910627238452435,-0.0044160628765821455
1726407173686333700,4.376333740234375,-0.764845577480644,-0.3241676567137241,0.09413666581213474
1726407173696330800,4.386330810546875,-0.6975241456188261,-0.7168196515887976,0.39714755272865293
1726407173706326800,4.396326904296875,-0.7033328318975866,-1.2160744106173516,0.7769207768082618
1726407173716322600,4.406322509765625,-0.7102839662097394,-1.848161184555292,1.3177630992442368
1726407173726318800,4.41631884765625,-0.6842949539504944,-2.423606618338823,1.7948562953472136
1726407173736315000,4.42631494140625,-0.5669371331572532,-2.7063807729125022,2.644084183475375
1726407173746310700,4.436310546875,-0.3512649224758148,-2.817961325478554,3.2599995748132464
1726407173756306700,4.446306640625,-0.08187968017682433,-2.8783097034573553,3.1109172668486833
1726407173766303700,4.4563037109375,0.287135783849284,-3.0350276208668947,2.98703077493906
1726407173776299800,4.4662998046875,0.8547874219514429,-3.1073002453953027,2.589932322049141
1726407173786295600,4.476295654296875,1.572253993141651,-2.731962957936525,1.9396569804698227
1726407173796291800,4.486291748046875,1.9344087045527993,-1.9684452680587767,1.298810561493039
1726407173806288000,4.496287841796875,1.7972621874451635,-1.0610165353745222,0.41382630032896994
1726407173816283600,4.50628369140625,1.527485607741028,-0.04609598074257373,-0.019839257457852363
1726407173826279700,4.51627978515625,1.9076174359999596,1.0454261675328016,-0.2614139711588621
1726407173836276700,4.52627685546875,1.9321992118097842,1.9157278233498334,-0.39549744743406773
1726407173846272800,4.536272705078125,1.4237538689792155,2.406702245289087,-0.5217085828989744
1726407173856268500,4.5462685546875,0.9890354411385953,2.669015795636177,-0.7289256844460964
1726407173866264800,4.556264892578125,0.8588611011311411,2.6842309004247187,-0.9435118534564971
1726407173876260900,4.5662607421875,0.47819151273369787,2.696210676553845,-1.360550101569295
1726407173886256600,4.576256591796875,0.15100217011123895,2.6238293309539555,-1.5733493871629238
1726407173896253000,4.5862529296875,-0.35468671361804005,2.361203061395883,-1.880196491241455
1726407173906249700,4.596249755859375,-0.803028739272058,1.9146072948873043,-2.179496248680353
1726407173916245800,4.606245849609375,-0.635797318893671,1.2407114237457513,-2.2889731069654227
1726407173926241800,4.61624169921875,-0.3002852613449096,0.8857301110953092,-2.02821204675734
1726407173936237800,4.62623779296875,-0.365343424449861,0.7617647087305783,-1.932041829290986
1726407173946233900,4.63623388671875,-0.5248487806208432,0.5505933165997267,-1.7003981424957513
1726407173956229600,4.646229736328125,-0.6952572236001491,0.0058592474222183225,-1.2459779659718275
1726407173966226000,4.656225830078125,-0.8593079681158066,-0.5863841764271259,-0.9893903920561075
1726407173976221700,4.6662216796875,-0.9140165866419673,-0.9915905324488877,-0.8384650865733623
1726407173986218800,4.67621875,-0.9100561585783958,-1.1979969021350145,-0.6561322509139775
1726407173996214800,4.68621484375,-0.6449860029995441,-1.094433651807904,-0.3580956452786922
1726407174006210800,4.6962109375,-0.35074206764549015,-0.9895148952186107,-0.0655821869790554
1726407174016206800,4.706206787109375,0.23003435190245508,-0.7706061868339776,0.880982039785385
1726407174026202600,4.71620263671875,0.7568516561172902,-0.8551713067024945,1.7591016758769749
1726407174036199000,4.726198974609375,0.8472764617994427,-1.111080835226178,2.2223422877162693
1726407174046194700,4.736194580078125,0.8853821744404733,-1.426899181267619,2.266234620934725
1726407174056191700,4.746191650390625,0.44281610183939335,-1.9535908132761717,1.4926561402916907
1726407174066187800,4.756187744140625,-0.10678513498306273,-2.4350439581543206,0.8164648516893387
1726407174076183600,4.76618359375,-0.0331003055691719,-2.057663182169199,0.6461316659033298
1726407174086179800,4.776179931640625,0.25440000074356794,-1.0442179607868194,1.1008780056416987
1726407174096175600,4.786175537109375,0.21938597050756214,0.20406945117115974,1.8265853125631808
1726407174106171600,4.796171630859375,-0.030368250256776808,1.4753642292290925,2.7401602929174897
1726407174116167400,4.80616748046875,-0.44133857663273807,2.281681780913472,3.3555081135004756
1726407174126164700,4.816164794921875,-1.3305579911485315,2.48265794224441,3.7241923728108404
1726407174136160500,4.826160400390625,-1.9716589694082736,2.158206207892299,3.2188346207320686
1726407174146156500,4.836156494140625,-1.962299312649667,1.3288023796528576,1.6384066734850407
1726407174156152800,4.84615283203125,-1.4647913972884417,0.6012783786982298,0.3794938226163387
1726407174166148600,4.856148681640625,-0.6744836079016328,0.14870821395516395,-0.47165655800700185
1726407174176144600,4.86614453125,0.034329847364127634,-0.10993804605603218,-1.0370248344123363
1726407174186140400,4.876140380859375,1.1043871828064322,-0.32529461491703987,-1.3649369383513927
1726407174196137700,4.8861376953125,1.4815952325731514,-0.5139490548133849,-1.7701485550701617
1726407174206133500,4.896133544921875,0.8018690478429198,-0.42277533046007154,-2.213539972579479
1726407174216129500,4.906129638671875,0.07308131056278944,-0.15650632048547267,-2.494635380285978
1726407174226125800,4.916125732421875,-0.3293529503971338,0.11947510520815849,-2.6218641683608293
1726407174236121600,4.92612158203125,-0.40577100416719913,0.36777591229379175,-2.7111709297984836
1726407174246117600,4.93611767578125,-0.4083592670947313,0.5581313108891248,-2.620728442329168
1726407174256113400,4.946113525390625,-0.3206622789412737,0.4451724557071924,-2.531983990949392
1726407174266110700,4.95611083984375,-0.4291843207195401,0.15218787276446819,-2.441880526176095
1726407174276106500,4.9661064453125,-0.35679420729130507,-0.009869652107357978,-2.401383680614829
1726407174286102500,4.9761025390625,-0.13378127845823765,-0.053744449669122694,-2.257059965354204
1726407174296098800,4.986098876953125,0.29282968464195724,0.08197977955043316,-2.230900272703171
1726407174306094600,4.996094482421875,1.3453367503464222,0.3232663239598274,-2.0580729320138693
1726407174316090600,5.006090576171875,1.7842650509670375,0.3543926991075277,-1.9442349559098482
1726407174326086400,5.01608642578125,0.9477794477730989,0.013316577690839767,-1.7323066079318523
1726407174336083700,5.026083740234375,-0.42154929579645395,-0.43102234980165954,-1.6091852551758288
1726407174346079500,5.03607958984375,-1.3824866235673428,-0.4896843821287155,-1.2112480133742094
1726407174356075500,5.046075439453125,-1.7868311020627616,-0.2624374689877033,-0.606733136972785
1726407174366071800,5.05607177734375,-1.7196984707713125,0.09933657254278659,-0.015730068573355675
1726407174376067600,5.066067626953125,-1.007987248237431,0.48906537344753737,0.5511842682301998
1726407174386063600,5.076063720703125,0.28955870014727114,0.8017413298100232,0.9598913258492946
1726407174396059600,5.0860595703125,1.2303846755206584,0.7893746001899242,1.2016320437669754
1726407174406055700,5.0960556640625,1.4996619274005294,0.39514322716891764,1.2142489487558603
1726407174416052500,5.106052490234375,1.2197279646888375,-0.23262451452612876,0.9967249727278947
1726407174426048500,5.116048583984375,0.8586126793280243,-0.6698544867962598,0.714397977399826
1726407174436044800,5.126044921875,0.6905848478749395,-0.7651566892564297,0.6312462314605712
1726407174446040600,5.13604052734375,0.7305170452907681,-0.6561620615303516,0.623029607257247
1726407174456036600,5.14603662109375,0.7020616429179907,-0.48862405942082404,0.6104845984607935
1726407174466032600,5.15603271484375,0.6094724988088012,-0.3533282847464084,0.35116263114511964
1726407174476028700,5.166028564453125,0.21521306873708962,-0.36857378467321394,-0.011762918508052824
1726407174486025500,5.176025390625,-0.5369979219675064,-0.18117314423024652,-0.29740941364765167
1726407174496021800,5.186021728515625,-0.9274255187913775,0.3455629114419222,-0.2874456535160541
1726407174506017800,5.196017822265625,-1.1094853827282787,0.8170411902725696,-0.009086392775177955
1726407174516013600,5.206013671875,-0.8770593133836984,1.0874147129565477,-0.0016214637219905852
1726407174526009600,5.216009521484375,-0.5035632698774337,0.9694663789242506,-0.2510246790915727
1726407174536005600,5.226005615234375,-0.3175523302271962,0.7494459099054336,-0.531617982494831
1726407174546001700,5.236001708984375,-0.10436989053487777,0.5819079077959061,-0.6530144111543893
1726407174555998500,5.24599853515625,0.1285106445789337,0.5963233866393566,-0.5359615646570921
1726407174565994800,5.255994873046875,0.35742607545405625,0.5777028573215007,-0.1800894406467676
1726407174575990800,5.26599072265625,0.5101721666231751,0.4281055855721235,0.2719149069070816
1726407174585986600,5.275986572265625,0.6208367733880877,0.10189268676638602,0.6245575474768876
1726407174595982600,5.285982666015625,0.7998349116668104,-0.22557985671162603,0.7750193271011113
1726407174605978600,5.295978515625,1.0179790654197334,-0.5561790077775717,0.7853507515013217
1726407174615974700,5.305974609375,1.0202750674024224,-0.8919248740822077,0.6984966439127922
1726407174625971500,5.315971435546875,0.8336956802144646,-1.1384043109595774,0.5722293943464756
1726407174635967700,5.3259677734375,0.5336582561507821,-1.2439713023245333,0.407813323649764
1726407174645963800,5.3359638671875,0.2481552611351013,-1.3853472736954688,0.2976116582214832
1726407174655959600,5.34595947265625,-0.04570610464215279,-1.3565584015846253,0.21985504932403563
1726407174665955600,5.35595556640625,-0.28847806530371306,-1.1516700352460145,0.3557575577199459
1726407174675951600,5.36595166015625,-0.42765521145612,-1.0909703596115112,0.23854221413731574
1726407174685947600,5.37594775390625,-0.46619858486205334,-0.959226724460721,0.07887479927241801
1726407174695944400,5.3859443359375,-0.334602541488409,-0.7173866378217935,0.026225159102678298
1726407174705940700,5.395940673828125,-0.13439444192051886,-0.3521890515834093,0.07801847470402717
1726407174715936800,5.405936767578125,0.1533458106279373,0.06096329500675201,0.014453472766280173
1726407174725932500,5.4159326171875,0.45456513795256615,0.3992465708345175,0.02693827580809593
1726407174735928600,5.425928466796875,0.7489806304812431,0.7135159338682889,-0.04847732292115688
1726407174745924600,5.435924560546875,1.0128193445689975,0.7707306899964809,-0.2569751119285822
1726407174755920600,5.445920654296875,1.096280156457424,0.8279203116834163,-0.3256587720543146
1726407174765917400,5.45591748046875,1.137961243367195,1.0001742363989352,-0.44080023197233675
1726407174775913700,5.465913818359375,1.1342439764097332,1.012608770558238,-0.5162158307015896
1726407174785909800,5.47590966796875,1.102680963410437,0.9722188925027847,-0.4964139826446771
1726407174795905500,5.485905517578125,0.9834272458679973,0.8959200811982154,-0.6189578277736902
1726407174805901600,5.495901611328125,0.9502622044995427,0.814324917051196,-0.7322995447933673
1726407174815897600,5.505897705078125,0.9175663880780339,0.6401777259349822,-0.8231535356730222
1726407174825893600,5.5158935546875,0.8521484517499804,0.41091128966510293,-0.9077256698042154
1726407174835890400,5.525890380859375,0.6774658385828137,0.1479255391448736,-1.0098667783737183
1726407174845886700,5.53588671875,0.5185588866963983,0.09053133479654789,-0.8888234009355306
1726407174855882800,5.5458828125,0.3948749316215515,0.04382102154791355,-0.724842214524746
1726407174865878500,5.55587841796875,0.22767741351276635,-0.0264385095924139,-0.5203232660204172
1726407174875874600,5.56587451171875,0.07628449051827192,-0.014314356556534766,-0.31597967408299443
1726407174885870600,5.57587060546875,0.04151040651798248,-0.028567922836542126,-0.24152269125282763
1726407174895866600,5.58586669921875,0.0954933411180973,-0.06478256103396415,-0.16304010616838932
1726407174905863400,5.595863525390625,0.1580672861918807,-0.10499006825983524,-0.12032967621088027
1726407174915859700,5.605859619140625,0.20925562163740397,-0.08406009295582771,-0.001191255611181259
1726407174925855700,5.615855712890625,0.3124541303053498,-0.06251110897064209,-0.06370762527883052
1726407174935851500,5.6258515625,0.4462836318194866,-0.034085224953293795,-0.07730652704238891
1726407174945847800,5.635847900390625,0.5610670720800757,0.00227612823843956,-0.025191724401712415
1726407174955843600,5.645843505859375,0.6217585644081235,-0.06890051774680614,-0.22560440663099288
1726407174965839600,5.655839599609375,0.5866989414647221,-0.036488778963685034,-0.18409458463490008
1726407174975835600,5.665835693359375,0.47037791637331244,-0.006297638839483261,-0.07617547718584537
1726407174985832700,5.675832763671875,0.2893228455647826,0.002080313405394554,-0.11841478250026702
1726407174995828700,5.685828857421875,0.22092940055727958,-0.023467969349026677,-0.20989654988944528
1726407175005824500,5.695824462890625,0.245876794809103,-0.12366378906965254,-0.27765549638569353
1726407175015820800,5.70582080078125,0.31879443924278017,-0.10512976899147033,-0.2186409973591566
1726407175025816600,5.715816650390625,0.48225393986701964,0.12382044093608856,-0.13892097943425177
1726407175035812600,5.7258125,0.7087783839523791,0.4124368917971849,-0.08129062824249267
1726407175045808600,5.73580859375,0.9390822004459798,0.725821288689971,0.012621581164002417
1726407175055805700,5.7458056640625,1.1277663048282265,0.9223188433021307,0.04902794254124164
1726407175065801700,5.7558017578125,1.1829061543785035,0.9138362616389989,0.09063128803968429
1726407175075797800,5.7657978515625,1.0474094503045082,0.6418973893344402,0.15066519324183464
1726407175085793800,5.775793701171875,0.8893667140319943,0.0017126491367816924,0.22620880226492882
1726407175095789600,5.78578955078125,0.7269675361156464,-0.5682452931463718,0.07784954787790775
1726407175105785600,5.79578564453125,0.6086240652859211,-0.804518977829814,-0.05616437029242515
1726407175115782000,5.805781982421875,0.6389839861057698,-0.686665336343646,-0.10383154587447643
1726407175125778700,5.81577880859375,0.7884116003766656,-0.14300152674615382,-0.14213175817430018
1726407175135774700,5.825774658203125,0.820266874320805,0.23234686662852763,-0.4090390660524368
1726407175145770800,5.835770751953125,0.7378358438715338,0.2995207067131996,-0.7014794591158628
1726407175155766800,5.845766845703125,0.6632097880847752,0.3372556863456964,-0.9505120876073837
1726407175165762600,5.855762451171875,0.5169288012765347,0.33900691392719745,-1.1244500198870897
1726407175175758600,5.865758544921875,0.38071050492972136,0.2146498818963766,-1.2623925096780062
1726407175185755000,5.8757548828125,0.20470745681375263,0.15843232011198996,-1.3485621421337126
1726407175195751700,5.885751708984375,-0.08085749752223491,0.18132570444345472,-1.222830314618349
1726407175205747700,5.895747802734375,-0.22714257598370313,0.30188860488832,-1.0213047027111053
1726407175215743700,5.90574365234375,-0.2405915478825569,0.4796265139728784,-0.8144155179440975
1726407175225739800,5.91573974609375,-0.07523673503100872,0.5981587853729724,-0.6666349402278662
1726407175235735600,5.925735595703125,0.2479642686076462,0.6771311998009681,-0.6834311767280101
1726407175245731800,5.93573193359375,0.6020363574586808,0.6800766056030988,-0.8873907377839088
1726407175255727900,5.945727783203125,0.9491060202017426,0.6108382342040538,-1.1371832447320223
1726407175265724700,5.955724609375,1.2311118207514284,0.6914052243471145,-1.293234222665429
1726407175275721000,5.965720947265625,1.3892374130018055,0.7460492532044649,-1.2517822683364153
1726407175285716700,5.975716796875,1.3632707587048412,0.6917489232182502,-1.0942711547225714
1726407175295712800,5.985712646484375,1.202842880861461,0.561618568482995,-0.9247808495014905
1726407175305708500,5.99570849609375,0.9522608309708535,0.27470190727710725,-0.7798311112970113
1726407175315704800,6.005704833984375,0.7771018324635922,-0.010068974071741104,-0.6652712506592273
1726407175325700900,6.015700927734375,0.8053761791810393,-0.18342881420254706,-0.6228098270267248
1726407175335697700,6.02569775390625,0.9737371881112455,-0.27418928157985206,-0.5909305876851082
1726407175345694000,6.03569384765625,1.1008864812090993,-0.28065643176734445,-0.5918062014758586
1726407175355689700,6.045689697265625,1.1614672066390515,-0.2582201435536146,-0.567407673278451
1726407175365685800,6.055685791015625,1.080340244525671,-0.16074761131703852,-0.47529812937974925
1726407175375681500,6.065681640625,0.8367242342554032,-0.04114449581503868,-0.3541197273850441
1726407175385677800,6.075677734375,0.5954340365841985,-0.013247019585967064,-0.38906946021318434
1726407175395673900,6.085673828125,0.38127763729318975,0.037783494949340815,-0.38905893881917
1726407175405670700,6.095670654296875,0.21695962014347314,0.15166063401997087,-0.2150064402490854
1726407175415667000,6.1056669921875,0.17709639631062746,0.31000235323905945,-0.03715045774281025
1726407175425662700,6.115662841796875,0.14566606978029012,0.37560090683102604,-0.004409048613905907
1726407175435658800,6.12565869140625,0.1549511999979615,0.3902770824372768,-0.09170739283859729
1726407175445654500,6.135654541015625,0.25355069043785333,0.36657705789804457,-0.11816168452203273
1726407175455650800,6.14565087890625,0.37056817336082454,0.3825222305268049,-0.17523147922158241
1726407175465646800,6.155646728515625,0.49812254012823104,0.34545009871721266,-0.2572761407017708
1726407175475643600,6.1656435546875,0.5355794334717094,0.3369078958213329,-0.2554495097965002
1726407175485640000,6.175639892578125,0.549563096769154,0.35342005468308924,-0.07786182283759116
1726407175495635700,6.1856357421875,0.5675710471466183,0.27618600835502144,-0.05572597887516021
1726407175505631700,6.1956318359375,0.5034323369741439,0.20166414359509943,-0.1815010610103607
1726407175515627500,6.20562744140625,0.48462154578119515,0.20079086789190767,-0.20494331139624117
1726407175525623800,6.215623779296875,0.43943537335991856,0.165026896071434,-0.37058161736428735
1726407175535619800,6.225619873046875,0.4741773086562752,0.15591478433310985,-0.5038298118591308
1726407175545616600,6.23561669921875,0.5388628390565514,0.12975041550695895,-0.6375678356975316
1726407175555613000,6.245613037109375,0.6879205971017479,0.15683248369991779,-0.583685438862443
1726407175565608700,6.255608642578125,0.8017346078082919,0.20280629936754702,-0.5578484022945165
1726407175575604700,6.265604736328125,0.8010133077964187,0.20093582932054996,-0.5315922635316849
1726407175585600500,6.2756005859375,0.7304954179808497,0.06875730988383293,-0.566430352678895
1726407175595596800,6.2855966796875,0.6023053836584091,0.013681903871893882,-0.581368978613615
1726407175605592800,6.2955927734375,0.5050181448608636,-0.0878600697606802,-0.5846610058963299
1726407175615589600,6.305589599609375,0.4466322991266846,-0.06618716713488101,-0.5399141016751527
1726407175625586000,6.3155859375,0.3485582938656211,-0.03483282845020294,-0.4219324498951435
1726407175635581700,6.325581787109375,0.25348463946431876,-0.02016951232552528,-0.34450609586536884
1726407175645577700,6.33557763671875,0.1818351152703166,-0.03979834190309047,-0.19208149173557756
1726407175655573500,6.345573486328125,0.10222323389500379,0.05697627119719982,-0.013369769182801246
1726407175665569800,6.35556982421875,-0.03471475502848625,0.08489128308296204,0.07229717444777488
1726407175675565800,6.36556591796875,-0.1223112054169178,0.17645839066803454,0.13543138375282288
1726407175685562600,6.375562744140625,-0.186092188192904,0.18019699267446992,0.09009528146684169
1726407175695559000,6.385558837890625,-0.12969926984161137,0.18462766859829424,-0.08761866222023963
1726407175705554700,6.3955546875,-0.01371989779472351,0.2954442510545254,-0.21103929018378256
1726407175715550700,6.40555078125,0.017460545627772807,0.3658908291995525,-0.4012631713539362
1726407175725546500,6.41554638671875,0.11592471925020217,0.5103174203127623,-0.6788742440760135
1726407175735542800,6.425542724609375,0.2699991364136338,0.6115408295154571,-0.9038461980223655
1726407175745538800,6.435538818359375,0.42438890313655137,0.770422646960616,-1.0554413655906916
1726407175755535600,6.44553564453125,0.6101748018592595,0.7778583499193191,-1.16904144128561
1726407175765532000,6.455531982421875,0.8167343162804841,0.6922381680399179,-1.3322510588020084
1726407175775527700,6.465527587890625,0.8492281803891062,0.5882809499591589,-1.2828174580693243
1726407175785523700,6.475523681640625,0.7615148256227373,0.3844400468468666,-1.088560960382223
1726407175795519700,6.485519775390625,0.5337710688754916,0.2058744547665119,-0.9125105659931898
1726407175805515800,6.495515869140625,0.3733408529445529,0.09898936654031276,-0.7951298027157783
1726407175815511800,6.50551171875,0.3075187197297811,0.013744447714090346,-0.7272597970604896
1726407175825508900,6.5155087890625,0.2739896673545241,-0.030204584127664563,-0.6796218475729227
1726407175835505000,6.5255048828125,0.3563151916027069,-0.10249649787843226,-0.6378817239522934
1726407175845500700,6.535500732421875,0.4376277394160628,0.07848843030333519,-0.5409077888876199
1726407175855496700,6.54549658203125,0.5242693732976913,0.20044716902077198,-0.35780747598707674
1726407175865492700,6.55549267578125,0.4572188673317432,0.33333880516290665,-0.1425374163657427
1726407175875488800,6.56548876953125,0.3353308557629585,0.3717302028775215,-0.022617489999532697
1726407175885484800,6.57548486328125,0.12811550778150557,0.394909418413043,0.08064882320761681
1726407175895481900,6.58548193359375,-0.20054040026217698,0.3676981708824634,0.1511889248549938
1726407175905478000,6.595477783203125,-0.612374649991095,0.316885098490119,0.14987258155941963
1726407175915473700,6.6054736328125,-0.8965548719704151,0.2881225298643112,0.11494506056308745
1726407175925469700,6.6154697265625,-1.048446684397757,0.11102467224895954,0.06749591164588928
1726407175935465700,6.6254658203125,-0.9699594231382012,-0.0396358448177576,0.17643091813921927
1726407175945461800,6.635461669921875,-0.6769885764598846,-0.22782968146502972,0.12615268327593804
1726407175955457800,6.645457763671875,-0.36750586318075656,-0.5015741418868302,-0.04938800802528858
1726407175965454800,6.655454833984375,-0.043481414330005644,-0.7985106773257256,-0.06815349877178668
1726407175975451000,6.665450927734375,0.2567807584002614,-0.8600339443027972,0.02110416282713413
1726407175985446700,6.67544677734375,0.5618988467290997,-0.7390741534948349,0.12924129694104194
1726407175995442700,6.685442626953125,0.651209699819982,-0.5858844102114439,0.20494798757135868
1726407176005438700,6.695438720703125,0.39687078161388634,-0.47359366354942317,0.21460545823276042
1726407176015434800,6.705434814453125,0.05147065951824188,-0.324242475515604,0.3286690597862005
1726407176025430800,6.7154306640625,-0.32911154285669325,-0.30075580146610736,0.4748234976053238
1726407176035427800,6.725427734375,-0.4782923427596688,-0.2694920636743307,0.6187824712067842
1726407176045423900,6.735423828125,-0.47451574683040376,-0.12237725639045238,0.7778110036462544
1726407176055419600,6.745419677734375,-0.4131301347583532,-0.08756663977205753,0.87263623624444
1726407176065415700,6.755415771484375,-0.37677784165591,-0.12192425192594528,0.7807002953469753
1726407176075411200,6.7654111328125,-0.3399199371188879,-0.1784118628233671,0.6066840371340513
1726407176085407500,6.775407470703125,-0.3572314296647906,-0.1467974118977785,0.41497956201732156
1726407176095403500,6.785403564453125,-0.4133016919329762,-0.1713099218636751,0.18070728028416633
1726407176105400300,6.795400390625,-0.5000637373238802,-0.20904840862751006,0.012775894942879677
1726407176115396600,6.805396728515625,-0.5584548437550664,-0.158277421811223,-0.0825046802073717
1726407176125392400,6.815392333984375,-0.6281950271964073,-0.1168476793140173,-0.19766309126019477
1726407176135388400,6.825388427734375,-0.7424424608841538,-0.052172670307755464,-0.1786386573165655
1726407176145384200,6.83538427734375,-0.8540691906794905,-0.08075871332287787,-0.14740180753171442
1726407176155380500,6.84538037109375,-0.9000774931386113,-0.21622575291097162,-0.17308628388643263
1726407176165376500,6.85537646484375,-0.8888526270300149,-0.17270342204868794,-0.12629939827024936
1726407176175373300,6.865373291015625,-0.8385957272157073,-0.20570435889661312,-0.16567688441276548
1726407176185369600,6.87536962890625,-0.7415849672719835,-0.13378127845823765,-0.14833996516466139
1726407176195365400,6.885365478515625,-0.5751020271733402,0.08934066370725631,-0.16368249572515486
1726407176205361400,6.895361328125,-0.38790450808703897,0.24859189898669717,-0.0971837784230709
1726407176215357200,6.905357177734375,-0.16841741529256105,0.4181505932688713,-0.10236147332191467
1726407176225353500,6.915353515625,-0.023676351402699945,0.6047504387229681,-0.12527122426629067
1726407176235349500,6.925349609375,0.11518909845203161,0.61174073600173,-0.1277092650681734
1726407176245346300,6.93534619140625,0.11371961042135953,0.5219938295811415,0.017094927185773847
1726407176255342600,6.945342529296875,-0.06607581571489572,0.4406938489884138,0.2753378670930862
1726407176265338400,6.95533837890625,-0.3534758765235543,0.19574644398391244,0.2709995456278324
1726407176275334400,6.96533447265625,-0.6986594332590699,-0.053336453390121455,0.1791781710207462
1726407176285330200,6.975330078125,-0.9300997064366936,-0.0967044704735279,0.03590308803021908
1726407176295326500,6.985326416015625,-1.0492997940957545,-0.1957575498998165,-0.29517011028826234
1726407176305322500,6.995322509765625,-1.0726371228024363,-0.13593816423118113,-0.5791647465676069
1726407176315319300,7.0053193359375,-0.9985621250271797,0.0620224486708641,-0.918424173951149
1726407176325315600,7.015315673828125,-0.8601952723443508,0.25898002201020714,-1.2827683582305907
1726407176335311400,7.025311279296875,-0.6777177675172686,0.5217535910844803,-1.4734838223099707
1726407176345307400,7.035307373046875,-0.5556012078896164,0.8638403508484364,-1.3872235889613627
1726407176355303200,7.04530322265625,-0.45575960843414065,1.0846621993780134,-1.1057891585588455
1726407176365299500,7.055299560546875,-0.4479667626008391,1.251518064442277,-0.7142004090011119
1726407176375295500,7.06529541015625,-0.5760895769059657,1.1524141316115855,-0.4561947849810123
1726407176385292300,7.075292236328125,-0.7574599972739815,0.8277899633020163,-0.38291093758344646
1726407176395288600,7.08528857421875,-0.9467831302121281,0.5024836579471826,-0.2781622768640518
1726407176405284400,7.095284423828125,-1.009807449401915,0.27964930055141446,-0.23356033407151697
1726407176415280400,7.1052802734375,-1.005477018982172,0.10709317801892757,-0.2420335633844137
1726407176425276200,7.115276123046875,-0.8999556203246116,0.05019640179872512,-0.2495797409802675
1726407176435272400,7.1252724609375,-0.7241194532081484,0.026858196309208868,-0.2654004104465246
1726407176445268500,7.1352685546875,-0.5584311706185341,-0.003967150065302848,-0.43182782096564765
1726407176455265300,7.145265380859375,-0.3714434948906302,0.06343757616579532,-0.5974778173714875
1726407176465261600,7.155261474609375,-0.13171703940480947,0.2860299414992332,-0.7100216620117425
1726407176475257300,7.16525732421875,0.03486673071980476,0.555505054038763,-0.734659259662032
1726407176485253400,7.17525341796875,0.15079554162323475,0.6763175453305244,-0.7326403210550546
1726407176495249200,7.185249267578125,0.24626988577991724,0.5780956560313701,-0.7137567568868398
1726407176505245400,7.195245361328125,0.32878771772980686,0.37930502204596994,-0.6337175900101661
1726407176515241500,7.205241455078125,0.4306698831021786,0.2462076341986656,-0.37936581232249733
1726407176525238300,7.21523828125,0.46906449568718667,0.24890111106634139,-0.10446516760289669
1726407176535234600,7.225234619140625,0.41041766092926263,0.23489187493622302,0.11223813969194889
1726407176545230300,7.235230224609375,0.4187000438451767,0.2219131508976221,0.2236994497925043
1726407176555226400,7.245226318359375,0.37335371242612597,0.14280045121610163,0.3468552893400192
1726407176565222400,7.255222412109375,0.25241145727485415,0.042274961149692536,0.31964871798455713
1726407176575218400,7.265218505859375,0.23332710983753202,0.06009060382544994,0.3885270238995552
1726407176585214500,7.27521435546875,0.18873948783129452,0.06826689601838588,0.451068528008461
1726407176595211300,7.285211181640625,0.11870032144337891,0.1109866783261299,0.4454208775103092
1726407176605207600,7.29520751953125,0.0913435279622674,0.1679629495233297,0.33992169068455697
1726407176615203300,7.305203369140625,0.06161036073863506,0.1225806700080633,0.2644558230727911
1726407176625199400,7.315199462890625,0.10533698200136422,0.1828308483093977,0.18784779968857765
1726407176635195400,7.3251953125,0.14052958367466925,0.20059329949319363,0.130563485455513
1726407176645191400,7.33519140625,0.09087664110288024,0.11624562176764011,0.028342881909012792
1726407176655187500,7.3451875,0.1162193182826042,0.1726607519507408,-0.032250995263457295
1726407176665184500,7.3551845703125,0.14302198501229285,0.232034731939435,-0.029278701454401014
1726407176675180500,7.3651806640625,0.1471510476410389,0.3199813109397888,-0.09013327538967132
1726407176685176300,7.37517626953125,0.17035744344443082,0.4254617930650711,-0.04843932899832725
1726407176695172400,7.38517236328125,0.21445523610711095,0.4950374335944652,0.02295242104232311
1726407176705168400,7.39516845703125,0.2441708676740527,0.46209787154495713,0.017894553130865097
1726407176715164400,7.405164306640625,0.25213585520386694,0.39017128397524353,-0.012678864309191703
1726407176725160400,7.415160400390625,0.270494810976088,0.22493337550163267,-0.035516719061136244
1726407176735157500,7.425157470703125,0.2907956945963204,0.04385141668617725,-0.07900748574137688
1726407176745153500,7.435153564453125,0.457558766810596,-0.0835462982147932,-0.09960369904637337
1726407176755149300,7.4451494140625,0.7083893846347927,-0.1342751994550228,-0.018068740653991697
1726407176765145300,7.455145263671875,0.8944193212464451,-0.19974691179692744,0.059088733306527134
1726407176775141400,7.465141357421875,1.031128177589178,-0.31137364159226416,0.04808510873317718
1726407176785137400,7.475137451171875,1.06383685349226,-0.4038105177491903,-0.04700608132481575
1726407176795133400,7.485133544921875,1.068459106465429,-0.39415246256589886,-0.07421089911460876
1726407176805130500,7.495130615234375,0.9281761910282075,-0.32516660462319846,-0.1634855118483305
1726407176815126500,7.50512646484375,0.6997817152872681,-0.23178221848309039,-0.25359891349375246
1726407176825122300,7.515122314453125,0.4268155457615852,-0.0512649078130722,-0.2800672337025404
1726407176835118300,7.525118408203125,0.14329934064894914,0.05101531696617603,-0.32453707454800607
1726407176845114400,7.5351142578125,-0.06752323804423213,0.2515337976574898,-0.37968028509914875
1726407176855110400,7.5451103515625,-0.20251959138065576,0.5277455249756574,-0.43087095863223074
1726407176865106400,7.5551064453125,-0.30203444309979677,0.7555980027943849,-0.48940556518733497
1726407176875103500,7.565103515625,-0.2633867325365543,0.9548293662846088,-0.5399748919516801
1726407176885099500,7.575099609375,-0.2638252700842917,1.058773140361905,-0.6194903272151947
1726407176895095300,7.58509521484375,-0.21630086397379636,1.1304308478623628,-0.6852724206805229
1726407176905091300,7.59509130859375,-0.16480960005894302,1.1257523346573113,-0.7472785027384757
1726407176915087400,7.60508740234375,-0.16811083356142043,1.121431548848748,-0.7878782241523266
1726407176925083400,7.61508349609375,-0.2389510871991515,0.9962900884419679,-0.8341986613005399
1726407176935079400,7.625079345703125,-0.31981077667847274,0.7657622539341449,-0.8573205936908721
1726407176945076500,7.635076416015625,-0.43940863148346543,0.653895285642147,-0.8171995957046747
1726407176955072500,7.645072509765625,-0.49917526405155654,0.6087468148827553,-0.7195914543896913
1726407176965068300,7.655068359375,-0.5151923328727483,0.5184942970275879,-0.654646980792284
1726407176975064300,7.665064208984375,-0.537421992598474,0.3710241004347801,-0.6162772103875875
1726407176985060400,7.675060302734375,-0.5120742008522152,0.22480653425157068,-0.5721528219789266
1726407176995056400,7.685056396484375,-0.402883319901675,0.17017478035390377,-0.4763648818284273
1726407177005052400,7.695052490234375,-0.2557376790881157,0.11321195316016673,-0.4241980567395687
1726407177015049500,7.705049560546875,-0.11716595148295163,0.06900164003372192,-0.3999035734385252
1726407177025045500,7.71504541015625,-0.009091945733129977,0.03189151430130005,-0.38848084667026994
1726407177035041300,7.725041259765625,0.1048993212364614,0.01012275008559227,-0.3332464507043362
1726407177045037300,7.735037353515625,0.20701690279990434,0.018923311656713484,-0.2561217099696398
1726407177055033300,7.745033447265625,0.3416135892942548,0.039002807611227035,-0.18310206646621227
1726407177065029400,7.755029296875,0.43379970556050534,0.05337853896617889,-0.14448504330217837
1726407177075025700,7.765025634765625,0.4789125204846263,0.009745148944854736,-0.18189912041723727
1726407177085022500,7.7750224609375,0.5093446297578513,-0.1447585995465517,-0.2798872009605169
1726407177095018500,7.7850185546875,0.45234132442325353,-0.30658582279384133,-0.37076574175953864
1726407177105014500,7.7950146484375,0.3803597917959094,-0.41007366979718207,-0.39593466980755326
1726407177115010600,7.805010498046875,0.31919132960587737,-0.3796551506578922,-0.32020284473598004
1726407177125006300,7.81500634765625,0.2771859791778028,-0.3221545633256435,-0.2815104182481766
1726407177135002400,7.82500244140625,0.2512450438439846,-0.22230419604182242,-0.26180910795629025
1726407177144998700,7.83499853515625,0.1998059485077858,-0.15214169553518295,-0.2957528786122799
1726407177154995500,7.844995361328125,0.16469021146297455,-0.10184007979631424,-0.3200345024317503
1726407177164991500,7.854991455078125,0.18064678226858377,-0.008204933765530586,-0.3481505898475647
1726407177174987500,7.864987548828125,0.23636779270768163,0.14045184226334095,-0.3553139056056738
1726407177184983600,7.874983642578125,0.3097989396214485,0.24003800565302372,-0.27970366108715533
1726407177194979300,7.884979248046875,0.25100568213015795,0.3079208707898855,-0.2352624618142843
1726407177204975400,7.894975341796875,0.18102292210459708,0.3190262021720409,-0.2236474273443222
1726407177214971600,7.9049716796875,0.14567542213052512,0.31817221569120885,-0.26744974419176576
1726407177224968400,7.914968505859375,0.1974129158914089,0.4014624933183193,-0.28383798441290853
1726407177234964500,7.924964599609375,0.28489933003410695,0.4738654662281275,-0.27385493505895137
1726407177244960500,7.93496044921875,0.3207952576711774,0.4872317282795906,-0.25878479169905183
1726407177254956500,7.94495654296875,0.36040596804767844,0.4442933347851038,-0.2784370021522045
1726407177264952300,7.954952392578125,0.3651487786605954,0.39762510711252685,-0.3281897518366575
1726407177274948400,7.9649482421875,0.3779866329237819,0.3837298527508974,-0.4168003477036953
1726407177284944600,7.974944580078125,0.41192192801237104,0.3896709332376718,-0.47734980121254916
1726407177294941400,7.98494140625,0.41331805854588743,0.44917701517343517,-0.5135960035920143
1726407177304937500,7.9949375,0.3996247564971447,0.5128402167886495,-0.5365571924626827
1726407177314933500,8.00493359375,0.40571313650012014,0.6190630417138338,-0.5408809008806944
1726407177324929500,8.014929443359375,0.4101940813064575,0.7376748080909252,-0.47179567421674723
1726407177334925300,8.02492529296875,0.4876499536916613,0.8059130625367165,-0.41643502152264117
1726407177344921300,8.03492138671875,0.5401511253014206,0.8308347378253936,-0.4111269782423973
1726407177354917600,8.044917724609375,0.5080041749343276,0.8413847734123467,-0.3882295022577047
1726407177364914400,8.05491455078125,0.49670419776290653,0.8377525543898343,-0.38916006110608575
1726407177374910500,8.064910400390625,0.4384310186229646,0.8219453289270401,-0.36202012524604793
1726407177384906500,8.074906494140626,0.37650136280208824,0.7713280713677406,-0.3504506834834814
1726407177394902500,8.084902587890625,0.28813158995360133,0.67177522572577,-0.37224692022800443
1726407177404898300,8.094898193359375,0.217212571991235,0.5338485180258751,-0.401679350939393
1726407177414894600,8.10489453125,0.09729980601817369,0.3340519218683243,-0.37916590583622456
1726407177424890600,8.114890625,-0.07507569925040006,0.007715688943862915,-0.3297375658005476
1726407177434887400,8.124887451171874,-0.23347119448333978,-0.17791852634847163,-0.28009003005623817
1726407177444883700,8.1348837890625,-0.3364683353602886,-0.26872400191128254,-0.18354454953670502
1726407177454879500,8.14487939453125,-0.422783806027472,-0.3348182300657034,-0.10951952838301658
1726407177464875500,8.15487548828125,-0.5613420896291732,-0.42962884961664677,0.000083002108335495
1726407177474871300,8.164871337890625,-0.6661456954061985,-0.5141121364206075,0.16907120302617548
1726407177484867600,8.17486767578125,-0.7769771831706166,-0.5938333233892917,0.33095804750621316
1726407177494863600,8.184863525390625,-0.7891573041774332,-0.6739607530713081,0.47361295277178284
1726407177504860400,8.1948603515625,-0.7464131180807948,-0.7267202833563089,0.5456944386422634
1726407177514856700,8.204856689453125,-0.6275663739040493,-0.7012029802620411,0.626904987385869
1726407177524852500,8.2148525390625,-0.4776981762588024,-0.6996715329110622,0.6950555635482072
1726407177534848500,8.2248486328125,-0.3981716350793838,-0.7134668340295552,0.7793050415962934
1726407177544844300,8.23484423828125,-0.28780601126104594,-0.7070604741185903,0.8582476454079151
1726407177554840600,8.244840576171875,-0.1659349508270621,-0.7034142265707254,0.8092588658332824
1726407177564836600,8.254836669921875,-0.019724106645584105,-0.5780868882030248,0.8421604339599609
1726407177574833400,8.26483349609375,0.06749152773171663,-0.5019990893006324,0.8952508036345243
1726407177584829700,8.27482958984375,0.05725947205275297,-0.4909136316627264,0.822227068477869
1726407177594825500,8.284825439453124,-0.01482961260229349,-0.464500256511569,0.7560095062047243
1726407177604821500,8.294821533203125,-0.11170374055430292,-0.4328881436735391,0.6377975528001785
1726407177614817300,8.3048173828125,-0.21520123216882348,-0.4315080874919891,0.5079997910201549
1726407177624813600,8.3148134765625,-0.3252674346491694,-0.4364589878976345,0.33817513927817344
1726407177634809600,8.3248095703125,-0.4896186234161257,-0.4915513450443744,0.15195114139914512
1726407177644806400,8.334806396484375,-0.6309057474598289,-0.5863426753729581,-0.031273674663901324
1726407177654802700,8.344802734375,-0.7452242005571722,-0.6506015047937631,-0.16561200248301028
1726407177664798500,8.354798583984374,-0.8009010795935988,-0.627100802218914,-0.21687457220852374
1726407177674794500,8.36479443359375,-0.7962167211696505,-0.5422165333986282,-0.17488076608777045
1726407177684790300,8.374790283203126,-0.7797729513689875,-0.43843467188477514,-0.06396189230084419
1726407177694786600,8.38478662109375,-0.7235387307107448,-0.41256724017858504,-0.04655307686030864
1726407177704782600,8.394782470703126,-0.6298945245906711,-0.47834524199068545,-0.17096446942687032
1726407177714779400,8.404779296875,-0.5442375178322195,-0.5468108754515647,-0.2316507010579109
1726407177724775700,8.414775634765626,-0.38206425762623547,-0.5416618221253157,-0.26312135959863664
1726407177734771500,8.424771484375,-0.24386267850771545,-0.5034077870547771,-0.27449557105004785
1726407177744767500,8.434767578125,-0.14280921904444693,-0.36744098125100133,-0.1824076544612646
1726407177754763300,8.44476318359375,-0.09015563335195183,-0.15457155303061007,-0.06081248835921287
1726407177764759600,8.454759521484375,-0.07268091306835413,0.06477671581506729,0.04238835839629173
1726407177774755600,8.464755615234376,-0.12189298000484704,0.24060382284224033,0.10459785407185554
1726407177784752400,8.47475244140625,-0.17357728227376937,0.3351794645935297,0.14954992547631263
1726407177794748700,8.484748779296876,-0.23014409588724374,0.3465601057857275,0.1928513070642948
1726407177804744400,8.494744384765625,-0.2584418234802782,0.32141806574463844,0.2530249129980802
1726407177814740500,8.504740478515625,-0.2782698288917541,0.20164017819762228,0.20940438245832918
1726407177824736300,8.514736328125,-0.32525136029720303,0.04568155472278595,0.16226327657699585
1726407177834732500,8.524732666015625,-0.35990430213585495,-0.0827145235657692,0.11591945855319499
1726407177844728600,8.534728515625,-0.3630420156396925,-0.16355799256265163,0.18002923489212988
1726407177854725400,8.544725341796875,-0.17500483085885643,-0.18842413827180862,0.3669131579846143
1726407177864721700,8.5547216796875,-0.04197349398508668,-0.26173487367630005,0.49612113717794415
1726407177874717400,8.564717529296875,-0.05078209273219108,-0.38225802663266656,0.5650105490088463
1726407177884713500,8.57471337890625,0.002606821497529745,-0.39987084021270275,0.5613654705047607
1726407177894709200,8.584709228515624,0.036406653638184065,-0.4218535394400358,0.6190525203198194
1726407177904705500,8.59470556640625,0.0023006781578063964,-0.49643385638892645,0.6408090095758437
1726407177914701600,8.60470166015625,-0.04692804765254259,-0.5801712932616472,0.5925128884404898
1726407177924698400,8.614698486328125,-0.13626520422846078,-0.6492535973161458,0.47659635249674315
1726407177934694700,8.624694580078126,-0.23176292926073072,-0.6102127957820892,0.46551206390261646
1726407177944690400,8.6346904296875,-0.2905918425872922,-0.4957131408989429,0.5278250199526549
1726407177954686500,8.6446865234375,-0.3057577014066279,-0.44712008264362807,0.5338812512516975
1726407177964682500,8.6546826171875,-0.24001959321349858,-0.46992111251652235,0.47754795413315293
1726407177974678500,8.664678466796875,0.03189180656224489,-0.45636020467579363,0.32965573273599147
1726407177984674600,8.674674560546874,0.3617702421382069,-0.33555238955914973,0.2707207286864519
1726407177994671600,8.684671630859375,0.6321404038213193,-0.13489596170186996,0.22702187221348286
1726407178004667600,8.694667724609374,0.8224022789143025,0.07136720012128353,0.16118717177808284
1726407178014663400,8.704663330078125,0.8608322550736367,0.18323007676005362,0.08848550818264483
1726407178024659500,8.714659423828126,0.7925181589126586,0.21718670689761638,-0.04800502923429012
1726407178034655500,8.724655517578125,0.6782030668161809,0.20508476569354533,-0.2692074015140533
1726407178044651500,8.734651611328125,0.6772063108637929,0.16152502543032168,-0.5315162756860256
1726407178054647600,8.7446474609375,1.0407865250334143,0.210191733443737,-0.7457628374785185
1726407178064644600,8.75464453125,1.2771706843540072,0.4137579112678766,-0.7831991264253855
1726407178074640600,8.764640625,1.3488029651522635,0.6680617581605911,-0.777659027954936
1726407178084636700,8.77463671875,1.3312377901062369,0.7743623244971036,-0.8445745093643665
1726407178094632700,8.7846328125,1.139207444036007,0.8398498189300299,-0.9298948315143585
1726407178104628500,8.79462841796875,0.8462497491002082,0.729939245402813,-0.9202280085027217
1726407178114624500,8.80462451171875,0.6446984182298183,0.6000286708980799,-0.951138110551238
1726407178124620800,8.814620849609375,0.39381665474027394,0.55918461933434,-0.9276853387713432
1726407178134617600,8.82461767578125,0.42598552467823025,0.5328180059343576,-0.8828390658289194
1726407178144613600,8.834613525390624,0.5971005084916949,0.4532072936028242,-0.7609341031253337
1726407178154609700,8.844609619140625,0.6901593159392476,0.3587164075255394,-0.6559142242491245
1726407178164605700,8.854605712890624,0.8285726381123065,0.3317588424950838,-0.6073492230445147
1726407178174601500,8.8646015625,0.9762836577236652,0.16793489247262477,-0.5922060144484043
1726407178184597500,8.874597412109376,0.9128022424161434,-0.06451192739903927,-0.5947065990924835
1726407178194593800,8.88459375,0.7429179694414139,-0.29723171899318696,-0.5395768325448036
1726407178204590600,8.894590576171876,0.6038686874523759,-0.488583142888546,-0.5230506451576948
1726407178214586600,8.904586669921875,0.5257362309798598,-0.5143319166511297,-0.5017956756830215
1726407178224582700,8.914582763671875,0.4461630741797387,-0.49376376039683817,-0.4485094911754131
1726407178234578700,8.92457861328125,0.3111015466526151,-0.4688111054480076,-0.4174970977962017
1726407178244574500,8.934574462890625,0.1773436490699649,-0.3990525095671415,-0.41575872969627375
1726407178254570500,8.944570556640626,0.13978957896232605,-0.2659568752855062,-0.3758253632366657
1726407178264566800,8.95456689453125,0.18194091373234986,-0.03645429217219352,-0.3466659042477607
1726407178274563600,8.9645634765625,0.24055413848161697,0.21808920869529247,-0.28237317255735395
1726407178284559600,8.9745595703125,0.2780360201358795,0.3744008833914995,-0.21401976729929445
1726407178294555600,8.9845556640625,0.2748969914577901,0.35540158388912674,-0.16381752028167246
1726407178304551700,8.9945517578125,0.2391036474123597,0.2669341958850622,-0.15464637183248997
1726407178314547500,9.00454736328125,0.24267127676606176,0.29320144056379793,-0.051129298734664916
1726407178324543500,9.01454345703125,0.2749488677754998,0.3094587478816509,0.10009820456504821
1726407178334539800,9.024539794921875,0.31624022471532226,0.26857027265429495,0.1752355708748102
1726407178344536600,9.03453662109375,0.34578356845527886,0.1959533647328615,0.24360534274578094
1726407178354532600,9.04453271484375,0.37437326473221183,0.13300912504196166,0.27832185133993625
1726407178364528600,9.054528564453125,0.4640786700986326,0.09166180013120175,0.2500689858019352
1726407178374524700,9.064524658203124,0.5207547893054782,0.05747896002233028,0.14606500597000122
1726407178384520400,9.0745205078125,0.5955307749569416,-0.015555296528339386,0.008130699485540389
1726407178394516700,9.084516845703124,0.5275587702319026,-0.16978607329726217,-0.05273498036563396
1726407178404512800,9.0945126953125,0.3741290807127952,-0.28247897101938724,-0.16130524519979952
1726407178414509600,9.104509521484376,0.30747751093655823,-0.28896599495112896,-0.204850372415781
1726407178424505600,9.114505615234375,0.3048343029513955,-0.1638596058577299,-0.1266296531379223
1726407178434501600,9.124501708984376,0.21352876891195774,-0.026129297512769697,-0.041299394115805625
1726407178444497700,9.13449755859375,0.02426964112073183,0.022883447459340095,-0.04012801224887371
1726407178454493400,9.144493408203125,-0.03633300388008356,0.05918401037454605,-0.042426352319121355
1726407178464489700,9.15448974609375,-0.018879180254042147,0.080361238437891,-0.05610591810345649
1726407178474485800,9.16448583984375,0.05143149655163288,0.16235095486044882,-0.09623159226477146
1726407178484482600,9.174482666015624,0.09974836821407079,0.3149228585064411,-0.08914309530854225
1726407178494478600,9.184478515625,0.22425825271904468,0.5529390029430389,-0.01969955672621727
1726407178504474600,9.194474609375,0.37833150083869693,0.6937818903505801,0.09100655109286308
1726407178514470700,9.204470703125,0.47778439323753114,0.7063923655986786,0.09277356076538562
1726407178524466400,9.214466552734375,0.5246151179954409,0.587864770373702,0.05197919356226921
1726407178534462700,9.224462646484374,0.4819330373495817,0.3296796981334686,-0.014025602743029594
1726407178544458800,9.234458740234375,0.39001901602298017,0.047643210184574125,-0.2053951468169689
1726407178554454500,9.24445458984375,0.31913550776541233,-0.147965871155262,-0.22582944755852222
1726407178564451600,9.25445166015625,0.2899462381601333,-0.3137450468987226,-0.27764497499167917
1726407178574447600,9.264447509765626,0.26029022782593964,-0.40351591871678827,-0.3156470811277628
1726407178584443600,9.274443603515625,0.26300562426447865,-0.4846680152714252,-0.30125439863801
1726407178594439400,9.284439453125,0.1952060534968972,-0.5284387679368258,-0.32903613953292365
1726407178604435700,9.294435791015625,0.19782558834552763,-0.48809974328577516,-0.34665888998508454
1726407178614431700,9.304431640625,0.17032178760915995,-0.389402053168416,-0.2767635159820318
1726407178624428500,9.314428466796874,0.0846636118069291,-0.27970190752148627,-0.23848493099212645
1726407178634424600,9.324424560546875,0.005984335106611251,-0.2505950555026531,-0.20724632764160633
1726407178644420600,9.334420654296874,-0.03402297337204218,-0.24542320582270621,-0.20854045910537242
1726407178654416600,9.344416748046875,-0.06987579251974821,-0.2178600761145353,-0.17852759815752506
1726407178664412400,9.354412353515626,-0.14181757765859365,-0.16922200967371462,-0.16382979524135588
1726407178674408700,9.36440869140625,-0.2407894085422158,-0.04517652781009674,-0.06158639534115791
1726407178684404700,9.37440478515625,-0.3277180426716804,0.050095279511809344,0.04948679222464561
1726407178694400500,9.384400390625,-0.394713603579998,0.14907354013621807,0.15272914003431795
1726407178704397600,9.3943974609375,-0.4690113041952252,0.22245149555802343,0.17980770109593866
1726407178714393600,9.4043935546875,-0.4686047692209482,0.2919569934606552,0.1865033993422985
1726407178724389600,9.4143896484375,-0.34347003081589933,0.36052199564278126,0.14447802903950213
1726407178734385400,9.424385498046876,-0.19900339995324612,0.2614987268328667,0.07435936767458916
1726407178744381700,9.434381591796875,-0.0862345143854618,0.18235738557875156,-0.02870119382739067
1726407178754377700,9.444377685546876,-0.09495821132808924,0.1375163733333349,-0.13388941500782967
1726407178764373500,9.45437353515625,-0.08169540965110063,0.07023848835229873,-0.09845686709880828
1726407178774370600,9.46437060546875,-0.20003917274177074,0.034680852758884426,-0.15741232941448688
1726407178784366600,9.47436669921875,-0.38807869561016556,0.08486907125115394,-0.149746909353137
1726407178794362600,9.484362548828125,-0.6156544023141265,0.04350537972748279,-0.15412264021933078
1726407178804358400,9.4943583984375,-0.8264873562708497,0.09979249961674212,-0.1376864692032337
1726407178814354700,9.504354736328125,-0.9218848357990383,0.23598785347938536,-0.048069326642155644
1726407178824350700,9.514350830078126,-0.9445350590243935,0.30659809775352476,-0.09416180025339126
1726407178834346500,9.524346435546875,-1.0173162175968289,0.2623521287918091,-0.08329320023655891
1726407178844343600,9.534343505859376,-1.0662287170648574,0.0653600686609745,-0.19733575900197028
1726407178854339600,9.544339599609375,-1.1013593594178557,-0.15715513978302478,-0.33768706350028516
1726407178864335600,9.554335693359375,-1.0732724980965256,-0.3691431089937687,-0.4409469469666481
1726407178874331400,9.564331298828124,-1.0358286103650927,-0.4634656527668237,-0.47253509440720076
1726407178884327700,9.57432763671875,-0.9151184104040264,-0.5211158777028322,-0.40071664338707924
1726407178894323700,9.58432373046875,-0.7702376457825303,-0.57238896882236,-0.3947346463680267
1726407178904319500,9.594319580078125,-0.5757654595181345,-0.4740986904621124,-0.3696154026806354
1726407178914316500,9.604316650390626,-0.4460536224558949,-0.348051221126318,-0.34392508110702036
1726407178924312600,9.6143125,-0.3700350893974304,-0.21400281616449354,-0.20911036794781684
1726407178934308600,9.62430859375,-0.39733635329902167,-0.1786293049663305,-0.19940730457901953
1726407178944304600,9.6343046875,-0.4378410899057984,-0.11627484786212444,-0.15300971054136753
1726407178954300700,9.64430078125,-0.44977878045886754,-0.09865385097563266,0.04249357233643532
1726407178964296700,9.654296630859376,-0.44107904891371724,0.045158992153406144,0.23991817866563794
1726407178974292500,9.66429248046875,-0.3281275002554059,0.27772973066568374,0.45035833391249175
1726407178984289500,9.67428955078125,-0.21373598192185161,0.5069079041302204,0.5552426037102938
1726407178994285600,9.68428564453125,-0.15762217277288437,0.6942518459498882,0.5981383271068335
1726407179004281600,9.694281494140625,-0.15236264480948447,0.5921808800071477,0.5552636464983225
1726407179014277600,9.704277587890624,-0.22359657393991947,0.32329087387919425,0.4522241277843714
1726407179024273700,9.714273681640625,-0.3267489053785801,0.07309680039286613,0.3711433429002762
1726407179034269700,9.724269775390624,-0.4341667853072285,-0.199665663254261,0.23320026858747003
1726407179044265500,9.734265380859375,-0.5257537666365504,-0.35308337007462975,0.1583271061718464
1726407179054262500,9.744262451171876,-0.47862405893206594,-0.2311328146636486,0.17981413083672523
1726407179064258600,9.754258544921875,-0.30998686340898274,-0.033628713357448575,0.29819851819872856
1726407179074255000,9.764255126953126,-0.13263298520594835,0.11323708760142326,0.3555868773281574
1726407179084251000,9.7742509765625,-0.03560235151797533,0.15496201365292073,0.3443897760093212
1726407179094247000,9.784246826171875,0.02676087341457605,0.026442601245641708,0.1848696606606245
1726407179104242700,9.79424267578125,0.04849515083879232,-0.0542190814435482,0.05390051701366901
1726407179114239000,9.804239013671875,0.10341741211563348,-0.15533786122798918,-0.08246201010942458
1726407179124235800,9.81423583984375,0.11460136169195174,-0.19281097505390643,-0.19382570505440233
1726407179134231800,9.824231689453125,0.042722704917192454,-0.18964637354314326,-0.16147534106969832
1726407179144228000,9.83422802734375,-0.01854834086447954,-0.022157471272349356,-0.1235047991156578
1726407179154223900,9.844223876953125,-0.059600189960002894,0.27039281190633774,-0.13430325650572775
1726407179164220000,9.854219970703125,-0.016270751321315766,0.4666694172441959,-0.15642156481146813
1726407179174215700,9.864215576171874,-0.006348492243885994,0.5420891076266765,-0.1788642827659845
1726407179184212000,9.8742119140625,-0.16334230398535726,0.639152474540472,-0.1462619898468256
1726407179194208800,9.884208740234374,-0.3211336958453059,0.4882908819437027,-0.05837503207921981
1726407179204204800,9.894204833984375,-0.4022396151706576,0.06335515857934951,0.1602384927511215
1726407179214201000,9.904201171875,-0.4313303928375244,-0.13965280084013937,0.3952928647726774
1726407179224196900,9.91419677734375,-0.45512014148682356,0.07687339632213115,0.541161471387744
1726407179234193000,9.92419287109375,-0.43661768559068437,0.33836978506743903,0.5177940398037433
1726407179244188700,9.934188720703125,-0.4050128792762756,0.43626784923970696,0.4624614441603422
1726407179254185000,9.94418505859375,-0.3697279231444001,0.38549861598908897,0.35015140827596186
1726407179264181800,9.954181640625,-0.32963673577457664,0.27007366295456886,0.16274141548275947
1726407179274177800,9.964177734375,-0.3604229191824794,0.10989245334863662,-0.03514671670496464
1726407179284174000,9.974174072265624,-0.5356579055353999,-0.09218670078814029,-0.22004151180684564
1726407179294169900,9.984169921875,-0.8260942653000354,-0.3998299236804247,-0.377673036929965
1726407179304166000,9.994165771484376,-1.1607447375833988,-0.687974665376544,-0.496175497713685
1726407179314161700,10.00416162109375,-1.4199252506017683,-0.8958990384101867,-0.5006003284186125
1726407179324158000,10.014157958984375,-1.605719917152822,-1.048422426739335,-0.41907179976701736
1726407179334154800,10.02415478515625,-1.7050301862105726,-1.1267138731658457,-0.4014613242745399
1726407179344150800,10.03415087890625,-1.7124623820379374,-1.2242436885476111,-0.45420331890285015
1726407179354147000,10.04414697265625,-1.485354292845726,-1.2095143214493989,-0.4867506667643785
1726407179364142800,10.054142822265625,-1.03201051338166,-0.9837971020936965,-0.493465654233098
1726407179374139000,10.064138916015626,-0.5019371299803257,-0.7110217789649963,-0.47773441661596294
1726407179384134700,10.074134765625,0.11143559113740921,-0.38808512535095213,-0.43459085593819613
1726407179394131000,10.084130859375,0.6895400149971246,0.06550853722095488,-0.4860930796384811
1726407179404127700,10.094127685546875,1.2226973358884452,0.5813520274788141,-0.38489363583326336
1726407179414123800,10.104123779296875,1.564723305375874,1.0309925685107708,-0.33613457336127756
1726407179424120000,10.1141201171875,1.6154291180014608,1.3389309749573468,-0.27289105846285816
1726407179434115800,10.12411572265625,1.4929717821121216,1.419385152375698,-0.16482172888815402
1726407179444112000,10.13411181640625,1.1679328955218196,1.3997697668015956,-0.05182137265205383
1726407179454108000,10.14410791015625,0.8898916146889329,1.415513279378414,0.022290742263197896
1726407179464104000,10.15410400390625,0.6242877906247973,1.3837684800714254,0.10989829856753348
1726407179474100700,10.164100830078125,0.343321562255919,1.3571902697473763,0.1649707819700241
1726407179484096800,10.1740966796875,0.17822569260150192,1.3945605077207088,0.2857522936016321
1726407179494093000,10.184093017578125,0.04448591519743204,1.3478443492531775,0.23498890556991098
1726407179504088800,10.1940888671875,-0.08171119174212217,1.1650362972974777,0.1054272906333208
1726407179514084900,10.2040849609375,-0.2197097956344485,0.8822580510705709,-0.03909691563546657
1726407179524081000,10.214080810546875,-0.36714053699970245,0.5967459959656,-0.1807563801229
1726407179534077000,10.224076904296876,-0.47722792839854955,0.3017687779009342,-0.292138195246458
1726407179544073700,10.23407373046875,-0.5319660652801395,0.010512626186013221,-0.2537748545825481
1726407179554070000,10.244070068359376,-0.5307239562645554,-0.2328057163119316,-0.19320143567621706
1726407179564066000,10.254066162109375,-0.4392562174007296,-0.4118406794697046,-0.3275596372395754
1726407179574061800,10.264061767578125,-0.2839984356716275,-0.5303665211290121,-0.3425719129323959
1726407179584057900,10.274057861328124,-0.089199501670897,-0.6000830314338207,-0.40888066062033174
1726407179594054000,10.284053955078125,0.1287044135853648,-0.5729810894966125,-0.46953883520066736
1726407179604050000,10.2940498046875,0.30920214277207847,-0.5230617510735989,-0.4514636648058891
1726407179614046700,10.304046630859375,0.41625469651967284,-0.4300041126698255,-0.4488046747297048
1726407179624043000,10.31404296875,0.47205987811088557,-0.28929157364368435,-0.4476391380816698
1726407179634039000,10.3240390625,0.4184647737845778,-0.1956277860403061,-0.40807986563146115
1726407179644034800,10.334034912109376,0.3726806354701519,-0.05453589230775833,-0.4096475533396005
1726407179654030800,10.34403076171875,0.27221768924593925,0.12734510793089865,-0.3172457484960556
1726407179664027000,10.35402685546875,0.10859802962392567,0.24688860220015046,-0.265832372123003
1726407179674023000,10.36402294921875,-0.15573475159108638,0.3342646878361702,-0.24267244580984115
1726407179684019000,10.37401904296875,-0.398495752467215,0.4163502658486366,-0.21850363471508025
1726407179694016000,10.38401611328125,-0.5853258995458483,0.4914923083335161,-0.1218190379858017
1726407179704012000,10.394011962890625,-0.7592614937379956,0.5963438449054956,-0.023279753300547597
1726407179714007800,10.4040078125,-0.8497516197413205,0.6412210975080728,0.06608662936985492
1726407179724003800,10.41400390625,-0.8876417899355292,0.6773638395130633,0.13293956693708897
1726407179733999900,10.423999755859375,-0.84735595677644,0.6428267791390418,0.1811351503074169
1726407179743996000,10.433995849609374,-0.8211354738488793,0.5796814639180898,0.21424247013926503
1726407179753992000,10.443991943359375,-0.7775698883667588,0.42588966308832166,0.22308219467699528
1726407179763989000,10.453989013671874,-0.7471870250627398,0.3438689670056104,0.26840134582817554
1726407179773985000,10.463985107421875,-0.6179872291758656,0.1961111856430769,0.34966800867319103
1726407179783980800,10.473980712890626,-0.49886722101569175,0.07379998022615909,0.4014700921028852
1726407179793976800,10.483976806640625,-0.38523295079022646,-0.09358195453882216,0.3812280990630388
1726407179803972900,10.493972900390625,-0.2626183785125613,-0.24738719937205314,0.35428573160171506
1726407179813969000,10.503968994140624,-0.24963147116750478,-0.37624329638779164,0.34502281321585176
1726407179823965000,10.51396484375,-0.17860563182979822,-0.5158487509548664,0.29948388183414937
1726407179833962000,10.5239619140625,-0.11605068371742963,-0.5675199014812707,0.27380817330777646
1726407179843958000,10.5339580078125,-0.022989245921373365,-0.5601408971458673,0.2973649899840355
1726407179853953800,10.543953857421876,0.027274960416555402,-0.4986462717413902,0.28599019401073456
1726407179863949800,10.55394970703125,0.04231383185535669,-0.435025740224123,0.2645195359587669
1726407179873945900,10.56394580078125,-0.08853986871838569,-0.5063718975573778,0.1941366706997156
1726407179883942000,10.57394189453125,-0.3756275025770068,-0.5245101963162422,0.1528355230182409
1726407179893938000,10.58393798828125,-0.43247985513359305,-0.4565887527346611,0.19278350252509116
1726407179903935000,10.59393505859375,-0.259836346578598,-0.26162673712670803,0.1958785459309816
1726407179913931000,10.603930908203125,-0.21913871774822472,-0.14080840061604977,0.1941372552216053
1726407179923926800,10.6139267578125,-0.16867781979441643,-0.029259996753931043,0.1706260312527418
1726407179933922800,10.6239228515625,-0.12573065847158432,0.036117607563734055,0.11845569903254509
1726407179943918800,10.6339189453125,-0.07940671419203281,0.03865735517442226,0.08467150285243988
1726407179953915000,10.643914794921875,-0.09651859251260757,-0.048519993019104,-0.03409749991297722
1726407179963911000,10.653910888671875,0.00659136108905077,-0.13328735746145248,-0.14456979897618294
1726407179973908000,10.663907958984375,0.082772683493793,-0.1124947448015213,-0.14900515107512474
1726407179983904000,10.673904052734375,0.1267500646471977,-0.08633096049726009,-0.07819090866148472
1726407179993899800,10.683899658203124,0.1421345346532762,-0.13557225352823735,-0.013822189125418662
1726407180003896000,10.69389599609375,0.060991205926984544,-0.2066764187991619,0.03569324467182159
1726407180013891800,10.703891845703126,0.01711538545191288,-0.30913550727665423,0.09422902027070522
1726407180023888000,10.713887939453125,-0.011132511650025843,-0.3842781342834234,0.12466975124180316
1726407180033884000,10.7238837890625,-0.029712708957493304,-0.40192601917684073,0.17677520153224469
1726407180043881000,10.733880859375,0.003022270430624485,-0.4636182129800319,0.19241291564702986
1726407180053877000,10.743876953125,0.030865386123955247,-0.4817319618195295,0.17193126863241195
1726407180063872800,10.753872802734374,0.09440759170800447,-0.4027010952025652,0.2271247480660677
1726407180073868800,10.763868896484375,0.161074943575263,-0.26016835501193997,0.3251233500033617
1726407180083864800,10.77386474609375,0.2102814575538039,-0.08421966743171215,0.46762452601194376
1726407180093860900,10.78386083984375,0.2443161213636398,0.08399579554796219,0.5894231057316065
1726407180103857000,10.79385693359375,0.18734613377675413,0.12603870150744914,0.6256541105419396
1726407180113854000,10.80385400390625,0.11775544180870055,0.1571633230894804,0.648272185063362
1726407180123850000,10.81385009765625,-0.014980126988887786,0.18248013517558573,0.585759322527051
1726407180133845800,10.823845703125,-0.07484130597263575,0.23288579581081867,0.4837959086120128
1726407180143841800,10.833841796875,-0.0686896514751017,0.2543161218523979,0.34239012662470336
1726407180153837800,10.843837890625,-0.07621712437048554,0.23785189378559587,0.14829028080403803
1726407180163833900,10.853833740234375,-0.11702025940194725,0.10273615185320377,-0.0886135184764862
1726407180173830000,10.863829833984376,-0.1376215872734785,-0.05466974782049656,-0.32148236315250395
1726407180183827000,10.873826904296875,-0.17428689184784887,-0.17808511508703231,-0.4750853634119033
1726407180193823000,10.883822998046876,-0.244604875177145,-0.3074848174601793,-0.5780354502767324
1726407180203818800,10.89381884765625,-0.32629502413123845,-0.3620844226539135,-0.534120905226469
1726407180213814800,10.903814697265625,-0.4222682577207684,-0.38038638754189014,-0.4445136995375156
1726407180223810800,10.913810791015624,-0.5338333204567433,-0.41846097439229485,-0.28744039281904693
1726407180233806800,10.923806884765625,-0.6096341191112995,-0.31982699716091156,-0.04338847534954548
1726407180243803000,10.933802978515626,-0.6178142106965184,-0.18091653912067412,0.1970166100502014
1726407180253800000,10.943800048828125,-0.6269374283507466,-0.13447802855074406,0.30048984400629997
1726407180263796000,10.9537958984375,-0.6097162444368004,-0.1638736343830824,0.306655380898714
1726407180273791700,10.963791748046875,-0.5652499107226729,-0.13342881175875662,0.26832652702629567
1726407180283787800,10.973787841796875,-0.476615349458158,-0.0930447789222002,0.21699147658646106
1726407180293783800,10.98378369140625,-0.40250177323818204,-0.06268646553754806,0.18644845428466797
1726407180303779800,10.99377978515625,-0.3872258781731128,-0.03588847498297691,0.19267010527849196
1726407180313775900,11.00377587890625,-0.3549044480219483,0.022847207102179527,0.217429868003726
1726407180323773000,11.01377294921875,-0.3791042387768626,0.05105447993278503,0.28177053048908707
1726407180333769000,11.02376904296875,-0.4022895917922258,0.03699497492015361,0.28696225391328334
1726407180343764700,11.0337646484375,-0.3593403846427798,0.04030219977200031,0.23169629376530645
1726407180353761000,11.043760986328126,-0.2987657966926694,0.02476151629090309,0.11643676042556762
1726407180363756800,11.0537568359375,-0.2205845326423645,0.0645277094900608,-0.003836217162013054
1726407180373752800,11.0637529296875,-0.1608276908159256,0.06751753895580768,-0.021911387556791305
1726407180383748900,11.073748779296874,-0.15603285775482653,0.027271453285217285,-0.01679857458770275
1726407180393746000,11.083745849609375,-0.16823124507069587,0.0021288287222385404,0.01068739823102951
1726407180403742000,11.093741943359374,-0.19280717566162348,-0.016616203758120535,0.08677169000208378
1726407180413737700,11.10373779296875,-0.29779899748712774,-0.09870411985814571,0.19027941074967383
1726407180423734000,11.113734130859376,-0.35126959865093227,-0.22084230679571626,0.23885142621695993
1726407180433729800,11.123729736328125,-0.2551511113718152,-0.33689211373031136,0.24282734411060808
1726407180443725800,11.133725830078125,-0.12250175955295561,-0.41328970923423763,0.1480477042198181
1726407180453721900,11.143721923828124,0.01714285798072815,-0.36495384061038494,-0.0011263736814260481
1726407180463719000,11.153718994140625,0.17814619762450457,-0.2490571784108877,-0.18089783442020416
1726407180473715000,11.16371484375,0.22350421948134896,-0.13770283581614493,-0.38487259304523463
1726407180483710700,11.173710693359375,0.20294483105540273,-0.09514204346239566,-0.5600614021688699
1726407180493707000,11.18370703125,0.22246640086621045,-0.005032148948311805,-0.6486725825577974
1726407180503702800,11.193702880859375,0.22359335906952618,0.0670031596928835,-0.6682213326364755
1726407180513698800,11.20369873046875,0.24778292069137095,0.20558453190922735,-0.5885112515836953
1726407180523694800,11.21369482421875,0.2194099359050393,0.3075467767804861,-0.4737725272476673
1726407180533692000,11.22369189453125,0.13059651094228028,0.34954292098879813,-0.35701369526088234
1726407180543688000,11.23368798828125,0.0905935863777995,0.35157238098978993,-0.22859715870618819
1726407180553683700,11.24368359375,0.07884206604659556,0.37814416157305236,-0.07471943315863609
1726407180563680000,11.253679931640624,0.11848843225836753,0.391026439499855,0.0034083471387624737
1726407180573675800,11.26367578125,0.13919804280996323,0.3867664439678192,-0.04019114061295986
1726407180583671800,11.273671875,0.1414534205213189,0.269657483369112,-0.11641688668131828
1726407180593667800,11.283667724609375,0.11541940007656812,0.11009995861947536,-0.18711480923891066
1726407180603665000,11.293664794921876,0.13033376835286617,0.04897592009305954,-0.2157651496618986
1726407180613661000,11.303660888671875,0.10169278028011322,0.028252281016111373,-0.20945348229706287
1726407180623656700,11.31365673828125,0.005904547868669033,-0.0694470457136631,-0.1330465344429016
1726407180633653000,11.323653076171874,-0.13003887705951928,-0.1472077462643385,-0.048396658900380134
1726407180643648800,11.333648681640625,-0.21465777294188737,-0.13402677765190601,0.037736148676276206
1726407180653644800,11.343644775390626,-0.18041998777538537,0.05050853648781776,0.1256698681950569
1726407180663640800,11.353640869140625,-0.047509062410891055,0.20045126067399976,0.16158289309740065
1726407180673638000,11.363637939453126,0.05537701930701732,0.20736264749765396,0.06189443837702274
1726407180683634000,11.373634033203125,0.14584493347853422,0.1522954247921705,-0.10366554165780544
1726407180693629700,11.383629638671875,0.24824118585288524,0.17712766823172568,-0.2488052494764328
1726407180703626000,11.3936259765625,0.3784998431429267,0.29128654685318467,-0.3291793473958969
1726407180713621800,11.403621826171875,0.4995774151116609,0.44011166518628597,-0.291472424814105
1726407180723617800,11.41361767578125,0.4741384379506111,0.4957599026501178,-0.3561363279044628
1726407180733613800,11.42361376953125,0.42142040871977804,0.40301089180409905,-0.40254678142368794
1726407180743611000,11.43361083984375,0.3360679378658533,0.25883622962534425,-0.44144846674799915
1726407180753607000,11.44360693359375,0.25648148319274183,0.2144312707096338,-0.44906361792683597
1726407180763602700,11.453602783203126,0.28167437663823364,0.21527064414322375,-0.4325076199233532
1726407180773599000,11.463598876953125,0.3042524114102125,0.23586276579499243,-0.3272054169744253
1726407180783594800,11.4735947265625,0.3373904186412692,0.319781404453516,-0.23409283351302146
1726407180793590800,11.4835908203125,0.352308878570795,0.3328933994829654,-0.2194377006947994
1726407180803587000,11.493587158203125,0.4257134297385812,0.27029928840398787,-0.18598785103559493
1726407180813584000,11.503583984375,0.4568456501051783,0.17861176930963993,-0.22921032216846943
1726407180823580000,11.513579833984375,0.40714667643457647,0.15158873782753943,-0.2301607547610998
1726407180833575700,11.52357568359375,0.3493900685146451,0.1452864228129387,-0.2100795052409172
1726407180843572000,11.533572021484375,0.20798779365867376,0.08243862923383713,-0.323401348516345
1726407180853567700,11.543567626953125,0.11051759950965642,0.17935937280654907,-0.23521803815066814
1726407180863563800,11.553563720703124,0.003746493051946163,0.1700029309183359,-0.3623305063694715
1726407180873560000,11.56356005859375,-0.21858576004058122,-0.01017243444621563,-0.5258528430968523
1726407180883556900,11.573556884765624,-0.4073290472641587,-0.06895137115120888,-0.603967179390788
1726407180893553000,11.583552978515625,-0.42843467139601704,-0.07051262911856174,-0.6907295170426369
1726407180903549000,11.593548828125,-0.5089934782326221,-0.0996107133090496,-0.798532304635644
1726407180913545000,11.603544921875,-0.4921268068447709,-0.05052081144750118,-0.8822218107134103
1726407180923540700,11.613540771484375,-0.4781982347354293,-0.031150340545177457,-0.8063678205668926
1726407180933536800,11.623536865234374,-0.35897272037416694,0.02142448082268238,-0.6763105310678482
1726407180943533000,11.633532958984375,-0.21467180146723985,0.1289332539051771,-0.5408318010419607
1726407180953529900,11.64352978515625,-0.08295417754054069,0.26597733355164527,-0.41322891895771025
1726407180963526000,11.65352587890625,0.04562544062137604,0.4515975203186273,-0.1884907737672329
1726407180973522000,11.66352197265625,0.18447160125374792,0.6460147615253925,0.1872013184785843
1726407180983518000,11.67351806640625,0.273868671323359,0.7175701776951551,0.4102057717442512
1726407180993513700,11.683513671875,0.18556670301407574,0.5775970588594674,0.38001930779516696
1726407181003509800,11.693509765625,-0.06718231565207243,0.2872895861715078,0.21228899798393247
1726407181013506000,11.703506103515625,-0.34124007980674503,-0.05745031844973564,0.09754267486333847
1726407181023502800,11.7135029296875,-0.5183598569929599,-0.03615793957412243,0.22959552209377287
1726407181033499000,11.723498779296875,-0.6193406896114348,-0.0640659371972084,0.17849778754115103
1726407181043495000,11.733494873046874,-0.7372793790325523,-0.050154316222667694,0.0841518628925085
1726407181053491000,11.743490966796875,-0.7531807125195861,-0.06262450621724128,-0.009654548051953316
1726407181063486700,11.75348681640625,-0.686208532486856,-0.11194704779088496,-0.14769699108600615
1726407181073482800,11.763482666015625,-0.5854819668903947,-0.08044950124323368,-0.11354279254972933
1726407181083479000,11.77347900390625,-0.38095512734055514,-0.00952361514866352,-0.1133919859021902
1726407181093475800,11.783475830078125,-0.196687231965363,0.13319324943721295,-0.10014379727244377
1726407181103471900,11.793471923828125,-0.10948562611341475,0.1995399910479784,-0.07935702983140945
1726407181113468000,11.803468017578124,-0.0964513724952936,0.0671200640708208,-0.13489070100486278
1726407181123464000,11.8134638671875,-0.0677782357186079,-0.10791384675204753,-0.1588660353541374
1726407181133459700,11.823459716796876,-0.05550912125408649,-0.22793723349273204,-0.08955401419699191
1726407181143455700,11.833455810546875,-0.06720277391821146,-0.3652922787845134,-0.07827274172604083
1726407181153452000,11.8434521484375,-0.13351765908598898,-0.41441842100322246,0.00018880057036876677
1726407181163448800,11.85344873046875,-0.20904314793050288,-0.4657850356251001,0.06282265913784503
1726407181173444900,11.86344482421875,-0.26528818224370476,-0.45192835970818995,0.07308686352074145
1726407181183441000,11.87344091796875,-0.25838380968272684,-0.3897065890729427,0.1511070917904377
1726407181193437000,11.88343701171875,-0.17580606423914433,-0.23849428334236145,0.06660451576411723
1726407181203432700,11.8934326171875,-0.10122983894348143,-0.09669453360140323,0.0867050545066595
1726407181213428700,11.9034287109375,-0.07649930231273173,-0.020656419059634206,0.099915833735466
1726407181223425000,11.913425048828126,-0.11452098993211984,-0.048880058503150935,0.08614040636122226
1726407181233421800,11.923421875,-0.22821078973710535,-0.14680501068234442,0.014110358417034148
1726407181243417900,11.93341796875,-0.33212241511046886,-0.23078911579251288,-0.051100657162070275
1726407181253414000,11.943413818359375,-0.4623223279505968,-0.29079379490017887,-0.11626140385866164
1726407181263410000,11.953409912109375,-0.621876930090785,-0.261430922293663,-0.1579687942534685
1726407181273405700,11.96340576171875,-0.7797095307439565,-0.1023252329647541,-0.19320669637322424
1726407181283401700,11.973401611328125,-0.8903548482865095,0.08780629374682902,-0.15265490575432777
1726407181293398000,11.98339794921875,-0.9217425047188996,0.3315232801735401,-0.11850538339316845
1726407181303394800,11.993394775390625,-0.9715320792824029,0.42227790233194823,-0.03908990137279034
1726407181313390800,12.003390869140626,-0.9643611647397279,0.3822521814137697,0.004330722680687904
1726407181323387000,12.013386962890625,-0.946764717772603,0.2745236281007528,-0.10533844330608844
1726407181333383000,12.0233828125,-0.9510852113202214,0.08721768020391464,-0.12404431281983852
1726407181343378700,12.033378662109374,-0.8280319553643465,-0.01291734924018383,-0.08137947556972504
1726407181353375000,12.043375,-0.7246960840523242,0.0270791455835104,0.0007394201904535293
1726407181363371000,12.05337109375,-0.6667068364202976,-0.02263444113433361,0.17725041782855985
1726407181373367800,12.063367919921875,-0.7234197805061936,-0.14681436303257941,0.3081377284109592
1726407181383363800,12.07336376953125,-0.8075012085109948,-0.26808745757341385,0.40635435701310635
1726407181393360000,12.08335986328125,-0.7938760032624006,-0.30055180332660675,0.5149059171468019
1726407181403356000,12.09335595703125,-0.6827092921942473,-0.2727034269362688,0.5940595333606005
1726407181413351700,12.1033515625,-0.5377908259108662,-0.24671967537403106,0.5470359163790941
1726407181423348000,12.113347900390625,-0.368155851522088,-0.15061492435932158,0.5800310080081225
1726407181433344000,12.123343994140624,-0.195674547791481,-0.0839735837161541,0.6204582954645157
1726407181443340800,12.1333408203125,-0.061955228653550146,-0.056771688535809516,0.5612596720427274
1726407181453336800,12.1433369140625,-0.018122516667842863,-0.10366963331103324,0.398324195292592
1726407181463332900,12.153332763671875,0.022661621402204034,-0.2354208672463894,0.244996504843235
1726407181473329000,12.163328857421876,0.053152328994870185,-0.26464871529638767,0.18292729442119599
1726407181483324700,12.17332470703125,0.053906946754455565,-0.2736591202259064,0.07864215956032276
1726407181493321000,12.183321044921875,-0.01542436362504959,-0.29147534742355347,0.020614333483576774
1726407181503317000,12.19331689453125,-0.06586158844232559,-0.2707861951380968,0.02662672564089298
1726407181513313800,12.203313720703125,-0.055607905453443525,-0.20594459739327428,-0.01675122831463814
1726407181523309800,12.213309814453124,0.003787701845169067,-0.16702537641227244,-0.04725684121549129
1726407181533305900,12.223305908203125,0.055198740130662914,-0.11511106477975845,-0.07312953361868858
1726407181543302000,12.233302001953126,0.08272036878466606,-0.008712298765778542,-0.03933773865401745
1726407181553297700,12.243297607421875,0.12533815202265977,0.11037351486384868,-0.001695113480091095
1726407181563294000,12.2532939453125,0.11460399204045534,0.13562252241075037,0.03382978888750076
1726407181573290000,12.2632900390625,0.0789057789325714,0.05492518388628959,0.10953355690836906
1726407181583286800,12.273286865234375,0.030839082638919352,-0.08119593569636345,0.12572890490591526
1726407181593282800,12.28328271484375,-0.05514233376830816,-0.17237492074668406,0.16766192075014114
1726407181603278800,12.29327880859375,-0.25135434943735596,-0.15941957758367062,0.2775134575664997
1726407181613275000,12.30327490234375,-0.46168958300501106,-0.1294610771715641,0.4757534719318151
1726407181623270700,12.313270751953125,-0.6574845423057675,-0.12333821037709712,0.5277309119284153
1726407181633267000,12.323266845703126,-0.7476376914396882,-0.08992109394371509,0.40713352469205855
1726407181643263000,12.333262939453125,-0.7829024815663694,0.027081483671069145,0.37329262988865375
1726407181653259800,12.343259765625,-0.7772422638475894,0.1398614751547575,0.2732353418558836
1726407181663255800,12.353255859375,-0.6941504314020276,0.12516425676047802,0.16490297743082047
1726407181673251800,12.363251953125,-0.6176417767390608,0.05793488709628582,0.06730769559741019
1726407181683247900,12.373247802734374,-0.5586734549418092,0.01894318540096283,0.010709025540947914
1726407181693243600,12.38324365234375,-0.4701581361427903,-0.014499649995565413,-0.015209844091534613
1726407181703240000,12.393239990234376,-0.37652357463389635,-0.06402618970870971,-0.10399521200358867
1726407181713236000,12.403236083984375,-0.21218495308756827,-0.08397592180371284,-0.15941840853989123
1726407181723232800,12.413232666015626,0.055368251478672026,-0.07796177608072757,-0.25648411354124545
1726407181733228800,12.423228759765625,0.3564043311908841,-0.03613514322042465,-0.2936649664223194
1726407181743224800,12.433224853515625,0.6555716944217681,-0.0615343728929758,-0.3285410494923591
1726407181753220900,12.443220947265624,0.9709399586081504,0.017203063735365866,-0.39976621079444885
1726407181763216600,12.453216552734375,1.26668377713114,0.2217389633744955,-0.31814941933751106
1726407181773213000,12.463212890625,1.3642913339242337,0.4122048366069793,-0.22579729885458946
