time,seconds_elapsed,z,y,x
1726407169330515000,0.020514892578125,0.09608551859855652,0.4357141852378845,-0.2694823443889618
1726407169340512000,0.030511962890625,0.24399694800376892,0.6115382313728333,-0.3608386218547821
1726407169350508000,0.040508056640625,0.20518110692501068,0.664680540561676,-0.5982404947280884
1726407169360503800,0.05050390625,-0.0362943597137928,0.6995852589607239,-0.8385700583457947
1726407169370499800,0.060499755859375,-0.2103114277124405,0.6695908904075623,-0.9890322685241699
1726407169380496100,0.07049609375,-0.2860693037509918,0.611488401889801,-1.0033366680145264
1726407169390492000,0.080491943359375,-0.35191622376441956,0.4363706707954407,-0.8958495855331421
1726407169400488000,0.090488037109375,-0.5123099088668823,0.08479984104633331,-0.631355345249176
1726407169410485000,0.100485107421875,-0.8015334606170654,-0.401311993598938,-0.24624945223331451
1726407169420481000,0.11048095703125,-1.075182318687439,-0.8625879883766174,0.29563406109809875
1726407169430476800,0.120476806640625,-1.1786751747131348,-1.0050448179244995,0.8803592920303345
1726407169440473000,0.13047314453125,-1.0825086832046509,-0.7939884662628174,1.3655691146850586
1726407169450469000,0.14046923828125,-1.072582483291626,-0.42897531390190125,1.7765414714813232
1726407169460465000,0.15046484375,-1.0027827024459839,-0.0581463947892189,2.0808658599853516
1726407169470461000,0.1604609375,-0.6888846755027771,0.1626477688550949,2.1367902755737305
1726407169480458000,0.1704580078125,-0.5270816683769226,0.2243148684501648,1.9222557544708252
1726407169490454000,0.1804541015625,-0.5305781364440918,0.14734311401844025,1.6933603286743164
1726407169500449800,0.19044970703125,-0.5892150402069092,-0.025239309296011925,1.5483895540237427
1726407169510446000,0.200446044921875,-0.7217465043067932,-0.4266005754470825,1.2393803596496582
1726407169520442000,0.210442138671875,-0.7292147874832153,-0.8051958084106445,0.7746866345405579
1726407169530438000,0.22043798828125,-0.46737146377563477,-0.9429598450660706,0.3639734387397766
1726407169540434000,0.230433837890625,-0.15788842737674713,-0.8259280323982239,0.0734822079539299
1726407169550431000,0.240430908203125,-0.1345788538455963,-0.973560631275177,-0.2624651789665222
1726407169560427000,0.250427001953125,-0.405565083026886,-1.4124356508255005,-0.6172325611114502
1726407169570422800,0.2604228515625,-0.29830706119537354,-2.1842188835144043,-0.909001350402832
1726407169580419000,0.270419189453125,0.2188418060541153,-3.8654377460479736,-0.9578253030776978
1726407169590415000,0.2804150390625,1.0088016986846924,-4.868469715118408,-1.0213505029678345
1726407169600411000,0.290410888671875,1.994729995727539,-5.911064624786377,-0.9800747036933899
1726407169610407000,0.300406982421875,2.000155448913574,-5.801218032836914,-0.8896902203559875
1726407169620404000,0.310404052734375,1.4759864807128906,-4.7577080726623535,-0.977756142616272
1726407169630400000,0.32039990234375,1.120001196861267,-3.6647894382476807,-0.8270111083984375
1726407169640395800,0.330395751953125,0.8850682973861694,-3.0712649822235107,-0.15250645577907562
1726407169650392000,0.34039208984375,0.43000757694244385,-2.9307446479797363,0.6512361168861389
1726407169660388000,0.35038818359375,-0.13372717797756195,-3.2922027111053467,1.2647626399993896
1726407169670383900,0.3603837890625,-0.45956334471702576,-3.881563901901245,1.6255098581314087
1726407169680380000,0.3703798828125,-0.43164169788360596,-4.559535980224609,2.0666654109954834
1726407169690377000,0.380376953125,-0.30210205912590027,-5.178565502166748,2.6531341075897217
1726407169700373000,0.390373046875,-0.16446644067764282,-5.4529337882995605,3.177670478820801
1726407169710368800,0.40036865234375,0.15819096565246582,-5.468033313751221,3.7123284339904785
1726407169720365000,0.410364990234375,0.6906434297561646,-5.490056037902832,4.233089923858643
1726407169730361000,0.420361083984375,1.2724032402038574,-5.469783782958984,4.6519880294799805
1726407169740356900,0.43035693359375,1.8090651035308838,-5.455930709838867,4.9936113357543945
1726407169750353000,0.440352783203125,2.327857255935669,-5.692978858947754,5.3912553787231445
1726407169760349000,0.450348876953125,2.851386308670044,-6.262970924377441,5.905092239379883
1726407169770346000,0.460345947265625,3.4959588050842285,-6.570157051086426,6.46749210357666
1726407169780341800,0.470341796875,4.387082576751709,-5.9404754638671875,6.941144943237305
1726407169790338000,0.480338134765625,5.337532043457031,-4.4929518699646,7.233492851257324
1726407169800334000,0.490333984375,6.235513210296631,-2.6987500190734863,7.2816386222839355
1726407169810329900,0.500329833984375,7.193689346313477,-1.0894397497177124,6.9338507652282715
1726407169820326000,0.510325927734375,8.238839149475098,0.22279046475887299,6.190797328948975
1726407169830322000,0.520322021484375,9.243436813354492,1.2883100509643555,5.301742076873779
1726407169840319000,0.530319091796875,10.161163330078125,2.7740025520324707,4.246191024780273
1726407169850314800,0.540314697265625,11.21299934387207,4.010394096374512,3.246281147003174
1726407169860311000,0.55031103515625,12.067891120910645,4.147731781005859,2.4523391723632812
1726407169870307000,0.56030712890625,12.181949615478516,3.471806049346924,1.8858075141906738
1726407169880302800,0.570302734375,11.821096420288086,2.9770796298980713,1.6105551719665527
1726407169890299100,0.580299072265625,11.280921936035156,2.639756679534912,1.381454586982727
1726407169900295000,0.590294921875,10.965002059936523,1.8861359357833862,1.1216917037963867
1726407169910292000,0.6002919921875,11.027100563049316,1.1628141403198242,0.9333196878433228
1726407169920288000,0.6102880859375,11.143166542053223,0.6057024002075195,1.016831636428833
1726407169930284000,0.620283935546875,10.92617130279541,0.38720762729644775,1.4319063425064087
1726407169940280000,0.630280029296875,10.59217643737793,0.5990210771560669,2.0138537883758545
1726407169950275800,0.64027587890625,10.151199340820312,0.48222815990448,2.7256829738616943
1726407169960272100,0.650272216796875,9.744758605957031,0.06465675681829453,3.4268741607666016
1726407169970268000,0.660267822265625,9.307279586791992,-0.06892607361078262,4.072093963623047
1726407169980265000,0.670264892578125,8.572613716125488,0.06772418320178986,4.652656555175781
1726407169990261000,0.680260986328125,7.483602523803711,0.34553077816963196,5.046139717102051
1726407170000257000,0.690257080078125,6.226957321166992,1.0063673257827759,5.2023210525512695
1726407170010253000,0.700253173828125,4.7784223556518555,1.85873281955719,5.2158074378967285
1726407170020248800,0.710248779296875,3.0736894607543945,2.6382031440734863,5.090060234069824
1726407170030245000,0.7202451171875,1.3853391408920288,3.348435401916504,4.909655570983887
1726407170040241000,0.730240966796875,-0.15456533432006836,3.9144182205200195,4.708765983581543
1726407170050238000,0.740238037109375,-1.5453519821166992,4.082071781158447,4.237750053405762
1726407170060234000,0.75023388671875,-2.8736815452575684,3.9440548419952393,3.4645869731903076
1726407170070231300,0.760231201171875,-3.922210454940796,3.803267240524292,2.6181328296661377
1726407170080227000,0.77022705078125,-4.68191385269165,3.6106622219085693,1.858660101890564
1726407170090223000,0.78022314453125,-5.324320316314697,3.329069137573242,1.2137467861175537
1726407170100219100,0.79021923828125,-5.835888385772705,3.0042436122894287,0.6380065679550171
1726407170110215200,0.800215087890625,-6.176629066467285,2.580385208129883,0.07686442136764526
1726407170120212000,0.8102119140625,-6.3418498039245605,2.1992199420928955,-0.4410455822944641
1726407170130208000,0.8202080078125,-6.288405895233154,2.072726249694824,-0.9152733087539673
1726407170140204300,0.830204345703125,-5.9778571128845215,2.024326801300049,-1.4495437145233154
1726407170150200000,0.840199951171875,-5.601498603820801,2.089056968688965,-1.9934759140014648
1726407170160196000,0.850196044921875,-5.092963218688965,2.2461466789245605,-2.2846086025238037
1726407170170192100,0.860192138671875,-4.48997688293457,1.9750436544418335,-2.1525461673736572
1726407170180188200,0.870188232421875,-3.9838948249816895,0.785646378993988,-1.481052279472351
1726407170190185000,0.88018505859375,-3.941096305847168,-0.7615050673484802,-0.8198389410972595
1726407170200181000,0.890180908203125,-3.7938404083251953,-2.1476547718048096,-0.2922278642654419
1726407170210177300,0.90017724609375,-3.2955503463745117,-3.1152138710021973,0.05680469423532486
1726407170220173000,0.910173095703125,-2.740093469619751,-3.5244295597076416,0.046958453953266144
1726407170230169000,0.920169189453125,-2.164954662322998,-3.5624277591705322,-0.2061968445777893
1726407170240165000,0.9301650390625,-1.5695377588272095,-2.9953224658966064,-0.3099096715450287
1726407170250161200,0.9401611328125,-0.8982610702514648,-2.526132822036743,-0.13015960156917572
1726407170260158000,0.950157958984375,-0.4475519359111786,-2.370530843734741,0.12215413898229599
1726407170270154000,0.960154052734375,-0.25673699378967285,-2.2761857509613037,0.3655090034008026
1726407170280150300,0.970150390625,-0.3236563503742218,-2.101496458053589,0.5173174142837524
1726407170290146000,0.98014599609375,-0.5111146569252014,-1.974863052368164,0.48548972606658936
1726407170300142000,0.99014208984375,-0.5477254390716553,-2.077242374420166,0.34728100895881653
1726407170310138000,1.00013818359375,-0.5587775111198425,-2.209597110748291,0.06591270118951797
1726407170320134100,1.010134033203125,-0.5025978684425354,-2.0948832035064697,-0.12738245725631714
1726407170330130200,1.020130126953125,-0.5261735320091248,-1.7901049852371216,-0.08351167291402817
1726407170340127000,1.030126953125,-0.495565265417099,-1.4559943675994873,0.06267829239368439
1726407170350123300,1.040123291015625,-0.4125569462776184,-1.40110445022583,0.07796084135770798
1726407170360119000,1.050119140625,-0.3647606670856476,-1.4406415224075317,-0.05161073058843613
1726407170370115000,1.060114990234375,-0.3466026782989502,-1.4628008604049683,-0.17090755701065063
1726407170380111000,1.070111083984375,-0.3339289724826813,-1.502700924873352,-0.25834473967552185
1726407170390107100,1.080107177734375,-0.2847481071949005,-1.1868805885314941,-0.3639659583568573
1726407170400103200,1.090103271484375,-0.19931896030902863,-0.6415243148803711,-0.2768121659755707
1726407170410100000,1.100099853515625,-0.16674157977104187,-0.19139578938484192,-0.30256810784339905
1726407170420096300,1.11009619140625,-0.13923779129981995,0.2547939419746399,-0.3249301612377167
1726407170430092000,1.120092041015625,-0.07741649448871613,0.5135080814361572,-0.35674160718917847
1726407170440088000,1.130088134765625,-0.024817997589707375,0.6294003129005432,-0.3857932388782501
1726407170450084000,1.140083984375,-0.05726595222949982,0.5030373334884644,-0.3431469798088074
1726407170460080000,1.150080078125,-0.14634603261947632,0.2343917340040207,-0.33984410762786865
1726407170470076200,1.160076171875,-0.25724565982818604,0.1376023292541504,-0.44452473521232605
1726407170480073000,1.170072998046875,-0.43152183294296265,0.25019413232803345,-0.8476993441581726
1726407170490069200,1.1800693359375,-0.4731347858905792,0.40196314454078674,-1.0884586572647095
1726407170500065000,1.19006494140625,-0.38638657331466675,0.8731125593185425,-1.1627146005630493
1726407170510061000,1.20006103515625,-0.22753462195396423,1.3033018112182617,-1.01479971408844
1726407170520057000,1.21005712890625,-0.33843663334846497,1.3897674083709717,-1.3280094861984253
1726407170530053000,1.22005322265625,-0.7111585736274719,1.8453024625778198,-2.1203150749206543
1726407170540049200,1.230049072265625,-0.8938780426979065,2.523526668548584,-2.793745517730713
1726407170550046200,1.240046142578125,-0.8085106611251831,3.1160480976104736,-2.9757890701293945
1726407170560042200,1.250042236328125,-0.7212221026420593,3.094625949859619,-2.432039260864258
1726407170570038000,1.2600380859375,-1.192320704460144,2.383974075317383,-1.8759759664535522
1726407170580034000,1.270033935546875,-1.7829245328903198,1.392211675643921,-1.419628620147705
1726407170590030000,1.280030029296875,-1.7635130882263184,0.6275216937065125,-0.8029731512069702
1726407170600026000,1.290026123046875,-1.7307865619659424,0.2810063660144806,-0.18334105610847473
1726407170610022100,1.300022216796875,-1.8044530153274536,-0.1301787793636322,0.1128072440624237
1726407170620019200,1.310019287109375,-1.705960750579834,-0.6472306847572327,0.3082611560821533
1726407170630015200,1.32001513671875,-1.6145459413528442,-1.1920000314712524,0.39596065878868103
1726407170640011000,1.330010986328125,-1.5471093654632568,-1.8108330965042114,0.27510958909988403
1726407170650007000,1.340007080078125,-1.4322065114974976,-2.38187313079834,-0.2108408659696579
1726407170660003000,1.350003173828125,-1.0853859186172485,-2.440078020095825,-0.706145167350769
1726407170669999000,1.3599990234375,-0.74889075756073,-2.3378658294677734,-1.0142041444778442
1726407170679995100,1.3699951171875,-0.37349796295166016,-2.044785737991333,-1.3329523801803589
1726407170689991000,1.379990966796875,-0.0032029838766902685,-1.279024362564087,-1.694648265838623
1726407170699988200,1.38998828125,0.08946996182203293,-0.30963507294654846,-2.235069990158081
1726407170709984000,1.39998388671875,0.05281554535031319,0.24082033336162567,-2.92533016204834
1726407170719980000,1.40997998046875,-0.0790969505906105,0.27262914180755615,-3.3752973079681396
1726407170729976000,1.41997607421875,0.1578676551580429,0.5790029168128967,-3.6971302032470703
1726407170739972000,1.42997216796875,0.39234381914138794,0.3188357651233673,-3.697629451751709
1726407170749968100,1.439968017578125,0.08581557124853134,0.21447262167930603,-3.448939085006714
1726407170759965200,1.449965087890625,-0.02893764153122902,0.06950024515390396,-3.023301601409912
1726407170769961200,1.459961181640625,-0.18042702972888947,0.36952024698257446,-2.5863258838653564
1726407170779957000,1.46995703125,-0.41064372658729553,0.6141942143440247,-2.460357427597046
1726407170789953000,1.479953125,-0.40680983662605286,0.6733701825141907,-2.7150256633758545
1726407170799949000,1.489948974609375,-0.10989294201135635,1.0727386474609375,-3.21000337600708
1726407170809945000,1.499945068359375,0.2311815619468689,1.8104403018951416,-3.7412500381469727
1726407170819941000,1.509941162109375,0.4538886547088623,2.3115789890289307,-4.125574588775635
1726407170829937000,1.51993701171875,0.4791055917739868,2.568389654159546,-4.280806541442871
1726407170839934200,1.529934326171875,0.2264682948589325,2.5025153160095215,-4.153514862060547
1726407170849930000,1.539929931640625,-0.17597874999046326,1.9459054470062256,-3.8527631759643555
1726407170859926000,1.549926025390625,-0.15915769338607788,0.6742295622825623,-3.60520339012146
1726407170869922000,1.559922119140625,0.23860245943069458,-0.6337820291519165,-3.181389093399048
1726407170879918000,1.56991796875,0.8082576394081116,-1.7233823537826538,-2.673489809036255
1726407170889914000,1.5799140625,1.5219990015029907,-2.3639187812805176,-1.9556905031204224
1726407170899910000,1.589909912109375,2.3757638931274414,-2.7236039638519287,-1.079063057899475
1726407170909907200,1.5999072265625,3.2594993114471436,-3.721367120742798,-0.6306458711624146
1726407170919903000,1.609903076171875,3.9964380264282227,-5.078607559204102,-0.5372772812843323
1726407170929899000,1.61989892578125,4.664425849914551,-6.125877857208252,-0.376947283744812
1726407170939895000,1.62989501953125,5.236464023590088,-6.464303493499756,-0.09903443604707718
1726407170949891000,1.63989111328125,5.609774589538574,-6.192455768585205,0.3777467608451843
1726407170959887000,1.64988720703125,5.782342433929443,-6.1024065017700195,0.9261584877967834
1726407170969883100,1.659883056640625,5.449624538421631,-6.766633987426758,1.3773589134216309
1726407170979880200,1.669880126953125,4.881455421447754,-7.178929328918457,1.6371228694915771
1726407170989876000,1.6798759765625,4.474592685699463,-6.852133750915527,1.9446489810943604
1726407170999872300,1.689872314453125,4.104674339294434,-6.2472405433654785,2.1844284534454346
1726407171009868000,1.699867919921875,3.651430130004883,-5.284535884857178,2.4952242374420166
1726407171019864000,1.709864013671875,3.1458089351654053,-4.994129657745361,2.6893951892852783
1726407171029860000,1.719860107421875,2.5735838413238525,-5.779587745666504,2.7670071125030518
1726407171039856000,1.729856201171875,1.8834080696105957,-6.227747917175293,2.7812509536743164
1726407171049853200,1.739853271484375,0.9436942934989929,-5.761311054229736,2.5161430835723877
1726407171059849000,1.749848876953125,0.21681860089302063,-5.098358631134033,2.293808937072754
1726407171069845200,1.75984521484375,-0.39085376262664795,-3.8960824012756348,2.133601188659668
1726407171079841000,1.769841064453125,-0.8108310699462891,-2.57309627532959,1.7516428232192993
1726407171089837000,1.779837158203125,-0.978496253490448,-1.983220100402832,1.355812907218933
1726407171099833000,1.7898330078125,-0.8852403163909912,-1.8094274997711182,0.8460140824317932
1726407171109829000,1.7998291015625,-0.48409077525138855,-1.7189010381698608,0.3488972783088684
1726407171119825200,1.8098251953125,-0.00404587434604764,-1.4782426357269287,0.020718062296509743
1726407171129822000,1.819822021484375,0.32489314675331116,-1.2074191570281982,-0.16812802851200104
1726407171139818200,1.829818359375,0.5583093762397766,-1.0017286539077759,-0.37048566341400146
1726407171149814000,1.83981396484375,0.7570988535881042,-0.7832061052322388,-0.517788290977478
1726407171159810000,1.84981005859375,1.0175338983535767,-0.5605866312980652,-0.63726407289505
1726407171169806000,1.85980615234375,1.1988136768341064,-0.6469670534133911,-0.7205216884613037
1726407171179802000,1.869802001953125,1.3597568273544312,-0.5330948233604431,-0.8461435437202454
1726407171189798100,1.879798095703125,1.6163374185562134,-0.08276279270648956,-0.9840633273124695
1726407171199795000,1.889794921875,1.8419817686080933,0.4331809878349304,-1.0212724208831787
1726407171209791200,1.899791259765625,1.8347235918045044,0.509567379951477,-0.9166027903556824
1726407171219787000,1.909787109375,1.6070986986160278,0.4051666557788849,-0.8464942574501038
1726407171229783000,1.919782958984375,1.3473474979400635,-0.16998770833015442,-0.7847134470939636
1726407171239779000,1.929779052734375,0.986201286315918,-0.7401960492134094,-0.7446494102478027
1726407171249775000,1.939775146484375,0.6102676391601562,-0.45927223563194275,-0.765336275100708
1726407171259771100,1.949771240234375,0.39573243260383606,0.4375869333744049,-0.9253587126731873
1726407171269768000,1.959767822265625,0.48453179001808167,1.4517184495925903,-1.1650816202163696
1726407171279764200,1.96976416015625,0.8090768456459045,2.5594353675842285,-1.4343534708023071
1726407171289760000,1.979760009765625,1.0511677265167236,3.3273963928222656,-1.695651650428772
1726407171299756000,1.989756103515625,1.0509113073349,3.227264404296875,-1.7981897592544556
1726407171309752000,1.999751953125,0.931285560131073,3.3496649265289307,-1.7591798305511475
1726407171319748000,2.009748046875,0.6758322715759277,4.260349750518799,-1.586098313331604
1726407171329744100,2.019744140625,0.5849175453186035,4.069673538208008,-1.5175445079803467
1726407171339740200,2.029740234375,0.6326770782470703,3.6808249950408936,-1.3994224071502686
1726407171349737200,2.0397373046875,0.47863155603408813,2.67204213142395,-1.045965313911438
1726407171359733000,2.04973291015625,0.21961891651153564,0.7225558161735535,-0.36177417635917664
1726407171369729000,2.05972900390625,0.1640981286764145,-0.4139588177204132,0.45345351099967957
1726407171379725000,2.06972509765625,0.19581077992916107,-1.121368169784546,1.1385838985443115
1726407171389721000,2.07972119140625,0.29660770297050476,-1.5640172958374023,1.6140340566635132
1726407171399717000,2.089717041015625,0.18793554604053497,-1.0079628229141235,1.7245699167251587
1726407171409714000,2.0997138671875,0.12187850475311279,-0.1218569278717041,1.4768775701522827
1726407171419710200,2.109710205078125,0.39248281717300415,0.6755883097648621,1.0861438512802124
1726407171429706000,2.1197060546875,0.8386693596839905,1.468130350112915,0.8188320398330688
1726407171439702000,2.129701904296875,1.1178780794143677,3.2336678504943848,0.8341971039772034
1726407171449698300,2.1396982421875,1.0197457075119019,5.311205863952637,0.5934028625488281
1726407171459694000,2.149694091796875,0.40818217396736145,5.601047515869141,0.40572458505630493
1726407171469690000,2.159690185546875,-0.10924286395311356,3.3439323902130127,0.7009469270706177
1726407171479686100,2.16968603515625,0.13600417971611023,0.24721963703632355,1.1222968101501465
1726407171489683200,2.17968310546875,0.9485154151916504,-1.6446559429168701,1.1708587408065796
1726407171499679000,2.189678955078125,1.5320241451263428,-2.3813652992248535,0.8155600428581238
1726407171509675000,2.199675048828125,0.86716228723526,-2.8597209453582764,0.6887131333351135
1726407171519671300,2.20967138671875,-0.14489459991455078,-3.3950254917144775,1.0958313941955566
1726407171529667000,2.2196669921875,-0.5443922281265259,-2.033228874206543,0.8617387413978577
1726407171539663000,2.2296630859375,-0.7864961624145508,-1.1978906393051147,0.13116760551929474
1726407171549660200,2.23966015625,-1.5026038885116577,-1.304856538772583,-0.0882803276181221
1726407171559656200,2.24965625,-2.137192964553833,-1.4378944635391235,0.2834160029888153
1726407171569652000,2.25965185546875,-2.6458287239074707,-1.6424236297607422,0.9335694909095764
1726407171579648000,2.26964794921875,-3.3986172676086426,-1.526031255722046,1.4512208700180054
1726407171589644300,2.279644287109375,-4.420217037200928,-0.9460285902023315,1.8445096015930176
1726407171599640000,2.28964013671875,-5.192041873931885,-0.7711872458457947,1.987491250038147
1726407171609636000,2.299635986328125,-5.652432441711426,-0.8347702622413635,1.8145341873168945
1726407171619632000,2.309632080078125,-5.38977575302124,-1.1831388473510742,0.8013917803764343
1726407171629629200,2.319629150390625,-4.541665554046631,-1.5477477312088013,-0.6059958934783936
1726407171639625000,2.329625,-3.583493709564209,-1.2002384662628174,-1.8994256258010864
1726407171649621000,2.33962109375,-2.8710134029388428,-0.8933800458908081,-2.62954044342041
1726407171659617300,2.3496171875,-2.294048309326172,-0.3931576609611511,-2.4566500186920166
1726407171669613000,2.359613037109375,-1.6290258169174194,0.35547900199890137,-1.666502833366394
1726407171679609000,2.369609130859375,-1.4607081413269043,0.9464735984802246,-0.8124622702598572
1726407171689605000,2.379605224609375,-1.0103505849838257,1.2023338079452515,-0.32529526948928833
1726407171699602200,2.389602294921875,-0.46081340312957764,1.6312367916107178,-0.11968991160392761
1726407171709598000,2.399597900390625,-0.35571229457855225,2.2536604404449463,0.05584462359547615
1726407171719594000,2.409593994140625,-0.17254486680030823,2.2879600524902344,-0.0320303700864315
1726407171729590300,2.41959033203125,-0.004713262431323528,1.836696982383728,-0.12702852487564087
1726407171739586000,2.4295859375,-0.06357844173908234,1.228295922279358,0.013370133936405182
1726407171749582000,2.43958203125,-0.22879163920879364,0.6398641467094421,0.034749723970890045
1726407171759579100,2.4495791015625,-0.4231925308704376,-0.18160361051559448,0.012463061138987541
1726407171769575200,2.4595751953125,-0.5306510925292969,-1.007786512374878,0.3704361319541931
1726407171779571000,2.469571044921875,-0.6165667772293091,-1.2816851139068604,0.9994239211082458
1726407171789567000,2.47956689453125,-0.5433772802352905,-1.3121058940887451,1.677390694618225
1726407171799563300,2.489563232421875,-0.3317030966281891,-1.512494683265686,2.0684144496917725
1726407171809559000,2.49955908203125,0.0007757788407616317,-1.5124586820602417,2.1111230850219727
1726407171819555000,2.50955517578125,0.25528237223625183,-1.1995567083358765,2.211055278778076
1726407171829552000,2.51955224609375,0.528991162776947,-0.8035185933113098,2.3944132328033447
1726407171839548200,2.529548095703125,0.7863044142723083,-0.5595186948776245,2.2989513874053955
1726407171849544000,2.5395439453125,1.032963514328003,-0.7604411244392395,2.1703433990478516
1726407171859540000,2.5495400390625,0.9849160313606262,-0.6766892671585083,1.882068157196045
1726407171869536300,2.559536376953125,0.7693736553192139,-0.021396901458501816,1.4136661291122437
1726407171879532000,2.569531982421875,0.6837964057922363,0.6662986874580383,1.1970890760421753
1726407171889528000,2.579528076171875,0.7685334086418152,0.797684907913208,1.144729733467102
1726407171899525000,2.589525146484375,1.091689109802246,0.4903191030025482,1.0119357109069824
1726407171909521200,2.599521240234375,1.328780174255371,-0.21216872334480286,0.7853981852531433
1726407171919517000,2.609516845703125,1.3947101831436157,-0.2501707077026367,0.6290961503982544
1726407171929513000,2.619512939453125,1.4007004499435425,-0.5183334350585938,0.6803684234619141
1726407171939509200,2.62950927734375,1.2599180936813354,-1.3785749673843384,0.7126200795173645
1726407171949505000,2.639505126953125,1.1863908767700195,-1.6846251487731934,0.606412410736084
1726407171959501000,2.6495009765625,1.237846851348877,-1.265414834022522,0.7592568397521973
1726407171969498000,2.659498046875,1.616124153137207,-0.7366095781326294,0.4946235716342926
1726407171979494100,2.669494140625,1.3354955911636353,0.13367949426174164,-0.0338013730943203
1726407171989490000,2.679489990234375,0.6230068802833557,0.017412278801202774,-0.5471925139427185
1726407171999486200,2.689486328125,0.023919980973005295,0.23164334893226624,-0.6793537735939026
1726407172009482200,2.699482177734375,-0.3677886724472046,0.6050131916999817,-0.5551103353500366
1726407172019478000,2.70947802734375,-0.6698539853096008,0.4258623719215393,-0.4436570703983307
1726407172029474000,2.71947412109375,-1.0102219581604004,-0.13881300389766693,-0.4141026437282562
1726407172039471000,2.72947119140625,-1.2605884075164795,-0.6050001382827759,-0.5825960636138916
1726407172049467100,2.739467041015625,-1.2387866973876953,-0.5868182182312012,-0.8046786189079285
1726407172059463000,2.749462890625,-0.6772756576538086,0.41473114490509033,-0.9505516886711121
1726407172069459000,2.759458984375,0.2590488791465759,0.7716397643089294,-1.3959389925003052
1726407172079455000,2.769455078125,0.8298777341842651,0.003967843484133482,-2.0254716873168945
1726407172089450800,2.77945068359375,1.0330979824066162,-1.5887995958328247,-2.344785690307617
1726407172099446800,2.78944677734375,0.8453176617622375,-2.7674858570098877,-2.1659040451049805
1726407172109443800,2.79944384765625,0.5421330332756042,-3.271684408187866,-1.5899451971054077
1726407172119440000,2.80943994140625,0.03772181272506714,-2.5239574909210205,-0.8231980204582214
1726407172129436000,2.819435791015625,-0.34802669286727905,-1.4005199670791626,-0.3730079233646393
1726407172139432000,2.829431884765625,-0.8352218866348267,-0.7443447113037109,-0.6159886121749878
1726407172149428000,2.839427978515625,-1.536484718322754,1.7426540851593018,-1.612252116203308
1726407172159423700,2.849423828125,-1.520272970199585,4.498254299163818,-2.8684093952178955
1726407172169419800,2.859419677734375,-1.0456137657165527,5.494938373565674,-3.7774100303649902
1726407172179416000,2.869416015625,0.10967403650283813,3.1905558109283447,-4.040491104125977
1726407172189412900,2.879412841796875,0.26546549797058105,1.5122486352920532,-3.925454616546631
1726407172199409000,2.889408935546875,0.31333526968955994,1.9695967435836792,-3.1844284534454346
1726407172209405000,2.899405029296875,0.6775259971618652,2.475377321243286,-2.1733901500701904
1726407172219401000,2.90940087890625,0.9435268044471741,2.1683425903320312,-1.5403326749801636
1726407172229396700,2.919396728515625,1.141817569732666,1.8234679698944092,-1.1006200313568115
1726407172239392800,2.929392822265625,1.1209309101104736,1.6661055088043213,-0.9138845205307007
1726407172249389800,2.939389892578125,1.145921230316162,1.3076422214508057,-0.6298460960388184
1726407172259385900,2.9493857421875,1.0827864408493042,1.1633726358413696,-0.2266097068786621
1726407172269382000,2.9593818359375,0.7164760828018188,1.3145272731781006,0.0775802806019783
1726407172279378000,2.9693779296875,0.3686262369155884,0.7463604807853699,0.36475905776023865
1726407172289374000,2.9793740234375,0.21501509845256805,-0.00036139096482656896,0.912822425365448
1726407172299369700,2.98936962890625,0.35705214738845825,-0.48128485679626465,1.7134594917297363
1726407172309365800,2.99936572265625,0.28340455889701843,0.21584707498550415,3.262753486633301
1726407172319362000,3.009362060546875,0.2871018052101135,0.9486789703369141,5.149384021759033
1726407172329358800,3.01935888671875,0.8931083679199219,-0.6611515879631042,5.382413864135742
1726407172339355000,3.02935498046875,1.1187961101531982,-2.0825557708740234,4.775644302368164
1726407172349351000,3.039350830078125,1.580947995185852,-2.1596431732177734,3.7024660110473633
1726407172359347000,3.049346923828125,1.8250778913497925,-1.1202975511550903,3.24617338180542
1726407172369342700,3.0593427734375,1.8251838684082031,0.018140921369194984,3.2971112728118896
1726407172379338800,3.0693388671875,1.5741246938705444,1.3976492881774902,3.140054941177368
1726407172389335000,3.0793349609375,0.8225266337394714,2.0186352729797363,2.460352897644043
1726407172399331800,3.089331787109375,0.024934111163020134,1.6980586051940918,1.6575403213500977
1726407172409327900,3.099327880859375,-0.8437229990959167,0.9507759213447571,0.9584522247314453
1726407172419324000,3.109323974609375,-1.2373536825180054,0.7004286646842957,0.5252110362052917
1726407172429320000,3.11931982421875,-1.2292826175689697,-0.42177706956863403,0.3314562141895294
1726407172439315700,3.129315673828125,-1.104918122291565,-1.0583295822143555,0.4753659963607788
1726407172449311700,3.139311767578125,-0.9929279088973999,-0.629800021648407,0.5741199851036072
1726407172459308000,3.14930810546875,-0.8673705458641052,-0.4511410892009735,0.5950021147727966
1726407172469304800,3.159304931640625,-0.8246890902519226,-0.591020405292511,0.47364214062690735
1726407172479300900,3.16930078125,-0.8543314337730408,-0.27957066893577576,0.28547969460487366
1726407172489297000,3.179296875,-1.0458375215530396,-0.016750218346714973,0.2684652805328369
1726407172499293000,3.18929296875,-1.347017526626587,0.2150995284318924,0.30712637305259705
1726407172509288700,3.199288818359375,-1.5719406604766846,0.6124674081802368,0.09651216119527817
1726407172519284700,3.20928466796875,-1.1156426668167114,1.633774757385254,-0.14465491473674774
1726407172529281000,3.219281005859375,-0.14947843551635742,1.8072341680526733,-1.2345714569091797
1726407172539277800,3.22927783203125,0.8412060141563416,1.5503169298171997,-2.0909035205841064
1726407172549273900,3.23927392578125,1.3783369064331055,0.7772126793861389,-2.3404252529144287
1726407172559270000,3.249269775390625,1.6242095232009888,-0.553659975528717,-2.6946170330047607
1726407172569266000,3.259265869140625,1.7339516878128052,-2.218064069747925,-3.1163601875305176
1726407172579261700,3.26926171875,2.1111340522766113,-3.3570168018341064,-3.4939887523651123
1726407172589258000,3.279258056640625,2.3551344871520996,-4.069387435913086,-3.6774024963378906
1726407172599254000,3.28925390625,2.6550772190093994,-4.397428512573242,-3.5970277786254883
1726407172609250800,3.299250732421875,3.002821683883667,-4.713313579559326,-3.248918294906616
1726407172619246800,3.309246826171875,3.239500045776367,-4.3853373527526855,-2.2919704914093018
1726407172629243000,3.319242919921875,3.4720194339752197,-2.559645414352417,-1.0545034408569336
1726407172639239000,3.329239013671875,3.605881690979004,-0.9860875606536865,-0.26357439160346985
1726407172649234700,3.339234619140625,3.629855155944824,1.681424856185913,0.5034663677215576
1726407172659231000,3.34923095703125,3.253803253173828,3.4191038608551025,0.31509828567504883
1726407172669227000,3.35922705078125,2.6048262119293213,4.645456314086914,0.0928276777267456
1726407172679223800,3.369223876953125,2.1019701957702637,5.104348659515381,-0.012359198182821274
1726407172689219800,3.3792197265625,2.5659821033477783,4.474289417266846,-0.18809959292411804
1726407172699216000,3.3892158203125,2.632514715194702,4.178258895874023,-0.5501536726951599
1726407172709212000,3.3992119140625,2.4389803409576416,4.023323059082031,-0.7375099658966064
1726407172719207700,3.409207763671875,2.397552013397217,3.460948944091797,-0.560610294342041
1726407172729204000,3.419203857421875,2.604135751724243,1.3024439811706543,-0.6159992814064026
1726407172739200000,3.429199951171875,2.468480348587036,-0.33733755350112915,-0.010718956589698792
1726407172749195800,3.43919580078125,2.6038568019866943,-0.854617714881897,0.5469810366630554
1726407172759192800,3.44919287109375,3.1516826152801514,-1.0451922416687012,0.7352878451347351
1726407172769188900,3.45918896484375,3.418398380279541,-1.494636058807373,0.07062889635562897
1726407172779185000,3.469184814453125,3.0466556549072266,-1.421792984008789,-0.9290216565132141
1726407172789180700,3.4791806640625,2.4591469764709473,-0.5809166431427002,-1.5958244800567627
1726407172799177000,3.489177001953125,2.1674296855926514,0.08859963715076447,-1.5338199138641357
1726407172809173000,3.499173095703125,2.359520196914673,1.0565561056137085,-0.24287763237953186
1726407172819168800,3.509168701171875,2.592583417892456,1.8746148347854614,0.49218839406967163
1726407172829165800,3.519165771484375,2.417602777481079,2.1531403064727783,0.6498307585716248
1726407172839161900,3.529161865234375,2.1494758129119873,2.1317965984344482,0.13042645156383514
1726407172849158000,3.539157958984375,1.7445012331008911,2.246917486190796,-0.12690015137195587
1726407172859153700,3.549153564453125,1.1044312715530396,3.0972464084625244,0.016334231942892075
1726407172869150000,3.55914990234375,0.8126015663146973,4.251769065856934,0.21820077300071716
1726407172879146000,3.56914599609375,0.4069291353225708,5.283140659332275,0.32597172260284424
1726407172889141800,3.579141845703125,0.215241476893425,6.228908538818359,0.5133096575737
1726407172899138800,3.589138916015625,0.1443348079919815,6.166378974914551,0.6542374491691589
1726407172909134800,3.599134765625,0.14187857508659363,5.397568225860596,0.8585003018379211
1726407172919131000,3.609130859375,0.02003602683544159,3.9248061180114746,1.2854918241500854
1726407172929126700,3.619126708984375,0.008082427084445953,1.5788789987564087,1.5398695468902588
1726407172939123000,3.629123046875,0.2674199938774109,-1.172025442123413,1.6771306991577148
1726407172949119000,3.639118896484375,0.2750912308692932,-3.626471519470215,1.5053856372833252
1726407172959114800,3.64911474609375,-0.3420678675174713,-4.0887861251831055,1.286497712135315
1726407172969111800,3.65911181640625,-0.6168232560157776,-3.665186643600464,1.1281366348266602
1726407172979107800,3.66910791015625,-0.6980113387107849,-3.2394113540649414,0.8191601037979126
1726407172989103900,3.679103759765625,-0.48703837394714355,-2.587104320526123,0.2476196438074112
1726407172999099600,3.689099609375,0.04615044966340065,-2.6255881786346436,0.02877066098153591
1726407173009096000,3.699095947265625,0.4304477870464325,-2.8237712383270264,0.04530356451869011
1726407173019092000,3.709092041015625,0.40544018149375916,-3.275669813156128,0.3635691702365875
1726407173029087700,3.719087646484375,0.2201422154903412,-3.5662055015563965,0.7281023859977722
1726407173039084000,3.729083984375,0.021082915365695953,-3.53953218460083,0.9216502904891968
1726407173049080800,3.739080810546875,-0.10807666927576065,-3.4391767978668213,0.8625520467758179
1726407173059076900,3.749076904296875,-0.05155453830957413,-3.313258647918701,0.5950383543968201
1726407173069072600,3.75907275390625,0.31207773089408875,-3.0871713161468506,0.0805228054523468
1726407173079068700,3.769068603515625,0.9957921504974365,-2.849712610244751,-1.0448392629623413
1726407173089065000,3.77906494140625,1.8076860904693604,-3.0242679119110107,-2.9751133918762207
1726407173099060700,3.789060791015625,2.1725170612335205,-2.9141764640808105,-4.975045680999756
1726407173109056800,3.799056884765625,2.084710121154785,-2.682307481765747,-6.040376663208008
1726407173119053800,3.8090537109375,1.7354323863983154,-2.506024122238159,-6.249881744384766
1726407173129049900,3.8190498046875,1.1865469217300415,-2.4141597747802734,-5.82589054107666
1726407173139045600,3.829045654296875,0.33737245202064514,-1.95130455493927,-5.1476335525512695
1726407173149041700,3.839041748046875,-0.3545415699481964,-1.113131046295166,-4.261466026306152
1726407173159038000,3.849037841796875,-0.33106687664985657,-0.18351763486862183,-3.180262565612793
1726407173169033700,3.85903369140625,-0.45214056968688965,0.10958748310804367,-2.01739239692688
1726407173179029800,3.86902978515625,-0.4128940999507904,-0.04440261796116829,-0.9931244254112244
1726407173189026800,3.87902685546875,-0.2175925076007843,-0.045336320996284485,-0.14147724211215973
1726407173199022800,3.88902294921875,-0.01859925128519535,0.22404775023460388,0.5184367895126343
1726407173209018600,3.8990185546875,0.16260142624378204,0.5413018465042114,0.9774317741394043
1726407173219014700,3.9090146484375,0.2741444706916809,0.7074229121208191,1.2965754270553589
1726407173229011000,3.919010986328125,0.37451207637786865,0.6710915565490723,1.559707760810852
1726407173239006700,3.9290068359375,0.38973790407180786,0.5838296413421631,1.77476167678833
1726407173249002800,3.939002685546875,0.36671435832977295,0.49834588170051575,1.913806438446045
1726407173258999800,3.948999755859375,0.279628723859787,0.4931039810180664,1.9545847177505493
1726407173268995800,3.958995849609375,0.17948028445243835,0.5453128814697266,1.8958854675292969
1726407173278991600,3.96899169921875,0.10281506180763245,0.5581077337265015,1.7613025903701782
1726407173288988000,3.97898779296875,0.03699610009789467,0.5432579517364502,1.571769118309021
1726407173298984000,3.98898388671875,-0.020437629893422127,0.5102222561836243,1.355959415435791
1726407173308979700,3.998979736328125,-0.05608697235584259,0.45600587129592896,1.135851502418518
1726407173318975700,4.008975830078125,-0.07153143733739853,0.41951099038124084,0.9206973910331726
1726407173328972800,4.018972900390625,-0.08511888980865479,0.36520299315452576,0.7088602185249329
1726407173338968800,4.02896875,-0.0774867981672287,0.2932167053222656,0.5194112062454224
1726407173348964600,4.038964599609375,-0.08114199340343475,0.2241385579109192,0.3414641320705414
1726407173358961000,4.0489609375,-0.06946749240159988,0.18044540286064148,0.1866724044084549
1726407173368957000,4.05895703125,-0.052985187619924545,0.14440219104290009,0.04879416897892952
1726407173378952700,4.06895263671875,-0.009637979790568352,0.09731537103652954,-0.038114361464977264
1726407173388948700,4.07894873046875,0.04898032546043396,0.05872190371155739,-0.07586467266082764
1726407173398944800,4.08894482421875,0.13796745240688324,0.031325697898864746,-0.08273722231388092
1726407173408941800,4.09894189453125,0.2767389118671417,-0.071820929646492,-0.09318719804286957
1726407173418937600,4.1089375,0.3732510805130005,-0.21914780139923096,-0.12386761605739594
1726407173428934000,4.118933837890625,0.36578357219696045,-0.30144694447517395,-0.17381572723388672
1726407173438930000,4.128929931640625,0.32440391182899475,-0.30498334765434265,-0.2728895843029022
1726407173448925700,4.13892578125,0.29118576645851135,-0.23141351342201233,-0.38974910974502563
1726407173458921700,4.148921630859375,0.2943218946456909,-0.08067300915718079,-0.45965760946273804
1726407173468917800,4.158917724609375,0.34602078795433044,0.04589318856596947,-0.446024626493454
1726407173478914800,4.168914794921875,0.4000166356563568,0.07450592517852783,-0.37706393003463745
1726407173488910600,4.17891064453125,0.4343985915184021,0.04432645067572594,-0.27753013372421265
1726407173498907000,4.188906982421875,0.48901230096817017,0.052732452750205994,-0.19828379154205322
1726407173508903000,4.19890283203125,0.5119258761405945,0.08478093147277832,-0.1039959043264389
1726407173518898700,4.208898681640625,0.4907984733581543,0.06792232394218445,0.007921839132905006
1726407173528894700,4.218894775390625,0.452002614736557,-0.013623666949570179,0.12279782444238663
1726407173538890800,4.228890869140625,0.39079251885414124,-0.07578664273023605,0.18985489010810852
1726407173548887800,4.2388876953125,0.363272488117218,-0.14645148813724518,0.18163344264030457
1726407173558883600,4.248883544921875,0.349269837141037,-0.2527611553668976,0.12589187920093536
1726407173568879900,4.2588798828125,0.32038867473602295,-0.2656974494457245,0.09731430560350418
1726407173578876000,4.2688759765625,0.26983121037483215,-0.26324760913848877,0.08744595944881439
1726407173588871700,4.27887158203125,0.1965106576681137,-0.16271328926086426,0.07587479054927826
1726407173598867700,4.28886767578125,0.1341514140367508,0.036263998597860336,0.09655903279781342
1726407173608863700,4.29886376953125,0.1476174145936966,0.20147745311260223,0.19003304839134216
1726407173618860800,4.30886083984375,0.2385134994983673,0.19459106028079987,0.36313265562057495
1726407173628856600,4.318856689453125,0.34721148014068604,0.02468137815594673,0.6236079335212708
1726407173638852900,4.328852783203125,0.4409734010696411,-0.26467958092689514,0.8802464008331299
1726407173648849000,4.338848876953125,0.47847071290016174,-0.549698531627655,1.065232753753662
1726407173658844700,4.3488447265625,0.4846676290035248,-0.719078779220581,1.1637986898422241
1726407173668840700,4.3588408203125,0.47046923637390137,-0.7756834626197815,1.1900135278701782
1726407173678836700,4.368836669921875,0.42402157187461853,-0.7691501975059509,1.160956859588623
1726407173688833800,4.378833740234375,0.3558550477027893,-0.7232090830802917,1.0951155424118042
1726407173698829600,4.38882958984375,0.3174828886985779,-0.71937495470047,1.0070668458938599
1726407173708825900,4.398825927734375,0.3154735267162323,-0.7798790335655212,0.9021575450897217
1726407173718822000,4.40882177734375,0.33080828189849854,-0.8294103741645813,0.7729704976081848
1726407173728817700,4.418817626953125,0.3828214108943939,-0.8087841868400574,0.5939802527427673
1726407173738814000,4.42881396484375,0.33791840076446533,-0.7316382527351379,0.35714054107666016
1726407173748809700,4.438809814453125,0.1809585988521576,-0.6343362331390381,0.04766206070780754
1726407173758806800,4.448806884765625,-0.04904477298259735,-0.5621088743209839,-0.3469715416431427
1726407173768802600,4.458802490234375,-0.25533801317214966,-0.4908570647239685,-0.8513731956481934
1726407173778798800,4.468798828125,-0.37826260924339294,-0.3984384536743164,-1.4124265909194946
1726407173788795000,4.478794921875,-0.4966292083263397,-0.2870213985443115,-1.9558953046798706
1726407173798790700,4.488790771484375,-0.6505007743835449,-0.16182804107666016,-2.3969333171844482
1726407173808787000,4.498786865234375,-0.8236722946166992,-0.1584695279598236,-2.7529335021972656
1726407173818782700,4.50878271484375,-0.9959260821342468,-0.36422961950302124,-3.014378547668457
1726407173828778800,4.51877880859375,-1.1159398555755615,-0.7467623353004456,-3.099228620529175
1726407173838775800,4.52877587890625,-1.1914641857147217,-1.178149938583374,-2.9870917797088623
1726407173848771800,4.538771728515625,-1.18996000289917,-1.7887011766433716,-2.7906551361083984
1726407173858768000,4.548767822265625,-1.1239093542099,-2.2328062057495117,-2.4882991313934326
1726407173868763600,4.558763671875,-0.9898791313171387,-2.5550031661987305,-2.1486213207244873
1726407173878760000,4.568760009765625,-0.7612965703010559,-2.318715810775757,-1.7515208721160889
1726407173888755700,4.578755615234375,-0.6431264877319336,-1.6601283550262451,-1.26398766040802
1726407173898751700,4.588751708984375,-0.6414942741394043,-1.0352470874786377,-0.7832756042480469
1726407173908748800,4.598748779296875,-0.6736961007118225,-0.575552761554718,-0.3956426680088043
1726407173918744800,4.608744873046875,-0.647867739200592,-0.2713340222835541,-0.10293117165565491
1726407173928740900,4.618740966796875,-0.5694546699523926,0.18794727325439453,0.1181679219007492
1726407173938736600,4.628736572265625,-0.42372384667396545,0.6708963513374329,0.2825688421726227
1726407173948733000,4.63873291015625,-0.2745220959186554,0.9900173544883728,0.4434770345687866
1726407173958728700,4.648728759765625,-0.15617682039737701,1.0988450050354004,0.5863037109375
1726407173968724700,4.658724853515625,-0.06939984858036041,1.0899384021759033,0.7059877514839172
1726407173978721800,4.6687216796875,-0.016394153237342834,1.0415871143341064,0.7776667475700378
1726407173988717800,4.6787177734375,-0.013099024072289467,0.9812347888946533,0.7930217385292053
1726407173998713900,4.6887138671875,-0.007298126816749573,0.988656222820282,0.7230716943740845
1726407174008709600,4.698709716796875,0.06606077402830124,1.0378296375274658,0.5552911758422852
1726407174018706000,4.708705810546875,0.13827665150165558,1.0393412113189697,0.3405573070049286
1726407174028701700,4.71870166015625,0.20287641882896423,0.9602131247520447,0.11918684095144272
1726407174038697700,4.72869775390625,0.18005631864070892,0.855216383934021,-0.07984635978937149
1726407174048694800,4.73869482421875,0.11618812382221222,0.6348839998245239,-0.22778549790382385
1726407174058690800,4.74869091796875,0.061176005750894547,0.42018795013427734,-0.37879496812820435
1726407174068686800,4.758686767578125,0.0613349974155426,0.335030198097229,-0.5951419472694397
1726407174078682600,4.7686826171875,0.09888982772827148,0.34199488162994385,-0.8406664729118347
1726407174088678700,4.7786787109375,0.16925720870494843,0.3973763883113861,-1.0369092226028442
1726407174098674400,4.78867431640625,0.2703326940536499,0.44305065274238586,-1.1330580711364746
1726407174108670700,4.798670654296875,0.38981008529663086,0.3395109474658966,-1.0530301332473755
1726407174118666800,4.808666748046875,0.5160577893257141,0.10114312916994095,-0.7749494910240173
1726407174128663600,4.81866357421875,0.5763117671012878,-0.10946870595216751,-0.48952096700668335
1726407174138659800,4.828659912109375,0.5676679611206055,-0.2537694275379181,-0.29971322417259216
1726407174148655600,4.838655517578125,0.5270441174507141,-0.38382384181022644,-0.26233068108558655
1726407174158651600,4.848651611328125,0.45724424719810486,-0.5286478400230408,-0.3403075039386749
1726407174168647400,4.8586474609375,0.37292376160621643,-0.7620286345481873,-0.514725387096405
1726407174178643700,4.868643798828125,0.2644239366054535,-1.1155089139938354,-0.7642428278923035
1726407174188639700,4.8786396484375,0.11933092027902603,-1.3919336795806885,-0.9682105779647827
1726407174198636500,4.888636474609375,-0.00884781964123249,-1.5056431293487549,-1.0814098119735718
1726407174208632800,4.8986328125,-0.1021450087428093,-1.5240037441253662,-1.1329920291900635
1726407174218628600,4.908628662109375,-0.17255152761936188,-1.5359840393066406,-1.1380609273910522
1726407174228624600,4.918624755859375,-0.20623598992824554,-1.5697542428970337,-1.1058166027069092
1726407174238620400,4.928620361328125,-0.1914176344871521,-1.500335693359375,-1.0822354555130005
1726407174248616700,4.93861669921875,-0.12583249807357788,-1.2706642150878906,-1.0214173793792725
1726407174258612700,4.94861279296875,-0.05126691609621048,-0.9130855202674866,-0.9132592082023621
1726407174268609500,4.958609619140625,0.0037316211964935064,-0.5581516623497009,-0.7782244086265564
1726407174278605800,4.968605712890625,0.011598599143326283,-0.24449069797992706,-0.6280620694160461
1726407174288601600,4.9786015625,0.003394731320440769,-0.05632559210062027,-0.543271541595459
1726407174298597600,4.98859765625,-0.00561128044500947,-0.004565190523862839,-0.5559828281402588
1726407174308593700,4.99859375,0.016218384727835655,-0.05555646866559982,-0.5215106010437012
1726407174318589700,5.008589599609375,0.050569966435432434,-0.0961153507232666,-0.3511761426925659
1726407174328585700,5.018585693359375,0.09685570746660233,-0.05476124957203865,-0.07253598421812057
1726407174338582500,5.02858251953125,0.14987657964229584,0.02094869129359722,0.24352024495601654
1726407174348578800,5.038578857421875,0.1930118054151535,0.12988317012786865,0.5390781164169312
1726407174358574600,5.04857470703125,0.20583651959896088,0.30351248383522034,0.743516206741333
1726407174368570600,5.058570556640625,0.19266346096992493,0.422486811876297,0.7776321172714233
1726407174378566700,5.068566650390625,0.16592559218406677,0.4140264689922333,0.6379061937332153
1726407174388562700,5.078562744140625,0.14241068065166473,0.31022071838378906,0.403176486492157
1726407174398558700,5.088558837890625,0.11239098757505417,0.1358334720134735,0.178500235080719
1726407174408555800,5.0985556640625,0.05624889209866524,-0.06085323169827461,-0.0034088462125509977
1726407174418551800,5.1085517578125,-0.023193735629320145,-0.21198922395706177,-0.1540611982345581
1726407174428547600,5.118547607421875,-0.11216089129447937,-0.2980034649372101,-0.3095320165157318
1726407174438543600,5.128543701171875,-0.18387475609779358,-0.3268183469772339,-0.46866387128829956
1726407174448539600,5.13853955078125,-0.2169397622346878,-0.32441988587379456,-0.6015830636024475
1726407174458535700,5.14853564453125,-0.23812735080718994,-0.30050525069236755,-0.6786704063415527
1726407174468531700,5.15853173828125,-0.25468289852142334,-0.23082388937473297,-0.6315857172012329
1726407174478528800,5.16852880859375,-0.2677965462207794,-0.16485260426998138,-0.46862101554870605
1726407174488524800,5.17852490234375,-0.2521166503429413,-0.14158935844898224,-0.23250940442085266
1726407174498520600,5.1885205078125,-0.2009139358997345,-0.12608416378498077,0.005144428461790085
1726407174508516600,5.1985166015625,-0.14171212911605835,-0.1807125210762024,0.1794392615556717
1726407174518512600,5.2085126953125,-0.09174057096242905,-0.21288377046585083,0.2842485010623932
1726407174528508700,5.2185087890625,-0.06786613166332245,-0.19252631068229675,0.3316256105899811
1726407174538504700,5.228504638671875,-0.0635605975985527,-0.1635838747024536,0.3404606282711029
1726407174548501800,5.238501708984375,-0.06269454210996628,-0.14617344737052917,0.3323558568954468
1726407174558497800,5.248497802734375,-0.03393452987074852,-0.12133761495351791,0.31659817695617676
1726407174568493600,5.25849365234375,0.03828267380595207,-0.09715291112661362,0.3004104197025299
1726407174578489600,5.268489501953125,0.11227034777402878,-0.08462753891944885,0.2815887928009033
1726407174588485600,5.278485595703125,0.1745949685573578,-0.07597865164279938,0.2389896810054779
1726407174598481700,5.288481689453125,0.20933350920677185,-0.0650668814778328,0.18307740986347198
1726407174608477700,5.298477783203125,0.2276020050048828,-0.03340882435441017,0.14136885106563568
1726407174618473500,5.308473388671875,0.21489712595939636,0.023198796436190605,0.13121287524700165
1726407174628470800,5.318470703125,0.1917382776737213,0.10959440469741821,0.15204839408397675
1726407174638466600,5.328466552734375,0.19048765301704407,0.18147125840187073,0.18892358243465424
1726407174648462600,5.338462646484375,0.2067776769399643,0.23480452597141266,0.2517898976802826
1726407174658458600,5.348458740234375,0.25322186946868896,0.21423479914665222,0.3185785114765167
1726407174668454700,5.35845458984375,0.27047330141067505,0.19676631689071655,0.40402284264564514
1726407174678450700,5.36845068359375,0.25845205783843994,0.2105034440755844,0.4702857434749603
1726407174688446500,5.378446533203125,0.23424819111824036,0.21697385609149933,0.5092107653617859
1726407174698443800,5.38844384765625,0.2071494609117508,0.24371598660945892,0.49489840865135193
1726407174708439600,5.398439453125,0.1674526482820511,0.2669595181941986,0.4478382170200348
1726407174718435600,5.408435546875,0.14366714656352997,0.26861467957496643,0.37617549300193787
1726407174728431600,5.418431640625,0.12601038813591003,0.22841718792915344,0.2869332432746887
1726407174738427600,5.428427734375,0.13262462615966797,0.17023111879825592,0.20349852740764618
1726407174748423700,5.438423583984375,0.13516181707382202,0.12983523309230804,0.13173352181911469
1726407174758420700,5.448420654296875,0.1279291957616806,0.10482548177242279,0.08745767921209335
1726407174768416800,5.458416748046875,0.13793736696243286,0.1105898916721344,0.06576809287071228
1726407174778412500,5.46841259765625,0.1526302844285965,0.14307087659835815,0.0821734294295311
1726407174788408600,5.47840869140625,0.1671554297208786,0.18627506494522095,0.12864692509174347
1726407174798404600,5.488404541015625,0.16806943714618683,0.23812201619148254,0.19309169054031372
1726407174808400600,5.498400634765625,0.17850689589977264,0.2927676737308502,0.26293763518333435
1726407174818396700,5.508396728515625,0.17543867230415344,0.3327164351940155,0.3317728638648987
1726407174828392700,5.518392822265625,0.17059411108493805,0.3573104739189148,0.39829757809638977
1726407174838389800,5.5283896484375,0.14942730963230133,0.37184253334999084,0.45207878947257996
1726407174848385500,5.538385498046875,0.12754997611045837,0.3796301484107971,0.491416335105896
1726407174858381800,5.5483818359375,0.10793312638998032,0.38981834053993225,0.5296950340270996
1726407174868377600,5.558377685546875,0.08836901187896729,0.39944007992744446,0.5536559820175171
1726407174878373600,5.56837353515625,0.07524149119853973,0.39309030771255493,0.5597476959228516
1726407174888369700,5.57836962890625,0.07023102045059204,0.3753126263618469,0.5493797659873962
1726407174898365700,5.58836572265625,0.06835775077342987,0.3605973422527313,0.532133936882019
1726407174908362800,5.59836279296875,0.06603547185659409,0.3486975431442261,0.5056946277618408
1726407174918358500,5.608358642578125,0.05425897613167763,0.3095211088657379,0.46553415060043335
1726407174928354800,5.618354736328125,0.06285645812749863,0.2701396048069,0.42107638716697693
1726407174938350600,5.6283505859375,0.06127267703413963,0.24926654994487762,0.37099936604499817
1726407174948346600,5.6383466796875,0.06769595295190811,0.24718715250492096,0.32409659028053284
1726407174958342700,5.6483427734375,0.08672131597995758,0.25687921047210693,0.3014914095401764
1726407174968338700,5.658338623046875,0.10186590999364853,0.2827097177505493,0.31002283096313477
1726407174978335700,5.668335693359375,0.12146757543087006,0.3031063377857208,0.3446154296398163
1726407174988331500,5.67833154296875,0.1291811615228653,0.29952678084373474,0.3932564854621887
1726407174998327800,5.688327880859375,0.15033304691314697,0.28041860461235046,0.4347277581691742
1726407175008323600,5.698323486328125,0.16669124364852905,0.26885488629341125,0.46986258029937744
1726407175018319600,5.708319580078125,0.1662113517522812,0.28506794571876526,0.48037460446357727
1726407175028315600,5.718315673828125,0.15252988040447235,0.31694385409355164,0.46652641892433167
1726407175038311700,5.728311767578125,0.119856096804142,0.35028132796287537,0.43286406993865967
1726407175048308700,5.738308837890625,0.08172042667865753,0.36555933952331543,0.3765920102596283
1726407175058304500,5.748304443359375,0.05600468069314957,0.3848523497581482,0.32146191596984863
1726407175068300800,5.75830078125,0.06531669199466705,0.3906274139881134,0.2740216851234436
1726407175078296600,5.768296630859375,0.09037011116743088,0.396151602268219,0.24621376395225525
1726407175088292600,5.778292724609375,0.10968761146068573,0.39962488412857056,0.24364835023880005
1726407175098289000,5.788288818359375,0.12373925000429153,0.40496134757995605,0.2747551202774048
1726407175108284700,5.79828466796875,0.1397419273853302,0.4675735831260681,0.2991044223308563
1726407175118281700,5.80828173828125,0.15676963329315186,0.5539873242378235,0.3074134886264801
1726407175128277800,5.81827783203125,0.17404156923294067,0.5793288946151733,0.31496700644493103
1726407175138273800,5.828273681640625,0.19572210311889648,0.5552035570144653,0.30933254957199097
1726407175148269600,5.83826953125,0.2015589475631714,0.5209252238273621,0.29707589745521545
1726407175158265900,5.848265869140625,0.22325465083122253,0.4587925970554352,0.28251105546951294
1726407175168262000,5.858261962890625,0.24602308869361877,0.38206639885902405,0.2720158100128174
1726407175178257700,5.868257568359375,0.2588858902454376,0.3384576737880707,0.27205920219421387
1726407175188254700,5.878254638671875,0.2565675973892212,0.34703171253204346,0.2811019718647003
1726407175198250800,5.888250732421875,0.2478228509426117,0.37021294236183167,0.29275810718536377
1726407175208246800,5.898246826171875,0.2405678629875183,0.3764263689517975,0.3022408187389374
1726407175218242600,5.90824267578125,0.2290387749671936,0.3509681522846222,0.29486092925071716
1726407175228238800,5.91823876953125,0.2057955116033554,0.3021651804447174,0.27063336968421936
1726407175238235000,5.92823486328125,0.1765260398387909,0.23544208705425262,0.22278355062007904
1726407175248230700,5.938230712890625,0.15127287805080414,0.173923060297966,0.16391196846961975
1726407175258227700,5.948227783203125,0.1476949155330658,0.14603443443775177,0.10789903253316879
1726407175268223700,5.9582236328125,0.1631803959608078,0.13325099647045135,0.07619597017765045
1726407175278219800,5.9682197265625,0.18994437158107758,0.1312461644411087,0.08622916042804718
1726407175288215600,5.978215576171875,0.20277175307273865,0.15859150886535645,0.13938851654529572
1726407175298211800,5.9882119140625,0.2109236866235733,0.22634339332580566,0.2206151932477951
1726407175308207900,5.998207763671875,0.21190878748893738,0.30320942401885986,0.308582603931427
1726407175318203600,6.00820361328125,0.21918268501758575,0.37192481756210327,0.37232428789138794
1726407175328200700,6.01820068359375,0.23038341104984283,0.42501360177993774,0.4143146276473999
1726407175338196700,6.02819677734375,0.23888182640075684,0.4475082755088806,0.43971797823905945
1726407175348192800,6.03819287109375,0.2409910410642624,0.430260568857193,0.4561813771724701
1726407175358188500,6.0481884765625,0.23924081027507782,0.41886037588119507,0.46566781401634216
1726407175368184800,6.058184814453125,0.23477043211460114,0.411359041929245,0.4535627067089081
1726407175378180900,6.068180908203125,0.21877069771289825,0.43501192331314087,0.4367738664150238
1726407175388176600,6.0781767578125,0.20544743537902832,0.4606243371963501,0.4218015670776367
1726407175398172700,6.088172607421875,0.21108214557170868,0.4619908034801483,0.40773528814315796
1726407175408169700,6.098169677734375,0.2050309181213379,0.44281789660453796,0.39700648188591003
1726407175418165800,6.108165771484375,0.20208199322223663,0.39212197065353394,0.37865328788757324
1726407175428161500,6.11816162109375,0.19154280424118042,0.32402679324150085,0.3617861568927765
1726407175438157800,6.12815771484375,0.1836625039577484,0.23243483901023865,0.332306832075119
1726407175448153900,6.13815380859375,0.16634583473205566,0.17870450019836426,0.2929104268550873
1726407175458149600,6.148149658203125,0.13452905416488647,0.18396876752376556,0.24771712720394135
1726407175468146700,6.158146728515625,0.1297510713338852,0.24468937516212463,0.21457834541797638
1726407175478142700,6.168142822265625,0.15553659200668335,0.2981904149055481,0.19695115089416504
1726407175488138800,6.178138671875,0.17600005865097046,0.31940916180610657,0.20067451894283295
1726407175498134500,6.188134521484375,0.19033212959766388,0.3162359893321991,0.23063240945339203
1726407175508130800,6.198130859375,0.1955370157957077,0.30082055926322937,0.27126505970954895
1726407175518126800,6.208126953125,0.20483730733394623,0.28922995924949646,0.31325191259384155
1726407175528122600,6.21812255859375,0.2032892107963562,0.29891905188560486,0.3386502265930176
1726407175538119700,6.22811962890625,0.2207920253276825,0.3346259295940399,0.34942322969436646
1726407175548115700,6.23811572265625,0.2403356432914734,0.36229509115219116,0.33932214975357056
1726407175558111700,6.24811181640625,0.2581777572631836,0.3928660452365875,0.331635981798172
1726407175568107500,6.258107421875,0.28576943278312683,0.38770750164985657,0.31200477480888367
1726407175578103800,6.268103759765625,0.30649787187576294,0.3876830041408539,0.30845344066619873
1726407175588099800,6.278099853515625,0.32797202467918396,0.38151779770851135,0.30016249418258667
1726407175598095600,6.288095703125,0.3239125609397888,0.41331514716148376,0.3020658493041992
1726407175608092000,6.298091796875,0.32181212306022644,0.46464091539382935,0.29078391194343567
1726407175618088700,6.308088623046875,0.3231799304485321,0.5031694173812866,0.2841632664203644
1726407175628084700,6.318084716796875,0.32020196318626404,0.5326012969017029,0.2763271927833557
1726407175638080800,6.328080810546875,0.3288585841655731,0.5224975347518921,0.2676663398742676
1726407175648076800,6.338076904296875,0.3412947356700897,0.48947596549987793,0.2560698688030243
1726407175658072800,6.34807275390625,0.3471957743167877,0.47446611523628235,0.2339714765548706
1726407175668068600,6.358068603515625,0.33618226647377014,0.47313132882118225,0.2112845480442047
1726407175678065700,6.368065673828125,0.29333174228668213,0.45427748560905457,0.1888572722673416
1726407175688061700,6.378061767578125,0.2542586326599121,0.3842179775238037,0.16426590085029602
1726407175698057700,6.3880576171875,0.22734367847442627,0.3064081370830536,0.1468522995710373
1726407175708053800,6.3980537109375,0.19805076718330383,0.2496495097875595,0.12831856310367584
1726407175718049800,6.4080498046875,0.1771974116563797,0.1956067830324173,0.1148562803864479
1726407175728045800,6.4180458984375,0.16258305311203003,0.1694183200597763,0.10917308926582336
1726407175738041600,6.42804150390625,0.15427079796791077,0.1778741329908371,0.11579104512929916
1726407175748038000,6.438037841796875,0.14697426557540894,0.20655131340026855,0.1273326575756073
1726407175758034700,6.44803466796875,0.13660551607608795,0.23557870090007782,0.15427611768245697
1726407175768030700,6.45803076171875,0.14322586357593536,0.27263686060905457,0.19643954932689667
1726407175778026800,6.46802685546875,0.15150989592075348,0.3032275140285492,0.23583516478538513
1726407175788022800,6.478022705078125,0.1384422928094864,0.3466325104236603,0.2784241735935211
1726407175798018800,6.488018798828125,0.12463327497243881,0.3524438142776489,0.3026174008846283
1726407175808014600,6.4980146484375,0.1061629205942154,0.3636021912097931,0.3114577531814575
1726407175818011000,6.508010986328125,0.08260832726955414,0.3508749306201935,0.29139429330825806
1726407175828007700,6.518007568359375,0.04669799655675888,0.34119728207588196,0.2489538937807083
1726407175838003700,6.528003662109375,0.02754880301654339,0.31124868988990784,0.17736679315567017
1726407175847999700,6.537999755859375,0.014610367827117443,0.2939581274986267,0.10760822147130966
1726407175857995800,6.547995849609375,0.01501303818076849,0.27286669611930847,0.041245974600315094
1726407175867991800,6.55799169921875,-0.0067662931978702545,0.3060491383075714,-0.003831756068393588
1726407175877987600,6.567987548828125,-0.012619388289749622,0.3307685852050781,-0.04205184429883957
1726407175887983900,6.57798388671875,-0.015968047082424164,0.3230680823326111,-0.0671611949801445
1726407175897980700,6.587980712890625,-0.012316587381064892,0.30698150396347046,-0.0684746652841568
1726407175907976700,6.597976806640625,-0.019521769136190414,0.30038246512413025,-0.050209108740091324
1726407175917972700,6.60797265625,-0.007249657064676285,0.3202456533908844,0.000330231967382133
1726407175927968800,6.61796875,0.007846738211810589,0.33480170369148254,0.06593240797519684
1726407175937964800,6.62796484375,-0.0062943813391029835,0.38079261779785156,0.1403813511133194
1726407175947960600,6.637960693359375,-0.036915939301252365,0.42835134267807007,0.21426622569561005
1726407175957956900,6.647956787109375,-0.04879017546772957,0.4517197906970978,0.2809422016143799
1726407175967953700,6.65795361328125,-0.03002873808145523,0.44977036118507385,0.32854458689689636
1726407175977949700,6.66794970703125,0.006911435630172491,0.4544929265975952,0.35071274638175964
1726407175987945700,6.67794580078125,0.06320400536060333,0.4939761757850647,0.3532043993473053
1726407175997941800,6.687941650390625,0.12578323483467102,0.5822607278823853,0.3664192855358124
1726407176007937800,6.697937744140625,0.16717354953289032,0.7234764695167542,0.40667855739593506
1726407176017933600,6.70793359375,0.19160884618759155,0.8622298240661621,0.4700559079647064
1726407176027929900,6.717929931640625,0.21212877333164215,0.9476629495620728,0.5293298959732056
1726407176037926700,6.7279267578125,0.22587387263774872,0.9640677571296692,0.5707143545150757
1726407176047922700,6.737922607421875,0.22282801568508148,0.9726048111915588,0.595348596572876
1726407176057918700,6.747918701171875,0.20606155693531036,0.939354419708252,0.5895769596099854
1726407176067914500,6.75791455078125,0.17746692895889282,0.8793590068817139,0.5607945919036865
1726407176077910500,6.76791064453125,0.13439668715000153,0.8165163993835449,0.5119064450263977
1726407176087906300,6.77790625,0.07023821026086807,0.7584310173988342,0.4442264437675476
1726407176097902300,6.78790234375,0.025902703404426575,0.7299674153327942,0.3697543442249298
1726407176107899400,6.7978994140625,-0.021462947130203247,0.7162190675735474,0.30416974425315857
1726407176117895400,6.8078955078125,-0.060630857944488525,0.7070956230163574,0.26754888892173767
1726407176127891200,6.81789111328125,-0.06513000279664993,0.7051478028297424,0.27247998118400574
1726407176137887500,6.827887451171875,-0.059125639498233795,0.7148292064666748,0.32184433937072754
1726407176147883500,6.837883544921875,-0.02924896590411663,0.7147812247276306,0.39998921751976013
1726407176157879300,6.84787939453125,-0.018270084634423256,0.7158800363540649,0.47999030351638794
1726407176167875300,6.857875244140625,-0.01720934733748436,0.7012960910797119,0.5380237698554993
1726407176177872400,6.867872314453125,-0.023631293326616287,0.718555212020874,0.5789248943328857
1726407176187868400,6.877868408203125,-0.036807816475629807,0.7315940260887146,0.5976013541221619
1726407176197864200,6.8878642578125,-0.04881148040294647,0.7069297432899475,0.5823616981506348
1726407176207860500,6.897860595703125,-0.07303159683942795,0.6936163306236267,0.544995129108429
1726407176217856500,6.9078564453125,-0.07666042447090149,0.6221530437469482,0.48965466022491455
1726407176227852300,6.917852294921875,-0.06629087030887604,0.5175914764404297,0.42026013135910034
1726407176237848300,6.927848388671875,-0.03440457955002785,0.379304438829422,0.3540845811367035
1726407176247845400,6.937845458984375,0.004643221385776997,0.26437440514564514,0.2976130545139313
1726407176257841400,6.94784130859375,0.02689553052186966,0.2080695778131485,0.2528570294380188
1726407176267837200,6.957837158203125,0.03887496143579483,0.1894005537033081,0.22461633384227753
1726407176277833500,6.96783349609375,0.02768142893910408,0.18309232592582703,0.21189413964748383
1726407176287829500,6.97782958984375,-0.010408165864646435,0.19007699191570282,0.21468406915664673
1726407176297825300,6.9878251953125,-0.04400740563869476,0.19776421785354614,0.20835188031196594
1726407176307821300,6.9978212890625,-0.09655184298753738,0.21928761899471283,0.2029499113559723
1726407176317818400,7.007818359375,-0.15258315205574036,0.20328015089035034,0.18447530269622803
1726407176327814400,7.017814453125,-0.20149768888950348,0.15688282251358032,0.16322061419487
1726407176337810200,7.02781005859375,-0.2144758105278015,0.08668935298919678,0.14942410588264465
1726407176347806500,7.037806396484375,-0.19233295321464539,-0.014808240346610546,0.1503378450870514
1726407176357802500,7.047802490234375,-0.14488741755485535,-0.13424435257911682,0.17962515354156494
1726407176367798300,7.05779833984375,-0.12256373465061188,-0.2648713290691376,0.22361178696155548
1726407176377794300,7.067794189453125,-0.11646588891744614,-0.37761440873146057,0.2682096064090729
1726407176387791400,7.077791259765625,-0.1191764548420906,-0.46868014335632324,0.292328804731369
1726407176397787400,7.087787353515625,-0.12959980964660645,-0.5343922972679138,0.2979171872138977
1726407176407783200,7.097783203125,-0.14105725288391113,-0.578682541847229,0.28529778122901917
1726407176417779500,7.107779541015625,-0.16217026114463806,-0.6302735805511475,0.25073155760765076
1726407176427775500,7.117775390625,-0.18163956701755524,-0.6912844181060791,0.20285643637180328
1726407176437771300,7.127771240234375,-0.21399670839309692,-0.7519456744194031,0.1530124545097351
1726407176447767600,7.137767578125,-0.2428043931722641,-0.7975261807441711,0.09469161927700043
1726407176457764400,7.147764404296875,-0.2613479793071747,-0.7897455096244812,0.030170684680342674
1726407176467760400,7.157760498046875,-0.27588537335395813,-0.7294872403144836,-0.02418549731373787
1726407176477756400,7.16775634765625,-0.28601205348968506,-0.6822946667671204,-0.06209959089756012
1726407176487752400,7.17775244140625,-0.2881005108356476,-0.6641966104507446,-0.08065729588270187
1726407176497748500,7.18774853515625,-0.30480968952178955,-0.7180119156837463,-0.08816368132829666
1726407176507744300,7.197744140625,-0.3222366273403168,-0.7862908244132996,-0.09714119881391525
1726407176517740500,7.207740478515625,-0.33185330033302307,-0.8096368908882141,-0.09768155217170715
1726407176527737300,7.2177373046875,-0.36092808842658997,-0.8236190676689148,-0.11126207560300827
1726407176537733400,7.2277333984375,-0.3777068257331848,-0.82383131980896,-0.13624705374240875
1726407176547729400,7.2377294921875,-0.37525829672813416,-0.8092683553695679,-0.154572531580925
1726407176557725400,7.247725341796875,-0.3589749336242676,-0.8069079518318176,-0.17259334027767181
1726407176567721500,7.257721435546875,-0.33609598875045776,-0.8127496242523193,-0.19098007678985596
1726407176577717200,7.26771728515625,-0.31343382596969604,-0.8012458086013794,-0.20498749613761902
1726407176587714600,7.277714599609375,-0.30820390582084656,-0.7518255710601807,-0.22296570241451263
1726407176597710300,7.28771044921875,-0.30525872111320496,-0.6959462761878967,-0.23743119835853577
1726407176607706400,7.297706298828125,-0.2963046431541443,-0.6421544551849365,-0.2369619458913803
1726407176617702400,7.307702392578125,-0.29375970363616943,-0.6495652198791504,-0.245484858751297
1726407176627698400,7.317698486328125,-0.27492424845695496,-0.6581656336784363,-0.24255351722240448
1726407176637694500,7.327694580078125,-0.2539776861667633,-0.6747552752494812,-0.2340998500585556
1726407176647690200,7.337690185546875,-0.22996528446674347,-0.6808528304100037,-0.22244079411029816
1726407176657686500,7.3476865234375,-0.22393323481082916,-0.689857006072998,-0.2136201411485672
1726407176667683300,7.357683349609375,-0.2195264995098114,-0.6857072710990906,-0.20568472146987915
1726407176677679400,7.367679443359375,-0.20905227959156036,-0.6907278299331665,-0.19958341121673584
1726407176687675400,7.37767529296875,-0.18440605700016022,-0.7013101577758789,-0.1873006522655487
1726407176697671400,7.38767138671875,-0.1642051786184311,-0.7221022844314575,-0.1784360557794571
1726407176707667500,7.39766748046875,-0.1429198682308197,-0.7292142510414124,-0.16247066855430603
1726407176717663200,7.407663330078125,-0.11950402706861496,-0.6892812252044678,-0.14654576778411865
1726407176727659500,7.417659423828125,-0.10967190563678741,-0.6149801015853882,-0.14075233042240143
1726407176737656300,7.42765625,-0.11650930345058441,-0.5478987693786621,-0.1524537205696106
1726407176747652400,7.43765234375,-0.11093583703041077,-0.4976971447467804,-0.18321695923805237
1726407176757648400,7.4476484375,-0.09962060302495956,-0.4565630257129669,-0.22583766281604767
1726407176767644400,7.45764453125,-0.09335977584123611,-0.4190206825733185,-0.27333593368530273
1726407176777640400,7.467640380859375,-0.08432366698980331,-0.38565847277641296,-0.3400968611240387
1726407176787636200,7.47763623046875,-0.06342451274394989,-0.3546430468559265,-0.41252949833869934
1726407176797633500,7.487633544921875,-0.05128662288188934,-0.3207801580429077,-0.4864506125450134
1726407176807629300,7.49762939453125,-0.044802360236644745,-0.2902826964855194,-0.5400981307029724
1726407176817625300,7.507625244140625,-0.03809518739581108,-0.2825707197189331,-0.556424081325531
1726407176827621400,7.517621337890625,-0.026017218828201294,-0.26573100686073303,-0.5437613129615784
1726407176837617400,7.527617431640625,-0.02491680160164833,-0.22812584042549133,-0.5116193294525146
1726407176847613400,7.537613525390625,-0.03370044007897377,-0.17876601219177246,-0.47411537170410156
1726407176857609200,7.547609130859375,-0.05932670831680298,-0.13879171013832092,-0.43567955493927
1726407176867605500,7.55760546875,-0.09279758483171463,-0.12016928195953369,-0.4094407856464386
1726407176877602300,7.567602294921875,-0.11651143431663513,-0.1211559846997261,-0.396634966135025
1726407176887598300,7.577598388671875,-0.13091807067394257,-0.15763330459594727,-0.3937568962574005
1726407176897594400,7.587594482421875,-0.14053207635879517,-0.20651775598526,-0.39923661947250366
1726407176907590400,7.59759033203125,-0.1562844067811966,-0.2542807459831238,-0.4022752642631531
1726407176917586400,7.60758642578125,-0.16724331676959991,-0.327261745929718,-0.3889525532722473
1726407176927582500,7.61758251953125,-0.1702532172203064,-0.4064069092273712,-0.3612452745437622
1726407176937578500,7.62757861328125,-0.17126762866973877,-0.4571441113948822,-0.3281770646572113
1726407176947575300,7.6375751953125,-0.17388604581356049,-0.48000842332839966,-0.2967195510864258
1726407176957571300,7.6475712890625,-0.17865736782550812,-0.5024365186691284,-0.2637016773223877
1726407176967567400,7.6575673828125,-0.17829996347427368,-0.516148030757904,-0.22476626932621002
1726407176977563400,7.6675634765625,-0.17430070042610168,-0.5322433710098267,-0.18204836547374725
1726407176987559400,7.677559326171875,-0.17571216821670532,-0.5393723845481873,-0.14996126294136047
1726407176997555500,7.687555419921875,-0.19049803912639618,-0.5517531633377075,-0.13149677217006683
1726407177007551500,7.697551513671875,-0.20717263221740723,-0.5487827062606812,-0.12809538841247559
1726407177017548300,7.70754833984375,-0.22378036379814148,-0.5397763848304749,-0.13048717379570007
1726407177027544600,7.717544677734375,-0.22464695572853088,-0.5281751751899719,-0.13493996858596802
1726407177037540400,7.727540283203125,-0.2199893593788147,-0.5329573750495911,-0.13837198913097382
1726407177047536400,7.737536376953125,-0.20535261929035187,-0.5395934581756592,-0.14408713579177856
1726407177057532400,7.747532470703125,-0.19366639852523804,-0.549847424030304,-0.14634069800376892
1726407177067528400,7.757528564453125,-0.19345122575759888,-0.5489541888237,-0.14613963663578033
1726407177077524500,7.7675244140625,-0.19180245697498322,-0.5274864435195923,-0.14065778255462646
1726407177087521500,7.777521484375,-0.1852066069841385,-0.4750126004219055,-0.12713292241096497
1726407177097517600,7.787517578125,-0.1772456169128418,-0.39309030771255493,-0.10710328072309494
1726407177107513300,7.797513427734375,-0.16816291213035583,-0.30589067935943604,-0.08336786180734634
1726407177117509400,7.80750927734375,-0.165553018450737,-0.22561314702033997,-0.057384997606277466
1726407177127505700,7.817505615234375,-0.16074253618717194,-0.1635705530643463,-0.032156072556972504
1726407177137501400,7.82750146484375,-0.15562741458415985,-0.10968175530433655,-0.002210956299677491
1726407177147497500,7.83749755859375,-0.152292862534523,-0.05138063430786133,0.020494889467954636
1726407177157494500,7.84749462890625,-0.16154415905475616,0.028919000178575516,0.028385302051901817
1726407177167490600,7.857490478515625,-0.17649780213832855,0.0985846295952797,0.015193333849310875
1726407177177486300,7.867486328125,-0.18220442533493042,0.1666606217622757,-0.00794127956032753
1726407177187482400,7.877482421875,-0.18256714940071106,0.21217110753059387,-0.025658225640654564
1726407177197478700,7.887478759765625,-0.17729994654655457,0.22865821421146393,-0.031386684626340866
1726407177207474400,7.897474365234375,-0.1809234470129013,0.22194518148899078,-0.026742398738861084
1726407177217470500,7.907470458984375,-0.1865999698638916,0.19103281199932098,-0.027298465371131897
1726407177227467500,7.917467529296875,-0.19232577085494995,0.14955753087997437,-0.025854766368865967
1726407177237463600,7.927463623046875,-0.18937845528125763,0.08406933397054672,-0.026136528700590134
1726407177247459300,7.937459228515625,-0.18425798416137695,0.007494934368878603,-0.021686386317014694
1726407177257455400,7.947455322265625,-0.18220415711402893,-0.05638497695326805,-0.02076493389904499
1726407177267451600,7.95745166015625,-0.18952226638793945,-0.09464714676141739,-0.028436435386538506
1726407177277447400,7.967447509765625,-0.19624380767345428,-0.10757838934659958,-0.04701651260256767
1726407177287443500,7.977443359375,-0.20892445743083954,-0.08830349892377853,-0.07031677663326263
1726407177297440500,7.9874404296875,-0.22372230887413025,-0.04484017565846443,-0.09640882909297943
1726407177307436500,7.9974365234375,-0.23558641970157623,0.013397564180195332,-0.12653237581253052
1726407177317432300,8.007432373046875,-0.23803387582302094,0.048778459429740906,-0.15371845662593842
1726407177327428600,8.0174287109375,-0.23503968119621277,0.06288415938615799,-0.18849028646945953
1726407177337424600,8.027424560546875,-0.22856473922729492,0.04724207893013954,-0.21005550026893616
1726407177347420400,8.03742041015625,-0.22596895694732666,0.015445002354681492,-0.22292496263980865
1726407177357416400,8.04741650390625,-0.21965059638023376,-0.016744624823331833,-0.22585256397724152
1726407177367413500,8.05741357421875,-0.21357086300849915,-0.04405427724123001,-0.22043250501155853
1726407177377409500,8.067409423828124,-0.2070021778345108,-0.06765308231115341,-0.20937666296958923
1726407177387405300,8.0774052734375,-0.19815143942832947,-0.07491472363471985,-0.1959359496831894
1726407177397401600,8.087401611328126,-0.19517642259597778,-0.0686831921339035,-0.1843693107366562
1726407177407397600,8.097397705078125,-0.1713360697031021,-0.0688650831580162,-0.17259840667247772
1726407177417393400,8.107393310546875,-0.13640791177749634,-0.06004602462053299,-0.14730502665042877
1726407177427389400,8.117389404296874,-0.10766414552927017,-0.01726074516773224,-0.12567643821239471
1726407177437386500,8.127386474609375,-0.09191660583019257,0.04897499829530716,-0.10919759422540665
1726407177447382500,8.137382568359374,-0.0860762968659401,0.11512579023838043,-0.0882403776049614
1726407177457378300,8.14737841796875,-0.06823045015335083,0.1738564819097519,-0.05259796231985092
1726407177467374600,8.15737451171875,-0.036730848252773285,0.22367596626281738,-0.0010287790792062879
1726407177477370600,8.16737060546875,0.004800347611308098,0.24669873714447021,0.05264483392238617
1726407177487366400,8.177366455078126,0.045824214816093445,0.24616050720214844,0.09427990019321442
1726407177497362400,8.187362548828125,0.06505995988845825,0.24114470183849335,0.11093370616436005
1726407177507359500,8.197359375,0.0657353401184082,0.23283937573432922,0.09952126443386078
1726407177517355500,8.20735546875,0.05332793667912483,0.21594348549842834,0.0631970763206482
1726407177527351300,8.217351318359375,0.03730316460132599,0.17996497452259064,0.019058912992477417
1726407177537347600,8.22734765625,0.013185043819248676,0.11838017404079437,-0.041062213480472565
1726407177547343600,8.237343505859375,-0.014516358263790607,0.03050171583890915,-0.12077142298221588
1726407177557339400,8.24733935546875,-0.03195447102189064,-0.09629910439252853,-0.21716906130313873
1726407177567335400,8.25733544921875,-0.04830068722367287,-0.24185709655284882,-0.313624769449234
1726407177577332500,8.26733251953125,-0.06538646668195724,-0.3773483633995056,-0.3999479413032532
1726407177587328500,8.27732861328125,-0.09518404304981232,-0.47168922424316406,-0.4729720652103424
1726407177597324300,8.28732421875,-0.1330893486738205,-0.5235993266105652,-0.532963216304779
1726407177607320600,8.297320556640624,-0.16146878898143768,-0.5648455619812012,-0.5780521631240845
1726407177617316600,8.307316650390625,-0.17908427119255066,-0.5968913435935974,-0.592957079410553
1726407177627312400,8.3173125,-0.17986270785331726,-0.6097893118858337,-0.5798266530036926
1726407177637308400,8.327308349609375,-0.17125298082828522,-0.592280924320221,-0.5439003109931946
1726407177647305500,8.337305419921876,-0.15249420702457428,-0.5585463643074036,-0.493508517742157
1726407177657301500,8.347301513671875,-0.12979474663734436,-0.5174735188484192,-0.44157978892326355
1726407177667297300,8.35729736328125,-0.10339856147766113,-0.46817466616630554,-0.38951075077056885
1726407177677293600,8.36729345703125,-0.07284224778413773,-0.4229656457901001,-0.33773091435432434
1726407177687289600,8.37728955078125,-0.052200354635715485,-0.37151870131492615,-0.3023345470428467
1726407177697285400,8.387285400390626,-0.03441256657242775,-0.31657421588897705,-0.28056800365448
1726407177707281400,8.397281494140625,-0.016759272664785385,-0.28353822231292725,-0.2666410207748413
1726407177717278500,8.407278564453126,-0.0015571502735838294,-0.2747178375720978,-0.26310646533966064
1726407177727274500,8.4172744140625,0.0097463708370924,-0.28150704503059387,-0.2681707441806793
1726407177737270300,8.427270263671875,0.025166073814034462,-0.2938481271266937,-0.27921193838119507
1726407177747266600,8.4372666015625,0.030950192362070084,-0.2977536618709564,-0.29837924242019653
1726407177757262600,8.4472626953125,0.029320072382688522,-0.2941730320453644,-0.31456831097602844
1726407177767258400,8.45725830078125,0.022311430424451828,-0.2837901711463928,-0.3163502514362335
1726407177777254700,8.467254638671875,0.026873959228396416,-0.28551164269447327,-0.3021492063999176
1726407177787251500,8.47725146484375,0.0476122610270977,-0.3210294246673584,-0.2633349597454071
1726407177797247500,8.48724755859375,0.069263756275177,-0.38989928364753723,-0.21465051174163818
1726407177807243500,8.497243408203126,0.07802822440862656,-0.4384404718875885,-0.16542251408100128
1726407177817239600,8.507239501953125,0.06990984082221985,-0.4358827769756317,-0.12437894195318222
1726407177827235600,8.517235595703125,0.06364475935697556,-0.3887791633605957,-0.09436032176017761
1726407177837231400,8.5272314453125,0.06901875138282776,-0.32957977056503296,-0.08584646135568619
1726407177847227600,8.5372275390625,0.0834946259856224,-0.2894483208656311,-0.10150185972452164
1726407177857224400,8.547224365234374,0.1013047844171524,-0.28251931071281433,-0.10451255738735199
1726407177867220500,8.557220458984375,0.10931796580553055,-0.2824609875679016,-0.09751563519239426
1726407177877216500,8.567216552734376,0.105528824031353,-0.28180238604545593,-0.09172459691762924
1726407177887212500,8.577212646484375,0.09607993066310883,-0.2997342646121979,-0.07980641722679138
1726407177897208600,8.58720849609375,0.09832177311182022,-0.3235865831375122,-0.058750931173563004
1726407177907204400,8.597204345703124,0.10966631025075912,-0.339963436126709,-0.02960236743092537
1726407177917200600,8.60720068359375,0.12368359416723251,-0.33492526412010193,0.01119166798889637
1726407177927197400,8.617197509765624,0.136788472533226,-0.2938731610774994,0.059357598423957825
1726407177937193500,8.627193359375,0.14689436554908752,-0.23050831258296967,0.11604218184947968
1726407177947189500,8.637189453125,0.1609678417444229,-0.16092683374881744,0.18017242848873138
1726407177957185500,8.647185546875,0.166395366191864,-0.09623359143733978,0.2176646888256073
1726407177967181600,8.657181640625,0.17175525426864624,-0.049610164016485214,0.21131756901741028
1726407177977177300,8.66717724609375,0.16939835250377655,-0.02364674024283886,0.172149658203125
1726407177987173600,8.677173583984375,0.16168636083602905,-0.016711601987481117,0.11676230281591415
1726407177997170400,8.68717041015625,0.1582607477903366,-0.028597822412848473,0.0648045614361763
1726407178007166500,8.69716650390625,0.1631212830543518,-0.05642465874552727,0.03357340767979622
1726407178017162500,8.70716259765625,0.1696643978357315,-0.09050033986568451,0.031981103122234344
1726407178027158500,8.717158447265625,0.16498921811580658,-0.12904240190982819,0.0463150329887867
1726407178037154600,8.727154541015626,0.1479271501302719,-0.17293396592140198,0.037518881261348724
1726407178047150300,8.737150390625,0.12223003804683685,-0.20880727469921112,-0.006126868538558483
1726407178057146600,8.747146728515625,0.10626278817653656,-0.2048892378807068,-0.06180823966860771
1726407178067143400,8.757143310546875,0.07843568921089172,-0.16535647213459015,-0.11125355213880539
1726407178077139700,8.7671396484375,0.04469423368573189,-0.05155906453728676,-0.14297686517238617
1726407178087135500,8.777135498046874,0.05180567502975464,0.11671649664640427,-0.12436828762292862
1726407178097131500,8.787131591796875,0.10745961219072342,0.2774409353733063,-0.06474890559911728
1726407178107127600,8.79712744140625,0.16229437291622162,0.4287625551223755,0.052191298454999924
1726407178117123600,8.80712353515625,0.18601514399051666,0.5333659052848816,0.20568391680717468
1726407178127119600,8.81711962890625,0.17740540206432343,0.5527505278587341,0.34230780601501465
1726407178137116700,8.82711669921875,0.1448088437318802,0.5419918894767761,0.43962183594703674
1726407178147112700,8.83711279296875,0.11649252474308014,0.5396408438682556,0.4783884286880493
1726407178157108500,8.8471083984375,0.10367552936077118,0.5315419435501099,0.4505046010017395
1726407178167104500,8.8571044921875,0.09701097011566162,0.5108230710029602,0.3911648392677307
1726407178177100500,8.8671005859375,0.10255593806505203,0.48375627398490906,0.3386228084564209
1726407178187096600,8.8770966796875,0.1044800728559494,0.45809298753738403,0.3034754693508148
1726407178197092600,8.887092529296876,0.0882108211517334,0.45302605628967285,0.2687518298625946
1726407178207089700,8.897089599609375,0.0638066753745079,0.466426283121109,0.2287530153989792
1726407178217085700,8.907085693359376,0.040171120315790176,0.5023326277732849,0.1872766762971878
1726407178227081500,8.91708154296875,0.020804613828659058,0.5363731384277344,0.15865622460842133
1726407178237077500,8.927077392578125,0.0111032510176301,0.5572531223297119,0.15415255725383759
1726407178247073500,8.937073486328124,-0.0011241203173995018,0.5638103485107422,0.15797285735607147
1726407178257069600,8.947069580078125,-0.0198671817779541,0.5614460110664368,0.16258704662322998
1726407178267065600,8.957065673828126,-0.04087259992957115,0.5443006157875061,0.16387175023555756
1726407178277062700,8.967062744140625,-0.04083824157714844,0.5003834366798401,0.1617729216814041
1726407178287058700,8.97705859375,-0.03121757321059704,0.4530750811100006,0.16231194138526917
1726407178297054500,8.987054443359375,-0.025410018861293793,0.4449380338191986,0.16691841185092926
1726407178307050800,8.99705078125,-0.016570987179875374,0.44938525557518005,0.17429617047309875
1726407178317046500,9.007046630859374,0.0009627327090129256,0.4534361958503723,0.18170428276062012
1726407178327042600,9.01704248046875,0.0208850409835577,0.4693605601787567,0.196842223405838
1726407178337038600,9.02703857421875,0.037992388010025024,0.500308096408844,0.21901357173919678
1726407178347035600,9.03703564453125,0.0563114769756794,0.5350724458694458,0.24265924096107483
1726407178357031700,9.04703173828125,0.065339595079422,0.5578696727752686,0.2591937482357025
1726407178367027500,9.05702734375,0.0648580938577652,0.5589485168457031,0.26309606432914734
1726407178377023700,9.067023681640626,0.06967015564441681,0.5368298888206482,0.251013845205307
1726407178387019500,9.07701953125,0.0746566578745842,0.516511857509613,0.24271810054779053
1726407178397015600,9.087015625,0.07413174957036972,0.5135692954063416,0.2290230691432953
1726407178407011600,9.097011474609374,0.06893885135650635,0.5116372108459473,0.20280930399894714
1726407178417008600,9.107008544921875,0.0518815740942955,0.5198306441307068,0.17417126893997192
1726407178427004700,9.117004638671874,0.04035621136426926,0.5478546023368835,0.16230714321136475
1726407178437000400,9.12700048828125,0.04186595603823662,0.5886520743370056,0.15983866155147552
1726407178446996700,9.136996826171876,0.06091475114226341,0.6240505576133728,0.14951226115226746
1726407178456992500,9.146992431640625,0.07571180164813995,0.6439914703369141,0.13643427193164825
1726407178466988500,9.156988525390625,0.08651118725538254,0.6459422707557678,0.11845128238201141
1726407178476984600,9.166984619140624,0.07286328822374344,0.6457486748695374,0.09832310676574707
1726407178486981600,9.176981689453125,0.06773883104324341,0.6189361810684204,0.06551030278205872
1726407178496977700,9.186977783203124,0.07015751302242279,0.5659105181694031,0.030350714921951294
1726407178506973400,9.196973388671875,0.0740521252155304,0.4805642068386078,-0.011812451295554638
1726407178516969700,9.2069697265625,0.10553841292858124,0.3729245662689209,-0.044074781239032745
1726407178526965500,9.216965576171875,0.12390702962875366,0.2832721769809723,-0.06371932476758957
1726407178536961500,9.22696142578125,0.13178759813308716,0.25075820088386536,-0.0771578997373581
1726407178546957600,9.23695751953125,0.13776345551013947,0.28675079345703125,-0.08532102406024933
1726407178556954600,9.24695458984375,0.1383426934480667,0.3746550977230072,-0.08256012201309204
1726407178566950700,9.25695068359375,0.14417661726474762,0.4770568311214447,-0.07188431173563004
1726407178576946400,9.266946533203125,0.16183869540691376,0.5639957189559937,-0.0460500493645668
1726407178586942700,9.276942626953126,0.17453718185424805,0.5988191962242126,-0.012122442945837975
1726407178596938500,9.2869384765625,0.18979576230049133,0.5965427756309509,0.015621303580701351
1726407178606934500,9.2969345703125,0.1945095658302307,0.5884129405021667,0.03195979818701744
1726407178616930600,9.3069306640625,0.19801002740859985,0.5693516135215759,0.04435574635863304
1726407178626927600,9.316927734375,0.2087303102016449,0.5595197677612305,0.05073587968945503
1726407178636923600,9.326923583984374,0.2162819653749466,0.5596257448196411,0.05186799168586731
1726407178646919400,9.33691943359375,0.2166774421930313,0.5653262734413147,0.047502003610134125
1726407178656915700,9.346915771484374,0.21115298569202423,0.5719431638717651,0.05247625708580017
1726407178666911500,9.356911376953125,0.19726966321468353,0.576306164264679,0.0664442703127861
1726407178676907500,9.366907470703126,0.19050496816635132,0.560832679271698,0.08338543772697449
1726407178686903600,9.376903564453125,0.18737734854221344,0.5238722562789917,0.10626465082168579
1726407178696900600,9.386900634765626,0.18256181478500366,0.4816947281360626,0.12867675721645355
1726407178706896600,9.396896728515625,0.17505542933940887,0.4562591314315796,0.1312304586172104
1726407178716892400,9.406892333984375,0.16033001244068146,0.43436503410339355,0.11509676277637482
1726407178726888700,9.416888671875,0.1417350322008133,0.4202313721179962,0.09176827222108841
1726407178736884500,9.426884521484375,0.11166448146104813,0.440687894821167,0.06867466866970062
1726407178746880500,9.436880615234376,0.08885423839092255,0.45570388436317444,0.05066157877445221
1726407178756876800,9.446876708984375,0.07154954969882965,0.4813695549964905,0.04072905331850052
1726407178766873600,9.45687353515625,0.05330077186226845,0.48384496569633484,0.045214083045721054
1726407178776869600,9.46686962890625,0.035421907901763916,0.4793327748775482,0.057669688016176224
1726407178786865700,9.47686572265625,0.025728533044457436,0.4827632009983063,0.07252639532089233
1726407178796861700,9.48686181640625,0.01720055751502514,0.483271062374115,0.09390679001808167
1726407178806857500,9.496857421875,0.0010940266074612737,0.46619006991386414,0.1089046448469162
1726407178816853500,9.506853515625,-0.013587181456387043,0.4321357011795044,0.12781494855880737
1726407178826849800,9.516849853515625,-0.014248711057007313,0.3873607814311981,0.15227581560611725
1726407178836846600,9.5268466796875,-0.006713562645018101,0.3385942876338959,0.18241055309772491
1726407178846842600,9.536842529296875,-0.0007651261985301971,0.28846216201782227,0.2102440446615219
1726407178856838700,9.546838623046876,-0.012310728430747986,0.2987273037433624,0.23299969732761383
1726407178866834700,9.556834716796875,-0.01830177567899227,0.3284340798854828,0.25553083419799805
1726407178876830500,9.56683056640625,-0.019481822848320007,0.3355247378349304,0.27675384283065796
1726407178886826500,9.576826416015624,-0.02773788757622242,0.3200043737888336,0.29272109270095825
1726407178896822800,9.58682275390625,-0.0325600728392601,0.29210296273231506,0.2889290153980255
1726407178906819600,9.596819580078124,-0.02858424000442028,0.2628087103366852,0.277089923620224
1726407178916815600,9.606815673828125,-0.021649634465575218,0.2644028961658478,0.26218926906585693
1726407178926811600,9.616811767578126,-0.022877885028719902,0.287251740694046,0.258594274520874
1726407178936807700,9.6268076171875,-0.012713132426142693,0.29640451073646545,0.2716195285320282
1726407178946803500,9.636803466796875,0.002957174088805914,0.32756829261779785,0.29216209053993225
1726407178956799500,9.646799560546874,0.021345501765608788,0.34035757184028625,0.3014644980430603
1726407178966795800,9.656795654296875,0.02292182669043541,0.32413944602012634,0.2862951457500458
1726407178976792600,9.66679248046875,-0.0007797735743224621,0.3099336326122284,0.2578999996185303
1726407178986788600,9.67678857421875,-0.0324772484600544,0.2857358753681183,0.22457797825336456
1726407178996784600,9.68678466796875,-0.05476204678416252,0.23271553218364716,0.18985515832901
1726407179006780700,9.69678076171875,-0.050871968269348145,0.17056800425052643,0.1631564348936081
1726407179016776400,9.7067763671875,-0.042688872665166855,0.11380139738321304,0.15920110046863556
1726407179026772500,9.7167724609375,-0.04213973134756088,0.09404899924993515,0.1856691986322403
1726407179036768800,9.726768798828125,-0.049848783761262894,0.10183262079954147,0.22519929707050323
1726407179046764500,9.7367646484375,-0.05471410974860191,0.11776258796453476,0.257480263710022
1726407179056761600,9.74676171875,-0.047994956374168396,0.12708763778209686,0.2766329348087311
1726407179066757600,9.756757568359374,-0.036561474204063416,0.11210896074771881,0.2797168791294098
1726407179076754000,9.76675390625,-0.010374343954026699,0.10018385946750641,0.27254605293273926
1726407179086749700,9.776749755859376,0.0210040844976902,0.10739010572433472,0.2578733563423157
1726407179096746000,9.78674609375,0.053411293774843216,0.12058660387992859,0.23211552202701569
1726407179106742000,9.796741943359375,0.06683602184057236,0.11689652502536774,0.18686868250370026
1726407179116738800,9.80673876953125,0.07176020741462708,0.08798631280660629,0.12772786617279053
1726407179126734800,9.81673486328125,0.06318455934524536,0.075445756316185,0.0627259686589241
1726407179136731000,9.82673095703125,0.04210324585437775,0.08332951366901398,0.0028644960839301348
1726407179146727000,9.836726806640625,0.014316887594759464,0.059003397822380066,-0.048355016857385635
1726407179156722700,9.84672265625,-0.010469152592122555,-0.020173711702227592,-0.10568594932556152
1726407179166719000,9.856718994140625,-0.03500032797455788,-0.09501812607049942,-0.14591459929943085
1726407179176715000,9.866715087890626,-0.04826207086443901,-0.14542163908481598,-0.1500757783651352
1726407179186710800,9.876710693359374,-0.0404486246407032,-0.1907331943511963,-0.13742949068546295
1726407179196707800,9.886707763671875,-0.025777801871299744,-0.2197563350200653,-0.12395469844341278
1726407179206703900,9.896703857421874,-0.013961887918412685,-0.20771750807762146,-0.11943318694829941
1726407179216700000,9.906699951171875,-0.0014149374328553677,-0.1716252863407135,-0.13311730325222015
1726407179226695700,9.91669580078125,0.005169728305190802,-0.1364491879940033,-0.15210777521133423
1726407179236692000,9.92669189453125,0.009975402615964413,-0.11792051047086716,-0.1671312004327774
1726407179246688000,9.93668798828125,0.009167931973934174,-0.13038064539432526,-0.18174102902412415
1726407179256684800,9.946684814453125,0.0011518171522766352,-0.18651528656482697,-0.20043402910232544
1726407179266680800,9.956680908203126,-0.009315204806625843,-0.2827717661857605,-0.2100943773984909
1726407179276676900,9.9666767578125,-0.018750252202153206,-0.3961808979511261,-0.19690586626529694
1726407179286673000,9.9766728515625,-0.026671558618545532,-0.49483954906463623,-0.15273840725421906
1726407179296668700,9.986668701171874,-0.03542377054691315,-0.5624420642852783,-0.0863649845123291
1726407179306665000,9.9966650390625,-0.03447408601641655,-0.6039732098579407,-0.00999431125819683
1726407179316661000,10.006660888671876,-0.02624358795583248,-0.5938425660133362,0.07430752366781235
1726407179326656800,10.01665673828125,-0.01914333365857601,-0.5399330258369446,0.16179795563220978
1726407179336653800,10.02665380859375,-0.011829495429992676,-0.4519712030887604,0.2511877417564392
1726407179346649900,10.03664990234375,-0.014083861373364925,-0.37906795740127563,0.31995511054992676
1726407179356646000,10.04664599609375,-0.022948725149035454,-0.334992378950119,0.34635022282600403
1726407179366642000,10.056641845703124,-0.032345689833164215,-0.3394821882247925,0.3336019217967987
1726407179376638000,10.066637939453125,-0.03790823370218277,-0.3663170039653778,0.28515076637268066
1726407179386634000,10.076634033203124,-0.0485725961625576,-0.41042187809944153,0.2065156251192093
1726407179396629800,10.086629638671875,-0.0695258155465126,-0.46390002965927124,0.10977070778608322
1726407179406626800,10.096626708984376,-0.09637580066919327,-0.4963173568248749,-0.006274407263845205
1726407179416622800,10.106622802734375,-0.11881959438323975,-0.5114976167678833,-0.10484518855810165
1726407179426619000,10.116618896484376,-0.1408625841140747,-0.5122401118278503,-0.18714964389801025
1726407179436615000,10.126614990234375,-0.1516643613576889,-0.5176538228988647,-0.2456292062997818
1726407179446611000,10.13661083984375,-0.1779329776763916,-0.5722768306732178,-0.2998996376991272
1726407179456607000,10.14660693359375,-0.21536530554294586,-0.599606454372406,-0.35093244910240173
1726407179466602800,10.156602783203125,-0.24558739364147186,-0.5750861763954163,-0.3994339406490326
1726407179476599800,10.166599853515624,-0.26748788356781006,-0.5313988924026489,-0.4386146366596222
1726407179486595800,10.176595947265625,-0.2815278172492981,-0.5086579322814941,-0.4545917510986328
1726407179496592000,10.186591796875,-0.2836362421512604,-0.5293831825256348,-0.4389376938343048
1726407179506588000,10.196587890625,-0.2669592499732971,-0.5822290778160095,-0.4044225811958313
1726407179516584000,10.206583984375,-0.24102327227592468,-0.6373999118804932,-0.3524158298969269
1726407179526580000,10.216580078125,-0.21480470895767212,-0.6862990260124207,-0.30070018768310547
1726407179536575700,10.22657568359375,-0.16583476960659027,-0.6963503360748291,-0.2512812316417694
1726407179546572800,10.23657275390625,-0.13417936861515045,-0.5773221850395203,-0.20587407052516937
1726407179556568800,10.24656884765625,-0.11109323054552078,-0.3774181306362152,-0.16171219944953918
1726407179566564900,10.25656494140625,-0.0943366214632988,-0.19029244780540466,-0.12044066190719604
1726407179576561000,10.266560791015625,-0.07662127166986465,-0.0870392918586731,-0.08035076409578323
1726407179586557000,10.276556884765625,-0.0635419562458992,-0.08764249831438065,-0.05176599323749542
1726407179596553000,10.286552978515624,-0.05577404797077179,-0.15179511904716492,-0.050639741122722626
1726407179606548700,10.296548828125,-0.0580715574324131,-0.2239593267440796,-0.08713357150554657
1726407179616545800,10.3065458984375,-0.06711085885763168,-0.2627623975276947,-0.14372122287750244
1726407179626541800,10.316541748046875,-0.08281605690717697,-0.24692749977111816,-0.20682242512702942
1726407179636537900,10.326537841796876,-0.10442174971103668,-0.23286201059818268,-0.26950445771217346
1726407179646534000,10.336533935546875,-0.11803316324949265,-0.2426464706659317,-0.32235515117645264
1726407179656530000,10.346530029296876,-0.12514886260032654,-0.282956063747406,-0.35432693362236023
1726407179666526000,10.35652587890625,-0.13311997056007385,-0.3318959176540375,-0.3633915185928345
1726407179676521700,10.366521728515625,-0.13936561346054077,-0.38320624828338623,-0.3539125323295593
1726407179686518800,10.376518798828124,-0.13696503639221191,-0.40965408086776733,-0.3242467939853668
1726407179696514800,10.386514892578125,-0.13929185271263123,-0.4175359904766083,-0.2851150929927826
1726407179706510800,10.3965107421875,-0.1351493000984192,-0.4042324423789978,-0.239546537399292
1726407179716507000,10.4065068359375,-0.12579014897346497,-0.38061338663101196,-0.18841704726219177
1726407179726503000,10.4165029296875,-0.11562859266996384,-0.3583999574184418,-0.13939517736434937
1726407179736499000,10.4264990234375,-0.10376287996768951,-0.3403533101081848,-0.10068772733211517
1726407179746494700,10.43649462890625,-0.09397576004266739,-0.3235144019126892,-0.058640677481889725
1726407179756491800,10.44649169921875,-0.08315747231245041,-0.319082111120224,-0.033971548080444336
1726407179766487800,10.45648779296875,-0.07871878147125244,-0.32439619302749634,-0.024822259321808815
1726407179776483800,10.46648388671875,-0.07832329720258713,-0.35543933510780334,-0.03247884660959244
1726407179786479900,10.47647998046875,-0.08962628990411758,-0.40638694167137146,-0.04912040755152702
1726407179796476000,10.486475830078126,-0.09349852800369263,-0.47016003727912903,-0.08051960915327072
1726407179806472000,10.496471923828125,-0.09907704591751099,-0.5362733006477356,-0.11376491189002991
1726407179816468000,10.506468017578126,-0.11534177511930466,-0.5908912420272827,-0.15715020895004272
1726407179826464800,10.51646484375,-0.13709713518619537,-0.6400372385978699,-0.20995935797691345
1726407179836460800,10.526460693359375,-0.16278758645057678,-0.6673162579536438,-0.26605644822120667
1726407179846456800,10.536456787109374,-0.18699970841407776,-0.6902160048484802,-0.3210829496383667
1726407179856452900,10.546452880859375,-0.20084096491336823,-0.7025959491729736,-0.3601701557636261
1726407179866449000,10.556448974609374,-0.18929243087768555,-0.7175794243812561,-0.3656642735004425
1726407179876445000,10.56644482421875,-0.16233883798122406,-0.6976344585418701,-0.33342456817626953
1726407179886441000,10.57644091796875,-0.1457393616437912,-0.6494581699371338,-0.3173057734966278
1726407179896437800,10.586437744140625,-0.15243054926395416,-0.5971800684928894,-0.3004434406757355
1726407179906433800,10.596433837890626,-0.17127427458763123,-0.5454617142677307,-0.28313928842544556
1726407179916430000,10.60643017578125,-0.18341828882694244,-0.4786534011363983,-0.2526673972606659
1726407179926425900,10.61642578125,-0.1724921464920044,-0.4299340546131134,-0.22389407455921173
1726407179936422000,10.626421875,-0.15212242305278778,-0.3972530961036682,-0.18239058554172516
1726407179946418000,10.63641796875,-0.1356254667043686,-0.38402462005615234,-0.15108565986156464
1726407179956414000,10.6464140625,-0.12933509051799774,-0.3613435626029968,-0.13750965893268585
1726407179966410800,10.65641064453125,-0.12298637628555298,-0.33414921164512634,-0.13261529803276062
1726407179976406800,10.66640673828125,-0.1230553537607193,-0.29730597138404846,-0.1351272016763687
1726407179986403000,10.676403076171875,-0.11334413290023804,-0.2582975924015045,-0.12916064262390137
1726407179996398800,10.68639892578125,-0.09775638580322266,-0.21639195084571838,-0.1146932914853096
1726407180006395000,10.696394775390624,-0.08380195498466492,-0.1762634515762329,-0.095459945499897
1726407180016391000,10.706390869140625,-0.07000065594911575,-0.1352933794260025,-0.07297886908054352
1726407180026387000,10.716386962890626,-0.05969288945198059,-0.09694358706474304,-0.05125892534852028
1726407180036383700,10.7263837890625,-0.053527139127254486,-0.06246177852153778,-0.03564268350601196
1726407180046379800,10.7363798828125,-0.04590890184044838,-0.01654701866209507,-0.02853097766637802
1726407180056376000,10.7463759765625,-0.04176954925060272,0.026994865387678146,-0.032818134874105453
1726407180066371800,10.756371826171875,-0.03882329538464546,0.06652683019638062,-0.039686426520347595
1726407180076368000,10.766367919921874,-0.03430018201470375,0.09445486962795258,-0.04862958565354347
1726407180086364000,10.776364013671875,-0.023092269897460938,0.11618226766586304,-0.05657033622264862
1726407180096359700,10.786359619140624,-0.01239195466041565,0.14200347661972046,-0.06313609331846237
1726407180106356000,10.79635595703125,-0.0015757924411445856,0.1840457320213318,-0.05794132873415947
1726407180116352800,10.806352783203126,0.0024045680183917284,0.23056264221668243,-0.045821018517017365
1726407180126348800,10.816348876953125,-0.00030360036180354655,0.25806617736816406,-0.046171754598617554
1726407180136344800,10.8263447265625,0.00036432043998502195,0.25950053334236145,-0.049618951976299286
1726407180146340900,10.8363408203125,0.0038892803713679314,0.24275219440460205,-0.05572504922747612
1726407180156337000,10.8463369140625,0.008237689733505249,0.21975019574165344,-0.06403863430023193
1726407180166333000,10.8563330078125,0.01125345379114151,0.2003682553768158,-0.07902717590332031
1726407180176329700,10.866329833984375,0.012812468223273754,0.17652922868728638,-0.09827250987291336
1726407180186325800,10.87632568359375,0.015912920236587524,0.1513916552066803,-0.12458454072475433
1726407180196321800,10.88632177734375,0.01404844131320715,0.14296461641788483,-0.1547006368637085
1726407180206317800,10.89631787109375,0.01679575815796852,0.14450019598007202,-0.1845107227563858
1726407180216313900,10.90631396484375,0.025369271636009216,0.15678109228610992,-0.2057502269744873
1726407180226310000,10.916309814453125,0.03917110338807106,0.1701190024614334,-0.21625959873199463
1726407180236306000,10.926305908203124,0.05216227099299431,0.17017892003059387,-0.21757332980632782
1726407180246302000,10.936302001953125,0.055145811289548874,0.14558276534080505,-0.214289128780365
1726407180256298800,10.946298828125,0.05324990674853325,0.09515314549207687,-0.2118227779865265
1726407180266295000,10.956294921875,0.0418236143887043,0.04162999987602234,-0.21820104122161865
1726407180276290800,10.966290771484376,0.024221716448664665,-0.03600087761878967,-0.23178716003894806
1726407180286286800,10.976286865234375,0.013952034525573254,-0.12832681834697723,-0.24374501407146454
1726407180296283000,10.986282958984376,0.002575809368863702,-0.21870464086532593,-0.25470179319381714
1726407180306279000,10.99627880859375,0.005480785388499498,-0.29997608065605164,-0.2595785856246948
1726407180316275000,11.00627490234375,0.014067615382373333,-0.3582580089569092,-0.2569977045059204
1726407180326271700,11.016271728515624,0.01762772910296917,-0.3920135796070099,-0.25431644916534424
1726407180336268000,11.02626806640625,0.015413311310112476,-0.40929269790649414,-0.2535467743873596
1726407180346263800,11.036263916015624,0.002171541564166546,-0.41366082429885864,-0.2546871602535248
1726407180356259800,11.046259765625,-0.0070885359309613705,-0.41961485147476196,-0.25781795382499695
1726407180366255900,11.056255859375,-0.002549710450693965,-0.4423087239265442,-0.2550671696662903
1726407180376252000,11.066251953125,0.014607971534132957,-0.45838460326194763,-0.2412184774875641
1726407180386248000,11.076248046875,0.02972194366157055,-0.4510188400745392,-0.2166561484336853
1726407180396244700,11.08624462890625,0.03777427598834038,-0.4074670970439911,-0.18268299102783203
1726407180406241000,11.096240966796875,0.04597628116607666,-0.3393959105014801,-0.1296653151512146
1726407180416236800,11.10623681640625,0.053410761058330536,-0.2641001045703888,-0.07878216356039047
1726407180426232800,11.11623291015625,0.06738809496164322,-0.19496682286262512,-0.044068656861782074
1726407180436228900,11.126228759765626,0.06723149865865707,-0.1359221488237381,-0.029982132837176323
1726407180446225000,11.136224853515625,0.052735116332769394,-0.07340604066848755,-0.03560513257980347
1726407180456221000,11.146220947265626,0.035964660346508026,-0.017787253484129906,-0.05216360092163086
1726407180466217700,11.1562177734375,0.021627796813845634,0.023620907217264175,-0.06360986828804016
1726407180476214000,11.166214111328125,0.017071127891540527,0.03838680312037468,-0.0660645067691803
1726407180486209800,11.176209716796874,0.015391206368803978,0.04751771688461304,-0.06166522949934006
1726407180496205800,11.186205810546875,0.009468602947890759,0.05210980772972107,-0.059777047485113144
1726407180506201900,11.196201904296874,0.013116600923240185,0.05776982381939888,-0.05341368913650513
1726407180516198000,11.206197998046875,0.022821692749857903,0.06873512268066406,-0.03044445812702179
1726407180526194000,11.21619384765625,0.04116075113415718,0.0889383926987648,0.009192166849970818
1726407180536190700,11.226190673828125,0.06060928478837013,0.13157320022583008,0.05661454424262047
1726407180546187000,11.23618701171875,0.0710400864481926,0.18720930814743042,0.09687115252017975
1726407180556182800,11.246182861328125,0.0669928789138794,0.25282907485961914,0.12732386589050293
1726407180566178800,11.2561787109375,0.059483300894498825,0.3037513494491577,0.15164437890052795
1726407180576174800,11.2661748046875,0.05801323428750038,0.33396464586257935,0.167216956615448
1726407180586171000,11.2761708984375,0.05572717636823654,0.3640187084674835,0.1778581440448761
1726407180596167000,11.2861669921875,0.055750612169504166,0.3815883696079254,0.18131865561008453
1726407180606163700,11.296163818359375,0.05378679931163788,0.3930183947086334,0.18902531266212463
1726407180616160000,11.306159912109376,0.061159227043390274,0.39357367157936096,0.19525045156478882
1726407180626155800,11.31615576171875,0.06613560765981674,0.40647268295288086,0.21084219217300415
1726407180636151800,11.32615185546875,0.0656847357749939,0.43820104002952576,0.2147679626941681
1726407180646147800,11.33614794921875,0.06027106195688248,0.459770530462265,0.1957271546125412
1726407180656144000,11.346143798828125,0.05537484213709831,0.4387752413749695,0.1644243597984314
1726407180666140000,11.356139892578126,0.05281421169638634,0.38864442706108093,0.12658724188804626
1726407180676136700,11.36613671875,0.05098355561494827,0.3397671580314636,0.0807153508067131
1726407180686133000,11.376133056640626,0.044202081859111786,0.29989537596702576,0.02286137267947197
1726407180696128800,11.386128662109375,0.044143494218587875,0.267932653427124,-0.0386350117623806
1726407180706124800,11.396124755859375,0.04361964762210846,0.2629258930683136,-0.09037809818983078
1726407180716120800,11.406120849609374,0.04893771559000015,0.27204403281211853,-0.11564271152019501
1726407180726116900,11.416116943359375,0.06571269780397415,0.29205209016799927,-0.12303830683231354
1726407180736113000,11.42611279296875,0.09172326326370239,0.3368605673313141,-0.10920451581478119
1726407180746109700,11.436109619140625,0.11328448355197906,0.3865327835083008,-0.07711608707904816
1726407180756106000,11.44610595703125,0.12399997562170029,0.42511773109436035,-0.03931571543216705
1726407180766101800,11.456101806640625,0.1375272423028946,0.4714929461479187,-0.006128466222435236
1726407180776097800,11.466097900390626,0.1433401107788086,0.523773193359375,0.02684226632118225
1726407180786093800,11.47609375,0.16143150627613068,0.5346388816833496,0.05349544808268547
1726407180796089900,11.48608984375,0.16980953514575958,0.5218868851661682,0.06261944025754929
1726407180806086000,11.4960859375,0.16743400692939758,0.49100515246391296,0.05654130503535271
1726407180816083000,11.5060830078125,0.16655941307544708,0.46460655331611633,0.03177071362733841
1726407180826079000,11.516078857421874,0.15018311142921448,0.43741142749786377,-0.0022602248936891556
1726407180836074800,11.52607470703125,0.1377466768026352,0.4252713918685913,-0.041492316871881485
1726407180846070800,11.53607080078125,0.11845394223928452,0.42370012402534485,-0.08743797242641449
1726407180856066800,11.54606689453125,0.09607379883527756,0.4105347990989685,-0.12413553148508072
1726407180866062800,11.556062744140625,0.09829487651586533,0.37676432728767395,-0.14092862606048584
1726407180876059000,11.566058837890624,0.10570991784334183,0.32222703099250793,-0.15604925155639648
1726407180886056000,11.576055908203125,0.10661859065294266,0.28324341773986816,-0.1755603700876236
1726407180896052000,11.586052001953124,0.08041947335004807,0.26693928241729736,-0.18776696920394897
1726407180906047700,11.5960478515625,0.06525810062885284,0.2587285041809082,-0.18751317262649536
1726407180916043800,11.606043701171876,0.061287324875593185,0.2721010148525238,-0.17845335602760315
1726407180926039800,11.616039794921875,0.06223141774535179,0.3020346760749817,-0.1573542058467865
1726407180936035800,11.626035888671876,0.05836423859000206,0.31867676973342896,-0.13359880447387695
1726407180946031900,11.636031982421875,0.03939880430698395,0.335742324590683,-0.10199667513370514
1726407180956029000,11.64602880859375,0.0469435416162014,0.34122416377067566,-0.07302068173885345
1726407180966025000,11.65602490234375,0.06190650910139084,0.35315752029418945,-0.03423866257071495
1726407180976020700,11.666020751953125,0.079498291015625,0.36870718002319336,0.00987260416150093
1726407180986016800,11.676016845703124,0.08053452521562576,0.39895564317703247,0.06738410145044327
1726407180996012800,11.6860126953125,0.0868651270866394,0.3849194645881653,0.12692971527576447
1726407181006008800,11.6960087890625,0.10643775761127472,0.370038777589798,0.1850300431251526
1726407181016004900,11.7060048828125,0.11336357891559601,0.36405038833618164,0.22341977059841156
1726407181026002000,11.716001953125,0.11210496723651886,0.3841274380683899,0.25207191705703735
1726407181035998000,11.725998046875,0.10360734909772873,0.42795267701148987,0.26394137740135193
1726407181045993700,11.73599365234375,0.09914655983448029,0.4219030439853668,0.2537824809551239
1726407181055989800,11.74598974609375,0.08458226174116135,0.38333752751350403,0.22130975127220154
1726407181065985800,11.75598583984375,0.07608438283205032,0.3085501194000244,0.1646488606929779
1726407181075981800,11.76598193359375,0.04637628793716431,0.25673964619636536,0.08559799194335938
1726407181085977900,11.775977783203125,0.02737330086529255,0.23072348535060883,0.018579009920358658
1726407181095975000,11.785974853515626,0.017528127878904343,0.25308552384376526,-0.0216594897210598
1726407181105971000,11.795970947265625,0.02328321896493435,0.27412477135658264,-0.014722753316164017
1726407181115966700,11.805966796875,0.04409076273441315,0.2790316343307495,0.02316417545080185
1726407181125962800,11.815962646484374,0.06027106195688248,0.27891552448272705,0.07229124009609222
1726407181135958800,11.825958740234375,0.06845096498727798,0.31310972571372986,0.1287795454263687
1726407181145954800,11.835954833984376,0.07863914966583252,0.3608415424823761,0.18351416289806366
1726407181155950800,11.845950927734375,0.08983214944601059,0.40754035115242004,0.24071913957595825
1726407181165948000,11.855947998046876,0.1043303981423378,0.4298376441001892,0.28698650002479553
1726407181175944000,11.86594384765625,0.11264239251613617,0.43642446398735046,0.3105458915233612
1726407181185939700,11.875939697265625,0.10308137536048889,0.4274655878543854,0.3032240569591522
1726407181195935700,11.885935791015624,0.08100403845310211,0.40633872151374817,0.262740820646286
1726407181205931800,11.895931884765625,0.06867387145757675,0.40059322118759155,0.19937542080879211
1726407181215927800,11.905927734375,0.05822468921542168,0.38962045311927795,0.12613795697689056
1726407181225923800,11.915923828125,0.04953373223543167,0.39592817425727844,0.06762830913066864
1726407181235921000,11.9259208984375,0.044204745441675186,0.40112292766571045,0.023068301379680634
1726407181245917000,11.9359169921875,0.028190093114972115,0.3781142830848694,-0.010514426045119762
1726407181255912700,11.94591259765625,0.00019414443522691727,0.36132171750068665,-0.02889343351125717
1726407181265909000,11.955908935546875,-0.0450790598988533,0.3566550612449646,-0.03971385583281517
1726407181275904800,11.96590478515625,-0.09199170768260956,0.3563101887702942,-0.02725053019821644
1726407181285900800,11.97590087890625,-0.13015320897102356,0.3603137135505676,0.007795871235430241
1726407181295896800,11.985896728515625,-0.13830967247486115,0.3062238395214081,0.0641062781214714
1726407181305894000,11.995893798828124,-0.12733371555805206,0.24612082540988922,0.13670805096626282
1726407181315890000,12.005889892578125,-0.12127183377742767,0.1820662021636963,0.21571046113967896
1726407181325885700,12.0158857421875,-0.11599185317754745,0.14360830187797546,0.2803405821323395
1726407181335882000,12.025882080078125,-0.12512968480587006,0.11909762769937515,0.3196549713611603
1726407181345877800,12.035877685546875,-0.1448887437582016,0.12961365282535553,0.3410113751888275
1726407181355873800,12.045873779296874,-0.13996616005897522,0.12992897629737854,0.3476716876029968
1726407181365869800,12.055869873046875,-0.11679293215274811,0.1470664143562317,0.3683449923992157
1726407181375867000,12.065866943359374,-0.08339209854602814,0.14601074159145355,0.3887336254119873
1726407181385863000,12.07586279296875,-0.05921059101819992,0.15892574191093445,0.4098655581474304
1726407181395858700,12.085858642578126,-0.04260631650686264,0.16553303599357605,0.4151998460292816
1726407181405855000,12.09585498046875,-0.03473294526338577,0.164397194981575,0.4061879813671112
1726407181415850800,12.105850830078126,-0.01950073055922985,0.13211701810359955,0.3732635974884033
1726407181425846800,12.1158466796875,-0.011836153455078602,0.07951906323432922,0.33402830362319946
1726407181435842800,12.1258427734375,-0.011305917985737324,0.05607365444302559,0.3087727427482605
1726407181445840000,12.13583984375,-0.022305572405457497,0.06196616590023041,0.29907485842704773
1726407181455836000,12.1458359375,-0.016685502603650093,0.044446028769016266,0.30012521147727966
1726407181465831700,12.155831787109374,0.0023877902422100306,0.011000719852745533,0.29045259952545166
1726407181475828000,12.165827880859375,0.017645040526986122,-0.002487925114110112,0.27659618854522705
1726407181485823700,12.17582373046875,0.03326874226331711,0.015629559755325317,0.2609564960002899
1726407181495819800,12.18581982421875,0.04018017649650574,0.04435814172029495,0.2443128079175949
1726407181505815800,12.19581591796875,0.04308009147644043,0.05371915549039841,0.21577277779579163
1726407181515812900,12.205812744140625,0.037105023860931396,0.037640850991010666,0.1804070621728897
1726407181525809000,12.215808837890625,0.028796760365366936,0.013640178367495537,0.1344430297613144
1726407181535804700,12.2258046875,0.021984128281474113,-0.016813067719340324,0.08241711556911469
1726407181545801000,12.235801025390625,-0.003299656556919217,-0.029644444584846497,0.03238403797149658
1726407181555796700,12.245796630859376,-0.024837173521518707,-0.041493646800518036,-0.008559665642678738
1726407181565792800,12.255792724609375,-0.04717843234539032,-0.06739235669374466,-0.04693209007382393
1726407181575789800,12.265789794921876,-0.06562507897615433,-0.1049884706735611,-0.07674404978752136
1726407181585785900,12.275785888671875,-0.08465070277452469,-0.15097805857658386,-0.10494452714920044
1726407181595782000,12.285781982421875,-0.10322865098714828,-0.2118012011051178,-0.12281513214111328
1726407181605777700,12.295777587890624,-0.11640224605798721,-0.2888792157173157,-0.12159061431884766
1726407181615774000,12.30577392578125,-0.1196100190281868,-0.35605424642562866,-0.10529446601867676
1726407181625769700,12.315769775390624,-0.11670690774917603,-0.42050567269325256,-0.0774865373969078
1726407181635765800,12.325765869140625,-0.12063586711883545,-0.4677139222621918,-0.05169541761279106
1726407181645762800,12.3357626953125,-0.10973848402500153,-0.5031933784484863,-0.02286403626203537
1726407181655758800,12.3457587890625,-0.09466791898012161,-0.5538157820701599,0.010121876373887062
1726407181665755000,12.3557548828125,-0.08462940156459808,-0.5830791592597961,0.04205504059791565
1726407181675750700,12.365750732421875,-0.07543589919805527,-0.6142399907112122,0.06472653150558472
1726407181685747000,12.375746826171875,-0.0698975920677185,-0.6033710837364197,0.08559506386518478
1726407181695742700,12.38574267578125,-0.06691112369298935,-0.5525598526000977,0.1094181016087532
