time,seconds_elapsed,z,y,x
1726407169338013000,0.028012939453125,0.2092556208372116,0.5760480761528015,-0.31512799859046936
1726407169348009000,0.038009033203125,0.24308358132839203,0.6359002590179443,-0.5368960499763489
1726407169358005000,0.0480048828125,0.029990216717123985,0.6957715749740601,-0.7776204943656921
1726407169368001000,0.0580009765625,-0.18000459671020508,0.6734576225280762,-0.9661889672279358
1726407169377996800,0.067996826171875,-0.2723454535007477,0.626161515712738,-1.0067095756530762
1726407169387992800,0.077992919921875,-0.32922226190567017,0.4933531880378723,-0.9370942711830139
1726407169397989000,0.087989013671875,-0.45559245347976685,0.18311677873134613,-0.7063404321670532
1726407169407986000,0.09798583984375,-0.7269291281700134,-0.28070902824401855,-0.35645657777786255
1726407169417982000,0.10798193359375,-1.0135078430175781,-0.764997124671936,0.15007370710372925
1726407169427978000,0.11797802734375,-1.17641282081604,-1.0183005332946777,0.7430153489112854
1726407169437974000,0.12797412109375,-1.1096476316452026,-0.8715680837631226,1.254847764968872
1726407169447969800,0.1379697265625,-1.0654093027114868,-0.5454916954040527,1.6859506368637085
1726407169457965800,0.1479658203125,-1.055699110031128,-0.1365460306406021,2.023393392562866
1726407169467962000,0.157962158203125,-0.7521685361862183,0.11740170419216156,2.1531574726104736
1726407169477959000,0.167958984375,-0.537982165813446,0.1994164139032364,1.983741283416748
1726407169487955000,0.177954833984375,-0.5238908529281616,0.16181297600269318,1.7475098371505737
1726407169497951000,0.187950927734375,-0.5738693475723267,0.03431733697652817,1.5876818895339966
1726407169507947000,0.197947021484375,-0.6839332580566406,-0.30887141823768616,1.3495240211486816
1726407169517942800,0.20794287109375,-0.7555400729179382,-0.7315158843994141,0.8972466588020325
1726407169527939000,0.21793896484375,-0.5491446256637573,-0.9515512585639954,0.4526326358318329
1726407169537935000,0.22793505859375,-0.21972520649433136,-0.8486781120300293,0.15288640558719635
1726407169547931000,0.237930908203125,-0.10743048787117004,-0.8952229619026184,-0.17600759863853455
1726407169557928200,0.24792822265625,-0.34589579701423645,-1.2952041625976562,-0.5371362566947937
1726407169567924000,0.257924072265625,-0.39754852652549744,-1.8238351345062256,-0.8421849012374878
1726407169577920000,0.267919921875,0.09164990484714508,-3.497783899307251,-0.9656333327293396
1726407169587915800,0.277915771484375,0.763561487197876,-4.617495536804199,-0.9997525811195374
1726407169597912000,0.287912109375,1.7820360660552979,-5.734644412994385,-1.00989830493927
1726407169607908000,0.297908203125,2.076568603515625,-5.910177230834961,-0.8967673778533936
1726407169617903900,0.30790380859375,1.6190364360809326,-5.0957112312316895,-0.9395952820777893
1726407169627901200,0.317901123046875,1.1822764873504639,-3.9055938720703125,-0.9161853790283203
1726407169637897000,0.32789697265625,0.9604604244232178,-3.1816492080688477,-0.34966549277305603
1726407169647893000,0.33789306640625,0.5683258175849915,-2.927778959274292,0.45969435572624207
1726407169657888800,0.347888671875,-0.0013783968752250075,-3.168567180633545,1.1407889127731323
1726407169667885000,0.357885009765625,-0.4165567457675934,-3.7318034172058105,1.5457639694213867
1726407169677881000,0.367881103515625,-0.4603079557418823,-4.39022970199585,1.9329421520233154
1726407169687876900,0.377876953125,-0.33272477984428406,-5.054357051849365,2.5162031650543213
1726407169697874200,0.387874267578125,-0.20905528962612152,-5.424025058746338,3.0439720153808594
1726407169707870000,0.397869873046875,0.049709271639585495,-5.480995178222656,3.583928346633911
1726407169717866000,0.407865966796875,0.5461611151695251,-5.483087062835693,4.103409767150879
1726407169727861800,0.41786181640625,1.1323020458221436,-5.487256050109863,4.558518409729004
1726407169737858000,0.427858154296875,1.6754182577133179,-5.447669982910156,4.907564163208008
1726407169747854000,0.43785400390625,2.1980583667755127,-5.605312347412109,5.28553581237793
1726407169757849900,0.447849853515625,2.717925786972046,-6.110448837280273,5.7649993896484375
1726407169767847200,0.45784716796875,3.3108880519866943,-6.584375858306885,6.332674503326416
1726407169777843000,0.467843017578125,4.149919509887695,-6.177132606506348,6.843381404876709
1726407169787839000,0.4778388671875,5.10431432723999,-4.941397666931152,7.180861473083496
1726407169797834800,0.487834716796875,6.009792327880859,-3.1257309913635254,7.304087162017822
1726407169807831000,0.4978310546875,6.949123859405518,-1.4908384084701538,7.059720516204834
1726407169817827000,0.5078271484375,7.970302104949951,-0.06399764120578766,6.402828693389893
1726407169827822800,0.51782275390625,9.007028579711914,1.01479172706604,5.529160976409912
1726407169837820200,0.527820068359375,9.924537658691406,2.379552125930786,4.519158840179443
1726407169847816000,0.53781591796875,10.933588027954102,3.7784314155578613,3.4831862449645996
1726407169857812000,0.54781201171875,11.927177429199219,4.21724796295166,2.6430530548095703
1726407169867807700,0.557807861328125,12.206414222717285,3.664496898651123,1.992260217666626
1726407169877804000,0.567803955078125,11.94400405883789,3.022174596786499,1.6684616804122925
1726407169887800000,0.577800048828125,11.411391258239746,2.764295816421509,1.4470371007919312
1726407169897795800,0.5877958984375,11.001980781555176,2.0888726711273193,1.1882835626602173
1726407169907793200,0.597793212890625,10.986100196838379,1.3147655725479126,0.9636707305908203
1726407169917789000,0.607788818359375,11.13591480255127,0.6964043378829956,0.9631519317626953
1726407169927785000,0.617784912109375,11.006465911865234,0.40475910902023315,1.3015505075454712
1726407169937780700,0.62778076171875,10.687297821044922,0.5352345705032349,1.8566488027572632
1726407169947777000,0.637777099609375,10.257424354553223,0.5555191040039062,2.545551061630249
1726407169957773000,0.64777294921875,9.842642784118652,0.15962021052837372,3.260106325149536
1726407169967768800,0.657768798828125,9.435187339782715,-0.07743550837039948,3.918333053588867
1726407169977765000,0.66776513671875,8.790641784667969,0.017773032188415527,4.517989635467529
1726407169987762000,0.677761962890625,7.780962944030762,0.24246078729629517,4.975214958190918
1726407169997758000,0.687758056640625,6.553889751434326,0.8029432892799377,5.179633140563965
1726407170007753700,0.697753662109375,5.164717674255371,1.6426151990890503,5.228095531463623
1726407170017750000,0.70775,3.5160117149353027,2.447690963745117,5.1363630294799805
1726407170027746000,0.71774609375,1.7959120273590088,3.1581990718841553,4.960210800170898
1726407170037741800,0.727741943359375,0.2060418426990509,3.817143678665161,4.769025802612305
1726407170047738000,0.737738037109375,-1.1965619325637817,4.073419570922852,4.392117500305176
1726407170057735000,0.74773486328125,-2.5599563121795654,3.976766586303711,3.6753482818603516
1726407170067732000,0.75773193359375,-3.6929125785827637,3.838736057281494,2.8279640674591064
1726407170077728000,0.76772802734375,-4.508926868438721,3.656482458114624,2.0388364791870117
1726407170087724300,0.777724365234375,-5.174028396606445,3.4056236743927,1.3692879676818848
1726407170097720000,0.787719970703125,-5.722020149230957,3.0852675437927246,0.7812196016311646
1726407170107716000,0.797716064453125,-6.112311840057373,2.69148850440979,0.2140989452600479
1726407170117712100,0.807712158203125,-6.314553737640381,2.257023334503174,-0.3147779107093811
1726407170127709200,0.817709228515625,-6.328608989715576,2.1055185794830322,-0.799534261226654
1726407170137705000,0.827705078125,-6.0651164054870605,2.0220754146575928,-1.303652048110962
1726407170147701000,0.837700927734375,-5.701764106750488,2.0525994300842285,-1.8722331523895264
1726407170157697300,0.847697265625,-5.2340312004089355,2.216053009033203,-2.241788148880005
1726407170167693000,0.857693115234375,-4.629745006561279,2.1238455772399902,-2.238652467727661
1726407170177689000,0.867689208984375,-4.083298683166504,1.1619271039962769,-1.6852537393569946
1726407170187685000,0.87768505859375,-3.931270122528076,-0.3761247992515564,-0.9726437926292419
1726407170197682200,0.88768212890625,-3.8744304180145264,-1.8314906358718872,-0.4116419553756714
1726407170207678000,0.897677978515625,-3.43719220161438,-2.9345624446868896,0.001402904512360692
1726407170217674000,0.907674072265625,-2.8810791969299316,-3.4714889526367188,0.09038390964269638
1726407170227670300,0.917670166015625,-2.308180809020996,-3.6183993816375732,-0.1439327448606491
1726407170237666000,0.927666015625,-1.7312531471252441,-3.1527726650238037,-0.3132197856903076
1726407170247662000,0.937662109375,-1.0535290241241455,-2.619027614593506,-0.18935438990592957
1726407170257658000,0.947658203125,-0.5347080230712891,-2.402810573577881,0.06536683440208435
1726407170267655200,0.9576552734375,-0.2761085033416748,-2.303840160369873,0.30497774481773376
1726407170277651000,0.96765087890625,-0.29333943128585815,-2.1598942279815674,0.5059963464736938
1726407170287647000,0.97764697265625,-0.4704298973083496,-1.998565435409546,0.5019646286964417
1726407170297643300,0.987643310546875,-0.5460237860679626,-2.0317208766937256,0.3958304226398468
1726407170307639000,0.99763916015625,-0.5597109198570251,-2.2154667377471924,0.14432977139949799
1726407170317635000,1.007635009765625,-0.5043669939041138,-2.1324121952056885,-0.0995744988322258
1726407170327631000,1.017631103515625,-0.5244804620742798,-1.894180417060852,-0.1166531890630722
1726407170337628200,1.027628173828125,-0.5115468502044678,-1.5178885459899902,0.04323447495698929
1726407170347624000,1.0376240234375,-0.43610963225364685,-1.3991886377334595,0.08813471347093582
1726407170357620000,1.047619873046875,-0.3729913830757141,-1.4406887292861938,-0.01068214513361454
1726407170367616300,1.0576162109375,-0.34568658471107483,-1.456209421157837,-0.15161147713661194
1726407170377612000,1.067612060546875,-0.3404121696949005,-1.5192700624465942,-0.22338233888149261
1726407170387608000,1.077608154296875,-0.3020939826965332,-1.3101750612258911,-0.3614019751548767
1726407170397604000,1.08760400390625,-0.22259701788425446,-0.7845650911331177,-0.2825572192668915
1726407170407601200,1.09760107421875,-0.16781455278396606,-0.30951443314552307,-0.2942696511745453
1726407170417597000,1.107596923828125,-0.15455147624015808,0.1431502401828766,-0.3193339705467224
1726407170427593000,1.117593017578125,-0.09339407086372375,0.47164222598075867,-0.3539098799228668
1726407170437589200,1.12758935546875,-0.035149674862623215,0.610766589641571,-0.3823143541812897
1726407170447585000,1.1375849609375,-0.03741231560707092,0.5434735417366028,-0.3461296856403351
1726407170457581000,1.1475810546875,-0.12436159700155258,0.2906378507614136,-0.33217817544937134
1726407170467577000,1.1575771484375,-0.22165724635124207,0.13510417938232422,-0.39602240920066833
1726407170477573000,1.167572998046875,-0.39222288131713867,0.22497254610061646,-0.7370554208755493
1726407170487570000,1.17756982421875,-0.47515496611595154,0.3258081376552582,-1.0459423065185547
1726407170497566000,1.18756591796875,-0.42648836970329285,0.7444762587547302,-1.1652777194976807
1726407170507562200,1.197562255859375,-0.25897035002708435,1.2256239652633667,-1.0518509149551392
1726407170517558000,1.20755810546875,-0.284100741147995,1.3424594402313232,-1.1726958751678467
1726407170527554000,1.217553955078125,-0.6031266450881958,1.6812961101531982,-1.921804428100586
1726407170537550300,1.22755029296875,-0.8742921352386475,2.364701986312866,-2.6416351795196533
1726407170547546000,1.237546142578125,-0.8825769424438477,2.9801762104034424,-3.0342657566070557
1726407170557543000,1.24754296875,-0.7032990455627441,3.174928665161133,-2.583730459213257
1726407170567539000,1.2575390625,-1.0360944271087646,2.59538197517395,-1.9961974620819092
1726407170577535200,1.26753515625,-1.68205988407135,1.6156777143478394,-1.5403233766555786
1726407170587531000,1.277531005859375,-1.8176558017730713,0.7899705767631531,-0.9718061089515686
1726407170597527000,1.287527099609375,-1.6984529495239258,0.3378206789493561,-0.3068253993988037
1726407170607523300,1.2975234375,-1.8074893951416016,-0.01623358204960823,0.059393737465143204
1726407170617519000,1.30751904296875,-1.7411292791366577,-0.5306519269943237,0.258285254240036
1726407170627516000,1.317515869140625,-1.6262974739074707,-1.047965168952942,0.3935778737068176
1726407170637512200,1.32751220703125,-1.5628184080123901,-1.652892827987671,0.3250606060028076
1726407170647508200,1.33750830078125,-1.4844449758529663,-2.292504072189331,-0.058348122984170914
1726407170657504000,1.34750390625,-1.1804131269454956,-2.4703261852264404,-0.6105859875679016
1726407170667500000,1.3575,-0.8285375237464905,-2.3912482261657715,-0.9503179788589478
1726407170677496300,1.367496337890625,-0.4832025170326233,-2.1604785919189453,-1.2424507141113281
1726407170687492000,1.3774921875,-0.07422953099012375,-1.521358847618103,-1.5983084440231323
1726407170697489000,1.387489013671875,0.08621153980493546,-0.5303084850311279,-2.0752151012420654
1726407170707485200,1.397485107421875,0.06709523499011993,0.160662442445755,-2.762002468109131
1726407170717481200,1.407481201171875,-0.02630794793367386,0.25617751479148865,-3.294811725616455
1726407170727477000,1.41747705078125,-0.010937540791928768,0.5493789911270142,-3.615363836288452
1726407170737473000,1.42747314453125,0.42755886912345886,0.3758905827999115,-3.728607654571533
1726407170747469300,1.43746923828125,0.14908698201179504,0.2757245600223541,-3.518085479736328
1726407170757465000,1.447465087890625,-0.009239526465535164,0.08412103354930878,-3.149357557296753
1726407170767462000,1.4574619140625,-0.1267136186361313,0.24195031821727753,-2.6687748432159424
1726407170777458200,1.467458251953125,-0.3656063675880432,0.5912830233573914,-2.455721855163574
1726407170787454200,1.4774541015625,-0.45010221004486084,0.6074912548065186,-2.611689805984497
1726407170797450000,1.487449951171875,-0.19272500276565552,0.9289137721061707,-3.0772342681884766
1726407170807446000,1.497446044921875,0.1504882127046585,1.619415521621704,-3.6131765842437744
1726407170817442300,1.5074423828125,0.41424450278282166,2.2006704807281494,-4.046446323394775
1726407170827438000,1.51743798828125,0.49684473872184753,2.531048536300659,-4.26448392868042
1726407170837435000,1.527434814453125,0.3129041790962219,2.554311752319336,-4.218779563903809
1726407170847431200,1.53743115234375,-0.07932648807764053,2.1834800243377686,-3.9109315872192383
1726407170857427200,1.54742724609375,-0.21346299350261688,0.985325813293457,-3.6812546253204346
1726407170867423000,1.557423095703125,0.1198253408074379,-0.29562804102897644,-3.2971200942993164
1726407170877419000,1.5674189453125,0.6534962058067322,-1.5200427770614624,-2.8197391033172607
1726407170887415300,1.577415283203125,1.326014518737793,-2.260852336883545,-2.167262554168701
1726407170897411000,1.5874111328125,2.162339925765991,-2.657681703567505,-1.3123191595077515
1726407170907408000,1.597407958984375,3.0328927040100098,-3.373168468475342,-0.6606559753417969
1726407170917404200,1.607404052734375,3.8273754119873047,-4.772813320159912,-0.558433473110199
1726407170927400200,1.617400146484375,4.496603488922119,-5.9395341873168945,-0.4247818887233734
1726407170937396000,1.62739599609375,5.102852821350098,-6.427027225494385,-0.18448325991630554
1726407170947392000,1.63739208984375,5.538257122039795,-6.332111358642578,0.24069948494434357
1726407170957388300,1.64738818359375,5.761017322540283,-6.020829677581787,0.7964783310890198
1726407170967384000,1.657384033203125,5.569891929626465,-6.60459566116333,1.2877683639526367
1726407170977380000,1.667380126953125,5.035307884216309,-7.126343250274658,1.578711986541748
1726407170987377200,1.677377197265625,4.52982234954834,-7.0108323097229,1.8775620460510254
1726407170997373200,1.687373291015625,4.234247207641602,-6.4086527824401855,2.1181931495666504
1726407171007369000,1.697368896484375,3.752769947052002,-5.516087532043457,2.425034284591675
1726407171017365000,1.707364990234375,3.2781612873077393,-4.996884346008301,2.6589369773864746
1726407171027361300,1.717361328125,2.7132766246795654,-5.5320587158203125,2.758997678756714
1726407171037357000,1.727357177734375,2.0759263038635254,-6.343188762664795,2.7883307933807373
1726407171047353000,1.73735302734375,1.1895678043365479,-5.857573509216309,2.6149168014526367
1726407171057350100,1.74735009765625,0.3677505850791931,-5.318652629852295,2.3104586601257324
1726407171067346200,1.75734619140625,-0.23777152597904205,-4.261569499969482,2.202404260635376
1726407171077342000,1.767342041015625,-0.7328188419342041,-2.866522789001465,1.8530981540679932
1726407171087338200,1.777338134765625,-0.9540896415710449,-2.068662166595459,1.4577022790908813
1726407171097334300,1.787334228515625,-0.9458301663398743,-1.8508046865463257,0.9770887494087219
1726407171107330000,1.797330078125,-0.6004607677459717,-1.7439303398132324,0.4667014479637146
1726407171117326000,1.807326171875,-0.11442402750253677,-1.5619802474975586,0.0878167375922203
1726407171127323100,1.8173232421875,0.25099870562553406,-1.274786353111267,-0.1232801228761673
1726407171137319200,1.827319091796875,0.5098894238471985,-1.0502909421920776,-0.31471747159957886
1726407171147315000,1.83731494140625,0.6923117637634277,-0.8494721055030823,-0.487552285194397
1726407171157311200,1.847311279296875,0.9697287082672119,-0.6081076860427856,-0.6080999970436096
1726407171167307300,1.857307373046875,1.153457522392273,-0.5949034690856934,-0.7008995413780212
1726407171177303000,1.867302978515625,1.3088388442993164,-0.6082706451416016,-0.8109365105628967
1726407171187299000,1.877299072265625,1.543280005455017,-0.23312586545944214,-0.9530407786369324
1726407171197296000,1.887296142578125,1.80886709690094,0.34393346309661865,-1.0257776975631714
1726407171207292200,1.897292236328125,1.8644582033157349,0.49941813945770264,-0.9394168257713318
1726407171217288000,1.907287841796875,1.65419602394104,0.48092836141586304,-0.8636253476142883
1726407171227284200,1.9172841796875,1.422244906425476,-0.016259973868727684,-0.7959084510803223
1726407171237280300,1.9272802734375,1.08662748336792,-0.6584887504577637,-0.7529990673065186
1726407171247276000,1.937276123046875,0.6992559432983398,-0.6213333010673523,-0.7437338829040527
1726407171257272000,1.94727197265625,0.42425471544265747,0.1886919140815735,-0.8738335967063904
1726407171267268000,1.95726806640625,0.4332354664802551,1.1842185258865356,-1.0998526811599731
1726407171277265200,1.96726513671875,0.7237759828567505,2.285745143890381,-1.3624467849731445
1726407171287261000,1.977260986328125,1.0065677165985107,3.187054395675659,-1.6357841491699219
1726407171297257200,1.98725732421875,1.0708369016647339,3.354322910308838,-1.8034791946411133
1726407171307253200,1.997253173828125,0.981992781162262,3.2192728519439697,-1.7968311309814453
1726407171317249000,2.0072490234375,0.7309171557426453,4.017061710357666,-1.6186152696609497
1726407171327245000,2.0172451171875,0.5826543569564819,4.246679782867432,-1.5371286869049072
1726407171337241000,2.027240966796875,0.6234579682350159,3.758739709854126,-1.436936855316162
1726407171347238100,2.037238037109375,0.5506757497787476,3.041316270828247,-1.161760687828064
1726407171357234000,2.04723388671875,0.26200026273727417,1.1908143758773804,-0.5649915337562561
1726407171367230200,2.057230224609375,0.1833927035331726,-0.2639337480068207,0.25513365864753723
1726407171377226200,2.067226318359375,0.15573550760746002,-0.9256637692451477,0.9869908094406128
1726407171387222000,2.077221923828125,0.2943275570869446,-1.5656288862228394,1.5214258432388306
1726407171397218000,2.087218017578125,0.21377414464950562,-1.204519510269165,1.7325561046600342
1726407171407214000,2.097214111328125,0.12043320387601852,-0.3587530553340912,1.568257451057434
1726407171417211100,2.107211181640625,0.2914622128009796,0.4945620894432068,1.179896593093872
1726407171427207000,2.11720703125,0.7310866713523865,1.2171103954315186,0.8634521961212158
1726407171437203200,2.127203125,1.0834249258041382,2.6653242111206055,0.8379479050636292
1726407171447199200,2.13719921875,1.0841853618621826,4.868247032165527,0.6777571439743042
1726407171457195000,2.147195068359375,0.5929437279701233,5.808237075805664,0.41212889552116394
1726407171467191000,2.15719091796875,-0.0329301618039608,4.032192707061768,0.5945764780044556
1726407171477187000,2.16718701171875,-0.009596612304449081,0.9866544008255005,1.0326733589172363
1726407171487184100,2.17718408203125,0.7198659777641296,-1.3455898761749268,1.2193127870559692
1726407171497180000,2.187179931640625,1.5134943723678589,-2.299138307571411,0.906862735748291
1726407171507176200,2.19717626953125,1.1827901601791382,-2.7369236946105957,0.728929877281189
1726407171517172200,2.207172119140625,0.09084882587194443,-3.518620491027832,0.9602110385894775
1726407171527168000,2.21716796875,-0.5088028907775879,-2.3179330825805664,0.9760408997535706
1726407171537164300,2.227164306640625,-0.6535483598709106,-1.298011302947998,0.3037661015987396
1726407171547160000,2.23716015625,-1.3292615413665771,-1.2635005712509155,-0.08692917227745056
1726407171557157000,2.2471572265625,-1.9695777893066406,-1.4227924346923828,0.1541481614112854
1726407171567153000,2.25715283203125,-2.5271503925323486,-1.630256175994873,0.7960125803947449
1726407171577149200,2.267149169921875,-3.1887338161468506,-1.6423453092575073,1.329232096672058
1726407171587145200,2.277145263671875,-4.16866397857666,-1.072498083114624,1.7717233896255493
1726407171597141000,2.28714111328125,-5.027338027954102,-0.8137206435203552,1.9783687591552734
1726407171607137300,2.29713720703125,-5.591159343719482,-0.8050045371055603,1.9301871061325073
1726407171617133000,2.307133056640625,-5.515514850616455,-1.0563808679580688,1.1169042587280273
1726407171627130000,2.317130126953125,-4.779768466949463,-1.5258551836013794,-0.24341396987438202
1726407171637126100,2.327126220703125,-3.8150222301483154,-1.3215981721878052,-1.6199817657470703
1726407171647122200,2.3371220703125,-3.018298864364624,-0.9939385056495667,-2.531461000442505
1726407171657118200,2.3471181640625,-2.442324161529541,-0.5523251295089722,-2.566793441772461
1726407171667114000,2.357114013671875,-1.766168475151062,0.15597887337207794,-1.8988747596740723
1726407171677110300,2.3671103515625,-1.481652021408081,0.8418810367584229,-0.9930703639984131
1726407171687106000,2.37710595703125,-1.1639180183410645,1.153449296951294,-0.40834516286849976
1726407171697103000,2.38710302734375,-0.5644031167030334,1.4505224227905273,-0.16751284897327423
1726407171707099100,2.39709912109375,-0.37310630083084106,2.1347403526306152,0.034214720129966736
1726407171717095200,2.40709521484375,-0.23400485515594482,2.328458070755005,0.007639304269105196
1726407171727091200,2.41709130859375,-0.02927633933722973,1.984682559967041,-0.11713940650224686
1726407171737087000,2.4270869140625,-0.037259433418512344,1.3363125324249268,-0.037883736193180084
1726407171747083300,2.437083251953125,-0.17974142730236053,0.7953916192054749,0.050055865198373795
1726407171757079000,2.4470791015625,-0.3998032212257385,0.048114482313394547,-0.004838808439671993
1726407171767076000,2.457076171875,-0.5042383074760437,-0.8530858159065247,0.2471228688955307
1726407171777072000,2.467072021484375,-0.6065199375152588,-1.2739698886871338,0.8263609409332275
1726407171787068200,2.477068115234375,-0.5675342679023743,-1.268975853919983,1.5294374227523804
1726407171797064200,2.487064208984375,-0.4009769558906555,-1.4741941690444946,2.013101577758789
1726407171807060000,2.49706005859375,-0.08198583871126175,-1.5452544689178467,2.1148903369903564
1726407171817056300,2.50705615234375,0.20013932883739471,-1.3084709644317627,2.158543586730957
1726407171827052000,2.517052001953125,0.45736995339393616,-0.9093301892280579,2.3767991065979004
1726407171837049000,2.527049072265625,0.7180404663085938,-0.5946037173271179,2.3401920795440674
1726407171847045000,2.537045166015625,0.9798187613487244,-0.6428927779197693,2.169654607772827
1726407171857041200,2.547041259765625,1.0157514810562134,-0.775905191898346,1.992764949798584
1726407171867037200,2.557037109375,0.8241802453994751,-0.23753546178340912,1.5179098844528198
1726407171877033000,2.567032958984375,0.7038338780403137,0.5735704302787781,1.240549087524414
1726407171887029200,2.577029296875,0.7079196572303772,0.782686710357666,1.1451895236968994
1726407171897025000,2.58702490234375,1.0096325874328613,0.6190261840820312,1.068625807762146
1726407171907022000,2.59702197265625,1.286394715309143,-0.05819334089756012,0.8292351961135864
1726407171917018000,2.60701806640625,1.3737725019454956,-0.2619994580745697,0.6509919166564941
1726407171927014100,2.61701416015625,1.429617166519165,-0.3490234315395355,0.6621164083480835
1726407171937010200,2.62701025390625,1.2764127254486084,-1.221201777458191,0.708267092704773
1726407171947006000,2.637005859375,1.2287405729293823,-1.6392728090286255,0.6492588520050049
1726407171957002200,2.647002197265625,1.0435936450958252,-1.3518702983856201,0.6888222694396973
1726407171966998000,2.656998046875,1.5952956676483154,-1.0344499349594116,0.6122075319290161
1726407171976995000,2.6669951171875,1.4713678359985352,-0.046588651835918427,0.10904987901449203
1726407171986991000,2.6769912109375,0.7911534905433655,0.05021340772509575,-0.4447483420372009
1726407171996987100,2.686987060546875,0.14848613739013672,0.12132059782743454,-0.6834375858306885
1726407172006983200,2.696983154296875,-0.28192809224128723,0.5442962050437927,-0.5901451706886292
1726407172016979000,2.70697900390625,-0.5923557281494141,0.5192108154296875,-0.46068042516708374
1726407172026975200,2.716975341796875,-0.9238084554672241,0.00294890021905303,-0.40796148777008057
1726407172036971000,2.726970947265625,-1.211938738822937,-0.4769628345966339,-0.5133432745933533
1726407172046968000,2.736968017578125,-1.31058931350708,-0.7661553621292114,-0.7677405476570129
1726407172056964000,2.746964111328125,-0.8580014109611511,0.240484356880188,-0.8961227536201477
1726407172066960000,2.7569599609375,0.04368164762854576,0.7372923493385315,-1.253900170326233
1726407172076956000,2.766955810546875,0.7196736931800842,0.3153136968612671,-1.8845348358154297
1726407172086951700,2.77695166015625,1.0335121154785156,-1.213754653930664,-2.3010993003845215
1726407172096948000,2.786947998046875,0.8974365592002869,-2.4947855472564697,-2.2505903244018555
1726407172106943700,2.79694384765625,0.6427720785140991,-3.2936830520629883,-1.7662789821624756
1726407172116940800,2.80694091796875,0.1594105064868927,-2.7892682552337646,-1.0055440664291382
1726407172126936800,2.816936767578125,-0.26209110021591187,-1.6485203504562378,-0.4230654239654541
1726407172136932900,2.826932861328125,-0.6401398777961731,-1.119593620300293,-0.44997772574424744
1726407172146929000,2.836928955078125,-1.40764582157135,1.0243511199951172,-1.3530069589614868
1726407172156924700,2.846924560546875,-1.5348587036132812,3.981760025024414,-2.548755407333374
1726407172166921000,2.8569208984375,-1.2918339967727661,5.419239044189453,-3.589095115661621
1726407172176916700,2.866916748046875,-0.19601409137248993,3.8561313152313232,-3.9930434226989746
1726407172186913800,2.876913818359375,0.30106645822525024,1.687647819519043,-4.009049892425537
1726407172196909800,2.886909912109375,0.2596585750579834,1.751878261566162,-3.4167027473449707
1726407172206905900,2.89690576171875,0.6023154854774475,2.431708574295044,-2.391685962677002
1726407172216902000,2.90690185546875,0.8852137923240662,2.2709689140319824,-1.6738828420639038
1726407172226898000,2.91689794921875,1.0959306955337524,1.8828827142715454,-1.1805869340896606
1726407172236894000,2.92689404296875,1.1262168884277344,1.713030219078064,-0.9658216238021851
1726407172246889700,2.9368896484375,1.1402826309204102,1.388970971107483,-0.7044680714607239
1726407172256887000,2.946886962890625,1.13298499584198,1.1431005001068115,-0.33502957224845886
1726407172266882800,2.9568828125,0.8091233372688293,1.3130922317504883,0.024835431948304176
1726407172276878800,2.96687890625,0.43953490257263184,0.9472135901451111,0.27011042833328247
1726407172286875000,2.976875,0.22603841125965118,0.16023299098014832,0.7540870308876038
1726407172296871000,2.986870849609375,0.32594025135040283,-0.43691641092300415,1.4873098134994507
1726407172306867000,2.996866943359375,0.30173924565315247,-0.4408433139324188,2.739471435546875
1726407172316862700,3.00686279296875,0.12134043127298355,1.3188592195510864,4.960557460784912
1726407172326860000,3.016860107421875,0.7816436886787415,-0.23541416227817535,5.41577672958374
1726407172336855800,3.026855712890625,1.0307070016860962,-1.8265119791030884,5.013634204864502
1726407172346851800,3.036851806640625,1.4629054069519043,-2.2922935485839844,3.9450135231018066
1726407172356847900,3.046847900390625,1.8003963232040405,-1.424581527709961,3.2841761112213135
1726407172366844000,3.056843994140625,1.8384521007537842,-0.3080092668533325,3.277972936630249
1726407172376840000,3.06683984375,1.6924715042114258,1.0658657550811768,3.2379000186920166
1726407172386835700,3.076835693359375,1.021761178970337,1.94994056224823,2.662653684616089
1726407172396833000,3.0868330078125,0.24223239719867706,1.9370229244232178,1.8816624879837036
1726407172406828800,3.096828857421875,-0.6869670152664185,1.0579477548599243,1.1068228483200073
1726407172416824800,3.106824951171875,-1.1653010845184326,0.8273523449897766,0.6229808330535889
1726407172426820900,3.11682080078125,-1.2617028951644897,-0.1342378407716751,0.32004618644714355
1726407172436817000,3.12681689453125,-1.1350045204162598,-1.0203930139541626,0.4394756555557251
1726407172446813000,3.13681298828125,-1.026680827140808,-0.7724049687385559,0.5569706559181213
1726407172456808700,3.14680859375,-0.9104998707771301,-0.47345632314682007,0.5986504554748535
1726407172466806000,3.156805908203125,-0.8159621953964233,-0.5555756688117981,0.521925151348114
1726407172476801800,3.1668017578125,-0.8219234347343445,-0.3688526749610901,0.31121984124183655
1726407172486797800,3.1767978515625,-0.9870507121086121,-0.07412893325090408,0.2588457763195038
1726407172496793900,3.1867939453125,-1.2704962491989136,0.1497502475976944,0.32309186458587646
1726407172506790000,3.196789794921875,-1.540395736694336,0.41365373134613037,0.12607267498970032
1726407172516786000,3.206785888671875,-1.3503435850143433,1.4584022760391235,0.02435217797756195
1726407172526781700,3.21678173828125,-0.385858416557312,1.8242896795272827,-0.9578434824943542
1726407172536777700,3.22677783203125,0.6199820637702942,1.6518158912658691,-1.9327409267425537
1726407172546774800,3.23677490234375,1.2791084051132202,1.010453701019287,-2.2903740406036377
1726407172556770800,3.246770751953125,1.592489242553711,-0.1540447473526001,-2.5896246433258057
1726407172566766800,3.256766845703125,1.6709097623825073,-1.8501349687576294,-3.0112202167510986
1726407172576763000,3.266762939453125,2.0173377990722656,-3.1060304641723633,-3.401219606399536
1726407172586759000,3.276759033203125,2.2982027530670166,-3.9389688968658447,-3.6655380725860596
1726407172596754700,3.286754638671875,2.5729150772094727,-4.359589099884033,-3.639098882675171
1726407172606750700,3.296750732421875,2.9120798110961914,-4.6000657081604,-3.3777267932891846
1726407172616747800,3.306747802734375,3.1655972003936768,-4.674676895141602,-2.5837953090667725
1726407172626743800,3.316743896484375,3.3950743675231934,-2.8775570392608643,-1.297184705734253
1726407172636739800,3.32673974609375,3.6200692653656006,-1.5395945310592651,-0.4896219074726105
1726407172646736000,3.33673583984375,3.6089491844177246,1.0727777481079102,0.42317724227905273
1726407172656732000,3.34673193359375,3.4142355918884277,3.012282609939575,0.38284099102020264
1726407172666727700,3.356727783203125,2.776519775390625,4.385585308074951,0.12520550191402435
1726407172676724000,3.366723876953125,2.1459925174713135,5.052210807800293,0.03681252896785736
1726407172686720800,3.376720703125,2.4862191677093506,4.697061061859131,-0.1553233563899994
1726407172696716800,3.386716796875,2.630373954772949,4.175870418548584,-0.4409359395503998
1726407172706713000,3.396713134765625,2.5244851112365723,4.071139812469482,-0.7222225069999695
1726407172716708900,3.406708984375,2.3205740451812744,3.678943634033203,-0.6551215052604675
1726407172726705000,3.416704833984375,2.5703723430633545,1.9503241777420044,-0.5300487875938416
1726407172736700700,3.42670068359375,2.527928352355957,-0.09508845210075378,-0.20545096695423126
1726407172746697000,3.436697021484375,2.489276647567749,-0.7724552154541016,0.4496206045150757
1726407172756693800,3.44669384765625,3.0045294761657715,-1.0186069011688232,0.7337878942489624
1726407172766689800,3.456689697265625,3.414759397506714,-1.376238465309143,0.2915650010108948
1726407172776686000,3.46668603515625,3.1855688095092773,-1.5147923231124878,-0.6730292439460754
1726407172786681900,3.476681884765625,2.5597805976867676,-0.8244070410728455,-1.4867262840270996
1726407172796678000,3.486677978515625,2.2222561836242676,-0.08240429311990738,-1.5819497108459473
1726407172806673700,3.496673583984375,2.381006956100464,0.7173638343811035,-0.5394150018692017
1726407172816670000,3.506669921875,2.5455102920532227,1.8114699125289917,0.38027331233024597
1726407172826666800,3.516666748046875,2.498408555984497,2.077246904373169,0.6613808274269104
1726407172836662800,3.526662841796875,2.182971477508545,2.2335658073425293,0.2788541913032532
1726407172846659000,3.5366591796875,1.8325259685516357,2.102017879486084,-0.15156768262386322
1726407172856654800,3.54665478515625,1.2670782804489136,2.770486354827881,-0.012842562980949879
1726407172866651000,3.55665087890625,0.8843465447425842,3.9381606578826904,0.1605137139558792
1726407172876646700,3.566646728515625,0.4859922230243683,5.050079345703125,0.3219204545021057
1726407172886643000,3.576642822265625,0.2620258629322052,6.025269031524658,0.45306459069252014
1726407172896639700,3.5866396484375,0.139414981007576,6.287082195281982,0.6276203989982605
1726407172906635800,3.5966357421875,0.1514420062303543,5.631374835968018,0.7778902053833008
1726407172916632000,3.606632080078125,0.06965633481740952,4.3691020011901855,1.1812264919281006
1726407172926627800,3.6166279296875,-0.02325288951396942,2.219923496246338,1.4887311458587646
1726407172936623900,3.626623779296875,0.17100952565670013,-0.46356436610221863,1.6831419467926025
1726407172946619600,3.63661962890625,0.3317987620830536,-3.136525869369507,1.5492944717407227
1726407172956616000,3.646615966796875,-0.2051571160554886,-4.211406230926514,1.357546091079712
1726407172966612000,3.656612060546875,-0.5711312890052795,-3.704923152923584,1.1628681421279907
1726407172976608800,3.66660888671875,-0.7235826253890991,-3.4306800365448,0.9610610008239746
1726407172986605000,3.67660498046875,-0.5390990972518921,-2.7088687419891357,0.35673627257347107
1726407172996600800,3.686600830078125,-0.10517162084579468,-2.593204975128174,0.059387657791376114
1726407173006596900,3.696596923828125,0.37969714403152466,-2.7604289054870605,0.010506778955459595
1726407173016592600,3.706592529296875,0.438436359167099,-3.1621010303497314,0.26979613304138184
1726407173026589000,3.7165888671875,0.2762860059738159,-3.540940046310425,0.6408318281173706
1726407173036585000,3.7265849609375,0.06416309624910355,-3.56037974357605,0.9022820591926575
1726407173046581800,3.736581787109375,-0.08741160482168198,-3.474606990814209,0.8952237963676453
1726407173056578000,3.746578125,-0.08958341181278229,-3.3556623458862305,0.686547577381134
1726407173066573800,3.75657373046875,0.18537025153636932,-3.1700689792633057,0.24581895768642426
1726407173076569900,3.76656982421875,0.8049908876419067,-2.869123697280884,-0.6730453968048096
1726407173086565600,3.776565673828125,1.6209802627563477,-2.9712634086608887,-2.4551303386688232
1726407173096561700,3.786561767578125,2.1285085678100586,-2.986562490463257,-4.533138751983643
1726407173106558000,3.796557861328125,2.139451742172241,-2.7262940406799316,-5.875487327575684
1726407173116554800,3.8065546875,1.8385848999023438,-2.5521225929260254,-6.248220920562744
1726407173126550800,3.81655078125,1.3388704061508179,-2.470876932144165,-5.987633228302002
1726407173136546800,3.826546875,0.576077401638031,-2.1031339168548584,-5.318369388580322
1726407173146542800,3.83654296875,-0.2598291039466858,-1.3722410202026367,-4.5100812911987305
1726407173156538600,3.84653857421875,-0.35602036118507385,-0.3526748716831207,-3.451700448989868
1726407173166534700,3.85653466796875,-0.40255334973335266,0.046361006796360016,-2.3146703243255615
1726407173176531000,3.866531005859375,-0.48194724321365356,0.025546003133058548,-1.2406545877456665
1726407173186527700,3.87652783203125,-0.2691296935081482,-0.06860766559839249,-0.32777225971221924
1726407173196523800,3.886523681640625,-0.06409239768981934,0.1325470209121704,0.3732372522354126
1726407173206519800,3.896519775390625,0.12529471516609192,0.4677759110927582,0.8843689560890198
1726407173216515800,3.906515869140625,0.24673992395401,0.6806226372718811,1.2256687879562378
1726407173226511600,3.91651171875,0.35284224152565,0.6857103109359741,1.499011516571045
1726407173236507600,3.926507568359375,0.3917273283004761,0.5999945998191833,1.7275744676589966
1726407173246504000,3.93650390625,0.3765166997909546,0.5136586427688599,1.8897795677185059
1726407173256499700,3.946499755859375,0.3067125678062439,0.478976309299469,1.9552602767944336
1726407173266496800,3.956496826171875,0.20170024037361145,0.5286234617233276,1.9189575910568237
1726407173276492800,3.966492919921875,0.12030976265668869,0.5528914928436279,1.8031564950942993
1726407173286488800,3.97648876953125,0.053124863654375076,0.5449351668357849,1.623166799545288
1726407173296484600,3.986484619140625,-0.007569110486656427,0.5167130827903748,1.4114561080932617
1726407173306480600,3.996480712890625,-0.05021485686302185,0.4601385295391083,1.1929417848587036
1726407173316477000,4.006476806640625,-0.06784924864768982,0.42362257838249207,0.9753381609916687
1726407173326472700,4.01647265625,-0.08713136613368988,0.37606507539749146,0.7611974477767944
1726407173336469800,4.0264697265625,-0.08029156923294067,0.3071824014186859,0.5665781497955322
1726407173346465800,4.0364658203125,-0.08183762431144714,0.2342626303434372,0.3864913880825043
1726407173356461800,4.0464619140625,-0.07531128078699112,0.18381863832473755,0.22505003213882446
1726407173366457600,4.05645751953125,-0.05906505882740021,0.1474652737379074,0.08082759380340576
1726407173376454000,4.066453857421875,-0.02002471499145031,0.10630425810813904,-0.018080610781908035
1726407173386450000,4.076449951171875,0.031596794724464417,0.06140590459108353,-0.06944019347429276
1726407173396445700,4.08644580078125,0.11004925519227982,0.03728192299604416,-0.08065929263830185
1726407173406442800,4.09644287109375,0.24182851612567902,-0.04832685738801956,-0.08742252737283707
1726407173416438800,4.106438720703125,0.35974717140197754,-0.18964430689811707,-0.11399075388908386
1726407173426434800,4.116434814453125,0.37296053767204285,-0.2985188364982605,-0.15662573277950287
1726407173436430600,4.1264306640625,0.3343676030635834,-0.3157569468021393,-0.24342693388462067
1726407173446427000,4.136427001953125,0.2981324791908264,-0.26636505126953125,-0.36003151535987854
1726407173456423000,4.1464228515625,0.28550800681114197,-0.12215384095907211,-0.44579142332077026
1726407173466418700,4.156418701171875,0.3330727517604828,0.01372603140771389,-0.4566568434238434
1726407173476416000,4.166416015625,0.3869878947734833,0.07508392632007599,-0.394593745470047
1726407173486411800,4.176411865234375,0.4268481135368347,0.04097393527626991,-0.29882171750068665
1726407173496407800,4.18640771484375,0.4713894724845886,0.04438278079032898,-0.21612124145030975
1726407173506403600,4.196403564453125,0.5113552212715149,0.07084950804710388,-0.12744446098804474
1726407173516399900,4.20639990234375,0.4980159401893616,0.0689898282289505,-0.018047666177153587
1726407173526396000,4.21639599609375,0.4658190608024597,0.008278004825115204,0.09855204075574875
1726407173536391700,4.2263916015625,0.40408220887184143,-0.06792595237493515,0.18193668127059937
1726407173546389000,4.236388916015625,0.36195167899131775,-0.1240869089961052,0.1956058144569397
1726407173556384800,4.246384765625,0.3507823944091797,-0.23972268402576447,0.1407763957977295
1726407173566380800,4.256380859375,0.3294183611869812,-0.2721581757068634,0.1006164699792862
1726407173576376600,4.26637646484375,0.2824876010417938,-0.26938503980636597,0.09468348324298859
1726407173586372900,4.276372802734375,0.2159596085548401,-0.20952057838439941,0.07698648422956467
1726407173596369000,4.286368896484375,0.1427335888147354,-0.020209241658449173,0.08744791150093079
1726407173606364700,4.29636474609375,0.13614100217819214,0.16615882515907288,0.1599201112985611
1726407173616360700,4.306360595703125,0.2107183039188385,0.21153244376182556,0.3154050409793854
1726407173626357800,4.316357666015625,0.32294511795043945,0.07917602360248566,0.5562208294868469
1726407173636353800,4.326353759765625,0.4179094433784485,-0.19591467082500458,0.8246099352836609
1726407173646349600,4.336349609375,0.4741043448448181,-0.4907003343105316,1.0281599760055542
1726407173656345900,4.346345947265625,0.48188504576683044,-0.6956273913383484,1.1486831903457642
1726407173666342000,4.356341796875,0.47784948348999023,-0.7707297801971436,1.193953037261963
1726407173676337700,4.366337646484375,0.4377577304840088,-0.7831494212150574,1.1747770309448242
1726407173686333700,4.376333740234375,0.37184327840805054,-0.7395998239517212,1.1161030530929565
1726407173696330800,4.386330810546875,0.32103657722473145,-0.7194982767105103,1.0319008827209473
1726407173706326800,4.396326904296875,0.3118514120578766,-0.7696948647499084,0.9325245022773743
1726407173716322600,4.406322509765625,0.32123667001724243,-0.8284226059913635,0.8113399744033813
1726407173726318800,4.41631884765625,0.37362730503082275,-0.8260275721549988,0.6458727717399597
1726407173736315000,4.42631494140625,0.3603655695915222,-0.7595617771148682,0.4241403639316559
1726407173746310700,4.436310546875,0.2282373607158661,-0.664497435092926,0.13421262800693512
1726407173756306700,4.446306640625,0.011660587042570114,-0.5859344005584717,-0.23807013034820557
1726407173766303700,4.4563037109375,-0.21120552718639374,-0.516868531703949,-0.7161375880241394
1726407173776299800,4.4662998046875,-0.3540042042732239,-0.42618709802627563,-1.2696716785430908
1726407173786295600,4.476295654296875,-0.4620649218559265,-0.3224867284297943,-1.826416015625
1726407173796291800,4.486291748046875,-0.6111997961997986,-0.19699163734912872,-2.2966110706329346
1726407173806288000,4.496287841796875,-0.7796189785003662,-0.145549014210701,-2.6678035259246826
1726407173816283600,4.50628369140625,-0.9569063782691956,-0.3004344701766968,-2.960913896560669
1726407173826279700,4.51627978515625,-1.0871480703353882,-0.6528511047363281,-3.0962350368499756
1726407173836276700,4.52627685546875,-1.1793224811553955,-1.067455768585205,-3.0274500846862793
1726407173846272800,4.536272705078125,-1.1982475519180298,-1.6261992454528809,-2.8400962352752686
1726407173856268500,4.5462685546875,-1.1408708095550537,-2.1440441608428955,-2.569286346435547
1726407173866264800,4.556264892578125,-1.0402284860610962,-2.4955170154571533,-2.230119466781616
1726407173876260900,4.5662607421875,-0.812284529209137,-2.4503705501556396,-1.8602991104125977
1726407173886256600,4.576256591796875,-0.6609790921211243,-1.8377586603164673,-1.3874015808105469
1726407173896253000,4.5862529296875,-0.6352391242980957,-1.1902574300765991,-0.8926603198051453
1726407173906249700,4.596249755859375,-0.671104907989502,-0.6731099486351013,-0.481575071811676
1726407173916245800,4.606245849609375,-0.6577744483947754,-0.35624009370803833,-0.16636063158512115
1726407173926241800,4.61624169921875,-0.5969479084014893,0.05096711963415146,0.07144256681203842
1726407173936237800,4.62623779296875,-0.46203646063804626,0.5569021701812744,0.24507641792297363
1726407173946233900,4.63623388671875,-0.309653639793396,0.9262613654136658,0.40579915046691895
1726407173956229600,4.646229736328125,-0.18202298879623413,1.080157995223999,0.5544530153274536
1726407173966226000,4.656225830078125,-0.08830690383911133,1.0917041301727295,0.6798688173294067
1726407173976221700,4.6662216796875,-0.026865113526582718,1.0472341775894165,0.7678143978118896
1726407173986218800,4.67621875,-0.011587586253881454,0.991426408290863,0.7967053055763245
1726407173996214800,4.68621484375,-0.01399508398026228,0.9700164794921875,0.755799412727356
1726407174006210800,4.6962109375,0.04457353800535202,1.025036334991455,0.6077924370765686
1726407174016206800,4.706206787109375,0.11538699269294739,1.0429307222366333,0.39561837911605835
1726407174026202600,4.71620263671875,0.19422854483127594,0.9784319996833801,0.17862987518310547
1726407174036199000,4.726198974609375,0.19185540080070496,0.8821203708648682,-0.03446748107671738
1726407174046194700,4.736194580078125,0.12702646851539612,0.6979618072509766,-0.19553519785404205
1726407174056191700,4.746191650390625,0.07169344276189804,0.453045517206192,-0.33301952481269836
1726407174066187800,4.756187744140625,0.05717314034700394,0.34093397855758667,-0.5343387126922607
1726407174076183600,4.76618359375,0.08431101590394974,0.32622215151786804,-0.7796621322631836
1726407174086179800,4.776179931640625,0.14737771451473236,0.37797799706459045,-0.9957099556922913
1726407174096175600,4.786175537109375,0.24425606429576874,0.4316406846046448,-1.1176196336746216
1726407174106171600,4.796171630859375,0.3561662435531616,0.3764329254627228,-1.0961726903915405
1726407174116167400,4.80616748046875,0.4877372980117798,0.15827316045761108,-0.8507148027420044
1726407174126164700,4.816164794921875,0.5697609782218933,-0.06872005015611649,-0.5526741147041321
1726407174136160500,4.826160400390625,0.5719229578971863,-0.2278473824262619,-0.33101916313171387
1726407174146156500,4.836156494140625,0.5388336777687073,-0.35510146617889404,-0.25474944710731506
1726407174156152800,4.84615283203125,0.4777644872665405,-0.4936915934085846,-0.3117152452468872
1726407174166148600,4.856148681640625,0.39412564039230347,-0.6934789419174194,-0.4564373195171356
1726407174176144600,4.86614453125,0.2942991852760315,-1.0324348211288452,-0.6994537115097046
1726407174186140400,4.876140380859375,0.15479989349842072,-1.3411107063293457,-0.9266834259033203
1726407174196137700,4.8861376953125,0.022300442680716515,-1.495984435081482,-1.0587700605392456
1726407174206133500,4.896133544921875,-0.08285001665353775,-1.5270519256591797,-1.1242873668670654
1726407174216129500,4.906129638671875,-0.16000498831272125,-1.5369518995285034,-1.1379954814910889
1726407174226125800,4.916125732421875,-0.20100216567516327,-1.567071795463562,-1.1175668239593506
1726407174236121600,4.92612158203125,-0.19823648035526276,-1.5358045101165771,-1.0882967710494995
1726407174246117600,4.93611767578125,-0.14801569283008575,-1.351449728012085,-1.035920262336731
1726407174256113400,4.946113525390625,-0.06648063659667969,-1.0119081735610962,-0.9429583549499512
1726407174266110700,4.95611083984375,-0.009291941300034523,-0.6514363884925842,-0.8113731145858765
1726407174276106500,4.9661064453125,0.014073302038013935,-0.3225402534008026,-0.6638896465301514
1726407174286102500,4.9761025390625,0.004452083725482225,-0.09502609819173813,-0.5509539842605591
1726407174296098800,4.986098876953125,-0.0039059806149452925,-0.012267304584383965,-0.5476245284080505
1726407174306094600,4.996094482421875,0.006668915040791035,-0.04300101473927498,-0.5394593477249146
1726407174316090600,5.006090576171875,0.040283333510160446,-0.09971383213996887,-0.4062243103981018
1726407174326086400,5.01608642578125,0.08517821133136749,-0.07540929317474365,-0.1462584286928177
1726407174336083700,5.026083740234375,0.1364259421825409,-0.004966283682733774,0.16547468304634094
1726407174346079500,5.03607958984375,0.18720406293869019,0.08910650759935379,0.4700995087623596
1726407174356075500,5.046075439453125,0.2046712040901184,0.25282275676727295,0.7060756087303162
1726407174366071800,5.05607177734375,0.19680139422416687,0.3973790407180786,0.7908791899681091
1726407174376067600,5.066067626953125,0.17121188342571259,0.4201700985431671,0.6874033808708191
1726407174386063600,5.076063720703125,0.1492958515882492,0.33865877985954285,0.4670781195163727
1726407174396059600,5.0860595703125,0.12183146923780441,0.17679797112941742,0.2318991720676422
1726407174406055700,5.0960556640625,0.07127629220485687,-0.018261227756738663,0.03970041498541832
1726407174416052500,5.106052490234375,-0.005028596147894859,-0.18775199353694916,-0.11646176129579544
1726407174426048500,5.116048583984375,-0.08831556886434555,-0.2847699522972107,-0.2673185169696808
1726407174436044800,5.126044921875,-0.17036756873130798,-0.32893553376197815,-0.4290165901184082
1726407174446040600,5.13604052734375,-0.21141736209392548,-0.3317943513393402,-0.5718166828155518
1726407174456036600,5.14603662109375,-0.23536556959152222,-0.31433331966400146,-0.667954683303833
1726407174466032600,5.15603271484375,-0.25149938464164734,-0.2593989372253418,-0.6530366539955139
1726407174476028700,5.166028564453125,-0.2681971490383148,-0.17756955325603485,-0.5162857174873352
1726407174486025500,5.176025390625,-0.2625545859336853,-0.15506014227867126,-0.2936449646949768
1726407174496021800,5.186021728515625,-0.21861349046230316,-0.12784023582935333,-0.04837477207183838
1726407174506017800,5.196017822265625,-0.1570635735988617,-0.1758522391319275,0.14345484972000122
1726407174516013600,5.206013671875,-0.0991898849606514,-0.21508964896202087,0.2657666504383087
1726407174526009600,5.216009521484375,-0.07003790885210037,-0.20430642366409302,0.32931241393089294
1726407174536005600,5.226005615234375,-0.06415312737226486,-0.17439965903759003,0.3396689295768738
1726407174546001700,5.236001708984375,-0.06445255875587463,-0.1579987108707428,0.3371782600879669
1726407174555998500,5.24599853515625,-0.045634131878614426,-0.13110557198524475,0.32391199469566345
1726407174565994800,5.255994873046875,0.016635190695524216,-0.10817714035511017,0.3072090148925781
1726407174575990800,5.26599072265625,0.09427938610315323,-0.09271669387817383,0.28920790553092957
1726407174585986600,5.275986572265625,0.16186687350273132,-0.08293735980987549,0.2540476620197296
1726407174595982600,5.285982666015625,0.2029740959405899,-0.07382562011480331,0.19866855442523956
1726407174605978600,5.295978515625,0.22367501258850098,-0.048409391194581985,0.1499105542898178
1726407174615974700,5.305974609375,0.21823471784591675,-0.003108756383880973,0.131011962890625
1726407174625971500,5.315971435546875,0.19450384378433228,0.08297253400087357,0.1451421082019806
1726407174635967700,5.3259677734375,0.19002121686935425,0.1599474847316742,0.1779000610113144
1726407174645963800,5.3359638671875,0.1960432231426239,0.2230454534292221,0.2378404587507248
1726407174655959600,5.34595947265625,0.24158300459384918,0.2168794423341751,0.30218350887298584
1726407174665955600,5.35595556640625,0.2696533203125,0.19019314646720886,0.38387611508369446
1726407174675951600,5.36595166015625,0.2629767954349518,0.20318672060966492,0.4573575258255005
1726407174685947600,5.37594775390625,0.23869523406028748,0.21035221219062805,0.5072822570800781
1726407174695944400,5.3859443359375,0.2141890972852707,0.23045188188552856,0.5048446655273438
1726407174705940700,5.395940673828125,0.1753709316253662,0.25808119773864746,0.46507528424263
1726407174715936800,5.405936767578125,0.14959873259067535,0.2672443389892578,0.39707252383232117
1726407174725932500,5.4159326171875,0.13002124428749084,0.23427827656269073,0.31310051679611206
1726407174735928600,5.425928466796875,0.1312987506389618,0.17697452008724213,0.2248694747686386
1726407174745924600,5.435924560546875,0.13475604355335236,0.1333027184009552,0.14860592782497406
1726407174755920600,5.445920654296875,0.12904569506645203,0.10273843258619308,0.09934809803962708
1726407174765917400,5.45591748046875,0.13311518728733063,0.099699966609478,0.07104229182004929
1726407174775913700,5.465913818359375,0.152121901512146,0.12795186042785645,0.07699126750230789
1726407174785909800,5.47590966796875,0.16139531135559082,0.16859479248523712,0.1184002086520195
1726407174795905500,5.485905517578125,0.16404621303081512,0.21931388974189758,0.17756526172161102
1726407174805901600,5.495901611328125,0.1745840609073639,0.2736307978630066,0.2462088167667389
1726407174815897600,5.505897705078125,0.17738889157772064,0.3193460702896118,0.31651386618614197
1726407174825893600,5.5158935546875,0.17207731306552887,0.34535712003707886,0.38633137941360474
1726407174835890400,5.525890380859375,0.15473854541778564,0.36388713121414185,0.4409858286380768
1726407174845886700,5.53588671875,0.13221782445907593,0.3721765875816345,0.48671409487724304
1726407174855882800,5.5458828125,0.1100536659359932,0.3808768689632416,0.52352374792099
1726407174865878500,5.55587841796875,0.09000355750322342,0.3931121826171875,0.5520213842391968
1726407174875874600,5.56587451171875,0.07315373420715332,0.39186766743659973,0.5616146326065063
1726407174885870600,5.57587060546875,0.07095722109079361,0.37536975741386414,0.5547350645065308
1726407174895866600,5.58586669921875,0.06729217618703842,0.35786134004592896,0.5394085645675659
1726407174905863400,5.595863525390625,0.06880301237106323,0.3487101197242737,0.5151220560073853
1726407174915859700,5.605859619140625,0.05804144963622093,0.31550130248069763,0.4792943000793457
1726407174925855700,5.615855712890625,0.05857127904891968,0.27487945556640625,0.4352714419364929
1726407174935851500,5.6258515625,0.06291515380144119,0.2472454309463501,0.38525062799453735
1726407174945847800,5.635847900390625,0.06297288835048676,0.24010401964187622,0.33640414476394653
1726407174955843600,5.645843505859375,0.08139050751924515,0.2480623573064804,0.3058217167854309
1726407174965839600,5.655839599609375,0.10083945840597153,0.26964372396469116,0.30763715505599976
1726407174975835600,5.665835693359375,0.11657287925481796,0.2958553433418274,0.3350788950920105
1726407174985832700,5.675832763671875,0.12632142007350922,0.29658836126327515,0.3809901475906372
1726407174995828700,5.685828857421875,0.14378829300403595,0.27946075797080994,0.42629608511924744
1726407175005824500,5.695824462890625,0.16326484084129333,0.26334190368652344,0.46426814794540405
1726407175015820800,5.70582080078125,0.16853496432304382,0.27118250727653503,0.4800660014152527
1726407175025816600,5.715816650390625,0.15745125710964203,0.302808552980423,0.4741632044315338
1726407175035812600,5.7258125,0.12944544851779938,0.3371758460998535,0.4442391097545624
1726407175045808600,5.73580859375,0.09123086929321289,0.3559875786304474,0.39432552456855774
1726407175055805700,5.7458056640625,0.060737140476703644,0.3747093379497528,0.3369080424308777
1726407175065801700,5.7558017578125,0.058313366025686264,0.3848075866699219,0.2864374816417694
1726407175075797800,5.7657978515625,0.08222135901451111,0.38961297273635864,0.254038006067276
1726407175085793800,5.775793701171875,0.10519871860742569,0.39435485005378723,0.2439427375793457
1726407175095789600,5.78578955078125,0.11953877657651901,0.3947412967681885,0.26799559593200684
1726407175105785600,5.79578564453125,0.13569290935993195,0.43977367877960205,0.2971816062927246
1726407175115782000,5.805781982421875,0.15105322003364563,0.5289038419723511,0.3086550235748291
1726407175125778700,5.81577880859375,0.1689741015434265,0.5740106105804443,0.3147391378879547
1726407175135774700,5.825774658203125,0.1922285556793213,0.55887371301651,0.3126578629016876
1726407175145770800,5.835770751953125,0.19941352307796478,0.5238503813743591,0.3006206154823303
1726407175155766800,5.845766845703125,0.2163219451904297,0.4739648401737213,0.2893165647983551
1726407175165762600,5.855762451171875,0.242202490568161,0.3917125463485718,0.2757662236690521
1726407175175758600,5.865758544921875,0.2552003264427185,0.34104111790657043,0.27097946405410767
1726407175185755000,5.8757548828125,0.2573884129524231,0.33625006675720215,0.2793810963630676
1726407175195751700,5.885751708984375,0.25070813298225403,0.36008402705192566,0.2925701439380646
1726407175205747700,5.895747802734375,0.24337682127952576,0.37287604808807373,0.3004172444343567
1726407175215743700,5.90574365234375,0.2338448315858841,0.35504433512687683,0.29918551445007324
1726407175225739800,5.91573974609375,0.21275995671749115,0.3114584684371948,0.28040188550949097
1726407175235735600,5.925735595703125,0.18189819157123566,0.247746080160141,0.23785603046417236
1726407175245731800,5.93573193359375,0.1576736718416214,0.18098361790180206,0.17928938567638397
1726407175255727900,5.945727783203125,0.14517812430858612,0.14699769020080566,0.1225491389632225
1726407175265724700,5.955724609375,0.15844954550266266,0.12967337667942047,0.08201085031032562
1726407175275721000,5.965720947265625,0.18289682269096375,0.12453719973564148,0.08009843528270721
1726407175285716700,5.975716796875,0.19837187230587006,0.1445923149585724,0.12484657764434814
1726407175295712800,5.985712646484375,0.21074119210243225,0.20112404227256775,0.20018287003040314
1726407175305708500,5.99570849609375,0.21189434826374054,0.278190553188324,0.29120996594429016
1726407175315704800,6.005704833984375,0.21663770079612732,0.35040855407714844,0.3603629171848297
1726407175325700900,6.015700927734375,0.22682949900627136,0.40777257084846497,0.40688464045524597
1726407175335697700,6.02569775390625,0.23633645474910736,0.4417326748371124,0.4370257556438446
1726407175345694000,6.03569384765625,0.24214553833007812,0.4298487603664398,0.4526998996734619
1726407175355689700,6.045689697265625,0.23728980123996735,0.4138045608997345,0.4656630754470825
1726407175365685800,6.055685791015625,0.2399521917104721,0.4046499729156494,0.45892417430877686
1726407175375681500,6.065681640625,0.2233029156923294,0.42147448658943176,0.4431755840778351
1726407175385677800,6.075677734375,0.2068047672510147,0.4502803385257721,0.426603227853775
1726407175395673900,6.085673828125,0.2097768485546112,0.45651957392692566,0.41362112760543823
1726407175405670700,6.095670654296875,0.20691868662834167,0.4464791417121887,0.40008094906806946
1726407175415667000,6.1056669921875,0.20543265342712402,0.4013819694519043,0.38405564427375793
1726407175425662700,6.115662841796875,0.19073811173439026,0.3410896360874176,0.3700290620326996
1726407175435658800,6.12565869140625,0.1854248344898224,0.24631306529045105,0.3412083387374878
1726407175445654500,6.135654541015625,0.17020750045776367,0.18337011337280273,0.30602166056632996
1726407175455650800,6.14565087890625,0.14204883575439453,0.17111477255821228,0.2610459327697754
1726407175465646800,6.155646728515625,0.12642358243465424,0.22464041411876678,0.22416210174560547
1726407175475643600,6.1656435546875,0.14731262624263763,0.283072292804718,0.2002951204776764
1726407175485640000,6.175639892578125,0.17259889841079712,0.31070736050605774,0.1978200525045395
1726407175495635700,6.1856357421875,0.18702204525470734,0.31402087211608887,0.22376295924186707
1726407175505631700,6.1956318359375,0.19338905811309814,0.30071455240249634,0.26109078526496887
1726407175515627500,6.20562744140625,0.20262384414672852,0.2838543653488159,0.3054302930831909
1726407175525623800,6.215623779296875,0.20433250069618225,0.28963378071784973,0.3332630395889282
1726407175535619800,6.225619873046875,0.21632391214370728,0.31902840733528137,0.3495679497718811
1726407175545616600,6.23561669921875,0.23509623110294342,0.3482069671154022,0.3440403640270233
1726407175555613000,6.245613037109375,0.25173884630203247,0.38395190238952637,0.335882306098938
1726407175565608700,6.255608642578125,0.27938276529312134,0.38306552171707153,0.31884652376174927
1726407175575604700,6.265604736328125,0.29957911372184753,0.38253796100616455,0.30991029739379883
1726407175585600500,6.2756005859375,0.3240761160850525,0.376386821269989,0.3001427948474884
1726407175595596800,6.2855966796875,0.327136367559433,0.3959466814994812,0.3051234185695648
1726407175605592800,6.2955927734375,0.32055777311325073,0.44676342606544495,0.29444077610969543
1726407175615589600,6.305589599609375,0.32283106446266174,0.48930636048316956,0.28788915276527405
1726407175625586000,6.3155859375,0.3211352825164795,0.5214340686798096,0.2792264223098755
1726407175635581700,6.325581787109375,0.3250831365585327,0.5243380069732666,0.27230674028396606
1726407175645577700,6.33557763671875,0.3375806510448456,0.4908280074596405,0.2599867880344391
1726407175655573500,6.345573486328125,0.3464830815792084,0.47210943698883057,0.24281153082847595
1726407175665569800,6.35556982421875,0.3429715931415558,0.46976661682128906,0.2184392511844635
1726407175675565800,6.36556591796875,0.30482473969459534,0.4589192867279053,0.1971568614244461
1726407175685562600,6.375562744140625,0.2633722126483917,0.39956411719322205,0.17230857908725739
1726407175695559000,6.385558837890625,0.2334236353635788,0.32178595662117004,0.1542651206254959
1726407175705554700,6.3955546875,0.2057712972164154,0.25424709916114807,0.13521672785282135
1726407175715550700,6.40555078125,0.1796398162841797,0.20345717668533325,0.12001089006662369
1726407175725546500,6.41554638671875,0.16660679876804352,0.1686982810497284,0.11149949580430984
1726407175735542800,6.425542724609375,0.15442924201488495,0.16708385944366455,0.11615443974733353
1726407175745538800,6.435538818359375,0.14870908856391907,0.19229823350906372,0.12612919509410858
1726407175755535600,6.44553564453125,0.13730543851852417,0.22174933552742004,0.14597187936306
1726407175765532000,6.455531982421875,0.1405084878206253,0.25756874680519104,0.18965397775173187
1726407175775527700,6.465527587890625,0.15116804838180542,0.28800439834594727,0.2267635315656662
1726407175785523700,6.475523681640625,0.14120608568191528,0.3306885063648224,0.2693890631198883
1726407175795519700,6.485519775390625,0.12881891429424286,0.34886857867240906,0.29909422993659973
1726407175805515800,6.495515869140625,0.10900350660085678,0.3553779423236847,0.312285453081131
1726407175815511800,6.50551171875,0.08752777427434921,0.35200104117393494,0.3018144369125366
1726407175825508900,6.5155087890625,0.05387910455465317,0.33670279383659363,0.26262983679771423
1726407175835505000,6.5255048828125,0.03096526488661766,0.3151889741420746,0.19693522155284882
1726407175845500700,6.535500732421875,0.014934482052922249,0.2937535345554352,0.1272645741701126
1726407175855496700,6.54549658203125,0.015874311327934265,0.2702900171279907,0.056045785546302795
1726407175865492700,6.55549267578125,-0.0022662077099084854,0.28901731967926025,0.00940664205700159
1726407175875488800,6.56548876953125,-0.013322054408490658,0.3200695216655731,-0.03064304031431675
1726407175885484800,6.57548486328125,-0.016821660101413727,0.3207519054412842,-0.06109639257192612
1726407175895481900,6.58548193359375,-0.011538747698068619,0.30642569065093994,-0.06877348572015762
1726407175905478000,6.595477783203125,-0.016950424760580063,0.29341381788253784,-0.05565821751952171
1726407175915473700,6.6054736328125,-0.012017452158033848,0.31036055088043213,-0.01294644270092249
1726407175925469700,6.6154697265625,0.00626635504886508,0.32319870591163635,0.04952118173241615
1726407175935465700,6.6254658203125,0.0010060790227726102,0.36386623978614807,0.12500421702861786
1726407175945461800,6.635461669921875,-0.0287475548684597,0.4105069935321808,0.19797056913375854
1726407175955457800,6.645457763671875,-0.04967067763209343,0.44237303733825684,0.26734697818756104
1726407175965454800,6.655454833984375,-0.03790220990777016,0.446537047624588,0.3204704821109772
1726407175975451000,6.665450927734375,-0.00404464453458786,0.44454073905944824,0.3494794964790344
1726407175985446700,6.67544677734375,0.04904787987470627,0.47085097432136536,0.35337725281715393
1726407175995442700,6.685442626953125,0.112420454621315,0.5507237315177917,0.36389514803886414
1726407176005438700,6.695438720703125,0.1597442328929901,0.6780887246131897,0.39337781071662903
1726407176015434800,6.705434814453125,0.18339763581752777,0.8271053433418274,0.45439374446868896
1726407176025430800,6.7154306640625,0.2049676477909088,0.928354024887085,0.5176592469215393
1726407176035427800,6.725427734375,0.22545455396175385,0.9564250707626343,0.5642387270927429
1726407176045423900,6.735423828125,0.2244856357574463,0.9652401804924011,0.5910528898239136
1726407176055419600,6.745419677734375,0.21171845495700836,0.9435282349586487,0.5945919156074524
1726407176065415700,6.755415771484375,0.185431569814682,0.8894473314285278,0.5735359191894531
1726407176075411200,6.7654111328125,0.14751188457012177,0.8280766010284424,0.5270429849624634
1726407176085407500,6.775407470703125,0.08694745600223541,0.7624967098236084,0.463309109210968
1726407176095403500,6.785403564453125,0.038889382034540176,0.7274181246757507,0.39028629660606384
1726407176105400300,6.795400390625,-0.010096091777086258,0.7173651456832886,0.32193830609321594
1726407176115396600,6.805396728515625,-0.05391547828912735,0.7024349570274353,0.27659985423088074
1726407176125392400,6.815392333984375,-0.06735407561063766,0.6978664398193359,0.26791104674339294
1726407176135388400,6.825388427734375,-0.06505870074033737,0.7086410522460938,0.30631622672080994
1726407176145384200,6.83538427734375,-0.0388973094522953,0.7062252163887024,0.38090798258781433
1726407176155380500,6.84538037109375,-0.020026948302984238,0.7129931449890137,0.46271443367004395
1726407176165376500,6.85537646484375,-0.01729944720864296,0.6977434158325195,0.526377260684967
1726407176175373300,6.865373291015625,-0.020231854170560837,0.7031805515289307,0.5729365348815918
1726407176185369600,6.87536962890625,-0.03420214354991913,0.7287098169326782,0.5973095297813416
1726407176195365400,6.885365478515625,-0.04424412548542023,0.707132875919342,0.5902127027511597
1726407176205361400,6.895361328125,-0.06739148497581482,0.695433497428894,0.5581412315368652
1726407176215357200,6.905357177734375,-0.07639669626951218,0.6397672891616821,0.5057422518730164
1726407176225353500,6.915353515625,-0.07087092101573944,0.5431105494499207,0.4390564560890198
1726407176235349500,6.925349609375,-0.04792938753962517,0.40943610668182373,0.3713676929473877
1726407176245346300,6.93534619140625,-0.00416592787951231,0.2817055881023407,0.31307294964790344
1726407176255342600,6.945342529296875,0.019670164212584496,0.21085883677005768,0.2633141875267029
1726407176265338400,6.95533837890625,0.03515445441007614,0.18539513647556305,0.23149578273296356
1726407176275334400,6.96533447265625,0.035108648240566254,0.17793962359428406,0.21565955877304077
1726407176285330200,6.975330078125,-0.0014634544495493174,0.18170201778411865,0.2120184451341629
1726407176295326500,6.985326416015625,-0.033421389758586884,0.18888136744499207,0.20988473296165466
1726407176305322500,6.995322509765625,-0.08055124431848526,0.21020770072937012,0.20533184707164764
1726407176315319300,7.0053193359375,-0.1395202875137329,0.20711177587509155,0.19170153141021729
1726407176325315600,7.015315673828125,-0.19168716669082642,0.16462336480617523,0.16907037794589996
1726407176335311400,7.025311279296875,-0.21552671492099762,0.101828433573246,0.15366186201572418
1726407176345307400,7.035307373046875,-0.20269691944122314,0.007467009127140045,0.14922234416007996
1726407176355303200,7.04530322265625,-0.1592511683702469,-0.1090468242764473,0.1721995770931244
1726407176365299500,7.055299560546875,-0.12655015289783478,-0.23782289028167725,0.2146150767803192
1726407176375295500,7.06529541015625,-0.11799874156713486,-0.3575517237186432,0.2583998441696167
1726407176385292300,7.075292236328125,-0.11999210715293884,-0.45327773690223694,0.2901169955730438
1726407176395288600,7.08528857421875,-0.12879811227321625,-0.5268614292144775,0.2998063862323761
1726407176405284400,7.095284423828125,-0.13744884729385376,-0.574652910232544,0.29289036989212036
1726407176415280400,7.1052802734375,-0.1576656997203827,-0.622398853302002,0.2605428099632263
1726407176425276200,7.115276123046875,-0.17659781873226166,-0.6818915009498596,0.21754738688468933
1726407176435272400,7.1252724609375,-0.20545503497123718,-0.7403700351715088,0.16683706641197205
1726407176445268500,7.1352685546875,-0.23564377427101135,-0.7954177856445312,0.1107206717133522
1726407176455265300,7.145265380859375,-0.2574249505996704,-0.8033739328384399,0.0484253354370594
1726407176465261600,7.155261474609375,-0.2745284140110016,-0.7507741451263428,-0.008813012391328812
1726407176475257300,7.16525732421875,-0.28482550382614136,-0.697256863117218,-0.05237247422337532
1726407176485253400,7.17525341796875,-0.286313533782959,-0.6695950627326965,-0.07558703422546387
1726407176495249200,7.185249267578125,-0.2986897826194763,-0.7049320340156555,-0.08332138508558273
1726407176505245400,7.195245361328125,-0.3200828433036804,-0.7787852883338928,-0.09337159991264343
1726407176515241500,7.205241455078125,-0.32890933752059937,-0.81456458568573,-0.09679829329252243
1726407176525238300,7.21523828125,-0.35073137283325195,-0.8281368017196655,-0.10601796954870224
1726407176535234600,7.225234619140625,-0.37872251868247986,-0.8295248746871948,-0.12943196296691895
1726407176545230300,7.235230224609375,-0.37843137979507446,-0.8199190497398376,-0.14765876531600952
1726407176555226400,7.245226318359375,-0.36690443754196167,-0.8084040880203247,-0.1668524295091629
1726407176565222400,7.255222412109375,-0.3436340391635895,-0.8195834755897522,-0.1829681396484375
1726407176575218400,7.265218505859375,-0.31848981976509094,-0.8121883869171143,-0.19947335124015808
1726407176585214500,7.27521435546875,-0.30673134326934814,-0.7716751098632812,-0.2142367959022522
1726407176595211300,7.285211181640625,-0.3092330992221832,-0.717370867729187,-0.23461849987506866
1726407176605207600,7.29520751953125,-0.2989877164363861,-0.6556848287582397,-0.23463192582130432
1726407176615203300,7.305203369140625,-0.2971820831298828,-0.652296781539917,-0.2434677630662918
1726407176625199400,7.315199462890625,-0.2811868488788605,-0.6614242792129517,-0.24256718158721924
1726407176635195400,7.3251953125,-0.26154735684394836,-0.6758333444595337,-0.23566266894340515
1726407176645191400,7.33519140625,-0.2368210405111313,-0.6877198815345764,-0.22520802915096283
1726407176655187500,7.3451875,-0.22537663578987122,-0.6934462189674377,-0.21437162160873413
1726407176665184500,7.3551845703125,-0.22243909537792206,-0.6928583979606628,-0.20751997828483582
1726407176675180500,7.3651806640625,-0.2152102142572403,-0.6928687691688538,-0.1999930888414383
1726407176685176300,7.37517626953125,-0.19157958030700684,-0.7021226286888123,-0.1886397749185562
1726407176695172400,7.38517236328125,-0.17020611464977264,-0.7238265872001648,-0.17938342690467834
1726407176705168400,7.39516845703125,-0.1465369313955307,-0.7327723503112793,-0.1636914312839508
1726407176715164400,7.405164306640625,-0.1250002086162567,-0.7101013660430908,-0.14826028048992157
1726407176725160400,7.415160400390625,-0.11235296726226807,-0.6413193941116333,-0.14030762016773224
1726407176735157500,7.425157470703125,-0.11299878358840942,-0.5647079944610596,-0.14430022239685059
1726407176745153500,7.435153564453125,-0.11277826875448227,-0.5161470174789429,-0.17301417887210846
1726407176755149300,7.4451494140625,-0.10541222989559174,-0.4734427034854889,-0.2121485322713852
1726407176765145300,7.455145263671875,-0.09504100680351257,-0.43579816818237305,-0.2587340176105499
1726407176775141400,7.465141357421875,-0.08720412105321884,-0.3981855511665344,-0.3193497061729431
1726407176785137400,7.475137451171875,-0.06702660024166107,-0.36790430545806885,-0.393129825592041
1726407176795133400,7.485133544921875,-0.05118132010102272,-0.33225682377815247,-0.46480241417884827
1726407176805130500,7.495130615234375,-0.04493666812777519,-0.3009904623031616,-0.5286558270454407
1726407176815126500,7.50512646484375,-0.0402311272919178,-0.29174554347991943,-0.5561401844024658
1726407176825122300,7.515122314453125,-0.029582956805825233,-0.28011810779571533,-0.5475396513938904
1726407176835118300,7.525118408203125,-0.025007113814353943,-0.24533136188983917,-0.5199934840202332
1726407176845114400,7.5351142578125,-0.03090537339448929,-0.19716471433639526,-0.4838511347770691
1726407176855110400,7.5451103515625,-0.05444399267435074,-0.15384814143180847,-0.4418488144874573
1726407176865106400,7.5551064453125,-0.08354809880256653,-0.12859806418418884,-0.41340380907058716
1726407176875103500,7.565103515625,-0.11131075769662857,-0.12457801401615143,-0.39555877447128296
1726407176885099500,7.575099609375,-0.12838894128799438,-0.15248063206672668,-0.39087003469467163
1726407176895095300,7.58509521484375,-0.13795022666454315,-0.2002319097518921,-0.3970664143562317
1726407176905091300,7.59509130859375,-0.15261027216911316,-0.24640242755413055,-0.40054258704185486
1726407176915087400,7.60508740234375,-0.16820840537548065,-0.30997076630592346,-0.39194509387016296
1726407176925083400,7.61508349609375,-0.16911061108112335,-0.3939281702041626,-0.3697901666164398
1726407176935079400,7.625079345703125,-0.17065684497356415,-0.45408180356025696,-0.3356180787086487
1726407176945076500,7.635076416015625,-0.1739635318517685,-0.47895219922065735,-0.30308496952056885
1726407176955072500,7.645072509765625,-0.17868690192699432,-0.503442645072937,-0.27075764536857605
1726407176965068300,7.655068359375,-0.17794595658779144,-0.5177202820777893,-0.23288920521736145
1726407176975064300,7.665064208984375,-0.17685672640800476,-0.5333693027496338,-0.19037531316280365
1726407176985060400,7.675060302734375,-0.1754443198442459,-0.5415871143341064,-0.1551337093114853
1726407176995056400,7.685056396484375,-0.18539974093437195,-0.554917573928833,-0.1340225636959076
1726407177005052400,7.695052490234375,-0.20315857231616974,-0.5571115612983704,-0.12590694427490234
1726407177015049500,7.705049560546875,-0.22191229462623596,-0.5489465594291687,-0.13050462305545807
1726407177025045500,7.71504541015625,-0.22692425549030304,-0.5355849862098694,-0.1329893320798874
1726407177035041300,7.725041259765625,-0.22354789078235626,-0.5365511775016785,-0.13319598138332367
1726407177045037300,7.735037353515625,-0.21185822784900665,-0.543186366558075,-0.14057449996471405
1726407177055033300,7.745033447265625,-0.19711151719093323,-0.5525274276733398,-0.14491625130176544
1726407177065029400,7.755029296875,-0.19381609559059143,-0.5553827285766602,-0.14614082872867584
1726407177075025700,7.765025634765625,-0.19297294318675995,-0.5412977933883667,-0.14069226384162903
1726407177085022500,7.7750224609375,-0.18896014988422394,-0.497391939163208,-0.1290549486875534
1726407177095018500,7.7850185546875,-0.18035998940467834,-0.41856104135513306,-0.10993344336748123
1726407177105014500,7.7950146484375,-0.16879035532474518,-0.3346674144268036,-0.0878375992178917
1726407177115010600,7.805010498046875,-0.16639643907546997,-0.24809685349464417,-0.06402654200792313
1726407177125006300,7.81500634765625,-0.16225935518741608,-0.182626873254776,-0.03761250153183937
1726407177135002400,7.82500244140625,-0.15634606778621674,-0.1273476481437683,-0.007375501096248627
1726407177144998700,7.83499853515625,-0.15331993997097015,-0.07351794093847275,0.015554879792034626
1726407177154995500,7.844995361328125,-0.1578664779663086,0.0017110323533415794,0.030264848843216896
1726407177164991500,7.854991455078125,-0.17412392795085907,0.07669499516487122,0.023796359077095985
1726407177174987500,7.864987548828125,-0.18247106671333313,0.14786425232887268,0.00003430480137467384
1726407177184983600,7.874983642578125,-0.18300431966781616,0.19865605235099792,-0.02108888514339924
1726407177194979300,7.884979248046875,-0.1784239560365677,0.2213246077299118,-0.02902989834547043
1726407177204975400,7.894975341796875,-0.18089181184768677,0.2214074432849884,-0.028211714699864388
1726407177214971600,7.9049716796875,-0.1850908249616623,0.19552922248840332,-0.025475315749645233
1726407177224968400,7.914968505859375,-0.19364960491657257,0.15562786161899567,-0.024446958675980568
1726407177234964500,7.924964599609375,-0.19172760844230652,0.09597572684288025,-0.02343868464231491
1726407177244960500,7.93496044921875,-0.18504780530929565,0.020072074607014656,-0.021915186196565628
1726407177254956500,7.94495654296875,-0.18097157776355743,-0.04726622253656387,-0.017848538234829903
1726407177264952300,7.954952392578125,-0.18753331899642944,-0.09372509270906448,-0.021847572177648544
1726407177274948400,7.9649482421875,-0.19620324671268463,-0.11194644123315811,-0.03869366645812988
1726407177284944600,7.974944580078125,-0.20808067917823792,-0.09983949363231659,-0.060810405761003494
1726407177294941400,7.98494140625,-0.21790854632854462,-0.06392943859100342,-0.08730459213256836
1726407177304937500,7.9949375,-0.23455138504505157,-0.0056728795170784,-0.1180114671587944
1726407177314933500,8.00493359375,-0.23861563205718994,0.03735528141260147,-0.1419072151184082
1726407177324929500,8.014929443359375,-0.23737744987010956,0.05685334652662277,-0.1795690357685089
1726407177334925300,8.02492529296875,-0.2300707995891571,0.04641641676425934,-0.20485202968120575
1726407177344921300,8.03492138671875,-0.22382189333438873,0.017664670944213867,-0.21723665297031403
1726407177354917600,8.044917724609375,-0.22130173444747925,-0.014723895117640495,-0.2238311767578125
1726407177364914400,8.05491455078125,-0.2147611677646637,-0.04246098920702934,-0.22171762585639954
1726407177374910500,8.064910400390625,-0.2096540331840515,-0.06776181608438492,-0.21010251343250275
1726407177384906500,8.074906494140626,-0.20085321366786957,-0.08108194917440414,-0.19784557819366455
1726407177394902500,8.084902587890625,-0.19537828862667084,-0.07460780441761017,-0.18471325933933258
1726407177404898300,8.094898193359375,-0.17797523736953735,-0.07384292036294937,-0.17376944422721863
1726407177414894600,8.10489453125,-0.14541304111480713,-0.07017681002616882,-0.15311503410339355
1726407177424890600,8.114890625,-0.11500313878059387,-0.0362737774848938,-0.1282186061143875
1726407177434887400,8.124887451171874,-0.09572424739599228,0.026784280315041542,-0.11207879334688187
1726407177444883700,8.1348837890625,-0.08845822513103485,0.09324183315038681,-0.09352052211761475
1726407177454879500,8.14487939453125,-0.07444414496421814,0.15464873611927032,-0.059221405535936356
1726407177464875500,8.15487548828125,-0.0476885586977005,0.20879194140434265,-0.011846964247524738
1726407177474871300,8.164871337890625,-0.004625245928764343,0.23890909552574158,0.0411057323217392
1726407177484867600,8.17486767578125,0.03820393234491348,0.24117378890514374,0.08729755878448486
1726407177494863600,8.184863525390625,0.06117955595254898,0.23485730588436127,0.10930858552455902
1726407177504860400,8.1948603515625,0.06768473237752914,0.22829966247081757,0.10779482126235962
1726407177514856700,8.204856689453125,0.05563872680068016,0.21522939205169678,0.07511437684297562
1726407177524852500,8.2148525390625,0.042412903159856796,0.18589448928833008,0.03336166962981224
1726407177534848500,8.2248486328125,0.02005726285278797,0.13144801557064056,-0.022220902144908905
1726407177544844300,8.23484423828125,-0.008651130832731724,0.050586551427841187,-0.09676960855722427
1726407177554840600,8.244840576171875,-0.029987044632434845,-0.06780587136745453,-0.19131794571876526
1726407177564836600,8.254836669921875,-0.04466712102293968,-0.21133920550346375,-0.28968220949172974
1726407177574833400,8.26483349609375,-0.05933874472975731,-0.3510771095752716,-0.3777705132961273
1726407177584829700,8.27482958984375,-0.08655962347984314,-0.45792531967163086,-0.4540364444255829
1726407177594825500,8.284825439453124,-0.12335731834173203,-0.5194414258003235,-0.5173209309577942
1726407177604821500,8.294821533203125,-0.15635894238948822,-0.5608384013175964,-0.5667890906333923
1726407177614817300,8.3048173828125,-0.1761757880449295,-0.5952104926109314,-0.5896465182304382
1726407177624813600,8.3148134765625,-0.1814914047718048,-0.6127063035964966,-0.5851187109947205
1726407177634809600,8.3248095703125,-0.17500314116477966,-0.6043879389762878,-0.5529879331588745
1726407177644806400,8.334806396484375,-0.15855544805526733,-0.5734981894493103,-0.5042102336883545
1726407177654802700,8.344802734375,-0.13500989973545074,-0.5329113602638245,-0.45225679874420166
1726407177664798500,8.354798583984374,-0.11202602833509445,-0.4845852851867676,-0.4017094671726227
1726407177674794500,8.36479443359375,-0.07988940179347992,-0.4399312734603882,-0.3488108217716217
1726407177684790300,8.374790283203126,-0.05723031610250473,-0.3929535448551178,-0.30735868215560913
1726407177694786600,8.38478662109375,-0.040710460394620895,-0.3357144892215729,-0.2816344201564789
1726407177704782600,8.394782470703126,-0.02091432921588421,-0.2952559292316437,-0.2676803767681122
1726407177714779400,8.404779296875,-0.006511687766760588,-0.2817166745662689,-0.26022565364837646
1726407177724775700,8.414775634765626,0.006143881008028984,-0.28526732325553894,-0.2645507752895355
1726407177734771500,8.424771484375,0.022327378392219543,-0.29630666971206665,-0.2740550637245178
1726407177744767500,8.434767578125,0.029162555932998657,-0.30336877703666687,-0.2919398844242096
1726407177754763300,8.44476318359375,0.02924910932779312,-0.30045127868652344,-0.3106571137905121
1726407177764759600,8.454759521484375,0.02282538078725338,-0.2922041118144989,-0.3171045184135437
1726407177774755600,8.464755615234376,0.024608101695775986,-0.28801441192626953,-0.3055623769760132
1726407177784752400,8.47475244140625,0.04038149490952492,-0.3126971125602722,-0.2736276686191559
1726407177794748700,8.484748779296876,0.06597340852022171,-0.3771402835845947,-0.2271834760904312
1726407177804744400,8.494744384765625,0.07727780193090439,-0.4352847635746002,-0.1736048012971878
1726407177814740500,8.504740478515625,0.07210567593574524,-0.44717922806739807,-0.1298956722021103
1726407177824736300,8.514736328125,0.06350766122341156,-0.40818628668785095,-0.09983072429895401
1726407177834732500,8.524732666015625,0.06584963947534561,-0.3501426875591278,-0.08077874034643173
1726407177844728600,8.534728515625,0.07916901260614395,-0.30219221115112305,-0.09690092504024506
1726407177854725400,8.544725341796875,0.09772485494613647,-0.2885861396789551,-0.10176998376846313
1726407177864721700,8.5547216796875,0.10786199569702148,-0.28864556550979614,-0.09772296249866486
1726407177874717400,8.564717529296875,0.10781566053628922,-0.28793638944625854,-0.093658447265625
1726407177884713500,8.57471337890625,0.09745767712593079,-0.29849883913993835,-0.08306806534528732
1726407177894709200,8.584709228515624,0.09568454325199127,-0.32653871178627014,-0.06267677247524261
1726407177904705500,8.59470556640625,0.10616221278905869,-0.342716783285141,-0.03518335521221161
1726407177914701600,8.60470166015625,0.1200423389673233,-0.34530672430992126,0.0007685224409215152
1726407177924698400,8.614698486328125,0.1329374611377716,-0.3124287724494934,0.046384260058403015
1726407177934694700,8.624694580078126,0.14372220635414124,-0.2534714341163635,0.10322996228933334
1726407177944690400,8.6346904296875,0.1561989039182663,-0.18283632397651672,0.16731242835521698
1726407177954686500,8.6446865234375,0.16597270965576172,-0.11860540509223938,0.21216486394405365
1726407177964682500,8.6546826171875,0.16783958673477173,-0.06434349715709686,0.2171311229467392
1726407177974678500,8.664678466796875,0.17180609703063965,-0.03477868437767029,0.18702781200408936
1726407177984674600,8.674674560546874,0.1624503880739212,-0.02235705591738224,0.133539080619812
1726407177994671600,8.684671630859375,0.1571538895368576,-0.029530279338359833,0.07722253352403641
1726407178004667600,8.694667724609374,0.16148869693279266,-0.054251838475465775,0.04069065302610397
1726407178014663400,8.704663330078125,0.1676776260137558,-0.08585210889577866,0.03244098275899887
1726407178024659500,8.714659423828126,0.16707096993923187,-0.12492266297340393,0.044607583433389664
1726407178034655500,8.724655517578125,0.15146219730377197,-0.1660115122795105,0.047272343188524246
1726407178044651500,8.734651611328125,0.12843184173107147,-0.21012577414512634,0.007931593805551529
1726407178054647600,8.7446474609375,0.10958119481801987,-0.21458417177200317,-0.04651779681444168
1726407178064644600,8.75464453125,0.08553078025579453,-0.18309840559959412,-0.09782931208610535
1726407178074640600,8.764640625,0.05151342228055,-0.09422127157449722,-0.13712984323501587
1726407178084636700,8.77463671875,0.04517475888133049,0.0685809925198555,-0.1330779492855072
1726407178094632700,8.7846328125,0.09327490627765656,0.23373505473136902,-0.08131702244281769
1726407178104628500,8.79462841796875,0.150698721408844,0.38821157813072205,0.01903633587062359
1726407178114624500,8.80462451171875,0.1852167546749115,0.5087973475456238,0.16961970925331116
1726407178124620800,8.814620849609375,0.18168456852436066,0.5487924218177795,0.311689555644989
1726407178134617600,8.82461767578125,0.15242920815944672,0.5382891893386841,0.422384649515152
1726407178144613600,8.834613525390624,0.12152914702892303,0.5332150459289551,0.47580090165138245
1726407178154609700,8.844609619140625,0.10660932213068008,0.5308077931404114,0.4635183811187744
1726407178164605700,8.854605712890624,0.09942056983709335,0.5135044455528259,0.4079706072807312
1726407178174601500,8.8646015625,0.09925199300050735,0.4852679967880249,0.3510511517524719
1726407178184597500,8.874597412109376,0.10443778336048126,0.4577440023422241,0.3111448287963867
1726407178194593800,8.88459375,0.09250468760728836,0.44595417380332947,0.27824386954307556
1726407178204590600,8.894590576171876,0.0690302699804306,0.4565868079662323,0.23984397947788239
1726407178214586600,8.904586669921875,0.04465968534350395,0.48500460386276245,0.1991966813802719
1726407178224582700,8.914582763671875,0.024539416655898094,0.523829460144043,0.16680589318275452
1726407178234578700,8.92457861328125,0.013269185088574886,0.5458990931510925,0.15501448512077332
1726407178244574500,8.934574462890625,0.001991974888369441,0.556194007396698,0.15818294882774353
1726407178254570500,8.944570556640626,-0.014908445999026299,0.5573407411575317,0.1631753146648407
1726407178264566800,8.95456689453125,-0.038307175040245056,0.5464833378791809,0.16563408076763153
1726407178274563600,8.9645634765625,-0.042681947350502014,0.5088267922401428,0.1618044525384903
1726407178284559600,8.9745595703125,-0.032889556139707565,0.4568542242050171,0.16229882836341858
1726407178294555600,8.9845556640625,-0.029557673260569572,0.4401114583015442,0.16721263527870178
1726407178304551700,8.9945517578125,-0.01950797252357006,0.4431643486022949,0.175601065158844
1726407178314547500,9.00454736328125,-0.004282682668417692,0.4466725289821625,0.18130849301815033
1726407178324543500,9.01454345703125,0.015211869031190872,0.45863640308380127,0.1939743161201477
1726407178334539800,9.024539794921875,0.03281190246343613,0.4855721592903137,0.21407853066921234
1726407178344536600,9.03453662109375,0.05263114720582962,0.5222468376159668,0.2397487312555313
1726407178354532600,9.04453271484375,0.06691793352365494,0.5470523238182068,0.2582545280456543
1726407178364528600,9.054528564453125,0.06571216881275177,0.5574366450309753,0.26565948128700256
1726407178374524700,9.064524658203124,0.06554385274648666,0.5373548269271851,0.2561812698841095
1726407178384520400,9.0745205078125,0.07378045469522476,0.5114122629165649,0.247826486825943
1726407178394516700,9.084516845703124,0.07303130626678467,0.5069029927253723,0.23498739302158356
1726407178404512800,9.0945126953125,0.0696726068854332,0.5080340504646301,0.21164940297603607
1726407178414509600,9.104509521484376,0.05592963472008705,0.5114375948905945,0.18385478854179382
1726407178424505600,9.114505615234375,0.04335154592990875,0.5337920188903809,0.1677146553993225
1726407178434501600,9.124501708984376,0.040590379387140274,0.573752224445343,0.16162027418613434
1726407178444497700,9.13449755859375,0.05498160049319267,0.6110476851463318,0.15427309274673462
1726407178454493400,9.144493408203125,0.07174965739250183,0.6362135410308838,0.14051572978496552
1726407178464489700,9.15448974609375,0.08573855459690094,0.640866219997406,0.12484841048717499
1726407178474485800,9.16448583984375,0.07590430229902267,0.6414995193481445,0.10852669179439545
1726407178484482600,9.174482666015624,0.06603454053401947,0.6245590448379517,0.07609354704618454
1726407178494478600,9.184478515625,0.06958720088005066,0.5756312012672424,0.040308911353349686
1726407178504474600,9.194474609375,0.07111116498708725,0.49936360120773315,0.0004678217228502035
1726407178514470700,9.204470703125,0.09464152902364731,0.3952992260456085,-0.03436366468667984
1726407178524466400,9.214466552734375,0.11937369406223297,0.29550039768218994,-0.058699220418930054
1726407178534462700,9.224462646484374,0.13026124238967896,0.24818214774131775,-0.07303288578987122
1726407178544458800,9.234458740234375,0.13914676010608673,0.2655114233493805,-0.08165465295314789
1726407178554454500,9.24445458984375,0.1362668126821518,0.3455420732498169,-0.08063306659460068
1726407178564451600,9.25445166015625,0.14030370116233826,0.44641152024269104,-0.07358112186193466
1726407178574447600,9.264447509765626,0.15911254286766052,0.5390818119049072,-0.05212589353322983
1726407178584443600,9.274443603515625,0.17035287618637085,0.5893973708152771,-0.01974574290215969
1726407178594439400,9.284439453125,0.1864229291677475,0.5915367007255554,0.009057142771780491
1726407178604435700,9.294435791015625,0.19439038634300232,0.5831663012504578,0.03076787479221821
1726407178614431700,9.304431640625,0.19738776981830597,0.5711885094642639,0.04498489201068878
1726407178624428500,9.314428466796874,0.2060314118862152,0.5547310709953308,0.05129026994109154
1726407178634424600,9.324424560546875,0.21681642532348633,0.5567358732223511,0.05225300043821335
1726407178644420600,9.334420654296874,0.2170083373785019,0.5546509623527527,0.05012056231498718
1726407178654416600,9.344416748046875,0.2114228904247284,0.5637919902801514,0.051991432905197144
1726407178664412400,9.354412353515626,0.2012280374765396,0.5709550380706787,0.06578236818313599
1726407178674408700,9.36440869140625,0.18813832104206085,0.5625858306884766,0.08033867180347443
1726407178684404700,9.37440478515625,0.18829433619976044,0.5294631719589233,0.10067813843488693
1726407178694400500,9.384400390625,0.18300102651119232,0.48530611395835876,0.12788233160972595
1726407178704397600,9.3943974609375,0.18030008673667908,0.45500460267066956,0.13222961127758026
1726407178714393600,9.4043935546875,0.1673547327518463,0.4313109815120697,0.12068907171487808
1726407178724389600,9.4143896484375,0.1486864984035492,0.41551071405410767,0.10070551186800003
1726407178734385400,9.424385498046876,0.12064581364393234,0.4317898154258728,0.07423634827136993
1726407178744381700,9.434381591796875,0.0920247882604599,0.44662556052207947,0.056826259940862656
1726407178754377700,9.444377685546876,0.07771429419517517,0.46716544032096863,0.04241589456796646
1726407178764373500,9.45437353515625,0.060520973056554794,0.47831201553344727,0.04374924302101135
1726407178774370600,9.46437060546875,0.04159814864397049,0.4740152955055237,0.05638488382101059
1726407178784366600,9.47436669921875,0.02583291381597519,0.4773828685283661,0.07117364555597305
1726407178794362600,9.484362548828125,0.017125708982348442,0.4792194068431854,0.09244617819786072
1726407178804358400,9.4943583984375,0.006947760004550219,0.46262601017951965,0.103603795170784
1726407178814354700,9.504354736328125,-0.01312421914190054,0.4402008652687073,0.12321557849645615
1726407178824350700,9.514350830078126,-0.016728520393371582,0.3928009867668152,0.14795629680156708
1726407178834346500,9.524346435546875,-0.010234402492642403,0.3469288647174835,0.17697250843048096
1726407178844343600,9.534343505859376,-0.0006240686634555459,0.2892574667930603,0.20588821172714233
1726407178854339600,9.544339599609375,-0.007415927946567535,0.28592294454574585,0.2295573204755783
1726407178864335600,9.554335693359375,-0.016594916582107544,0.3166356384754181,0.25222107768058777
1726407178874331400,9.564331298828124,-0.01939363218843937,0.330580472946167,0.27482759952545166
1726407178884327700,9.57432763671875,-0.025296960026025772,0.31881576776504517,0.2921541929244995
1726407178894323700,9.58432373046875,-0.02847970463335514,0.29318922758102417,0.29342079162597656
1726407178904319500,9.594319580078125,-0.03128248453140259,0.267156183719635,0.2839517891407013
1726407178914316500,9.604316650390626,-0.024458665400743484,0.2562350928783417,0.2658766508102417
1726407178924312600,9.6143125,-0.02420857362449169,0.2777453064918518,0.26003867387771606
1726407178934308600,9.62430859375,-0.017443345859646797,0.286883145570755,0.26749178767204285
1726407178944304600,9.6343046875,-0.001246037776581943,0.31327468156814575,0.2898035943508148
1726407178954300700,9.64430078125,0.016549205407500267,0.3316552937030792,0.302825391292572
1726407178964296700,9.654296630859376,0.026389528065919876,0.32457900047302246,0.29367539286613464
1726407178974292500,9.66429248046875,0.004150002263486385,0.3081006705760956,0.26708027720451355
1726407178984289500,9.67428955078125,-0.02543267421424389,0.2886655330657959,0.23298253118991852
1726407178994285600,9.68428564453125,-0.05132312700152397,0.24383439123630524,0.19928555190563202
1726407179004281600,9.694281494140625,-0.05405132472515106,0.18139567971229553,0.17167986929416656
1726407179014277600,9.704277587890624,-0.044202156364917755,0.12124259769916534,0.15885861217975616
1726407179024273700,9.714273681640625,-0.041839197278022766,0.08941342681646347,0.17839357256889343
1726407179034269700,9.724269775390624,-0.04873066022992134,0.09304917603731155,0.216965451836586
1726407179044265500,9.734265380859375,-0.055621735751628876,0.10763580352067947,0.2527642548084259
1726407179054262500,9.744262451171876,-0.04957902431488037,0.1222059577703476,0.27478593587875366
1726407179064258600,9.754258544921875,-0.040123894810676575,0.11213619261980057,0.28401699662208557
1726407179074255000,9.764255126953126,-0.01740952953696251,0.09542858600616455,0.277487188577652
1726407179084251000,9.7742509765625,0.014240416698157787,0.09715691208839417,0.2631705701351166
1726407179094247000,9.784246826171875,0.04607424512505531,0.11246928572654724,0.24424614012241364
1726407179104242700,9.79424267578125,0.06491950154304504,0.11410272866487503,0.20213638246059418
1726407179114239000,9.804239013671875,0.06966765224933624,0.09036144614219666,0.14755888283252716
1726407179124235800,9.81423583984375,0.06475287675857544,0.0705362856388092,0.08126303553581238
1726407179134231800,9.824231689453125,0.049581386148929596,0.07566314190626144,0.019461721181869507
1726407179144228000,9.83422802734375,0.020723607391119003,0.06646597385406494,-0.03257611766457558
1726407179154223900,9.844223876953125,-0.004765241872519255,-0.003527758177369833,-0.09055126458406448
1726407179164220000,9.854219970703125,-0.02930670976638794,-0.08555077761411667,-0.13840925693511963
1726407179174215700,9.864215576171874,-0.04798132926225662,-0.13824141025543213,-0.1518414467573166
1726407179184212000,9.8742119140625,-0.04330740123987198,-0.18511773645877838,-0.14080946147441864
1726407179194208800,9.884208740234374,-0.03037615492939949,-0.2209407091140747,-0.12394046783447266
1726407179204204800,9.894204833984375,-0.01655145362019539,-0.21965967118740082,-0.11975283920764923
1726407179214201000,9.904201171875,-0.004106234759092331,-0.1876617968082428,-0.12660595774650574
1726407179224196900,9.91419677734375,0.004128076136112213,-0.15022669732570648,-0.14693163335323334
1726407179234193000,9.92419287109375,0.011567882262170315,-0.12554344534873962,-0.16093772649765015
1726407179244188700,9.934188720703125,0.011173060163855553,-0.12918303906917572,-0.1748942732810974
1726407179254185000,9.94418505859375,0.003320197341963649,-0.1745460033416748,-0.1930767446756363
1726407179264181800,9.954181640625,-0.009510946460068226,-0.2591894567012787,-0.20768943428993225
1726407179274177800,9.964177734375,-0.017528392374515533,-0.3719143867492676,-0.20042327046394348
1726407179284174000,9.974174072265624,-0.02650042250752449,-0.4797060191631317,-0.1645928919315338
1726407179294169900,9.984169921875,-0.034414272755384445,-0.5515511631965637,-0.10269782692193985
1726407179304166000,9.994165771484376,-0.0353984534740448,-0.6039857268333435,-0.02912691794335842
1726407179314161700,10.00416162109375,-0.02950487658381462,-0.6059485077857971,0.05298153683543205
1726407179324158000,10.014157958984375,-0.020031264051795006,-0.562880277633667,0.14073306322097778
1726407179334154800,10.02415478515625,-0.012665493413805962,-0.4795912802219391,0.23200571537017822
1726407179344150800,10.03415087890625,-0.014580555260181427,-0.39995211362838745,0.309626966714859
1726407179354147000,10.04414697265625,-0.020770806819200516,-0.34770143032073975,0.34419986605644226
1726407179364142800,10.054142822265625,-0.03141583874821663,-0.33779120445251465,0.34267303347587585
1726407179374139000,10.064138916015626,-0.03521456941962242,-0.3653695583343506,0.3016568720340729
1726407179384134700,10.074134765625,-0.04841213300824165,-0.40111178159713745,0.23003116250038147
1726407179394131000,10.084130859375,-0.06096015125513077,-0.45769914984703064,0.13755182921886444
1726407179404127700,10.094127685546875,-0.09103478491306305,-0.49763911962509155,0.024190833792090416
1726407179414123800,10.104123779296875,-0.11291292309761047,-0.5149845480918884,-0.08008071035146713
1726407179424120000,10.1141201171875,-0.1375933140516281,-0.5210744738578796,-0.16654542088508606
1726407179434115800,10.12411572265625,-0.14756551384925842,-0.5145768523216248,-0.23051615059375763
1726407179444112000,10.13411181640625,-0.16886672377586365,-0.5658659338951111,-0.2858423888683319
1726407179454108000,10.14410791015625,-0.20556668937206268,-0.6051262617111206,-0.33793649077415466
1726407179464104000,10.15410400390625,-0.2387998104095459,-0.5886224508285522,-0.3865531384944916
1726407179474100700,10.164100830078125,-0.2611357569694519,-0.5472313165664673,-0.4281136393547058
1726407179484096800,10.1740966796875,-0.27896201610565186,-0.5173854231834412,-0.4520016610622406
1726407179494093000,10.184093017578125,-0.2841227054595947,-0.5238925814628601,-0.44559863209724426
1726407179504088800,10.1940888671875,-0.27209267020225525,-0.5736241936683655,-0.4135248363018036
1726407179514084900,10.2040849609375,-0.24875031411647797,-0.6292858123779297,-0.36369338631629944
1726407179524081000,10.214080810546875,-0.22188732028007507,-0.6805519461631775,-0.3113136887550354
1726407179534077000,10.224076904296876,-0.17954972386360168,-0.7085044980049133,-0.2618313431739807
1726407179544073700,10.23407373046875,-0.13888898491859436,-0.6227819919586182,-0.21485772728919983
1726407179554070000,10.244070068359376,-0.11788143962621689,-0.43364274501800537,-0.1715768277645111
1726407179564066000,10.254066162109375,-0.09954327344894409,-0.23804746568202972,-0.12754204869270325
1726407179574061800,10.264061767578125,-0.08171740174293518,-0.1066332533955574,-0.08706094324588776
1726407179584057900,10.274057861328124,-0.06749061495065689,-0.08360806852579117,-0.05480831116437912
1726407179594054000,10.284053955078125,-0.05794983357191086,-0.13775813579559326,-0.04781192168593407
1726407179604050000,10.2940498046875,-0.056829940527677536,-0.21680986881256104,-0.07566385716199875
1726407179614046700,10.304046630859375,-0.0641709491610527,-0.26266229152679443,-0.1269291639328003
1726407179624043000,10.31404296875,-0.07978761941194534,-0.2590048015117645,-0.19015896320343018
1726407179634039000,10.3240390625,-0.10033763200044632,-0.24122634530067444,-0.2530561685562134
1726407179644034800,10.334034912109376,-0.1152774840593338,-0.24104054272174835,-0.30886155366897583
1726407179654030800,10.34403076171875,-0.12390799075365067,-0.2762105166912079,-0.3465905487537384
1726407179664027000,10.35402685546875,-0.13178689777851105,-0.3249599039554596,-0.36009976267814636
1726407179674023000,10.36402294921875,-0.13890260457992554,-0.3790132999420166,-0.3562461733818054
1726407179684019000,10.37401904296875,-0.13747256994247437,-0.41019168496131897,-0.33107247948646545
1726407179694016000,10.38401611328125,-0.13849708437919617,-0.42354583740234375,-0.2948146164417267
1726407179704012000,10.394011962890625,-0.13668246567249298,-0.41554099321365356,-0.24919778108596802
1726407179714007800,10.4040078125,-0.12928420305252075,-0.39364689588546753,-0.2006094604730606
1726407179724003800,10.41400390625,-0.11812261492013931,-0.37044599652290344,-0.14996415376663208
1726407179733999900,10.423999755859375,-0.10672614723443985,-0.34733399748802185,-0.1079312190413475
1726407179743996000,10.433995849609374,-0.09655088186264038,-0.3348686695098877,-0.0672500878572464
1726407179753992000,10.443991943359375,-0.08603779226541519,-0.3237648904323578,-0.03758033737540245
1726407179763989000,10.453989013671874,-0.08084738999605179,-0.32711061835289,-0.023799074813723564
1726407179773985000,10.463985107421875,-0.07871606200933456,-0.3516492545604706,-0.02624785155057907
1726407179783980800,10.473980712890626,-0.08907968550920486,-0.39516276121139526,-0.04256702959537506
1726407179793976800,10.483976806640625,-0.09258067607879639,-0.460853636264801,-0.07181359827518463
1726407179803972900,10.493972900390625,-0.09744206070899963,-0.5256850123405457,-0.10301084071397781
1726407179813969000,10.503968994140624,-0.110630564391613,-0.582675039768219,-0.14355985820293427
1726407179823965000,10.51396484375,-0.13156135380268097,-0.6343659162521362,-0.19543862342834473
1726407179833962000,10.5239619140625,-0.15597933530807495,-0.6673997640609741,-0.24793192744255066
1726407179843958000,10.5339580078125,-0.18075023591518402,-0.6931047439575195,-0.3056023418903351
1726407179853953800,10.543953857421876,-0.20049385726451874,-0.7026625275611877,-0.3493410348892212
1726407179863949800,10.55394970703125,-0.1965385377407074,-0.7237419486045837,-0.3672265112400055
1726407179873945900,10.56394580078125,-0.1701253056526184,-0.710181713104248,-0.33910486102104187
1726407179883942000,10.57394189453125,-0.14618732035160065,-0.6692773103713989,-0.3190159201622009
1726407179893938000,10.58393798828125,-0.14990535378456116,-0.6128960847854614,-0.30378448963165283
1726407179903935000,10.59393505859375,-0.16509877145290375,-0.5653693675994873,-0.28765869140625
1726407179913931000,10.603930908203125,-0.1819208860397339,-0.5017784237861633,-0.25814446806907654
1726407179923926800,10.6139267578125,-0.17737045884132385,-0.44508516788482666,-0.2299296259880066
1726407179933922800,10.6239228515625,-0.15720659494400024,-0.40953195095062256,-0.1910352259874344
1726407179943918800,10.6339189453125,-0.13579057157039642,-0.39299556612968445,-0.15433146059513092
1726407179953915000,10.643914794921875,-0.12938806414604187,-0.3735417127609253,-0.13839857280254364
1726407179963911000,10.653910888671875,-0.1239737793803215,-0.34750446677207947,-0.13013596832752228
1726407179973908000,10.663907958984375,-0.12193619459867477,-0.31214192509651184,-0.1318497210741043
1726407179983904000,10.673904052734375,-0.11599519103765488,-0.27678826451301575,-0.12916424870491028
1726407179993899800,10.683899658203124,-0.10226979106664658,-0.23319631814956665,-0.11557360738515854
1726407180003896000,10.69389599609375,-0.08641330152750015,-0.19192250072956085,-0.09841571003198624
1726407180013891800,10.703891845703126,-0.07385224103927612,-0.1509830504655838,-0.0755106583237648
1726407180023888000,10.713887939453125,-0.06148917227983475,-0.11127306520938873,-0.05504135414958
1726407180033884000,10.7238837890625,-0.05584699660539627,-0.07737502455711365,-0.03742028400301933
1726407180043881000,10.733880859375,-0.049413636326789856,-0.035248998552560806,-0.029041897505521774
1726407180053877000,10.743876953125,-0.04277810454368591,0.010394919663667679,-0.031055249273777008
1726407180063872800,10.753872802734374,-0.04038490355014801,0.05201757326722145,-0.0356200709939003
1726407180073868800,10.763868896484375,-0.03604794666171074,0.0824764147400856,-0.04454219341278076
1726407180083864800,10.77386474609375,-0.026057502254843712,0.10508991777896881,-0.053988151252269745
1726407180093860900,10.78386083984375,-0.014794462360441685,0.12978407740592957,-0.058434296399354935
1726407180103857000,10.79385693359375,-0.00406900467351079,0.16690312325954437,-0.058975670486688614
1726407180113854000,10.80385400390625,0.001779296901077032,0.2160578817129135,-0.04859493672847748
1726407180123850000,10.81385009765625,0.0000013705866876989603,0.24889013171195984,-0.04361988604068756
1726407180133845800,10.823845703125,0.0006085712811909616,0.25594058632850647,-0.046041231602430344
1726407180143841800,10.833841796875,0.00268531683832407,0.24234440922737122,-0.05125066265463829
1726407180153837800,10.843837890625,0.006482718512415886,0.21863588690757751,-0.060363464057445526
1726407180163833900,10.853833740234375,0.010793651454150677,0.1995476484298706,-0.07259205728769302
1726407180173830000,10.863829833984376,0.01418172474950552,0.17636163532733917,-0.09256070107221603
1726407180183827000,10.873826904296875,0.01427436526864767,0.1499568074941635,-0.11586754024028778
1726407180193823000,10.883822998046876,0.015369190834462643,0.13777603209018707,-0.14513355493545532
1726407180203818800,10.89381884765625,0.01498363632708788,0.13698673248291016,-0.17554700374603271
1726407180213814800,10.903814697265625,0.023093760013580322,0.14760050177574158,-0.19947363436222076
1726407180223810800,10.913810791015624,0.033646393567323685,0.16205690801143646,-0.2131771743297577
1726407180233806800,10.923806884765625,0.048809099942445755,0.16627375781536102,-0.21659667789936066
1726407180243803000,10.933802978515626,0.05385998263955116,0.14826717972755432,-0.21404416859149933
1726407180253800000,10.943800048828125,0.051647428423166275,0.10507017374038696,-0.20919615030288696
1726407180263796000,10.9537958984375,0.044503141194581985,0.04912467300891876,-0.21454492211341858
1726407180273791700,10.963791748046875,0.03080597147345543,-0.02147226594388485,-0.22426758706569672
1726407180283787800,10.973787841796875,0.016201408579945564,-0.1103590801358223,-0.24077561497688293
1726407180293783800,10.98378369140625,0.0061559658497571945,-0.20220351219177246,-0.2507310211658478
1726407180303779800,10.99377978515625,0.004285913426429033,-0.28411686420440674,-0.25777381658554077
1726407180313775900,11.00377587890625,0.012446904554963112,-0.3526037931442261,-0.2564702033996582
1726407180323773000,11.01377294921875,0.016121767461299896,-0.3925836384296417,-0.25423359870910645
1726407180333769000,11.02376904296875,0.01788957417011261,-0.4123738408088684,-0.25211480259895325
1726407180343764700,11.0337646484375,0.008099880069494247,-0.4193984270095825,-0.2527487874031067
1726407180353761000,11.043760986328126,-0.007843133062124252,-0.42015957832336426,-0.2549262046813965
1726407180363756800,11.0537568359375,-0.006768564227968454,-0.44090795516967773,-0.253778874874115
1726407180373752800,11.0637529296875,0.007754185702651739,-0.46194639801979065,-0.24414889514446259
1726407180383748900,11.073748779296874,0.02773483470082283,-0.4625248610973358,-0.22003239393234253
1726407180393746000,11.083745849609375,0.03536958619952202,-0.4269660711288452,-0.19035173952579498
1726407180403742000,11.093741943359374,0.04177242890000343,-0.36439213156700134,-0.14127196371555328
1726407180413737700,11.10373779296875,0.05119975283741951,-0.2855614721775055,-0.0885498896241188
1726407180423734000,11.113734130859376,0.0637289434671402,-0.21552765369415283,-0.05056273192167282
1726407180433729800,11.123729736328125,0.06585946679115295,-0.1551245003938675,-0.029746664687991142
1726407180443725800,11.133725830078125,0.057448610663414,-0.09615244716405869,-0.031116986647248268
1726407180453721900,11.143721923828124,0.03770819306373596,-0.03684385120868683,-0.04769277200102806
1726407180463719000,11.153718994140625,0.02364514395594597,0.008263560011982918,-0.059933267533779144
1726407180473715000,11.16371484375,0.018584338948130608,0.030436508357524872,-0.06276873499155045
1726407180483710700,11.173710693359375,0.015928780660033226,0.03984389454126358,-0.06035168096423149
1726407180493707000,11.18370703125,0.009392851032316685,0.0466914139688015,-0.05990426987409592
1726407180503702800,11.193702880859375,0.011261514388024807,0.05059882253408432,-0.05461960285902023
1726407180513698800,11.20369873046875,0.019774310290813446,0.06166744977235794,-0.037050727754831314
1726407180523694800,11.21369482421875,0.03669741749763489,0.07716802507638931,0.00048642861656844616
1726407180533692000,11.22369189453125,0.05513501539826393,0.1139228418469429,0.04594152793288231
1726407180543688000,11.23368798828125,0.06955414265394211,0.16476282477378845,0.0899825468659401
1726407180553683700,11.24368359375,0.06966359913349152,0.23258022964000702,0.12322118878364563
1726407180563680000,11.253679931640624,0.060601189732551575,0.2889019846916199,0.1472446322441101
1726407180573675800,11.26367578125,0.05769461393356323,0.32159096002578735,0.1663392335176468
1726407180583671800,11.273671875,0.05546947196125984,0.35085874795913696,0.17889058589935303
1726407180593667800,11.283667724609375,0.0535741001367569,0.3711414039134979,0.18322941660881042
1726407180603665000,11.293664794921876,0.052472423762083054,0.3853214681148529,0.18710097670555115
1726407180613661000,11.303660888671875,0.05683467909693718,0.38740697503089905,0.19284513592720032
1726407180623656700,11.31365673828125,0.06382451951503754,0.3956317901611328,0.20911763608455658
1726407180633653000,11.323653076171874,0.06658515334129333,0.4245670437812805,0.21770580112934113
1726407180643648800,11.333648681640625,0.06235964223742485,0.4516070485115051,0.20300251245498657
1726407180653644800,11.343644775390626,0.055579498410224915,0.44182100892066956,0.17507846653461456
1726407180663640800,11.353640869140625,0.05313830450177193,0.3972339928150177,0.13770979642868042
1726407180673638000,11.363637939453126,0.05092974379658699,0.3485111892223358,0.09570562094449997
1726407180683634000,11.373634033203125,0.04517253860831261,0.3027556538581848,0.04039120674133301
1726407180693629700,11.383629638671875,0.04343029856681824,0.26917317509651184,-0.020117944106459618
1726407180703626000,11.3936259765625,0.044901374727487564,0.2579212486743927,-0.07861629873514175
1726407180713621800,11.403621826171875,0.04679408296942711,0.265143483877182,-0.11030338704586029
1726407180723617800,11.41361767578125,0.060679662972688675,0.28072744607925415,-0.12305590510368347
1726407180733613800,11.42361376953125,0.08336179703474045,0.3173709213733673,-0.11248395591974258
1726407180743611000,11.43361083984375,0.10612855106592178,0.3688231110572815,-0.0844188705086708
1726407180753607000,11.44360693359375,0.12049070745706558,0.40990930795669556,-0.04762064293026924
1726407180763602700,11.453602783203126,0.13374201953411102,0.4540473520755768,-0.012288673780858517
1726407180773599000,11.463598876953125,0.14122337102890015,0.5067068338394165,0.021277008578181267
1726407180783594800,11.4735947265625,0.15648791193962097,0.5289409756660461,0.051852840930223465
1726407180793590800,11.4835908203125,0.16800609230995178,0.5177295804023743,0.06319843977689743
1726407180803587000,11.493587158203125,0.1688055545091629,0.4947500228881836,0.06133026257157326
1726407180813584000,11.503583984375,0.16759008169174194,0.4643731713294983,0.04162313789129257
1726407180823580000,11.513579833984375,0.15535269677639008,0.43558043241500854,0.007962442003190517
1726407180833575700,11.52357568359375,0.13928797841072083,0.42046058177948,-0.02959558553993702
1726407180843572000,11.533572021484375,0.12241414934396744,0.41914328932762146,-0.07573343813419342
1726407180853567700,11.543567626953125,0.09992029517889023,0.4111228883266449,-0.11301955580711365
1726407180863563800,11.553563720703124,0.09562331438064575,0.3816794753074646,-0.1368567794561386
1726407180873560000,11.56356005859375,0.10498512536287308,0.3318370580673218,-0.15076300501823425
1726407180883556900,11.573556884765624,0.10691016912460327,0.2848207354545593,-0.17093241214752197
1726407180893553000,11.583552978515625,0.0864163488149643,0.2646709978580475,-0.18224817514419556
1726407180903549000,11.593548828125,0.06673726439476013,0.25342023372650146,-0.18732300400733948
1726407180913545000,11.603544921875,0.06305890530347824,0.26055458188056946,-0.17988905310630798
1726407180923540700,11.613540771484375,0.06022323668003082,0.28987917304039,-0.1632247269153595
1726407180933536800,11.623536865234374,0.0593625009059906,0.31065288186073303,-0.1403212696313858
1726407180943533000,11.633532958984375,0.040022917091846466,0.32612520456314087,-0.10935381054878235
1726407180953529900,11.64352978515625,0.043316714465618134,0.3355986177921295,-0.0796305388212204
1726407180963526000,11.65352587890625,0.05635490640997887,0.34255966544151306,-0.042187340557575226
1726407180973522000,11.66352197265625,0.07819628715515137,0.3572150468826294,0.0017998252296820283
1726407180983518000,11.67351806640625,0.08191623538732529,0.3880576193332672,0.054179590195417404
1726407180993513700,11.683513671875,0.08302890509366989,0.3804228603839874,0.11187297850847244
1726407181003509800,11.693509765625,0.09875228255987167,0.3646814525127411,0.1724299192428589
1726407181013506000,11.703506103515625,0.11140176653862,0.35981613397598267,0.2172922044992447
1726407181023502800,11.7135029296875,0.11272478848695755,0.36474499106407166,0.24833060801029205
1726407181033499000,11.723498779296875,0.10381252318620682,0.4173029959201813,0.2634350061416626
1726407181043495000,11.733494873046874,0.10155414044857025,0.420450359582901,0.2625950574874878
1726407181053491000,11.743490966796875,0.08390351384878159,0.3922751843929291,0.23123715817928314
1726407181063486700,11.75348681640625,0.07932920753955841,0.3169702887535095,0.18463967740535736
1726407181073482800,11.763482666015625,0.05513039603829384,0.2608018219470978,0.10725007951259613
1726407181083479000,11.77347900390625,0.03249838203191757,0.23031920194625854,0.03524978458881378
1726407181093475800,11.783475830078125,0.016162818297743797,0.23883625864982605,-0.013328668661415577
1726407181103471900,11.793471923828125,0.02105436660349369,0.26723939180374146,-0.019823024049401283
1726407181113468000,11.803468017578124,0.03688366338610649,0.27465522289276123,0.011472581885755062
1726407181123464000,11.8134638671875,0.05717677250504494,0.2731843888759613,0.05998588353395462
1726407181133459700,11.823459716796876,0.06509248167276382,0.2952236533164978,0.11474446952342987
1726407181143455700,11.833455810546875,0.07464493811130524,0.3446445167064667,0.16940805315971375
1726407181153452000,11.8434521484375,0.08744915574789047,0.39187994599342346,0.2268359214067459
1726407181163448800,11.85344873046875,0.10171003639698029,0.4209460914134979,0.27932217717170715
1726407181173444900,11.86344482421875,0.1120617464184761,0.4318264126777649,0.3087250590324402
1726407181183441000,11.87344091796875,0.10351694375276566,0.4297685921192169,0.3095417022705078
1726407181193437000,11.88343701171875,0.08587190508842468,0.4061830937862396,0.2786881923675537
1726407181203432700,11.8934326171875,0.07266301661729813,0.39544591307640076,0.2180837094783783
1726407181213428700,11.9034287109375,0.06168626993894577,0.3844286799430847,0.14441907405853271
1726407181223425000,11.913425048828126,0.04962548986077309,0.3895805776119232,0.08308936655521393
1726407181233421800,11.923421875,0.04304748401045799,0.3980068266391754,0.034395601600408554
1726407181243417900,11.93341796875,0.03352362662553787,0.3805379271507263,0.0005603900644928217
1726407181253414000,11.943413818359375,0.007622788660228252,0.35805073380470276,-0.025157222524285316
1726407181263410000,11.953409912109375,-0.03305185213685036,0.35224810242652893,-0.0359698161482811
1726407181273405700,11.96340576171875,-0.08039034157991409,0.34866082668304443,-0.031783327460289
1726407181283401700,11.973401611328125,-0.12406119704246521,0.3569035232067108,-0.0027073263190686703
1726407181293398000,11.98339794921875,-0.13793599605560303,0.31996095180511475,0.0528789721429348
1726407181303394800,11.993394775390625,-0.12939350306987762,0.2553686499595642,0.11993520706892014
1726407181313390800,12.003390869140626,-0.12433508783578873,0.19230420887470245,0.19700922071933746
1726407181323387000,12.013386962890625,-0.11866836249828339,0.14529408514499664,0.268923819065094
1726407181333383000,12.0233828125,-0.12061060220003128,0.11478463560342789,0.3125847280025482
1726407181343378700,12.033378662109374,-0.14353859424591064,0.12188275158405304,0.33796337246894836
1726407181353375000,12.043375,-0.145695760846138,0.12021081149578094,0.34564897418022156
1726407181363371000,12.05337109375,-0.12574218213558197,0.1416371762752533,0.364984393119812
1726407181373367800,12.063367919921875,-0.08892211318016052,0.1389087736606598,0.38274767994880676
1726407181383363800,12.07336376953125,-0.06464958190917969,0.1494031399488449,0.4083426296710968
1726407181393360000,12.08335986328125,-0.04642343893647194,0.1585092842578888,0.4171960651874542
1726407181403356000,12.09335595703125,-0.03667435050010681,0.16000208258628845,0.41219690442085266
1726407181413351700,12.1033515625,-0.025069894269108772,0.13606451451778412,0.3849327862262726
1726407181423348000,12.113347900390625,-0.011371228843927383,0.08528602868318558,0.3442406952381134
1726407181433344000,12.123343994140624,-0.013851962983608246,0.052261240780353546,0.31337597966194153
1726407181443340800,12.1333408203125,-0.022392513230443,0.0559113584458828,0.3015948235988617
1726407181453336800,12.1433369140625,-0.020980771631002426,0.04583342373371124,0.2997543215751648
1726407181463332900,12.153332763671875,-0.0034276493825018406,0.013559520244598389,0.2955644428730011
1726407181473329000,12.163328857421876,0.014101809822022915,-0.008658701553940773,0.28053489327430725
1726407181483324700,12.17332470703125,0.031024251133203506,0.003638600464910269,0.2667715549468994
1726407181493321000,12.183321044921875,0.03837324306368828,0.031312305480241776,0.25092336535453796
1726407181503317000,12.19331689453125,0.04394647106528282,0.04758770391345024,0.2266233116388321
1726407181513313800,12.203313720703125,0.03791973739862442,0.03842402994632721,0.18965622782707214
1726407181523309800,12.213309814453124,0.03226407617330551,0.013066073879599571,0.14766570925712585
1726407181533305900,12.223305908203125,0.023807210847735405,-0.015394862741231918,0.09838283807039261
1726407181543302000,12.233302001953126,0.0042435359209775925,-0.0339176245033741,0.046708378940820694
1726407181553297700,12.243297607421875,-0.02195531129837036,-0.042260244488716125,0.0023907176218926907
1726407181563294000,12.2532939453125,-0.04291140288114548,-0.06396172195672989,-0.03503772243857384
1726407181573290000,12.2632900390625,-0.0607343427836895,-0.10081560909748077,-0.06825719773769379
1726407181583286800,12.273286865234375,-0.07666907459497452,-0.14309866726398468,-0.09671952575445175
1726407181593282800,12.28328271484375,-0.09965641051530838,-0.20005729794502258,-0.11827115714550018
1726407181603278800,12.29327880859375,-0.11313940584659576,-0.2742973566055298,-0.12267373502254486
1726407181613275000,12.30327490234375,-0.11980742961168289,-0.3442772328853607,-0.10768413543701172
1726407181623270700,12.313270751953125,-0.11736390739679337,-0.4121442139148712,-0.08364047855138779
1726407181633267000,12.323266845703126,-0.12136450409889221,-0.4639573395252228,-0.056854136288166046
1726407181643263000,12.333262939453125,-0.11281567066907883,-0.49526089429855347,-0.02775421366095543
1726407181653259800,12.343259765625,-0.09568008780479431,-0.548798143863678,0.003489193506538868
1726407181663255800,12.353255859375,-0.0865585133433342,-0.5799704194068909,0.03512198477983475
1726407181673251800,12.363251953125,-0.07819938659667969,-0.6115150451660156,0.06052055209875107
1726407181683247900,12.373247802734374,-0.07185300439596176,-0.6151052117347717,0.08236152678728104
1726407181693243600,12.38324365234375,-0.06653280556201935,-0.5718706250190735,0.10395097732543945
1726407181703240000,12.393239990234376,-0.06794176250696182,-0.5280031561851501,0.12340697646141052
