time,seconds_elapsed,z,y,x
1726407225865854500,0.0158544921875,-0.687652587890625,-0.512176513671875,-0.1088714599609375
1726407225875850500,0.0258505859375,-0.6915130615234375,-0.53277587890625,-0.1492156982421875
1726407225885846300,0.03584619140625,-0.7320404052734375,-0.52728271484375,-0.1859893798828125
1726407225895842600,0.045842529296875,-0.777862548828125,-0.4674530029296875,-0.229583740234375
1726407225905838600,0.055838623046875,-0.8164520263671875,-0.4905548095703125,-0.20623779296875
1726407225915834400,0.06583447265625,-0.7823028564453125,-0.5378875732421875,-0.162353515625
1726407225925831400,0.07583154296875,-0.771392822265625,-0.562469482421875,-0.1671600341796875
1726407225935827500,0.085827392578125,-0.7643280029296875,-0.5427398681640625,-0.214263916015625
1726407225945823500,0.095823486328125,-0.792633056640625,-0.4994049072265625,-0.27178955078125
1726407225955819300,0.1058193359375,-0.7891845703125,-0.4560394287109375,-0.270751953125
1726407225965815600,0.115815673828125,-0.7769775390625,-0.46807861328125,-0.2034454345703125
1726407225975811600,0.1258115234375,-0.77899169921875,-0.529937744140625,-0.1421661376953125
1726407225985807400,0.135807373046875,-0.76104736328125,-0.5572357177734375,-0.161865234375
1726407225995803400,0.145803466796875,-0.7152099609375,-0.5723419189453125,-0.2353363037109375
1726407226005799400,0.15579931640625,-0.6851043701171875,-0.587249755859375,-0.281158447265625
1726407226015795500,0.16579541015625,-0.69049072265625,-0.5883026123046875,-0.2652130126953125
1726407226025791500,0.17579150390625,-0.7078094482421875,-0.5615997314453125,-0.21173095703125
1726407226035787300,0.185787353515625,-0.693634033203125,-0.542999267578125,-0.148223876953125
1726407226045783600,0.195783447265625,-0.6783905029296875,-0.5055999755859375,-0.1346282958984375
1726407226055779600,0.205779541015625,-0.664031982421875,-0.4559326171875,-0.177734375
1726407226065775400,0.215775390625,-0.6377716064453125,-0.3914947509765625,-0.25250244140625
1726407226075771400,0.225771484375,-0.61859130859375,-0.3003387451171875,-0.354736328125
1726407226085767400,0.235767333984375,-0.621978759765625,-0.20550537109375,-0.46514892578125
1726407226095763500,0.245763427734375,-0.6573333740234375,-0.1832122802734375,-0.4861907958984375
1726407226105759500,0.255759521484375,-0.502166748046875,-0.1028594970703125,-0.45220947265625
1726407226115754800,0.265754638671875,-0.4447784423828125,-0.2606201171875,-0.16748046875
1726407226125751800,0.275751708984375,-0.5092315673828125,-0.4152984619140625,-0.14215087890625
1726407226135747800,0.285747802734375,-0.4140625,-0.24432373046875,-0.1569061279296875
1726407226145744000,0.295743896484375,-0.416351318359375,0.0444793701171875,-0.3972930908203125
1726407226155740000,0.305739990234375,-0.3240509033203125,-0.0312347412109375,-0.5040435791015625
1726407226165735700,0.315735595703125,-0.3493499755859375,-0.08331298828125,-0.5249176025390625
1726407226175732000,0.32573193359375,-0.428131103515625,-0.0482940673828125,-0.6560516357421875
1726407226185727700,0.335727783203125,-0.4697723388671875,-0.0153350830078125,-0.7345428466796875
1726407226195723800,0.345723876953125,-0.5094451904296875,0.0964508056640625,-0.79754638671875
1726407226205719800,0.3557197265625,-0.5220489501953125,0.1896514892578125,-0.803131103515625
1726407226215715800,0.3657158203125,-0.5184326171875,0.2269439697265625,-0.7611541748046875
1726407226225711900,0.3757119140625,-0.4994354248046875,0.3220367431640625,-0.6724090576171875
1726407226235707600,0.385707763671875,-0.413116455078125,0.4838104248046875,-0.6205902099609375
1726407226245703700,0.39570361328125,-0.3318634033203125,0.5994415283203125,-0.690093994140625
1726407226255700000,0.405699951171875,-0.3011932373046875,0.71551513671875,-0.7948760986328125
1726407226265695700,0.41569580078125,-0.200164794921875,0.832244873046875,-0.910675048828125
1726407226275691800,0.42569189453125,-0.03179931640625,0.95849609375,-1.0359954833984375
1726407226285687800,0.435687744140625,0.07574462890625,1.0593414306640625,-1.148681640625
1726407226295683800,0.445683837890625,0.102752685546875,1.1147308349609375,-1.22259521484375
1726407226305680000,0.455679931640625,0.0820770263671875,1.1143798828125,-1.2634124755859375
1726407226315675600,0.465675537109375,-0.071258544921875,1.1309051513671875,-1.2914886474609375
1726407226325672000,0.475671875,-0.266265869140625,1.2508392333984375,-1.243438720703125
1726407226335668000,0.48566796875,-0.461395263671875,1.5348663330078125,-1.2174224853515625
1726407226345664800,0.495664794921875,-0.5977630615234375,1.73638916015625,-1.2637176513671875
1726407226355660800,0.505660888671875,-0.4481048583984375,1.74725341796875,-1.638458251953125
1726407226365656800,0.51565673828125,-0.30810546875,1.729095458984375,-2.057403564453125
1726407226375652900,0.52565283203125,-0.5839080810546875,1.5467681884765625,-2.1365814208984375
1726407226385648600,0.535648681640625,-0.7626190185546875,1.538604736328125,-2.1371917724609375
1726407226395645000,0.54564501953125,-0.815216064453125,1.660430908203125,-2.1246337890625
1726407226405641000,0.555640869140625,-0.860687255859375,1.7164459228515625,-2.0749053955078125
1726407226415636700,0.56563671875,-0.8646087646484375,1.780120849609375,-2.1800994873046875
1726407226425632800,0.5756328125,-0.810546875,1.6849365234375,-2.3591766357421875
1726407226435628800,0.58562890625,-0.67236328125,1.4171142578125,-2.5962677001953125
1726407226445624800,0.595624755859375,-0.4675140380859375,1.1610107421875,-2.863677978515625
1726407226455620900,0.605620849609375,-0.1837310791015625,0.9659423828125,-3.059722900390625
1726407226465616600,0.61561669921875,0.10296630859375,0.790435791015625,-3.1113128662109375
1726407226475613000,0.625613037109375,0.3965911865234375,0.569427490234375,-3.098663330078125
1726407226485608700,0.635608642578125,0.6731109619140625,0.3544464111328125,-3.0685272216796875
1726407226495604700,0.645604736328125,0.9021453857421875,0.226959228515625,-2.972259521484375
1726407226505601000,0.65560107421875,1.0629730224609375,0.1318817138671875,-2.8303985595703125
1726407226515596800,0.6655966796875,1.150146484375,0.1198577880859375,-2.5503692626953125
1726407226525592800,0.6755927734375,1.1977996826171875,0.2299346923828125,-2.242431640625
1726407226535588900,0.6855888671875,1.14227294921875,0.363250732421875,-1.987274169921875
1726407226545586000,0.6955859375,1.063720703125,0.5272674560546875,-1.7321014404296875
1726407226555581700,0.705581787109375,0.958221435546875,0.6916961669921875,-1.4640655517578125
1726407226565577700,0.71557763671875,0.8401947021484375,0.851715087890625,-1.2037811279296875
1726407226575574000,0.725573974609375,0.6710357666015625,1.0041656494140625,-0.9449920654296875
1726407226585569800,0.73556982421875,0.4484710693359375,1.046051025390625,-0.7351837158203125
1726407226595565800,0.74556591796875,0.127288818359375,1.1125946044921875,-0.4274444580078125
1726407226605561900,0.755561767578125,0.0167694091796875,1.084259033203125,-0.3797149658203125
1726407226615558000,0.765557861328125,0.0126800537109375,1.05938720703125,-0.3248748779296875
1726407226625554000,0.775553955078125,-0.0326690673828125,1.1339569091796875,-0.2082061767578125
1726407226635549700,0.7855498046875,-0.171173095703125,1.3237152099609375,-0.09771728515625
1726407226645545700,0.795545654296875,-0.15667724609375,1.4040985107421875,-0.1246490478515625
1726407226655542000,0.8055419921875,0.1488037109375,1.26177978515625,-0.30120849609375
1726407226665537800,0.815537841796875,-0.603912353515625,1.686370849609375,-0.14715576171875
1726407226675533800,0.825533935546875,-1.0568084716796875,1.462982177734375,-0.1573333740234375
1726407226685529600,0.835529541015625,-1.2447509765625,1.357086181640625,-0.0848846435546875
1726407226695526000,0.84552587890625,-1.3682098388671875,1.2975311279296875,-0.09698486328125
1726407226705522000,0.85552197265625,-0.603363037109375,0.97735595703125,-0.0899658203125
1726407226715517700,0.865517578125,0.0159912109375,0.7399139404296875,-0.219879150390625
1726407226725513700,0.875513671875,0.125152587890625,0.709259033203125,-0.3764190673828125
1726407226735509800,0.885509765625,0.257904052734375,0.8285369873046875,-0.6170654296875
1726407226745505800,0.895505859375,0.260223388671875,0.9329681396484375,-0.8330535888671875
1726407226755502600,0.905502685546875,0.6235504150390625,0.638275146484375,-0.8928070068359375
1726407226765499000,0.915498779296875,0.52313232421875,0.691162109375,-1.140655517578125
1726407226775495000,0.925494873046875,0.09356689453125,0.5623779296875,-1.26995849609375
1726407226785490700,0.93549072265625,0.1677703857421875,0.10150146484375,-1.4981689453125
1726407226795487000,0.945487060546875,-0.0190582275390625,0.25811767578125,-1.5243072509765625
1726407226805482800,0.955482666015625,-0.1261138916015625,0.603179931640625,-1.628997802734375
1726407226815478800,0.965478759765625,-0.2680206298828125,0.303924560546875,-1.610198974609375
1726407226825474800,0.975474853515625,-0.4036407470703125,0.4939117431640625,-1.3844146728515625
1726407226835470800,0.985470947265625,-0.4549560546875,0.6383056640625,-1.0053558349609375
1726407226845467000,0.995466796875,-0.4702911376953125,0.57879638671875,-0.777374267578125
1726407226855463000,1.005462890625,-0.3806610107421875,0.465728759765625,-0.7563629150390625
1726407226865458700,1.015458740234375,-0.3070526123046875,0.3417205810546875,-0.8343353271484375
1726407226875455000,1.025455078125,-0.361175537109375,0.4794158935546875,-0.7926788330078125
1726407226885450800,1.03545068359375,-0.59478759765625,0.54266357421875,-0.8282623291015625
1726407226895446800,1.04544677734375,-0.6559295654296875,0.5675201416015625,-0.672607421875
1726407226905442800,1.05544287109375,-0.287384033203125,0.5542144775390625,-0.8397216796875
1726407226915438800,1.06543896484375,0.39117431640625,0.33294677734375,-1.1514739990234375
1726407226925435000,1.075434814453125,0.7371826171875,0.072021484375,-1.20135498046875
1726407226935430700,1.0854306640625,0.8796539306640625,0.21051025390625,-1.045074462890625
1726407226945426700,1.0954267578125,0.8382720947265625,0.333160400390625,-0.7564239501953125
1726407226955423000,1.105423095703125,0.643707275390625,0.2831268310546875,-0.5911712646484375
1726407226965418800,1.115418701171875,0.441162109375,0.27215576171875,-0.55499267578125
1726407226975415800,1.125415771484375,0.3172607421875,0.1431121826171875,-0.6510009765625
1726407226985411800,1.135411865234375,0.451446533203125,0.000732421875,-0.836700439453125
1726407226995408000,1.145407958984375,0.591766357421875,-0.0029449462890625,-0.837249755859375
1726407227005403600,1.155403564453125,0.60260009765625,0.1224212646484375,-0.8408050537109375
1726407227015399700,1.165399658203125,0.5055389404296875,0.25701904296875,-0.8232421875
1726407227025396000,1.17539599609375,0.2883453369140625,0.2757568359375,-0.9157867431640625
1726407227035391700,1.185391845703125,-0.0050811767578125,0.2374420166015625,-0.83026123046875
1726407227045387800,1.1953876953125,-0.2430877685546875,0.615570068359375,-0.936431884765625
1726407227055383800,1.2053837890625,-0.3541412353515625,0.5239105224609375,-0.9765167236328125
1726407227065379800,1.2153798828125,-0.4715118408203125,0.4058074951171875,-0.8928985595703125
1726407227075375900,1.2253759765625,-0.58966064453125,0.5160369873046875,-0.9740447998046875
1726407227085371600,1.23537158203125,-0.6664886474609375,0.4508209228515625,-1.0102386474609375
1726407227095368000,1.245367919921875,-0.5969696044921875,0.63372802734375,-0.747528076171875
1726407227105364000,1.255364013671875,-0.3209075927734375,0.6277618408203125,-0.5234222412109375
1726407227115360300,1.2653603515625,-0.313201904296875,-0.07855224609375,-0.8514251708984375
1726407227125356300,1.275356201171875,-0.207855224609375,-0.1758270263671875,-0.6562652587890625
1726407227135352300,1.285352294921875,-0.0890350341796875,-0.1274261474609375,-0.498809814453125
1726407227145348400,1.295348388671875,-0.0697784423828125,0.1074981689453125,-0.361663818359375
1726407227155344100,1.30534423828125,-0.0185546875,0.3515625,-0.300994873046875
1726407227165340200,1.315340087890625,0.0788421630859375,0.5800933837890625,-0.3235931396484375
1726407227175336400,1.32533642578125,0.23858642578125,0.760101318359375,-0.361480712890625
1726407227185332200,1.335332275390625,0.4266510009765625,0.886993408203125,-0.44232177734375
1726407227195329300,1.345329345703125,0.62457275390625,0.9146575927734375,-0.493621826171875
1726407227205325300,1.3553251953125,0.8178558349609375,0.778839111328125,-0.55316162109375
1726407227215321300,1.3653212890625,0.8984375,0.7450103759765625,-0.578155517578125
1726407227225317000,1.375317138671875,0.913970947265625,0.700653076171875,-0.5437164306640625
1726407227235313200,1.385313232421875,1.0363311767578125,0.757781982421875,-0.467132568359375
1726407227245309400,1.395309326171875,0.8995361328125,0.84002685546875,-0.5861968994140625
1726407227255305200,1.40530517578125,0.9295654296875,1.4132843017578125,-0.899566650390625
1726407227265301200,1.41530126953125,1.2241668701171875,1.957794189453125,-0.5673828125
1726407227275297300,1.42529736328125,1.1499176025390625,2.055084228515625,-0.170684814453125
1726407227285293300,1.435293212890625,0.846954345703125,1.809600830078125,-0.0036773681640625
1726407227295289300,1.445289306640625,0.6246490478515625,1.5535888671875,0.13232421875
1726407227305285000,1.45528515625,0.4315948486328125,1.3006134033203125,0.185760498046875
1726407227315281200,1.46528125,0.0758514404296875,0.9069671630859375,0.137481689453125
1726407227325277400,1.47527734375,-0.1811370849609375,0.8300933837890625,0.287353515625
1726407227335273200,1.485273193359375,-0.1201629638671875,0.8514862060546875,0.2268829345703125
1726407227345269200,1.495269287109375,-0.0796356201171875,0.756195068359375,0.07171630859375
1726407227355265300,1.505265380859375,-0.057525634765625,0.740447998046875,0.009124755859375
1726407227365261300,1.51526123046875,-0.07470703125,0.767791748046875,-0.0081634521484375
1726407227375257300,1.52525732421875,-0.0960845947265625,0.8199615478515625,-0.0089874267578125
1726407227385253000,1.535253173828125,-0.1552276611328125,0.8955841064453125,-0.016265869140625
1726407227395249400,1.54524951171875,-0.2202301025390625,0.9757843017578125,0.0266265869140625
1726407227405245200,1.5552451171875,-0.2492523193359375,0.9861297607421875,0.092315673828125
1726407227415242200,1.5652421875,-0.2083282470703125,0.94818115234375,0.1475677490234375
1726407227425238300,1.57523828125,-0.1004638671875,0.9147186279296875,0.173492431640625
1726407227435234300,1.585234375,0.024139404296875,0.874298095703125,0.1288299560546875
1726407227445230300,1.595230224609375,0.1116943359375,0.8488616943359375,0.11627197265625
1726407227455226000,1.60522607421875,0.17706298828125,0.977386474609375,0.2838134765625
1726407227465222400,1.615222412109375,0.3177947998046875,1.06878662109375,0.4113311767578125
1726407227475218200,1.62521826171875,0.3718719482421875,1.0893402099609375,0.4197845458984375
1726407227485214200,1.635214111328125,0.529052734375,1.1122283935546875,0.4309844970703125
1726407227495210200,1.645210205078125,0.7144622802734375,0.9976959228515625,0.531280517578125
1726407227505206300,1.655206298828125,0.7549591064453125,0.7996826171875,0.65460205078125
1726407227515202300,1.665202392578125,0.7350616455078125,0.612518310546875,0.6387176513671875
1726407227525198300,1.6751982421875,0.704193115234375,0.482757568359375,0.55401611328125
1726407227535194000,1.685194091796875,0.6650390625,0.464874267578125,0.4496612548828125
1726407227545190400,1.6951904296875,0.62139892578125,0.507904052734375,0.4538726806640625
1726407227555186200,1.705186279296875,0.6340179443359375,0.6169281005859375,0.443328857421875
1726407227565182200,1.71518212890625,0.6514129638671875,0.7139892578125,0.3798370361328125
1726407227575178500,1.725178466796875,0.6290435791015625,0.7366943359375,0.344757080078125
1726407227585174300,1.73517431640625,0.5709686279296875,0.7410736083984375,0.317047119140625
1726407227595170300,1.74517041015625,0.477783203125,0.757171630859375,0.32269287109375
1726407227605166000,1.755166015625,0.3630218505859375,0.7735443115234375,0.3286895751953125
1726407227615162400,1.765162353515625,0.2349700927734375,0.8079681396484375,0.2796630859375
1726407227625159200,1.7751591796875,0.209564208984375,0.873626708984375,0.3006439208984375
1726407227635155200,1.7851552734375,0.3216094970703125,0.95489501953125,0.3429718017578125
1726407227645151500,1.7951513671875,0.49578857421875,1.011138916015625,0.4172515869140625
1726407227655147300,1.805147216796875,0.337615966796875,0.98779296875,0.3176116943359375
1726407227665143300,1.815143310546875,0.28790283203125,0.9835662841796875,0.3048095703125
1726407227675139000,1.82513916015625,0.197265625,0.92376708984375,0.2389984130859375
1726407227685135400,1.83513525390625,0.125,0.895599365234375,0.18585205078125
1726407227695131400,1.84513134765625,0.109375,0.893310546875,0.175537109375
1726407227705127200,1.855127197265625,0.122589111328125,0.9116668701171875,0.19146728515625
1726407227715123200,1.865123291015625,0.170745849609375,0.9306793212890625,0.1998291015625
1726407227725119200,1.875119140625,0.2435302734375,0.972869873046875,0.2011260986328125
1726407227735115300,1.885115234375,0.279632568359375,0.9883575439453125,0.2368011474609375
1726407227745111300,1.895111328125,0.3302001953125,0.9764556884765625,0.26861572265625
1726407227755107000,1.905107177734375,0.3763275146484375,0.9575958251953125,0.281768798828125
1726407227765103400,1.915103271484375,0.4134063720703125,0.9302825927734375,0.28338623046875
1726407227775099400,1.925099365234375,0.4526214599609375,0.903961181640625,0.2811279296875
1726407227785095200,1.93509521484375,0.4900970458984375,0.8992156982421875,0.2884063720703125
1726407227795091200,1.94509130859375,0.50909423828125,0.9056854248046875,0.3018798828125
1726407227805087200,1.955087158203125,0.52740478515625,0.929534912109375,0.315643310546875
1726407227815083300,1.965083251953125,0.529754638671875,0.9499664306640625,0.320953369140625
1726407227825079300,1.975079345703125,0.5101165771484375,0.965606689453125,0.3111724853515625
1726407227835075300,1.985075439453125,0.46844482421875,0.9518890380859375,0.2925872802734375
1726407227845072400,1.995072265625,0.428253173828125,0.939453125,0.2852020263671875
1726407227855068200,2.005068115234375,0.3863372802734375,0.914764404296875,0.28045654296875
1726407227865064400,2.015064453125,0.3529815673828125,0.887939453125,0.275054931640625
1726407227875060200,2.025060302734375,0.3262939453125,0.86822509765625,0.2646331787109375
1726407227885056300,2.03505615234375,0.3072509765625,0.844482421875,0.2441558837890625
1726407227895052300,2.04505224609375,0.30572509765625,0.8303375244140625,0.2223663330078125
1726407227905048300,2.05504833984375,0.3127899169921875,0.827667236328125,0.2078857421875
1726407227915044400,2.06504443359375,0.3201751708984375,0.8389434814453125,0.1985931396484375
1726407227925040000,2.0750400390625,0.338897705078125,0.8662567138671875,0.198577880859375
1726407227935036200,2.0850361328125,0.3565521240234375,0.9016876220703125,0.2162017822265625
1726407227945032400,2.095032470703125,0.3618927001953125,0.91815185546875,0.22601318359375
1726407227955028200,2.1050283203125,0.368988037109375,0.91131591796875,0.2358856201171875
1726407227965024300,2.115024169921875,0.3808441162109375,0.907501220703125,0.2481536865234375
1726407227975020300,2.125020263671875,0.3952484130859375,0.900909423828125,0.26287841796875
1726407227985016300,2.135016357421875,0.410858154296875,0.8823089599609375,0.2890625
1726407227995012400,2.145012451171875,0.424835205078125,0.86090087890625,0.30340576171875
1726407228005008100,2.155008056640625,0.443359375,0.864410400390625,0.3079376220703125
1726407228015004200,2.165004150390625,0.447723388671875,0.8636016845703125,0.308380126953125
1726407228025000400,2.17500048828125,0.439544677734375,0.86358642578125,0.316009521484375
1726407228034996200,2.184996337890625,0.4272003173828125,0.8722991943359375,0.3198089599609375
1726407228044992300,2.1949921875,0.412200927734375,0.8989410400390625,0.3404083251953125
1726407228054988300,2.20498828125,0.3959197998046875,0.917724609375,0.3573455810546875
1726407228064984300,2.214984375,0.37213134765625,0.9333038330078125,0.3585205078125
1726407228074981000,2.224981201171875,0.3441619873046875,0.948272705078125,0.377349853515625
1726407228084977200,2.23497705078125,0.3192291259765625,0.9625396728515625,0.3838958740234375
1726407228094973400,2.244973388671875,0.2889251708984375,0.9575042724609375,0.3861846923828125
1726407228104969200,2.25496923828125,0.252044677734375,0.93463134765625,0.3812103271484375
1726407228114965000,2.264965087890625,0.2218017578125,0.916412353515625,0.379638671875
1726407228124961000,2.2749609375,0.20428466796875,0.9111785888671875,0.3971405029296875
1726407228134957000,2.28495703125,0.19451904296875,0.9070281982421875,0.4055023193359375
1726407228144953000,2.294953125,0.1971588134765625,0.8985443115234375,0.4177703857421875
1726407228154948900,2.304948974609375,0.2047271728515625,0.897979736328125,0.4495697021484375
1726407228164945200,2.314945068359375,0.22503662109375,0.8955078125,0.477874755859375
1726407228174941200,2.324941162109375,0.2468414306640625,0.887939453125,0.49725341796875
1726407228184937000,2.33493701171875,0.2639617919921875,0.8792724609375,0.50982666015625
1726407228194933000,2.34493310546875,0.2782440185546875,0.866851806640625,0.5209197998046875
1726407228204929000,2.354928955078125,0.2867584228515625,0.8533935546875,0.5253753662109375
1726407228214925000,2.364925048828125,0.2891998291015625,0.8349151611328125,0.5250091552734375
1726407228224921000,2.374921142578125,0.2936859130859375,0.8206939697265625,0.5137176513671875
1726407228234916900,2.384916748046875,0.30389404296875,0.807373046875,0.5006866455078125
1726407228244913200,2.3949130859375,0.3170013427734375,0.8032989501953125,0.49066162109375
1726407228254909000,2.404908935546875,0.328155517578125,0.79779052734375,0.4781341552734375
1726407228264905000,2.414905029296875,0.3343505859375,0.8066864013671875,0.4671630859375
1726407228274901000,2.42490087890625,0.3321533203125,0.827880859375,0.452362060546875
1726407228284897000,2.43489697265625,0.3325347900390625,0.855682373046875,0.44378662109375
1726407228294893000,2.44489306640625,0.31976318359375,0.87939453125,0.41845703125
1726407228304889900,2.454889892578125,0.31536865234375,0.8838043212890625,0.40283203125
1726407228314886100,2.46488623046875,0.31622314453125,0.891937255859375,0.384307861328125
1726407228324882000,2.4748818359375,0.3153076171875,0.8965301513671875,0.372833251953125
1726407228334878000,2.4848779296875,0.3092193603515625,0.874603271484375,0.3625030517578125
1726407228344874000,2.4948740234375,0.2993621826171875,0.8438568115234375,0.3525543212890625
1726407228354870000,2.5048701171875,0.28900146484375,0.818634033203125,0.35174560546875
1726407228364866000,2.514865966796875,0.290679931640625,0.81207275390625,0.364959716796875
1726407228374862000,2.524862060546875,0.2978363037109375,0.8188629150390625,0.3937530517578125
1726407228384858000,2.534858154296875,0.3018646240234375,0.8269805908203125,0.4179534912109375
1726407228394854100,2.544854248046875,0.3038330078125,0.8246612548828125,0.435516357421875
1726407228404850000,2.554849853515625,0.2989044189453125,0.8096923828125,0.4464111328125
1726407228414846000,2.564845947265625,0.2904815673828125,0.790924072265625,0.4483184814453125
1726407228424842200,2.57484228515625,0.279144287109375,0.786163330078125,0.446990966796875
1726407228434838000,2.584838134765625,0.26287841796875,0.7976531982421875,0.4419403076171875
1726407228444834000,2.594833984375,0.2473297119140625,0.824951171875,0.4390106201171875
1726407228454829800,2.604829833984375,0.238372802734375,0.860931396484375,0.4393157958984375
1726407228464826000,2.614826171875,0.23443603515625,0.8984375,0.445159912109375
1726407228474822100,2.624822265625,0.2327728271484375,0.9276580810546875,0.4454345703125
1726407228484818000,2.63481787109375,0.234100341796875,0.9467010498046875,0.433685302734375
1726407228494814000,2.64481396484375,0.2422943115234375,0.9620208740234375,0.4141387939453125
1726407228504810000,2.65481005859375,0.2620697021484375,0.982025146484375,0.39251708984375
1726407228514806000,2.664805908203125,0.31170654296875,1.0145416259765625,0.3709259033203125
1726407228524802000,2.674802001953125,0.34771728515625,1.0345458984375,0.3539581298828125
1726407228534799000,2.684799072265625,0.3540191650390625,1.03277587890625,0.3394012451171875
1726407228544795100,2.694795166015625,0.3321380615234375,1.000335693359375,0.3295135498046875
1726407228554791000,2.704791015625,0.2939910888671875,0.944244384765625,0.32745361328125
1726407228564787000,2.714786865234375,0.2738037109375,0.8746490478515625,0.336395263671875
1726407228574783000,2.724782958984375,0.292205810546875,0.819580078125,0.356201171875
1726407228584779000,2.734779052734375,0.3134765625,0.791534423828125,0.355224609375
1726407228594775000,2.744775146484375,0.320892333984375,0.7878265380859375,0.3488006591796875
1726407228604771000,2.75477099609375,0.3120880126953125,0.8067779541015625,0.3314056396484375
1726407228614767000,2.76476708984375,0.29669189453125,0.8356170654296875,0.3158416748046875
1726407228624763100,2.77476318359375,0.2849884033203125,0.873016357421875,0.307220458984375
1726407228634759000,2.784759033203125,0.27142333984375,0.9030303955078125,0.315643310546875
1726407228644755200,2.794755126953125,0.2643890380859375,0.9252471923828125,0.318145751953125
1726407228654751000,2.8047509765625,0.2507171630859375,0.9341278076171875,0.3233642578125
1726407228664747000,2.8147470703125,0.2451629638671875,0.9296875,0.337615966796875
1726407228674743000,2.824742919921875,0.2494354248046875,0.9140167236328125,0.350830078125
1726407228684739000,2.834739013671875,0.2565765380859375,0.89208984375,0.3635406494140625
1726407228694735000,2.844735107421875,0.2699127197265625,0.8756866455078125,0.3697967529296875
1726407228704731000,2.85473095703125,0.2949066162109375,0.862396240234375,0.3685302734375
1726407228714727000,2.864726806640625,0.3189697265625,0.8380126953125,0.367767333984375
1726407228724723200,2.87472314453125,0.3468170166015625,0.8161773681640625,0.363739013671875
1726407228734719000,2.884718994140625,0.3731842041015625,0.8075714111328125,0.3650665283203125
1726407228744715000,2.894715087890625,0.4009552001953125,0.8160552978515625,0.371307373046875
1726407228754712000,2.904712158203125,0.425537109375,0.8217010498046875,0.39422607421875
1726407228764708000,2.9147080078125,0.418701171875,0.819549560546875,0.4120635986328125
1726407228774703900,2.924703857421875,0.384246826171875,0.8247528076171875,0.425323486328125
1726407228784700000,2.934699951171875,0.3381500244140625,0.82666015625,0.4426727294921875
1726407228794696200,2.9446962890625,0.3034515380859375,0.8233489990234375,0.4611053466796875
1726407228804692000,2.95469189453125,0.2846221923828125,0.823028564453125,0.4552764892578125
1726407228814688000,2.96468798828125,0.2903289794921875,0.839141845703125,0.453277587890625
1726407228824684000,2.97468408203125,0.30584716796875,0.852813720703125,0.4472808837890625
1726407228834680000,2.98468017578125,0.32366943359375,0.8535003662109375,0.4361114501953125
1726407228844676000,2.994676025390625,0.3334503173828125,0.85321044921875,0.40435791015625
1726407228854672000,3.004671875,0.344940185546875,0.85113525390625,0.380706787109375
1726407228864668200,3.014668212890625,0.3584747314453125,0.859466552734375,0.360565185546875
1726407228874664200,3.024664306640625,0.369537353515625,0.88092041015625,0.3550567626953125
1726407228884660000,3.034659912109375,0.3827667236328125,0.9095611572265625,0.34490966796875
1726407228894656000,3.044656005859375,0.3824310302734375,0.9292449951171875,0.3478851318359375
1726407228904652000,3.054652099609375,0.373291015625,0.9375,0.3520355224609375
1726407228914648000,3.06464794921875,0.35760498046875,0.9214630126953125,0.35882568359375
1726407228924644000,3.07464404296875,0.332672119140625,0.900390625,0.36236572265625
1726407228934639900,3.084639892578125,0.3162689208984375,0.8785400390625,0.363372802734375
1726407228944636200,3.09463623046875,0.3017730712890625,0.858917236328125,0.3728179931640625
1726407228954632000,3.1046318359375,0.2977752685546875,0.8412322998046875,0.37921142578125
1726407228964628000,3.1146279296875,0.2995147705078125,0.8294677734375,0.39483642578125
1726407228974624000,3.1246240234375,0.3120880126953125,0.8283538818359375,0.4202880859375
1726407228984620000,3.1346201171875,0.324066162109375,0.835174560546875,0.439453125
1726407228994617000,3.1446171875,0.3310394287109375,0.842315673828125,0.45379638671875
1726407229004612900,3.15461279296875,0.34033203125,0.8344879150390625,0.46392822265625
1726407229014609200,3.164609130859375,0.343658447265625,0.81597900390625,0.4566650390625
1726407229024605000,3.17460498046875,0.35101318359375,0.79071044921875,0.431854248046875
1726407229034601000,3.18460107421875,0.365203857421875,0.7822265625,0.413055419921875
1726407229044597000,3.194596923828125,0.38311767578125,0.7898712158203125,0.39178466796875
1726407229054593000,3.204593017578125,0.3887176513671875,0.8069915771484375,0.3699188232421875
1726407229064589000,3.214589111328125,0.380218505859375,0.8162689208984375,0.3546295166015625
1726407229074585000,3.224585205078125,0.3706207275390625,0.811859130859375,0.338592529296875
1726407229084581000,3.2345810546875,0.35858154296875,0.802886962890625,0.3246002197265625
1726407229094577200,3.2445771484375,0.3606414794921875,0.8172607421875,0.318328857421875
1726407229104573000,3.254572998046875,0.3644256591796875,0.8294677734375,0.32733154296875
1726407229114568700,3.264568603515625,0.3706207275390625,0.8576202392578125,0.3300933837890625
1726407229124564700,3.274564697265625,0.3782501220703125,0.8680877685546875,0.333099365234375
1726407229134560500,3.284560546875,0.3821563720703125,0.8864593505859375,0.345458984375
1726407229144556800,3.294556884765625,0.3821563720703125,0.8825836181640625,0.3516693115234375
1726407229154552600,3.304552490234375,0.371246337890625,0.861846923828125,0.3516998291015625
1726407229164548600,3.314548583984375,0.3730926513671875,0.8511505126953125,0.348846435546875
1726407229174544600,3.324544677734375,0.3841400146484375,0.861724853515625,0.3661651611328125
1726407229184540700,3.334540771484375,0.3859405517578125,0.8751068115234375,0.3863372802734375
1726407229194536700,3.34453662109375,0.388031005859375,0.892181396484375,0.3997650146484375
1726407229204532700,3.35453271484375,0.394866943359375,0.9044342041015625,0.4071502685546875
1726407229214528500,3.364528564453125,0.404296875,0.91192626953125,0.4047698974609375
1726407229224525600,3.374525634765625,0.4151153564453125,0.9048004150390625,0.391204833984375
1726407229234521600,3.384521484375,0.421783447265625,0.8911895751953125,0.370086669921875
1726407229244517600,3.394517578125,0.4267425537109375,0.8771820068359375,0.3425140380859375
1726407229254513700,3.404513671875,0.4354400634765625,0.866668701171875,0.3226776123046875
1726407229264509700,3.414509765625,0.44189453125,0.869903564453125,0.3120269775390625
1726407229274505700,3.424505615234375,0.4469451904296875,0.872100830078125,0.3051605224609375
1726407229284501500,3.43450146484375,0.4439544677734375,0.8560333251953125,0.3021697998046875
1726407229294497800,3.444497802734375,0.4264678955078125,0.8255767822265625,0.3021240234375
1726407229304493600,3.45449365234375,0.397247314453125,0.7868194580078125,0.3025360107421875
1726407229314489600,3.464489501953125,0.37493896484375,0.75433349609375,0.31219482421875
1726407229324485600,3.474485595703125,0.353973388671875,0.7348175048828125,0.33251953125
1726407229334481700,3.484481689453125,0.3349151611328125,0.728912353515625,0.3493499755859375
1726407229344477700,3.494477783203125,0.3170318603515625,0.74261474609375,0.3779754638671875
1726407229354473500,3.504473388671875,0.307952880859375,0.771759033203125,0.3990936279296875
1726407229364469500,3.514469482421875,0.3114166259765625,0.802947998046875,0.4130859375
1726407229374465800,3.5244658203125,0.3223419189453125,0.8256072998046875,0.4167327880859375
1726407229384461600,3.534461669921875,0.3435211181640625,0.834503173828125,0.4045867919921875
1726407229394457600,3.54445751953125,0.3690185546875,0.8339385986328125,0.3936767578125
1726407229404453600,3.55445361328125,0.3883209228515625,0.82305908203125,0.378173828125
1726407229414449700,3.56444970703125,0.3994598388671875,0.8147735595703125,0.373382568359375
1726407229424445700,3.57444580078125,0.3995208740234375,0.796173095703125,0.365447998046875
1726407229434441500,3.58444140625,0.374847412109375,0.80303955078125,0.3574676513671875
1726407229444437800,3.594437744140625,0.34967041015625,0.80767822265625,0.3617095947265625
1726407229454433800,3.604433837890625,0.321533203125,0.818817138671875,0.36181640625
1726407229464429600,3.6144296875,0.302398681640625,0.8379669189453125,0.35162353515625
1726407229474425600,3.624425537109375,0.2908782958984375,0.8506317138671875,0.33746337890625
1726407229484422700,3.634422607421875,0.2938385009765625,0.8564453125,0.33099365234375
1726407229494418700,3.644418701171875,0.30621337890625,0.8597564697265625,0.331573486328125
1726407229504414500,3.65441455078125,0.3178253173828125,0.8550262451171875,0.329437255859375
1726407229514410800,3.66441064453125,0.32855224609375,0.8332366943359375,0.3277587890625
1726407229524406800,3.67440673828125,0.3286895751953125,0.8191070556640625,0.3388671875
1726407229534402600,3.684402587890625,0.352294921875,0.8243865966796875,0.364715576171875
1726407229544398600,3.694398681640625,0.3559112548828125,0.825042724609375,0.379425048828125
1726407229554394600,3.70439453125,0.35235595703125,0.8298187255859375,0.3840179443359375
1726407229564390700,3.714390625,0.359161376953125,0.839019775390625,0.3915557861328125
1726407229574386700,3.72438671875,0.369781494140625,0.854400634765625,0.3922119140625
1726407229584382500,3.734382568359375,0.385101318359375,0.851715087890625,0.3857421875
1726407229594378800,3.744378662109375,0.4056549072265625,0.8463897705078125,0.3629302978515625
1726407229604374500,3.75437451171875,0.4208831787109375,0.8434600830078125,0.3256072998046875
1726407229614370600,3.76437060546875,0.4310150146484375,0.84918212890625,0.3027191162109375
1726407229624366800,3.774366943359375,0.4345703125,0.868621826171875,0.2947235107421875
1726407229634362600,3.784362548828125,0.418365478515625,0.89215087890625,0.299041748046875
1726407229644358700,3.794358642578125,0.385894775390625,0.899871826171875,0.3193511962890625
1726407229654354700,3.804354736328125,0.35552978515625,0.8872222900390625,0.3520965576171875
1726407229664350700,3.814350830078125,0.33984375,0.8717041015625,0.3894195556640625
1726407229674346800,3.8243466796875,0.33819580078125,0.8670501708984375,0.419647216796875
1726407229684342500,3.834342529296875,0.3346099853515625,0.8632354736328125,0.4287872314453125
1726407229694338600,3.844338623046875,0.33795166015625,0.875579833984375,0.4235687255859375
1726407229704334800,3.8543349609375,0.341064453125,0.8876190185546875,0.40008544921875
1726407229714330600,3.86433056640625,0.347564697265625,0.8912200927734375,0.380523681640625
1726407229724327700,3.87432763671875,0.354583740234375,0.8914031982421875,0.352935791015625
1726407229734323700,3.88432373046875,0.3653717041015625,0.9011993408203125,0.3290557861328125
1726407229744319700,3.89431982421875,0.371734619140625,0.9165191650390625,0.3136749267578125
1726407229754315500,3.9043154296875,0.369598388671875,0.9201202392578125,0.30242919921875
1726407229764311600,3.9143115234375,0.3597412109375,0.9022369384765625,0.2876739501953125
1726407229774307800,3.924307861328125,0.35064697265625,0.888885498046875,0.278839111328125
1726407229784303600,3.9343037109375,0.3403778076171875,0.878265380859375,0.279632568359375
1726407229794299600,3.944299560546875,0.3285064697265625,0.862274169921875,0.28070068359375
1726407229804295400,3.95429541015625,0.326171875,0.8506317138671875,0.2779693603515625
1726407229814291700,3.964291748046875,0.335968017578125,0.853851318359375,0.2809295654296875
1726407229824287700,3.974287841796875,0.34393310546875,0.8705291748046875,0.29608154296875
1726407229834283500,3.984283447265625,0.352813720703125,0.8822784423828125,0.299102783203125
1726407229844279600,3.994279541015625,0.363922119140625,0.8861846923828125,0.302703857421875
1726407229854275600,4.004275634765625,0.367889404296875,0.8938446044921875,0.30804443359375
1726407229864271600,4.014271728515625,0.36138916015625,0.8954620361328125,0.3072052001953125
1726407229874267600,4.024267578125,0.357147216796875,0.89312744140625,0.30609130859375
1726407229884263700,4.034263671875,0.350830078125,0.8845367431640625,0.305450439453125
1726407229894259700,4.044259765625,0.35052490234375,0.8734893798828125,0.3017425537109375
1726407229904255700,4.054255859375,0.353668212890625,0.878997802734375,0.3095245361328125
1726407229914251500,4.06425146484375,0.3647003173828125,0.90234375,0.33221435546875
1726407229924247800,4.074247802734375,0.364105224609375,0.90716552734375,0.346343994140625
1726407229934243600,4.08424365234375,0.3531951904296875,0.8942413330078125,0.3533782958984375
1726407229944239600,4.094239501953125,0.335418701171875,0.8737335205078125,0.3462066650390625
1726407229954235600,4.104235595703125,0.3190460205078125,0.8491058349609375,0.3444061279296875
1726407229964231700,4.114231689453125,0.3084564208984375,0.827911376953125,0.3451995849609375
1726407229974227700,4.124227783203125,0.3129730224609375,0.822174072265625,0.337615966796875
1726407229984224500,4.134224609375,0.331878662109375,0.8361053466796875,0.3318328857421875
1726407229994220800,4.144220703125,0.356201171875,0.8538970947265625,0.327392578125
1726407230004216600,4.154216552734375,0.371337890625,0.8642120361328125,0.3213348388671875
1726407230014212600,4.164212646484375,0.3844451904296875,0.8652191162109375,0.31842041015625
1726407230024208600,4.174208740234375,0.390380859375,0.8492431640625,0.31439208984375
1726407230034204700,4.18420458984375,0.382080078125,0.84088134765625,0.3056488037109375
1726407230044200700,4.19420068359375,0.3700408935546875,0.84039306640625,0.3081207275390625
1726407230054196500,4.204196533203125,0.3586273193359375,0.8506927490234375,0.31182861328125
1726407230064192500,4.214192626953125,0.348388671875,0.863250732421875,0.3211822509765625
1726407230074188800,4.224188720703125,0.3409423828125,0.8744659423828125,0.3297882080078125
1726407230084184600,4.2341845703125,0.342803955078125,0.8893585205078125,0.3409271240234375
1726407230094180600,4.2441806640625,0.3563385009765625,0.9063873291015625,0.3508758544921875
1726407230104176600,4.2541767578125,0.3672332763671875,0.9217529296875,0.3574981689453125
1726407230114172700,4.264172607421875,0.362457275390625,0.9186553955078125,0.3634185791015625
1726407230124169000,4.2741689453125,0.35711669921875,0.90789794921875,0.3524627685546875
1726407230134164700,4.284164794921875,0.360321044921875,0.91717529296875,0.353179931640625
1726407230144160800,4.294160888671875,0.364837646484375,0.9337310791015625,0.3514251708984375
1726407230154156800,4.30415673828125,0.3552093505859375,0.930511474609375,0.35504150390625
1726407230164152800,4.31415283203125,0.3356170654296875,0.910400390625,0.3491973876953125
1726407230174148900,4.32414892578125,0.3100433349609375,0.8837738037109375,0.3323516845703125
1726407230184144600,4.33414453125,0.299896240234375,0.868896484375,0.3255767822265625
1726407230194141000,4.344140869140625,0.292388916015625,0.8693084716796875,0.3170318603515625
1726407230204137000,4.354136962890625,0.2902984619140625,0.8727264404296875,0.30987548828125
1726407230214132700,4.3641328125,0.28802490234375,0.881011962890625,0.3113861083984375
1726407230224128800,4.374128662109375,0.27923583984375,0.8802032470703125,0.317596435546875
1726407230234125800,4.384125732421875,0.2738037109375,0.8714447021484375,0.3236846923828125
1726407230244121900,4.394121826171875,0.2757568359375,0.878326416015625,0.3344268798828125
1726407230254117600,4.40411767578125,0.2819976806640625,0.889892578125,0.3483123779296875
1726407230264114000,4.414114013671875,0.2829437255859375,0.9000244140625,0.36199951171875
1726407230274110000,4.42410986328125,0.277191162109375,0.8974456787109375,0.375030517578125
1726407230284105700,4.434105712890625,0.270904541015625,0.8809051513671875,0.38720703125
1726407230294101800,4.444101806640625,0.2659454345703125,0.866973876953125,0.3973846435546875
1726407230304097800,4.454097900390625,0.268798828125,0.8590087890625,0.403839111328125
1726407230314093800,4.46409375,0.279449462890625,0.8530731201171875,0.4137420654296875
1726407230324089900,4.47408984375,0.2922515869140625,0.8591461181640625,0.4251708984375
1726407230334085600,4.484085693359375,0.2965850830078125,0.861083984375,0.43109130859375
1726407230344082000,4.49408203125,0.296478271484375,0.8545684814453125,0.4384307861328125
1726407230354077700,4.50407763671875,0.3013153076171875,0.8577423095703125,0.4437408447265625
1726407230364073700,4.51407373046875,0.300933837890625,0.8712158203125,0.4479522705078125
1726407230374070000,4.524070068359375,0.2921295166015625,0.8713836669921875,0.4518280029296875
1726407230384065800,4.534065673828125,0.2846527099609375,0.8620758056640625,0.449615478515625
1726407230394061800,4.544061767578125,0.2744293212890625,0.852874755859375,0.4451141357421875
1726407230404057900,4.554057861328125,0.2664031982421875,0.8390960693359375,0.4367828369140625
1726407230414054000,4.564053955078125,0.264068603515625,0.8337554931640625,0.4262847900390625
1726407230424050000,4.5740498046875,0.2700347900390625,0.8343505859375,0.4150390625
1726407230434045700,4.584045654296875,0.277435302734375,0.834136962890625,0.4034881591796875
1726407230444041700,4.594041748046875,0.28094482421875,0.8285064697265625,0.39324951171875
1726407230454038000,4.6040380859375,0.2880859375,0.829498291015625,0.387298583984375
1726407230464033800,4.61403369140625,0.297882080078125,0.8434906005859375,0.39251708984375
1726407230474029800,4.62402978515625,0.30792236328125,0.8715972900390625,0.40478515625
1726407230484025600,4.634025634765625,0.3035888671875,0.8902130126953125,0.4063720703125
1726407230494022000,4.64402197265625,0.2927398681640625,0.8936004638671875,0.394561767578125
1726407230504018700,4.654018798828125,0.276123046875,0.8809814453125,0.3790435791015625
1726407230514014700,4.6640146484375,0.2630462646484375,0.861541748046875,0.3588409423828125
1726407230524011000,4.674010986328125,0.2568511962890625,0.843231201171875,0.3480072021484375
1726407230534006800,4.6840068359375,0.2511749267578125,0.8261260986328125,0.3474884033203125
1726407230544002800,4.6940029296875,0.250518798828125,0.8197479248046875,0.3502197265625
1726407230553998600,4.70399853515625,0.26068115234375,0.8256072998046875,0.3578948974609375
1726407230563995000,4.713994873046875,0.27435302734375,0.8338623046875,0.3689117431640625
1726407230573991000,4.723990966796875,0.2849884033203125,0.83489990234375,0.376373291015625
1726407230583986700,4.733986572265625,0.287750244140625,0.838653564453125,0.3804779052734375
1726407230593982700,4.743982666015625,0.29730224609375,0.867279052734375,0.387298583984375
1726407230603978800,4.753978759765625,0.3119354248046875,0.9136505126953125,0.4033966064453125
1726407230613974800,4.763974853515625,0.3172607421875,0.9429168701171875,0.41455078125
1726407230623970800,4.773970703125,0.33551025390625,0.9600372314453125,0.42584228515625
1726407230633966800,4.783966796875,0.3536224365234375,0.9642333984375,0.4379425048828125
1726407230643963000,4.793962890625,0.3500213623046875,0.9411773681640625,0.433319091796875
1726407230653959000,4.803958984375,0.325958251953125,0.899261474609375,0.4048614501953125
1726407230663954700,4.81395458984375,0.327667236328125,0.88897705078125,0.374481201171875
1726407230673951000,4.823950927734375,0.3703155517578125,0.90350341796875,0.3385162353515625
1726407230683946800,4.83394677734375,0.3755340576171875,0.8952789306640625,0.3225250244140625
1726407230693942800,4.84394287109375,0.3499298095703125,0.877349853515625,0.3212890625
1726407230703938800,4.853938720703125,0.3210601806640625,0.86981201171875,0.3196258544921875
1726407230713934800,4.863934814453125,0.3139190673828125,0.8683013916015625,0.3210601806640625
1726407230723931000,4.873930908203125,0.3282318115234375,0.87701416015625,0.3289794921875
1726407230733926700,4.8839267578125,0.330078125,0.868255615234375,0.3459320068359375
1726407230743922700,4.893922607421875,0.3176422119140625,0.8499298095703125,0.35260009765625
1726407230753919000,4.9039189453125,0.3041534423828125,0.832000732421875,0.375640869140625
1726407230763914800,4.913914794921875,0.2895355224609375,0.8103485107421875,0.389129638671875
1726407230773910800,4.923910888671875,0.272064208984375,0.799224853515625,0.404937744140625
1726407230783907800,4.933907958984375,0.26251220703125,0.7962188720703125,0.4189605712890625
1726407230793903900,4.94390380859375,0.26959228515625,0.8072509765625,0.4215240478515625
1726407230803899600,4.953899658203125,0.300048828125,0.8267822265625,0.429046630859375
1726407230813895700,4.963895751953125,0.3372039794921875,0.8521881103515625,0.431976318359375
1726407230823892000,4.97389208984375,0.3642578125,0.86383056640625,0.42852783203125
1726407230833887700,4.9838876953125,0.3753814697265625,0.86212158203125,0.394500732421875
1726407230843883800,4.9938837890625,0.373779296875,0.845001220703125,0.358673095703125
1726407230853879800,5.0038798828125,0.367401123046875,0.8287506103515625,0.3393096923828125
1726407230863875800,5.013875732421875,0.3633575439453125,0.82818603515625,0.3236846923828125
1726407230873872000,5.023871826171875,0.354522705078125,0.8364105224609375,0.3254241943359375
1726407230883867600,5.03386767578125,0.3393096923828125,0.84149169921875,0.329132080078125
1726407230893864000,5.043864013671875,0.331634521484375,0.8515625,0.338409423828125
1726407230903860000,5.05385986328125,0.3278045654296875,0.865081787109375,0.3596343994140625
1726407230913855700,5.063855712890625,0.334991455078125,0.8861541748046875,0.3796844482421875
1726407230923851800,5.073851806640625,0.3504486083984375,0.9029083251953125,0.4025726318359375
1726407230933847800,5.083847900390625,0.36279296875,0.917938232421875,0.417877197265625
1726407230943843800,5.09384375,0.3636932373046875,0.9111175537109375,0.4327850341796875
1726407230953839900,5.10383984375,0.368194580078125,0.90484619140625,0.4478607177734375
1726407230963835600,5.113835693359375,0.3736419677734375,0.9059295654296875,0.446990966796875
1726407230973832000,5.12383203125,0.371978759765625,0.89459228515625,0.4484405517578125
1726407230983827700,5.13382763671875,0.3563690185546875,0.8726043701171875,0.442413330078125
1726407230993823700,5.14382373046875,0.3412322998046875,0.8489990234375,0.425506591796875
1726407231003819800,5.15381982421875,0.3323974609375,0.8260650634765625,0.4134979248046875
1726407231013815800,5.16381591796875,0.3245849609375,0.7988433837890625,0.400543212890625
1726407231023811800,5.173811767578125,0.3238983154296875,0.7907867431640625,0.38592529296875
1726407231033808000,5.183807861328125,0.3247222900390625,0.7874298095703125,0.381103515625
1726407231043803600,5.1938037109375,0.3355712890625,0.7960205078125,0.384735107421875
1726407231053800000,5.203800048828125,0.350250244140625,0.8021392822265625,0.38787841796875
1726407231063796700,5.213796630859375,0.3676300048828125,0.8273162841796875,0.38983154296875
1726407231073792800,5.223792724609375,0.384124755859375,0.8525390625,0.3951263427734375
1726407231083788800,5.233788818359375,0.3880767822265625,0.8694305419921875,0.3920135498046875
1726407231093784800,5.243784912109375,0.39093017578125,0.8528900146484375,0.3773040771484375
1726407231103780900,5.25378076171875,0.386077880859375,0.8349761962890625,0.370574951171875
1726407231113777000,5.26377685546875,0.373809814453125,0.81561279296875,0.3575592041015625
1726407231123773200,5.273773193359375,0.3664093017578125,0.8025970458984375,0.350616455078125
1726407231133769000,5.28376904296875,0.355987548828125,0.80914306640625,0.3648223876953125
1726407231143765200,5.29376513671875,0.344573974609375,0.8280487060546875,0.38104248046875
1726407231153761000,5.303760986328125,0.3385009765625,0.83587646484375,0.374359130859375
1726407231163757000,5.313757080078125,0.3437042236328125,0.8373260498046875,0.3817291259765625
1726407231173753300,5.32375341796875,0.3578643798828125,0.8475494384765625,0.379852294921875
1726407231183749000,5.3337490234375,0.3650054931640625,0.8532867431640625,0.370330810546875
1726407231193745200,5.3437451171875,0.375152587890625,0.8649139404296875,0.36083984375
1726407231203741200,5.3537412109375,0.3813629150390625,0.879302978515625,0.372314453125
1726407231213737200,5.3637373046875,0.3806610107421875,0.882598876953125,0.3739166259765625
1726407231223733200,5.373733154296875,0.367218017578125,0.8643951416015625,0.356964111328125
1726407231233729000,5.38372900390625,0.36114501953125,0.8325653076171875,0.3443450927734375
1726407231243725000,5.39372509765625,0.3601226806640625,0.8260498046875,0.347808837890625
1726407231253721300,5.403721435546875,0.3568878173828125,0.82952880859375,0.375030517578125
1726407231263717000,5.413717041015625,0.35491943359375,0.8328704833984375,0.37884521484375
1726407231273713200,5.423713134765625,0.3483428955078125,0.833526611328125,0.38067626953125
1726407231283709000,5.433708984375,0.3418426513671875,0.8368988037109375,0.368865966796875
1726407231293705200,5.443705322265625,0.34210205078125,0.8411712646484375,0.379302978515625
1726407231303701200,5.453701171875,0.3411865234375,0.85394287109375,0.392852783203125
1726407231313697000,5.463697021484375,0.3453216552734375,0.869171142578125,0.3919830322265625
1726407231323693000,5.473693115234375,0.3351593017578125,0.8643646240234375,0.3978271484375
1726407231333689000,5.483689208984375,0.327056884765625,0.8622894287109375,0.3982391357421875
1726407231343686100,5.49368603515625,0.3169708251953125,0.8500518798828125,0.3939666748046875
1726407231353682000,5.503681884765625,0.305389404296875,0.8214263916015625,0.381072998046875
1726407231363678200,5.51367822265625,0.3012847900390625,0.8148956298828125,0.394134521484375
1726407231373674200,5.52367431640625,0.302001953125,0.8246917724609375,0.39703369140625
1726407231383670000,5.533669921875,0.3012237548828125,0.823455810546875,0.4027252197265625
1726407231393666000,5.543666015625,0.3061981201171875,0.8319244384765625,0.40533447265625
1726407231403662000,5.553662109375,0.316650390625,0.834442138671875,0.40069580078125
1726407231413658000,5.563658203125,0.330780029296875,0.83740234375,0.4005279541015625
1726407231423654100,5.573654052734375,0.3422393798828125,0.8443603515625,0.4019775390625
1726407231433650200,5.583650146484375,0.350067138671875,0.851165771484375,0.40045166015625
1726407231443646200,5.593646240234375,0.351043701171875,0.8509521484375,0.40765380859375
1726407231453642200,5.603642333984375,0.346038818359375,0.8588714599609375,0.4164581298828125
1726407231463638000,5.613637939453125,0.3304290771484375,0.8595123291015625,0.42205810546875
1726407231473634300,5.62363427734375,0.3099365234375,0.8504180908203125,0.4201202392578125
1726407231483630000,5.633630126953125,0.2915802001953125,0.856292724609375,0.4089813232421875
1726407231493626000,5.643626220703125,0.282257080078125,0.8773651123046875,0.3866729736328125
1726407231503622100,5.6536220703125,0.286102294921875,0.8973541259765625,0.366302490234375
1726407231513618200,5.6636181640625,0.29302978515625,0.905487060546875,0.34478759765625
1726407231523614200,5.6736142578125,0.2945556640625,0.9033966064453125,0.315582275390625
1726407231533610000,5.68360986328125,0.2977447509765625,0.9029083251953125,0.29241943359375
1726407231543606000,5.69360595703125,0.298614501953125,0.9047698974609375,0.2803802490234375
1726407231553602300,5.703602294921875,0.2996368408203125,0.9036712646484375,0.2729644775390625
1726407231563598000,5.71359814453125,0.298980712890625,0.9033355712890625,0.2740325927734375
1726407231573594000,5.723593994140625,0.2909698486328125,0.890838623046875,0.2891998291015625
1726407231583590100,5.733590087890625,0.2902069091796875,0.8623809814453125,0.317291259765625
1726407231593586200,5.743586181640625,0.2993011474609375,0.85400390625,0.34912109375
1726407231603582200,5.753582275390625,0.311431884765625,0.856903076171875,0.374298095703125
1726407231613578000,5.763577880859375,0.3254547119140625,0.8648681640625,0.3841705322265625
1726407231623574300,5.77357421875,0.337310791015625,0.8759613037109375,0.3847198486328125
1726407231633570300,5.7835703125,0.3454132080078125,0.8833770751953125,0.383087158203125
1726407231643567000,5.793567138671875,0.344635009765625,0.8858489990234375,0.3802490234375
1726407231653563100,5.803563232421875,0.34088134765625,0.8926239013671875,0.370941162109375
1726407231663559200,5.81355908203125,0.33740234375,0.9030303955078125,0.357666015625
1726407231673555200,5.82355517578125,0.3305816650390625,0.908782958984375,0.3440093994140625
1726407231683551000,5.833551025390625,0.3196258544921875,0.898529052734375,0.33013916015625
1726407231693547300,5.84354736328125,0.316192626953125,0.8790435791015625,0.316375732421875
1726407231703543300,5.853543212890625,0.32183837890625,0.86309814453125,0.3129730224609375
1726407231713539000,5.8635390625,0.33099365234375,0.8710784912109375,0.322235107421875
1726407231723535000,5.87353515625,0.3266448974609375,0.8693695068359375,0.3202362060546875
1726407231733531100,5.88353125,0.3209686279296875,0.8530731201171875,0.322052001953125
1726407231743527200,5.893527099609375,0.3220062255859375,0.8451995849609375,0.321197509765625
1726407231753523200,5.903523193359375,0.3283538818359375,0.85662841796875,0.3275146484375
1726407231763519000,5.91351904296875,0.3299102783203125,0.8704681396484375,0.334930419921875
1726407231773515300,5.923515380859375,0.3307647705078125,0.879058837890625,0.33599853515625
1726407231783511000,5.933510986328125,0.3339385986328125,0.8825531005859375,0.3444976806640625
1726407231793507000,5.943507080078125,0.33270263671875,0.8860931396484375,0.360626220703125
1726407231803503000,5.953503173828125,0.3286590576171875,0.8865814208984375,0.3709716796875
1726407231813499100,5.9634990234375,0.323944091796875,0.877349853515625,0.3796844482421875
1726407231823495200,5.9734951171875,0.3147735595703125,0.8674774169921875,0.3849029541015625
1726407231833491200,5.9834912109375,0.3073577880859375,0.8626708984375,0.375701904296875
1726407231843487200,5.9934873046875,0.3062591552734375,0.864593505859375,0.3791046142578125
1726407231853483300,6.003483154296875,0.307891845703125,0.8831634521484375,0.3828887939453125
1726407231863479000,6.01347900390625,0.3118438720703125,0.8980255126953125,0.3840179443359375
1726407231873475000,6.02347509765625,0.3177947998046875,0.9151611328125,0.384368896484375
1726407231883471400,6.033471435546875,0.32232666015625,0.9261474609375,0.3771209716796875
1726407231893467100,6.043467041015625,0.3227691650390625,0.9235076904296875,0.3615570068359375
1726407231903463200,6.053463134765625,0.3224029541015625,0.9025726318359375,0.3379974365234375
1726407231913459000,6.063458984375,0.326873779296875,0.8809661865234375,0.32110595703125
1726407231923455200,6.073455322265625,0.336212158203125,0.873687744140625,0.3139190673828125
1726407231933451300,6.083451171875,0.3408355712890625,0.876007080078125,0.3152923583984375
1726407231943448000,6.093447998046875,0.34375,0.88720703125,0.3161163330078125
1726407231953444400,6.1034443359375,0.3433685302734375,0.8990325927734375,0.311767578125
1726407231963440000,6.113440185546875,0.334228515625,0.8931121826171875,0.3104705810546875
1726407231973436200,6.123436279296875,0.31304931640625,0.8707275390625,0.3130340576171875
1726407231983432000,6.133431884765625,0.2929229736328125,0.8416748046875,0.314422607421875
1726407231993428200,6.14342822265625,0.29046630859375,0.8363037109375,0.3210906982421875
1726407232003424300,6.15342431640625,0.3002471923828125,0.8555755615234375,0.342864990234375
1726407232013420000,6.163419921875,0.3153839111328125,0.88836669921875,0.373870849609375
1726407232023416000,6.173416015625,0.31915283203125,0.9102630615234375,0.3959197998046875
1726407232033412000,6.183412109375,0.3111419677734375,0.9156341552734375,0.406829833984375
1726407232043408100,6.193408203125,0.30523681640625,0.9141082763671875,0.414886474609375
1726407232053404200,6.203404052734375,0.30633544921875,0.9170074462890625,0.425567626953125
1726407232063400000,6.21339990234375,0.309967041015625,0.9206085205078125,0.431121826171875
1726407232073396200,6.223396240234375,0.314727783203125,0.9223480224609375,0.4333038330078125
1726407232083392300,6.233392333984375,0.3152313232421875,0.91864013671875,0.4328460693359375
1726407232093388000,6.243387939453125,0.309539794921875,0.9025115966796875,0.4174346923828125
1726407232103384300,6.25338427734375,0.29803466796875,0.8846282958984375,0.4004364013671875
1726407232113380000,6.263380126953125,0.2912445068359375,0.8712158203125,0.376678466796875
1726407232123375900,6.2733759765625,0.2825927734375,0.856964111328125,0.355682373046875
1726407232133372000,6.283371826171875,0.27154541015625,0.842620849609375,0.3375091552734375
1726407232143368000,6.293367919921875,0.2665557861328125,0.834320068359375,0.3313751220703125
1726407232153364000,6.303364013671875,0.25494384765625,0.8291168212890625,0.3379058837890625
1726407232163360000,6.313360107421875,0.2393646240234375,0.8318023681640625,0.3481597900390625
1726407232173355800,6.323355712890625,0.2245941162109375,0.8395233154296875,0.366973876953125
1726407232183352000,6.33335205078125,0.2204742431640625,0.85302734375,0.3852081298828125
1726407232193347800,6.343347900390625,0.2180328369140625,0.8680267333984375,0.4041290283203125
1726407232203344000,6.35334375,0.2241363525390625,0.8776397705078125,0.42327880859375
1726407232213340200,6.363340087890625,0.2380218505859375,0.8827362060546875,0.4370880126953125
1726407232223336000,6.3733359375,0.25250244140625,0.8830108642578125,0.4510040283203125
1726407232233332000,6.38333203125,0.264129638671875,0.87750244140625,0.4674224853515625
1726407232243327700,6.39332763671875,0.2743988037109375,0.86663818359375,0.4785003662109375
1726407232253324000,6.403323974609375,0.272491455078125,0.8500213623046875,0.4837799072265625
1726407232263320800,6.41332080078125,0.2685089111328125,0.82904052734375,0.48260498046875
1726407232273316900,6.42331689453125,0.2722625732421875,0.8235015869140625,0.4816741943359375
1726407232283313200,6.433313232421875,0.2742156982421875,0.81427001953125,0.4795989990234375
1726407232293309000,6.443308837890625,0.2771759033203125,0.8093414306640625,0.481231689453125
1726407232303305000,6.453304931640625,0.285064697265625,0.8115234375,0.4810638427734375
1726407232313300700,6.46330078125,0.289154052734375,0.8148040771484375,0.4775848388671875
1726407232323297000,6.473297119140625,0.2814483642578125,0.813262939453125,0.4729766845703125
1726407232333293000,6.48329296875,0.2731170654296875,0.811920166015625,0.4663543701171875
1726407232343288800,6.493288818359375,0.2701263427734375,0.8102874755859375,0.457916259765625
1726407232353284900,6.503284912109375,0.263580322265625,0.8040924072265625,0.4538726806640625
1726407232363281000,6.513281005859375,0.262664794921875,0.8066558837890625,0.4557037353515625
1726407232373277000,6.52327685546875,0.2608642578125,0.811187744140625,0.46197509765625
1726407232383273000,6.53327294921875,0.2509613037109375,0.815216064453125,0.4769134521484375
1726407232393268700,6.543268798828125,0.23553466796875,0.8087158203125,0.4875946044921875
1726407232403265000,6.55326513671875,0.2224884033203125,0.79339599609375,0.492034912109375
1726407232413261000,6.563260986328125,0.203369140625,0.7803955078125,0.4928741455078125
1726407232423256800,6.5732568359375,0.1887664794921875,0.7800445556640625,0.493438720703125
1726407232433253000,6.583253173828125,0.1844024658203125,0.7935791015625,0.4919891357421875
1726407232443249000,6.593248779296875,0.1951904296875,0.823394775390625,0.48272705078125
1726407232453245000,6.603244873046875,0.2178802490234375,0.85650634765625,0.47796630859375
1726407232463241000,6.613240966796875,0.246795654296875,0.8885040283203125,0.4704742431640625
1726407232473237000,6.623237060546875,0.263458251953125,0.89642333984375,0.461944580078125
1726407232483233000,6.63323291015625,0.2698822021484375,0.90081787109375,0.46136474609375
1726407232493228800,6.643228759765625,0.265533447265625,0.906524658203125,0.461883544921875
1726407232503224800,6.653224853515625,0.2646942138671875,0.9161529541015625,0.45440673828125
1726407232513221000,6.66322119140625,0.2670135498046875,0.92681884765625,0.4434967041015625
1726407232523217000,6.673216796875,0.2689208984375,0.9377899169921875,0.4383544921875
1726407232533213000,6.683212890625,0.2710723876953125,0.925933837890625,0.4307861328125
1726407232543209000,6.693208984375,0.2981414794921875,0.90960693359375,0.431976318359375
1726407232553205000,6.703205078125,0.3728790283203125,0.889312744140625,0.4417572021484375
1726407232563201000,6.713200927734375,0.420562744140625,0.84857177734375,0.433258056640625
1726407232573196800,6.72319677734375,0.4209442138671875,0.8172149658203125,0.40185546875
1726407232583192800,6.73319287109375,0.3855438232421875,0.8109283447265625,0.35772705078125
1726407232593190000,6.74318994140625,0.332550048828125,0.82098388671875,0.3187408447265625
1726407232603186000,6.75318603515625,0.292938232421875,0.850372314453125,0.3078765869140625
1726407232613182000,6.763181884765625,0.2781219482421875,0.8701019287109375,0.300445556640625
1726407232623178000,6.773177978515625,0.280364990234375,0.8713531494140625,0.28802490234375
1726407232633174000,6.783174072265625,0.29571533203125,0.868896484375,0.2601470947265625
1726407232643169800,6.793169677734375,0.3106842041015625,0.87286376953125,0.2700653076171875
1726407232653165800,6.803165771484375,0.321563720703125,0.86395263671875,0.2859649658203125
1726407232663162000,6.813162109375,0.321502685546875,0.8429412841796875,0.2935791015625
1726407232673158000,6.823157958984375,0.3246917724609375,0.821380615234375,0.3093719482421875
1726407232683154000,6.83315380859375,0.3333282470703125,0.8109893798828125,0.3330230712890625
1726407232693150000,6.84314990234375,0.33905029296875,0.8213348388671875,0.357269287109375
1726407232703146000,6.85314599609375,0.350982666015625,0.835662841796875,0.384552001953125
1726407232713142000,6.86314208984375,0.366973876953125,0.8592529296875,0.414825439453125
1726407232723137800,6.8731376953125,0.379852294921875,0.872894287109375,0.4386138916015625
1726407232733134000,6.883134033203125,0.386688232421875,0.8759307861328125,0.47119140625
1726407232743129900,6.8931298828125,0.3851318359375,0.8800048828125,0.506103515625
1726407232753126000,6.9031259765625,0.3772735595703125,0.8760986328125,0.5388946533203125
1726407232763122000,6.913121826171875,0.3600616455078125,0.8670196533203125,0.555328369140625
1726407232773118000,6.923117919921875,0.3355255126953125,0.855987548828125,0.5736083984375
1726407232783114000,6.933114013671875,0.3074798583984375,0.8485107421875,0.5893402099609375
1726407232793110000,6.943110107421875,0.2775421142578125,0.8385467529296875,0.593597412109375
1726407232803105800,6.953105712890625,0.25531005859375,0.8234405517578125,0.585418701171875
1726407232813102000,6.96310205078125,0.252777099609375,0.7988128662109375,0.56292724609375
1726407232823097900,6.973097900390625,0.263031005859375,0.773681640625,0.527984619140625
1726407232833094000,6.983093994140625,0.2824249267578125,0.76312255859375,0.4927520751953125
1726407232843090000,6.99308984375,0.3090667724609375,0.7709503173828125,0.45635986328125
1726407232853086000,7.0030859375,0.33282470703125,0.788909912109375,0.4373931884765625
1726407232863082000,7.01308203125,0.3508148193359375,0.8117828369140625,0.421905517578125
1726407232873077800,7.023077880859375,0.3679962158203125,0.8328399658203125,0.3988189697265625
1726407232883074000,7.033073974609375,0.38153076171875,0.847625732421875,0.375335693359375
1726407232893070000,7.043070068359375,0.393096923828125,0.8525390625,0.36553955078125
1726407232903067000,7.05306689453125,0.394378662109375,0.8516693115234375,0.356048583984375
1726407232913063200,7.063063232421875,0.388092041015625,0.8426055908203125,0.356719970703125
1726407232923059000,7.073058837890625,0.3796539306640625,0.84515380859375,0.3497772216796875
1726407232933055000,7.083054931640625,0.36785888671875,0.84661865234375,0.3591461181640625
1726407232943050800,7.09305078125,0.359954833984375,0.8379058837890625,0.360382080078125
1726407232953047000,7.103047119140625,0.35382080078125,0.8326263427734375,0.3753204345703125
1726407232963043000,7.11304296875,0.3438873291015625,0.827423095703125,0.39373779296875
1726407232973038800,7.123038818359375,0.33697509765625,0.81591796875,0.3993682861328125
1726407232983035000,7.133034912109375,0.330535888671875,0.8101806640625,0.4070281982421875
1726407232993031000,7.143031005859375,0.341552734375,0.8226776123046875,0.426727294921875
1726407233003027000,7.15302685546875,0.3505859375,0.8245391845703125,0.431854248046875
1726407233013023000,7.16302294921875,0.35711669921875,0.8257904052734375,0.428131103515625
1726407233023018800,7.173018798828125,0.3741302490234375,0.835418701171875,0.4342498779296875
1726407233033015000,7.18301513671875,0.394500732421875,0.83966064453125,0.430511474609375
1726407233043011000,7.193010986328125,0.3955841064453125,0.8333740234375,0.408782958984375
1726407233053006800,7.2030068359375,0.3927001953125,0.82562255859375,0.386383056640625
1726407233063003000,7.2130029296875,0.3914947509765625,0.82025146484375,0.3647918701171875
1726407233072999000,7.2229990234375,0.39404296875,0.8115386962890625,0.3473968505859375
1726407233082995000,7.232994873046875,0.4084930419921875,0.837890625,0.3404998779296875
1726407233092991000,7.242990966796875,0.4193115234375,0.8597259521484375,0.333282470703125
1726407233102987000,7.252987060546875,0.421722412109375,0.8717498779296875,0.3311004638671875
1726407233112983000,7.262983154296875,0.41436767578125,0.883270263671875,0.3297576904296875
1726407233122979000,7.27297900390625,0.4163360595703125,0.8884429931640625,0.329833984375
1726407233132975000,7.28297509765625,0.4103546142578125,0.877716064453125,0.3448944091796875
1726407233142971400,7.292971435546875,0.4039459228515625,0.86895751953125,0.35638427734375
1726407233152967200,7.30296728515625,0.3690032958984375,0.8507843017578125,0.3896026611328125
1726407233162963200,7.312963134765625,0.3220977783203125,0.81048583984375,0.4175872802734375
1726407233172959000,7.322958984375,0.2837371826171875,0.7873077392578125,0.4479827880859375
1726407233182955300,7.332955322265625,0.243194580078125,0.7766876220703125,0.4610137939453125
1726407233192951300,7.342951416015625,0.197113037109375,0.7845306396484375,0.5024566650390625
1726407233202947000,7.352947021484375,0.187835693359375,0.807159423828125,0.5164031982421875
1726407233212943000,7.362943115234375,0.197784423828125,0.8253936767578125,0.505645751953125
1726407233222939100,7.372939208984375,0.235595703125,0.83489990234375,0.4943695068359375
1726407233232936200,7.382936279296875,0.28094482421875,0.83746337890625,0.4680938720703125
1726407233242932000,7.392931884765625,0.3251953125,0.830322265625,0.4285125732421875
1726407233252928300,7.40292822265625,0.358856201171875,0.807830810546875,0.403900146484375
1726407233262924300,7.41292431640625,0.3748016357421875,0.7859039306640625,0.3854217529296875
1726407233272920000,7.422920166015625,0.3692779541015625,0.7755889892578125,0.3962860107421875
1726407233282916000,7.432916015625,0.344573974609375,0.7733306884765625,0.4116058349609375
1726407233292912000,7.442912109375,0.303985595703125,0.770751953125,0.423004150390625
1726407233302908200,7.452908203125,0.2640228271484375,0.7630767822265625,0.4133148193359375
1726407233312904200,7.462904296875,0.242767333984375,0.7542724609375,0.3953399658203125
1726407233322900200,7.472900146484375,0.24005126953125,0.7809600830078125,0.41278076171875
1726407233332896300,7.482896240234375,0.2506866455078125,0.80902099609375,0.4111785888671875
1726407233342892300,7.492892333984375,0.265380859375,0.8414459228515625,0.3914642333984375
1726407233352888000,7.50288818359375,0.2713775634765625,0.856781005859375,0.382476806640625
1726407233362884400,7.51288427734375,0.27801513671875,0.8510894775390625,0.378936767578125
1726407233372880100,7.522880126953125,0.28009033203125,0.8441619873046875,0.376922607421875
1726407233382876200,7.532876220703125,0.2772064208984375,0.818115234375,0.370941162109375
1726407233392872200,7.5428720703125,0.273895263671875,0.7938232421875,0.3817138671875
1726407233402868200,7.5528681640625,0.2729034423828125,0.7855987548828125,0.406005859375
1726407233412864300,7.5628642578125,0.270233154296875,0.7927703857421875,0.4371185302734375
1726407233422860000,7.572860107421875,0.276336669921875,0.81890869140625,0.4638824462890625
1726407233432856000,7.58285595703125,0.2884063720703125,0.8614959716796875,0.4716644287109375
1726407233442852400,7.592852294921875,0.3037567138671875,0.91436767578125,0.4694061279296875
1726407233452848000,7.60284814453125,0.3453826904296875,0.9531402587890625,0.4320526123046875
1726407233462844200,7.61284423828125,0.3823089599609375,0.980987548828125,0.380157470703125
1726407233472840200,7.622840087890625,0.4071807861328125,0.97760009765625,0.32794189453125
1726407233482836200,7.632836181640625,0.41943359375,0.9388427734375,0.2904205322265625
1726407233492832300,7.642832275390625,0.41552734375,0.8963623046875,0.2869720458984375
1726407233502828000,7.652828125,0.392486572265625,0.8843841552734375,0.31683349609375
1726407233512824300,7.66282421875,0.3738861083984375,0.9104766845703125,0.3603973388671875
1726407233522820400,7.6728203125,0.3462982177734375,0.9476470947265625,0.394134521484375
1726407233532816100,7.682816162109375,0.320770263671875,0.97882080078125,0.4044189453125
1726407233542812200,7.692812255859375,0.2972259521484375,0.998321533203125,0.4044036865234375
1726407233552808200,7.70280810546875,0.27362060546875,0.9787139892578125,0.384674072265625
1726407233562805200,7.71280517578125,0.260589599609375,0.955535888671875,0.3611907958984375
1726407233572801000,7.722801025390625,0.2517852783203125,0.92474365234375,0.3450164794921875
1726407233582797300,7.73279736328125,0.24407958984375,0.887542724609375,0.327850341796875
1726407233592793300,7.74279345703125,0.2394561767578125,0.85595703125,0.31689453125
1726407233602789000,7.7527890625,0.2408599853515625,0.8430328369140625,0.313568115234375
1726407233612785200,7.76278515625,0.2512664794921875,0.84283447265625,0.3105621337890625
1726407233622781200,7.77278125,0.2737884521484375,0.84722900390625,0.3169097900390625
1726407233632777200,7.782777099609375,0.3059234619140625,0.8570404052734375,0.3313140869140625
1726407233642773200,7.792773193359375,0.338836669921875,0.8632659912109375,0.355926513671875
1726407233652769000,7.80276904296875,0.37054443359375,0.87152099609375,0.3784332275390625
1726407233662765300,7.812765380859375,0.3889617919921875,0.8736724853515625,0.39447021484375
1726407233672761000,7.822760986328125,0.401519775390625,0.87933349609375,0.404876708984375
1726407233682757000,7.832757080078125,0.4024810791015625,0.915008544921875,0.415313720703125
1726407233692753200,7.842753173828125,0.3907318115234375,0.9292144775390625,0.413299560546875
1726407233702749200,7.852749267578125,0.370147705078125,0.933807373046875,0.398590087890625
1726407233712745200,7.8627451171875,0.3443145751953125,0.9273834228515625,0.3831939697265625
1726407233722741200,7.8727412109375,0.318878173828125,0.908843994140625,0.373443603515625
1726407233732737300,7.8827373046875,0.2942352294921875,0.89312744140625,0.36199951171875
1726407233742733300,7.8927333984375,0.2811126708984375,0.883209228515625,0.3446197509765625
1726407233752729000,7.90272900390625,0.2756805419921875,0.8739471435546875,0.327911376953125
1726407233762725000,7.91272509765625,0.281158447265625,0.877532958984375,0.316986083984375
1726407233772721400,7.922721435546875,0.2879791259765625,0.8889923095703125,0.311981201171875
1726407233782717200,7.93271728515625,0.2948455810546875,0.9103851318359375,0.30474853515625
1726407233792713200,7.942713134765625,0.295989990234375,0.9261627197265625,0.303619384765625
1726407233802709000,7.952708984375,0.2855072021484375,0.92919921875,0.303985595703125
1726407233812705300,7.962705322265625,0.2656402587890625,0.91680908203125,0.31231689453125
1726407233822701300,7.972701416015625,0.2418365478515625,0.8939666748046875,0.3246307373046875
1726407233832697000,7.982697021484375,0.2221221923828125,0.874053955078125,0.33563232421875
1726407233842693000,7.992693115234375,0.20953369140625,0.866485595703125,0.3462677001953125
1726407233852689200,8.002689208984375,0.205169677734375,0.8700103759765625,0.3602142333984375
1726407233862685200,8.012685302734376,0.207244873046875,0.87786865234375,0.3658294677734375
1726407233872681200,8.02268115234375,0.2089080810546875,0.88519287109375,0.380859375
1726407233882677000,8.032677001953125,0.2125244140625,0.8949737548828125,0.39251708984375
1726407233892673300,8.04267333984375,0.215362548828125,0.9134521484375,0.4134979248046875
1726407233902669300,8.05266943359375,0.217376708984375,0.9381256103515625,0.4322052001953125
1726407233912666000,8.062666015625,0.2167510986328125,0.943023681640625,0.4366912841796875
1726407233922662100,8.072662109375,0.2116546630859375,0.936309814453125,0.4412078857421875
1726407233932658200,8.082658203125,0.21044921875,0.9208831787109375,0.442413330078125
1726407233942654200,8.092654296875,0.2147216796875,0.89788818359375,0.4421539306640625
1726407233952650000,8.10264990234375,0.2176666259765625,0.8740692138671875,0.4417877197265625
1726407233962646300,8.112646240234374,0.224578857421875,0.8558807373046875,0.4403533935546875
1726407233972642300,8.122642333984375,0.233245849609375,0.8364105224609375,0.4486541748046875
1726407233982638000,8.13263818359375,0.242706298828125,0.807159423828125,0.4586181640625
1726407233992634400,8.14263427734375,0.2598114013671875,0.775115966796875,0.4654541015625
1726407234002630100,8.152630126953126,0.2858734130859375,0.7540130615234375,0.4705657958984375
1726407234012626200,8.162626220703125,0.324005126953125,0.750579833984375,0.47735595703125
1726407234022622200,8.172622314453125,0.361053466796875,0.7682952880859375,0.493316650390625
1726407234032618200,8.1826181640625,0.3895111083984375,0.7867431640625,0.5106658935546875
1726407234042614300,8.1926142578125,0.3900909423828125,0.80780029296875,0.50787353515625
1726407234052610000,8.202610107421876,0.369049072265625,0.8182525634765625,0.4905548095703125
1726407234062606000,8.212606201171875,0.3431396484375,0.8341217041015625,0.4723968505859375
1726407234072602400,8.222602294921876,0.2856903076171875,0.856781005859375,0.435821533203125
1726407234082598100,8.23259814453125,0.2527923583984375,0.878570556640625,0.4063873291015625
1726407234092594200,8.24259423828125,0.2363128662109375,0.8937835693359375,0.3907623291015625
1726407234102590200,8.252590087890624,0.232818603515625,0.9071197509765625,0.3736724853515625
1726407234112586200,8.262586181640625,0.23040771484375,0.9107818603515625,0.360382080078125
1726407234122582000,8.27258203125,0.2272491455078125,0.9028167724609375,0.3505401611328125
1726407234132577800,8.282577880859375,0.2294158935546875,0.8920135498046875,0.3396759033203125
1726407234142573800,8.29257373046875,0.2329254150390625,0.88421630859375,0.3275146484375
1726407234152570000,8.302570068359374,0.24090576171875,0.8795166015625,0.3162384033203125
1726407234162566000,8.31256591796875,0.2541046142578125,0.8853302001953125,0.309295654296875
1726407234172562000,8.32256201171875,0.2645416259765625,0.9072723388671875,0.314178466796875
1726407234182557700,8.3325576171875,0.270751953125,0.9400482177734375,0.32830810546875
1726407234192554000,8.342553955078126,0.2628631591796875,0.97784423828125,0.356964111328125
1726407234202550000,8.352550048828125,0.23345947265625,0.9906768798828125,0.388702392578125
1726407234212545800,8.3625458984375,0.197723388671875,0.9876708984375,0.40582275390625
1726407234222541800,8.372541748046874,0.162689208984375,0.9661407470703125,0.42218017578125
1726407234232538000,8.3825380859375,0.146392822265625,0.9345550537109375,0.433013916015625
1726407234242534000,8.392533935546876,0.1422271728515625,0.9048614501953125,0.4454345703125
1726407234252530700,8.40253076171875,0.14776611328125,0.88177490234375,0.4576416015625
1726407234262527000,8.41252685546875,0.15594482421875,0.8640289306640625,0.470245361328125
1726407234272523000,8.42252294921875,0.1721649169921875,0.8458404541015625,0.476959228515625
1726407234282518800,8.432518798828125,0.1844940185546875,0.8166961669921875,0.48834228515625
1726407234292514800,8.442514892578124,0.18365478515625,0.77716064453125,0.5012359619140625
1726407234302511000,8.452510986328125,0.1964874267578125,0.7544708251953125,0.49822998046875
1726407234312507000,8.4625068359375,0.21612548828125,0.748870849609375,0.499786376953125
1726407234322503000,8.4725029296875,0.2414703369140625,0.751007080078125,0.4931793212890625
1726407234332498700,8.482498779296876,0.273040771484375,0.765167236328125,0.48785400390625
1726407234342495000,8.492494873046875,0.2934722900390625,0.7982025146484375,0.485931396484375
1726407234352491000,8.502490966796875,0.2991180419921875,0.841156005859375,0.4758758544921875
1726407234362486800,8.51248681640625,0.3053436279296875,0.868499755859375,0.4634246826171875
1726407234372482800,8.52248291015625,0.30419921875,0.8844146728515625,0.4470977783203125
1726407234382478800,8.532478759765626,0.2965087890625,0.885345458984375,0.4262542724609375
1726407234392475000,8.542474853515625,0.299041748046875,0.88458251953125,0.411773681640625
1726407234402471000,8.552470947265626,0.3109130859375,0.8815155029296875,0.4247589111328125
1726407234412467000,8.562467041015625,0.3620452880859375,0.88189697265625,0.4279937744140625
1726407234422463000,8.572462890625,0.4153900146484375,0.847412109375,0.4434661865234375
1726407234432458800,8.582458740234374,0.4225006103515625,0.801116943359375,0.461944580078125
1726407234442454800,8.592454833984375,0.38677978515625,0.7753143310546875,0.4672393798828125
1726407234452451000,8.602451171875,0.3293609619140625,0.76580810546875,0.4666900634765625
1726407234462446800,8.61244677734375,0.301605224609375,0.789764404296875,0.44964599609375
1726407234472443000,8.62244287109375,0.302398681640625,0.84881591796875,0.4364166259765625
1726407234482439000,8.63243896484375,0.3051605224609375,0.8867950439453125,0.4058990478515625
1726407234492435000,8.64243505859375,0.29852294921875,0.89630126953125,0.3857574462890625
1726407234502431000,8.652430908203126,0.2861480712890625,0.904693603515625,0.3889617919921875
1726407234512426800,8.6624267578125,0.2830963134765625,0.925201416015625,0.40118408203125
1726407234522422800,8.6724228515625,0.2760772705078125,0.9681549072265625,0.4119110107421875
1726407234532419000,8.682419189453125,0.264007568359375,1.002044677734375,0.4349365234375
1726407234542414800,8.692414794921875,0.239715576171875,1.010528564453125,0.4553375244140625
1726407234552411000,8.702410888671874,0.2017974853515625,0.9933929443359375,0.4555816650390625
1726407234562406700,8.71240673828125,0.171600341796875,0.9539947509765625,0.445587158203125
1726407234572404000,8.722404052734374,0.1585845947265625,0.91070556640625,0.42578125
1726407234582399000,8.73239892578125,0.162750244140625,0.8642120361328125,0.3984832763671875
1726407234592395800,8.742395751953126,0.1840972900390625,0.8289337158203125,0.3734283447265625
1726407234602392000,8.75239208984375,0.210906982421875,0.8130035400390625,0.3599853515625
1726407234612387800,8.762387939453125,0.2386932373046875,0.8065032958984375,0.3591156005859375
1726407234622383900,8.7723837890625,0.2694549560546875,0.794586181640625,0.3578643798828125
1726407234632380000,8.7823798828125,0.28839111328125,0.782379150390625,0.3490142822265625
1726407234642376000,8.7923759765625,0.3149566650390625,0.7725067138671875,0.3521881103515625
1726407234652372000,8.8023720703125,0.3449859619140625,0.771270751953125,0.3576202392578125
1726407234662367700,8.81236767578125,0.3748779296875,0.7824554443359375,0.365753173828125
1726407234672364000,8.822364013671875,0.393585205078125,0.7978668212890625,0.3764190673828125
1726407234682359800,8.83235986328125,0.4063262939453125,0.80908203125,0.3889312744140625
1726407234692355800,8.84235595703125,0.4090576171875,0.8278045654296875,0.403076171875
1726407234702352000,8.852351806640625,0.406890869140625,0.8566741943359375,0.4159088134765625
1726407234712348000,8.862347900390626,0.39776611328125,0.89080810546875,0.4157562255859375
1726407234722344000,8.872343994140625,0.3939056396484375,0.9111175537109375,0.404144287109375
1726407234732340000,8.882340087890626,0.394317626953125,0.924468994140625,0.3773040771484375
1726407234742335700,8.892335693359374,0.398651123046875,0.9261016845703125,0.3553314208984375
1726407234752332000,8.90233203125,0.4026336669921875,0.91168212890625,0.3327178955078125
1726407234762327800,8.912327880859374,0.4010772705078125,0.8826751708984375,0.3250885009765625
1726407234772323800,8.92232373046875,0.3908843994140625,0.84844970703125,0.332489013671875
1726407234782319900,8.93231982421875,0.39111328125,0.84002685546875,0.3336334228515625
1726407234792316000,8.94231591796875,0.3962554931640625,0.829437255859375,0.3293304443359375
1726407234802312000,8.95231201171875,0.401611328125,0.8278961181640625,0.3323211669921875
1726407234812307700,8.9623076171875,0.4041900634765625,0.842529296875,0.343719482421875
1726407234822304000,8.972303955078125,0.413604736328125,0.8641510009765625,0.3654937744140625
1726407234832300000,8.982300048828124,0.4155426025390625,0.9062957763671875,0.37933349609375
1726407234842295800,8.9922958984375,0.4015350341796875,0.93011474609375,0.387054443359375
1726407234852291800,9.002291748046876,0.37652587890625,0.9233856201171875,0.3721771240234375
1726407234862288000,9.012287841796875,0.3509063720703125,0.9048004150390625,0.3524169921875
1726407234872284000,9.022283935546875,0.320770263671875,0.8748016357421875,0.349456787109375
1726407234882280000,9.032280029296874,0.306732177734375,0.8648223876953125,0.3466796875
1726407234892275700,9.042275634765625,0.2826385498046875,0.86724853515625,0.3665008544921875
1726407234902273000,9.05227294921875,0.2388916015625,0.8458251953125,0.3815155029296875
1726407234912268800,9.062268798828125,0.20208740234375,0.8170013427734375,0.380615234375
1726407234922264800,9.072264892578126,0.17596435546875,0.791290283203125,0.373504638671875
1726407234932260900,9.0822607421875,0.1679229736328125,0.781585693359375,0.3766326904296875
1726407234942257000,9.0922568359375,0.18951416015625,0.7808074951171875,0.3737335205078125
1726407234952253000,9.1022529296875,0.226531982421875,0.7923126220703125,0.372711181640625
1726407234962248700,9.112248779296875,0.2707366943359375,0.8007049560546875,0.365966796875
1726407234972245000,9.122244873046874,0.3144683837890625,0.8054046630859375,0.365692138671875
1726407234982241000,9.132240966796875,0.3686370849609375,0.8152008056640625,0.3659210205078125
1726407234992236800,9.14223681640625,0.409759521484375,0.8142852783203125,0.3637542724609375
1726407235002232800,9.15223291015625,0.4277496337890625,0.795745849609375,0.367584228515625
1726407235012228900,9.162228759765625,0.42413330078125,0.7784271240234375,0.380523681640625
1726407235022225000,9.172224853515624,0.39697265625,0.759735107421875,0.3839569091796875
1726407235032221000,9.182220947265625,0.3531951904296875,0.7476348876953125,0.38604736328125
1726407235042216700,9.192216796875,0.3076019287109375,0.7675628662109375,0.4033966064453125
1726407235052213000,9.202212890625,0.2679290771484375,0.7993011474609375,0.4352569580078125
1726407235062208800,9.212208740234376,0.2398529052734375,0.821014404296875,0.4425048828125
1726407235072204800,9.222204833984375,0.2235260009765625,0.833160400390625,0.4331207275390625
1726407235082201000,9.232201171875,0.22357177734375,0.842529296875,0.4275970458984375
1726407235092196900,9.24219677734375,0.2353973388671875,0.86572265625,0.4243316650390625
1726407235102193000,9.25219287109375,0.245330810546875,0.8882598876953125,0.4298095703125
1726407235112189000,9.26218896484375,0.2449951171875,0.9043731689453125,0.4361419677734375
1726407235122185200,9.272185302734375,0.2350921630859375,0.8997650146484375,0.439239501953125
1726407235132181200,9.28218115234375,0.2191925048828125,0.883941650390625,0.44146728515625
1726407235142177000,9.292177001953124,0.206329345703125,0.86688232421875,0.44732666015625
1726407235152173000,9.302173095703125,0.207916259765625,0.8579559326171875,0.4501953125
1726407235162169300,9.31216943359375,0.2219696044921875,0.8588714599609375,0.4471893310546875
1726407235172165000,9.3221650390625,0.2448577880859375,0.867645263671875,0.43304443359375
1726407235182161200,9.3321611328125,0.279632568359375,0.875244140625,0.4202117919921875
1726407235192157000,9.342156982421875,0.3234710693359375,0.879058837890625,0.404052734375
1726407235202153200,9.3521533203125,0.3689117431640625,0.87994384765625,0.3892059326171875
1726407235212149200,9.362149169921874,0.410888671875,0.8724212646484375,0.3751068115234375
1726407235222145000,9.37214501953125,0.436737060546875,0.8579254150390625,0.3721160888671875
1726407235232141300,9.382141357421874,0.45672607421875,0.8528594970703125,0.3795166015625
1726407235242137000,9.39213720703125,0.4643096923828125,0.853424072265625,0.3960418701171875
1726407235252134100,9.402134033203126,0.4631500244140625,0.8450927734375,0.422149658203125
1726407235262130200,9.412130126953125,0.4523162841796875,0.8329620361328125,0.4463348388671875
1726407235272126200,9.422126220703126,0.4216766357421875,0.82403564453125,0.45904541015625
1726407235282122200,9.432122314453125,0.389404296875,0.8135833740234375,0.476287841796875
1726407235292118000,9.442117919921875,0.3594207763671875,0.783447265625,0.4697723388671875
1726407235302114300,9.4521142578125,0.3211669921875,0.778045654296875,0.4598541259765625
1726407235312110000,9.462110107421875,0.3028564453125,0.7919464111328125,0.4297943115234375
1726407235322106000,9.472106201171876,0.2921905517578125,0.81640625,0.4016571044921875
1726407235332102100,9.48210205078125,0.2788543701171875,0.8397369384765625,0.3753662109375
1726407235342098200,9.49209814453125,0.275665283203125,0.8627471923828125,0.3599395751953125
1726407235352094200,9.50209423828125,0.267486572265625,0.8781585693359375,0.3538818359375
1726407235362090000,9.512090087890625,0.2686614990234375,0.898529052734375,0.35772705078125
1726407235372086000,9.5220859375,0.2552947998046875,0.9057464599609375,0.3658447265625
1726407235382082300,9.532082275390625,0.252197265625,0.91680908203125,0.373992919921875
1726407235392078000,9.542078125,0.251739501953125,0.931396484375,0.3893890380859375
1726407235402074000,9.55207421875,0.246185302734375,0.9362030029296875,0.398040771484375
1726407235412070100,9.562070068359375,0.238616943359375,0.93731689453125,0.4001007080078125
1726407235422066200,9.572066162109374,0.2371826171875,0.93548583984375,0.409088134765625
1726407235432062200,9.582062255859375,0.2318572998046875,0.9279022216796875,0.4169921875
1726407235442058000,9.59205810546875,0.2291107177734375,0.91473388671875,0.4193115234375
1726407235452054300,9.60205419921875,0.2353973388671875,0.900421142578125,0.4214935302734375
1726407235462050300,9.61205029296875,0.248992919921875,0.8894500732421875,0.42254638671875
1726407235472046000,9.622046142578125,0.2747802734375,0.8895263671875,0.4229278564453125
1726407235482042000,9.6320419921875,0.311737060546875,0.896697998046875,0.42059326171875
1726407235492038100,9.6420380859375,0.34246826171875,0.89825439453125,0.4132843017578125
1726407235502034200,9.6520341796875,0.3673095703125,0.8892822265625,0.3979949951171875
1726407235512030200,9.6620302734375,0.39044189453125,0.869720458984375,0.3807373046875
1726407235522026000,9.67202587890625,0.4071044921875,0.862701416015625,0.3733673095703125
1726407235532022300,9.682022216796875,0.4125213623046875,0.8618927001953125,0.3797760009765625
1726407235542018000,9.69201806640625,0.4107666015625,0.86370849609375,0.3855133056640625
1726407235552014000,9.70201416015625,0.401763916015625,0.8549041748046875,0.3848419189453125
1726407235562010000,9.712010009765624,0.3897552490234375,0.8456268310546875,0.3801116943359375
1726407235572006100,9.722006103515625,0.3713226318359375,0.847442626953125,0.3656158447265625
1726407235582002200,9.732002197265626,0.3529052734375,0.848846435546875,0.3460693359375
1726407235591998200,9.741998291015625,0.3333892822265625,0.8587188720703125,0.3305206298828125
1726407235601994000,9.751993896484375,0.3137969970703125,0.8751220703125,0.320220947265625
1726407235611991000,9.761990966796875,0.2976837158203125,0.88262939453125,0.3104400634765625
1726407235621987000,9.771987060546875,0.283905029296875,0.8855438232421875,0.3046875
1726407235631983000,9.781983154296874,0.2654876708984375,0.8843231201171875,0.3038482666015625
1726407235641979100,9.791979248046875,0.243377685546875,0.873260498046875,0.3006134033203125
1726407235651975200,9.80197509765625,0.2232208251953125,0.8642120361328125,0.3033905029296875
1726407235661971200,9.81197119140625,0.208984375,0.8569183349609375,0.3120880126953125
1726407235671967000,9.821967041015625,0.1970672607421875,0.8525543212890625,0.3260345458984375
1726407235681963300,9.83196337890625,0.193389892578125,0.8558807373046875,0.343048095703125
1726407235691959000,9.841958984375,0.2003173828125,0.8729400634765625,0.3728790283203125
1726407235701955000,9.851955078125,0.208282470703125,0.9071807861328125,0.40032958984375
1726407235711951400,9.861951416015625,0.2275238037109375,0.9477386474609375,0.4211578369140625
1726407235721947100,9.871947021484376,0.2505035400390625,0.981201171875,0.441619873046875
1726407235731943200,9.881943115234375,0.26910400390625,0.996978759765625,0.4555511474609375
1726407235741939000,9.89193896484375,0.281341552734375,0.9967498779296875,0.461090087890625
1726407235751935200,9.901935302734374,0.292266845703125,0.9897003173828125,0.45806884765625
1726407235761931300,9.91193115234375,0.2984619140625,0.9740142822265625,0.458038330078125
1726407235771927000,9.921927001953126,0.2972412109375,0.9488067626953125,0.4649658203125
1726407235781923000,9.931923095703125,0.2877197265625,0.908172607421875,0.4611053466796875
1726407235791919000,9.941919189453126,0.2768402099609375,0.8713226318359375,0.453582763671875
1726407235801915100,9.9519150390625,0.2672882080078125,0.842498779296875,0.4602813720703125
1726407235811911200,9.9619111328125,0.2627410888671875,0.820098876953125,0.46527099609375
1726407235821907000,9.971906982421874,0.26617431640625,0.8063507080078125,0.460693359375
1726407235831903200,9.9819033203125,0.275299072265625,0.7919769287109375,0.4466400146484375
1726407235841899300,9.991899169921876,0.2868804931640625,0.78082275390625,0.43499755859375
1726407235851895000,10.00189501953125,0.3014068603515625,0.781707763671875,0.432708740234375
1726407235861891000,10.01189111328125,0.31475830078125,0.7781219482421875,0.4302978515625
1726407235871887000,10.02188720703125,0.3208465576171875,0.769317626953125,0.42974853515625
1726407235881883100,10.031883056640625,0.3258514404296875,0.7675933837890625,0.4237213134765625
1726407235891879200,10.041879150390624,0.3331146240234375,0.7624359130859375,0.4167938232421875
1726407235901875200,10.051875244140625,0.3408660888671875,0.7790069580078125,0.41717529296875
1726407235911871200,10.061871337890626,0.3258056640625,0.797088623046875,0.41619873046875
1726407235921867000,10.071866943359375,0.314971923828125,0.7973175048828125,0.40631103515625
1726407235931863000,10.081863037109375,0.30377197265625,0.7991790771484375,0.3891754150390625
1726407235941859300,10.091859375,0.299407958984375,0.8149871826171875,0.3809661865234375
1726407235951855000,10.101855224609375,0.300537109375,0.842559814453125,0.3802642822265625
1726407235961852200,10.11185205078125,0.303314208984375,0.87689208984375,0.387054443359375
1726407235971848200,10.12184814453125,0.3065338134765625,0.911163330078125,0.3968048095703125
1726407235981844200,10.13184423828125,0.3048553466796875,0.9443206787109375,0.41448974609375
1726407235991840000,10.141840087890625,0.3036956787109375,0.96978759765625,0.428466796875
1726407236001836000,10.1518359375,0.2963409423828125,0.9833526611328125,0.437591552734375
1726407236011832300,10.161832275390625,0.27923583984375,0.979217529296875,0.439910888671875
1726407236021828000,10.171828125,0.257537841796875,0.95654296875,0.43817138671875
1726407236031824100,10.18182421875,0.2369232177734375,0.9244232177734375,0.42535400390625
1726407236041820200,10.191820068359375,0.220794677734375,0.88592529296875,0.41973876953125
1726407236051816200,10.201816162109376,0.2059326171875,0.8502349853515625,0.415924072265625
1726407236061812200,10.211812255859375,0.19970703125,0.825531005859375,0.416748046875
1726407236071808000,10.22180810546875,0.2021636962890625,0.8181610107421875,0.42120361328125
1726407236081804000,10.231803955078124,0.2030181884765625,0.811126708984375,0.4327239990234375
1726407236091800300,10.24180029296875,0.2049102783203125,0.8120574951171875,0.4422607421875
1726407236101796000,10.251796142578126,0.2117919921875,0.8193206787109375,0.4598846435546875
1726407236111792000,10.261792236328125,0.2279205322265625,0.83001708984375,0.487457275390625
1726407236121787600,10.27178759765625,0.2721405029296875,0.8397064208984375,0.527008056640625
1726407236131783400,10.281783447265624,0.313385009765625,0.8449859619140625,0.558441162109375
1726407236141779700,10.29177978515625,0.32574462890625,0.8372039794921875,0.5768280029296875
1726407236151775500,10.301775390625,0.323028564453125,0.8126220703125,0.569976806640625
1726407236161771500,10.311771484375,0.31427001953125,0.7792816162109375,0.53485107421875
1726407236171767600,10.321767578125,0.322723388671875,0.7764892578125,0.464752197265625
1726407236181763600,10.331763671875,0.328369140625,0.7827606201171875,0.4143524169921875
1726407236191759600,10.341759521484375,0.3370208740234375,0.790435791015625,0.3880462646484375
1726407236201755600,10.351755615234374,0.32452392578125,0.804595947265625,0.378021240234375
1726407236211751400,10.36175146484375,0.3082733154296875,0.822052001953125,0.3646697998046875
1726407236221747700,10.371747802734374,0.3082427978515625,0.837432861328125,0.360015869140625
1726407236231743500,10.381743408203125,0.3292083740234375,0.8548736572265625,0.3697509765625
1726407236241739500,10.391739501953126,0.3579864501953125,0.8642425537109375,0.39996337890625
1726407236251735600,10.401735595703125,0.3640289306640625,0.8678436279296875,0.43328857421875
1726407236261731600,10.411731689453125,0.3516082763671875,0.8614349365234375,0.4531097412109375
1726407236271727600,10.4217275390625,0.337890625,0.8519744873046875,0.4663238525390625
1726407236281723400,10.431723388671875,0.3304901123046875,0.855377197265625,0.4740447998046875
1726407236291719700,10.4417197265625,0.320709228515625,0.86614990234375,0.473785400390625
1726407236301715700,10.4517158203125,0.3145904541015625,0.8660888671875,0.455291748046875
1726407236311711500,10.46171142578125,0.317535400390625,0.862579345703125,0.425994873046875
1726407236321707500,10.47170751953125,0.323333740234375,0.861328125,0.3974456787109375
1726407236331704600,10.48170458984375,0.3394012451171875,0.8671112060546875,0.3736572265625
1726407236341700600,10.49170068359375,0.3538818359375,0.86834716796875,0.3589630126953125
1726407236351696400,10.5016962890625,0.349822998046875,0.862457275390625,0.3543701171875
1726407236361692700,10.511692626953124,0.3487548828125,0.8607177734375,0.36383056640625
1726407236371688700,10.521688720703125,0.349151611328125,0.8596954345703125,0.372039794921875
1726407236381684500,10.5316845703125,0.348785400390625,0.8504638671875,0.3955841064453125
1726407236391680500,10.541680419921875,0.343505859375,0.8298492431640625,0.416229248046875
1726407236401676500,10.551676513671875,0.3366546630859375,0.8109588623046875,0.4322357177734375
1726407236411672600,10.561672607421874,0.3275909423828125,0.794708251953125,0.4506378173828125
1726407236421668600,10.571668701171875,0.3223876953125,0.789794921875,0.465850830078125
1726407236431664400,10.581664306640626,0.3359832763671875,0.803802490234375,0.48114013671875
1726407236441660700,10.59166064453125,0.3603668212890625,0.835205078125,0.4856719970703125
1726407236451656700,10.60165673828125,0.3763275146484375,0.8583984375,0.485076904296875
1726407236461652500,10.611652587890624,0.3738861083984375,0.8563385009765625,0.4782562255859375
1726407236471648500,10.6216484375,0.3699951171875,0.8224945068359375,0.447845458984375
1726407236481644500,10.63164453125,0.3651123046875,0.7894744873046875,0.417236328125
1726407236491640600,10.641640625,0.3641357421875,0.777740478515625,0.399566650390625
1726407236501636600,10.65163671875,0.3524322509765625,0.7646026611328125,0.3853912353515625
1726407236511632400,10.66163232421875,0.3320159912109375,0.7686767578125,0.37957763671875
1726407236521628700,10.671628662109375,0.3088226318359375,0.7896575927734375,0.378753662109375
1726407236531624400,10.68162451171875,0.292144775390625,0.8145751953125,0.3856353759765625
1726407236541620500,10.691620361328125,0.2842864990234375,0.8352508544921875,0.3906402587890625
1726407236551616800,10.70161669921875,0.2759246826171875,0.8369140625,0.3965301513671875
1726407236561612500,10.711612548828125,0.269012451171875,0.8199005126953125,0.3920135498046875
1726407236571608600,10.721608642578126,0.275604248046875,0.7894744873046875,0.3845367431640625
1726407236581604600,10.7316044921875,0.3017578125,0.775054931640625,0.381805419921875
1726407236591600600,10.7416005859375,0.3291473388671875,0.771209716796875,0.3840484619140625
1726407236601596700,10.7515966796875,0.3593597412109375,0.777740478515625,0.3922119140625
1726407236611592400,10.761592529296875,0.38092041015625,0.7996063232421875,0.400634765625
1726407236621588500,10.77158837890625,0.39447021484375,0.819854736328125,0.4088287353515625
1726407236631584800,10.781584716796875,0.38946533203125,0.828521728515625,0.4246978759765625
1726407236641580500,10.79158056640625,0.3770599365234375,0.833984375,0.4278411865234375
1726407236651576600,10.80157666015625,0.371734619140625,0.8457183837890625,0.4348907470703125
1726407236661572400,10.811572265625,0.38031005859375,0.8695831298828125,0.4388885498046875
1726407236671568600,10.821568603515624,0.3886566162109375,0.8856048583984375,0.43505859375
1726407236681564700,10.831564697265625,0.3860015869140625,0.88848876953125,0.42535400390625
1726407236691561500,10.8415615234375,0.37420654296875,0.880615234375,0.4227142333984375
1726407236701557800,10.851557861328125,0.365234375,0.8670806884765625,0.4234619140625
1726407236711553500,10.861553466796876,0.3490753173828125,0.84356689453125,0.4185943603515625
1726407236721549600,10.871549560546875,0.335418701171875,0.8141326904296875,0.4131927490234375
1726407236731545300,10.88154541015625,0.327392578125,0.79620361328125,0.41033935546875
1726407236741541600,10.891541748046874,0.31982421875,0.782745361328125,0.3976593017578125
1726407236751537700,10.90153759765625,0.3220062255859375,0.7751617431640625,0.38232421875
1726407236761533400,10.911533447265626,0.327392578125,0.7671051025390625,0.371063232421875
1726407236771529700,10.92152978515625,0.3311309814453125,0.76806640625,0.35784912109375
1726407236781525500,10.931525390625,0.33135986328125,0.7703399658203125,0.34136962890625
1726407236791521500,10.941521484375,0.333251953125,0.77301025390625,0.33245849609375
1726407236801517600,10.951517578125,0.3323974609375,0.78131103515625,0.3357086181640625
1726407236811513600,10.961513671875,0.3245086669921875,0.7800750732421875,0.348724365234375
1726407236821509600,10.971509521484375,0.3114013671875,0.7697906494140625,0.3699188232421875
1726407236831505700,10.981505615234376,0.29443359375,0.7636566162109375,0.3995819091796875
1726407236841501400,10.99150146484375,0.27655029296875,0.759368896484375,0.43499755859375
1726407236851497700,11.001497802734375,0.2623748779296875,0.764251708984375,0.4657745361328125
1726407236861493500,11.011493408203124,0.251800537109375,0.779571533203125,0.480377197265625
1726407236871489500,11.021489501953125,0.24615478515625,0.7890777587890625,0.495635986328125
1726407236881485600,11.031485595703124,0.2467498779296875,0.7999114990234375,0.4964447021484375
1726407236891481600,11.041481689453125,0.24249267578125,0.8094635009765625,0.491912841796875
1726407236901477600,11.0514775390625,0.25732421875,0.821380615234375,0.4779510498046875
1726407236911473400,11.061473388671875,0.2822265625,0.8608856201171875,0.4593658447265625
1726407236921469400,11.071469482421875,0.291473388671875,0.8862152099609375,0.421905517578125
1726407236931465700,11.0814658203125,0.3045501708984375,0.8960723876953125,0.3643035888671875
1726407236941461500,11.09146142578125,0.316131591796875,0.9016265869140625,0.317535400390625
1726407236951457500,11.10145751953125,0.317779541015625,0.900634765625,0.2828216552734375
1726407236961453600,11.11145361328125,0.3156585693359375,0.900634765625,0.2644805908203125
1726407236971449600,11.12144970703125,0.3104400634765625,0.91375732421875,0.2642822265625
1726407236981445600,11.131445556640625,0.29949951171875,0.938751220703125,0.2655487060546875
1726407236991441400,11.14144140625,0.2837982177734375,0.9583282470703125,0.2632598876953125
1726407237001437700,11.151437744140624,0.2695770263671875,0.965484619140625,0.2605743408203125
1726407237011433700,11.161433837890625,0.2676544189453125,0.9351959228515625,0.2736053466796875
1726407237021429500,11.171429443359376,0.2812347412109375,0.891387939453125,0.2987213134765625
1726407237031425500,11.181425537109375,0.3090972900390625,0.873870849609375,0.3265533447265625
1726407237041421600,11.191421630859375,0.34417724609375,0.9033660888671875,0.3562774658203125
1726407237051417600,11.20141748046875,0.3524627685546875,0.92333984375,0.3766021728515625
1726407237061414400,11.211414306640625,0.3294677734375,0.91571044921875,0.3842010498046875
1726407237071410700,11.22141064453125,0.28857421875,0.8964996337890625,0.3839263916015625
1726407237081406700,11.23140673828125,0.263397216796875,0.881195068359375,0.3840789794921875
1726407237091402500,11.241402587890626,0.25030517578125,0.860687255859375,0.391845703125
1726407237101398500,11.2513984375,0.246063232421875,0.845123291015625,0.401123046875
1726407237111394600,11.26139453125,0.2542266845703125,0.851043701171875,0.3994140625
1726407237121390600,11.271390625,0.282073974609375,0.8881378173828125,0.39166259765625
1726407237131387100,11.28138720703125,0.31634521484375,0.9400787353515625,0.3910675048828125
1726407237141383200,11.291383056640624,0.3465728759765625,0.9632415771484375,0.3852386474609375
1726407237151379500,11.30137939453125,0.3760833740234375,0.9603271484375,0.3651580810546875
1726407237161375200,11.311375244140624,0.4089202880859375,0.959075927734375,0.3505859375
1726407237171371300,11.321371337890625,0.4411773681640625,0.962615966796875,0.34271240234375
1726407237181367000,11.331366943359376,0.477386474609375,0.9824371337890625,0.339202880859375
1726407237191363300,11.34136328125,0.5032501220703125,0.982147216796875,0.334014892578125
1726407237201359400,11.351359375,0.5029449462890625,0.9691925048828125,0.335235595703125
1726407237211355100,11.361355224609374,0.4760284423828125,0.955841064453125,0.338531494140625
1726407237221351400,11.371351318359375,0.42877197265625,0.917877197265625,0.3319091796875
1726407237231347200,11.38134716796875,0.3869171142578125,0.8843231201171875,0.3219451904296875
1726407237241343200,11.39134326171875,0.352783203125,0.867919921875,0.32037353515625
1726407237251339300,11.40133935546875,0.3321533203125,0.8712158203125,0.3176727294921875
1726407237261335300,11.411335205078124,0.3221893310546875,0.886383056640625,0.3155364990234375
1726407237271331300,11.421331298828125,0.3137054443359375,0.9091033935546875,0.3202972412109375
1726407237281327400,11.431327392578124,0.304718017578125,0.920562744140625,0.329803466796875
1726407237291323100,11.4413232421875,0.2913818359375,0.91815185546875,0.343505859375
1726407237301319400,11.4513193359375,0.277984619140625,0.9032440185546875,0.3486480712890625
1726407237311315200,11.461315185546875,0.2584381103515625,0.8809967041015625,0.3526763916015625
1726407237321311200,11.471311279296875,0.2407684326171875,0.8521575927734375,0.35577392578125
1726407237331307300,11.481307373046874,0.219512939453125,0.8192901611328125,0.3565826416015625
1726407237341303300,11.49130322265625,0.2110443115234375,0.79266357421875,0.347900390625
1726407237351299300,11.50129931640625,0.2095184326171875,0.780364990234375,0.353424072265625
1726407237361295000,11.511295166015625,0.2153778076171875,0.78814697265625,0.3711395263671875
1726407237371291100,11.521291015625,0.2228240966796875,0.8107147216796875,0.395294189453125
1726407237381287400,11.531287353515625,0.2389068603515625,0.8368682861328125,0.4148406982421875
1726407237391283200,11.541283203125,0.254364013671875,0.86798095703125,0.4364013671875
1726407237401279200,11.551279296875,0.269378662109375,0.897857666015625,0.4609832763671875
1726407237411275300,11.561275146484375,0.2713775634765625,0.9099273681640625,0.4785614013671875
1726407237421271300,11.571271240234376,0.26617431640625,0.9000091552734375,0.480560302734375
1726407237431267300,11.581267333984375,0.270050048828125,0.8897247314453125,0.4833526611328125
1726407237441264000,11.59126416015625,0.2786102294921875,0.889739990234375,0.4903717041015625
1726407237451260400,11.601260498046875,0.2784576416015625,0.8862152099609375,0.4925384521484375
1726407237461256200,11.611256103515625,0.271728515625,0.8744659423828125,0.483551025390625
1726407237471252200,11.621252197265624,0.2662811279296875,0.8649749755859375,0.475189208984375
1726407237481248300,11.631248291015625,0.2700653076171875,0.8654327392578125,0.4677276611328125
1726407237491244300,11.641244384765624,0.27764892578125,0.8768310546875,0.461578369140625
1726407237501240300,11.651240234375,0.2824859619140625,0.887054443359375,0.4522247314453125
1726407237511236000,11.661236083984376,0.2824249267578125,0.8890533447265625,0.4416351318359375
1726407237521232400,11.671232421875,0.2784271240234375,0.894012451171875,0.43292236328125
1726407237531228400,11.681228515625,0.277587890625,0.8954925537109375,0.4199981689453125
1726407237541224200,11.69122412109375,0.2794952392578125,0.8980560302734375,0.403228759765625
1726407237551220200,11.70122021484375,0.2765960693359375,0.8974761962890625,0.3916778564453125
1726407237561216300,11.71121630859375,0.270965576171875,0.887939453125,0.3903045654296875
1726407237571212300,11.72121240234375,0.268707275390625,0.8820037841796875,0.392486572265625
1726407237581208300,11.731208251953126,0.2822113037109375,0.8845672607421875,0.4026641845703125
1726407237591204000,11.7412041015625,0.2911376953125,0.8813018798828125,0.41644287109375
1726407237601200400,11.751200439453125,0.2934417724609375,0.8745269775390625,0.4302978515625
1726407237611196200,11.761196044921874,0.2918243408203125,0.8733673095703125,0.444610595703125
1726407237621192200,11.771192138671875,0.27496337890625,0.8596038818359375,0.4502716064453125
1726407237631188200,11.781188232421876,0.251800537109375,0.8225555419921875,0.45343017578125
1726407237641184300,11.791184326171875,0.24969482421875,0.7836761474609375,0.4556427001953125
1726407237651180300,11.80118017578125,0.2623443603515625,0.7488861083984375,0.452178955078125
1726407237661176300,11.81117626953125,0.281646728515625,0.72601318359375,0.4477996826171875
1726407237671172400,11.82117236328125,0.3131256103515625,0.721282958984375,0.451019287109375
1726407237681168400,11.83116845703125,0.335723876953125,0.7437896728515625,0.4528961181640625
1726407237691164200,11.8411640625,0.341156005859375,0.76873779296875,0.461395263671875
1726407237701160200,11.85116015625,0.3331756591796875,0.7862548828125,0.467132568359375
1726407237711156500,11.861156494140625,0.3150634765625,0.7933197021484375,0.457977294921875
1726407237721152300,11.87115234375,0.295501708984375,0.8023529052734375,0.45074462890625
1726407237731148300,11.881148193359374,0.2962799072265625,0.82452392578125,0.4385833740234375
1726407237741144000,11.89114404296875,0.30889892578125,0.865478515625,0.421630859375
1726407237751140400,11.901140380859376,0.3183135986328125,0.8992919921875,0.4066009521484375
1726407237761136400,11.911136474609375,0.3175048828125,0.911590576171875,0.3856201171875
1726407237771132200,11.921132080078126,0.314849853515625,0.912811279296875,0.3672943115234375
1726407237781128200,11.931128173828125,0.3083648681640625,0.914886474609375,0.3609466552734375
1726407237791124200,11.941124267578125,0.3006439208984375,0.917388916015625,0.3621978759765625
1726407237801120300,11.951120361328124,0.3024139404296875,0.919952392578125,0.3699951171875
1726407237811116300,11.9611162109375,0.2974395751953125,0.904632568359375,0.372467041015625
1726407237821112000,11.971112060546876,0.29150390625,0.8827056884765625,0.37335205078125
1726407237831109400,11.981109375,0.29229736328125,0.8596343994140625,0.3881988525390625
1726407237841105200,11.991105224609376,0.294036865234375,0.844970703125,0.4145355224609375
1726407237851101200,12.00110107421875,0.296783447265625,0.8411407470703125,0.435791015625
1726407237861097200,12.01109716796875,0.2941436767578125,0.8519287109375,0.452667236328125
1726407237871093200,12.02109326171875,0.289306640625,0.8697509765625,0.46630859375
1726407237881089300,12.03108935546875,0.2869110107421875,0.882598876953125,0.4688720703125
1726407237891085300,12.041085205078126,0.2742767333984375,0.8889312744140625,0.4669647216796875
1726407237901081300,12.051081298828125,0.2665252685546875,0.883514404296875,0.455535888671875
1726407237911077400,12.061077392578126,0.26947021484375,0.8857269287109375,0.443817138671875
1726407237921073200,12.0710732421875,0.2816009521484375,0.887939453125,0.42779541015625
1726407237931069400,12.0810693359375,0.307281494140625,0.889129638671875,0.4001617431640625
1726407237941065200,12.091065185546874,0.3350830078125,0.8865814208984375,0.376739501953125
1726407237951061200,12.101061279296875,0.3560791015625,0.8675689697265625,0.350799560546875
1726407237961057300,12.111057373046876,0.3574981689453125,0.843841552734375,0.3350372314453125
1726407237971053300,12.12105322265625,0.34429931640625,0.81451416015625,0.3326873779296875
1726407237981049300,12.13104931640625,0.3240814208984375,0.7780303955078125,0.3393707275390625
1726407237991045000,12.141045166015624,0.30517578125,0.765167236328125,0.3358154296875
1726407238001041200,12.151041259765625,0.303955078125,0.782958984375,0.344268798828125
1726407238011037400,12.161037353515624,0.3217926025390625,0.8096160888671875,0.352783203125
1726407238021033200,12.171033203125,0.3396148681640625,0.8403778076171875,0.3541107177734375
1726407238031029200,12.181029296875,0.3498077392578125,0.85052490234375,0.3680877685546875
1726407238041025300,12.191025390625,0.351470947265625,0.8506317138671875,0.3726959228515625
1726407238051021300,12.201021240234375,0.3527984619140625,0.8560638427734375,0.3698272705078125
1726407238061017300,12.211017333984374,0.352783203125,0.8588714599609375,0.3672332763671875
1726407238071013000,12.22101318359375,0.34210205078125,0.8531646728515625,0.3744049072265625
1726407238081009400,12.231009521484374,0.3245086669921875,0.850311279296875,0.373138427734375
1726407238091005400,12.24100537109375,0.3170928955078125,0.8516845703125,0.382965087890625
1726407238101001200,12.251001220703126,0.3126983642578125,0.8585357666015625,0.3919219970703125
1726407238110997200,12.260997314453125,0.3120880126953125,0.8640289306640625,0.4064178466796875
1726407238120993300,12.2709931640625,0.323455810546875,0.869659423828125,0.4112091064453125
1726407238130989300,12.2809892578125,0.3470458984375,0.880645751953125,0.4118499755859375
1726407238140985300,12.2909853515625,0.3734283447265625,0.8949737548828125,0.4216156005859375
1726407238150981000,12.300981201171876,0.392181396484375,0.9052734375,0.4255828857421875
1726407238160977400,12.310977294921875,0.3962554931640625,0.8944091796875,0.4185943603515625
1726407238170973200,12.32097314453125,0.390350341796875,0.8789520263671875,0.4202728271484375
1726407238180969200,12.33096923828125,0.38690185546875,0.861328125,0.420318603515625
1726407238190965200,12.34096533203125,0.3857879638671875,0.8495025634765625,0.4173736572265625
1726407238200961300,12.350961181640624,0.376861572265625,0.8369598388671875,0.4130859375
1726407238210957300,12.360957275390625,0.35784912109375,0.8289794921875,0.4112396240234375
1726407238220953300,12.370953369140626,0.3506927490234375,0.81304931640625,0.4117889404296875
1726407238230950400,12.380950439453125,0.3458099365234375,0.8197479248046875,0.416595458984375
1726407238240946200,12.3909462890625,0.34100341796875,0.81298828125,0.415771484375
1726407238250942200,12.400942138671875,0.33502197265625,0.81036376953125,0.4059600830078125
1726407238260938200,12.410938232421875,0.340911865234375,0.8062591552734375,0.3946075439453125
1726407238270934300,12.420934326171874,0.3406829833984375,0.8093414306640625,0.3895416259765625
1726407238280930300,12.430930419921875,0.340057373046875,0.81768798828125,0.382781982421875
1726407238290926300,12.44092626953125,0.3392486572265625,0.82244873046875,0.39031982421875
1726407238300922000,12.450922119140625,0.3371124267578125,0.8355712890625,0.3980255126953125
1726407238310918400,12.46091845703125,0.3284149169921875,0.8468170166015625,0.411407470703125
1726407238320914200,12.4709140625,0.3167724609375,0.847137451171875,0.416351318359375
1726407238330910200,12.48091015625,0.3108673095703125,0.844757080078125,0.4152984619140625
1726407238340906500,12.490906494140624,0.3130645751953125,0.83343505859375,0.4116058349609375
1726407238350902300,12.50090234375,0.3236236572265625,0.837615966796875,0.41265869140625
1726407238360898300,12.510898193359376,0.3425140380859375,0.840179443359375,0.411895751953125
1726407238370894000,12.52089404296875,0.361114501953125,0.8452911376953125,0.405670166015625
1726407238380890400,12.530890380859375,0.380645751953125,0.8465118408203125,0.3983306884765625
1726407238390886400,12.540886474609374,0.386749267578125,0.8424072265625,0.3966827392578125
1726407238400882200,12.550882080078125,0.3879852294921875,0.8365325927734375,0.3954315185546875
1726407238410878200,12.560878173828126,0.383209228515625,0.8323516845703125,0.4046478271484375
1726407238420874200,12.570874267578125,0.36932373046875,0.82659912109375,0.40447998046875
1726407238430870300,12.580870361328126,0.34771728515625,0.8164825439453125,0.4073333740234375
1726407238440866300,12.5908662109375,0.325836181640625,0.807342529296875,0.4040679931640625
1726407238450862000,12.600862060546875,0.3134002685546875,0.790008544921875,0.3968505859375
1726407238460858400,12.6108583984375,0.3010406494140625,0.7718505859375,0.388092041015625
1726407238470854400,12.6208544921875,0.29412841796875,0.7646484375,0.3811492919921875
1726407238480850200,12.63085009765625,0.290374755859375,0.76812744140625,0.37774658203125
1726407238490846200,12.64084619140625,0.2861328125,0.7892913818359375,0.37823486328125
1726407238500842200,12.65084228515625,0.2856903076171875,0.8219451904296875,0.3788909912109375
1726407238510838300,12.66083837890625,0.295379638671875,0.8460235595703125,0.3832244873046875
1726407238520834300,12.670834228515625,0.304443359375,0.8633880615234375,0.394866943359375
1726407238530830300,12.680830322265624,0.312652587890625,0.8753509521484375,0.4056396484375
1726407238540826400,12.690826416015625,0.3277130126953125,0.8891754150390625,0.420440673828125
1726407238550822100,12.700822265625,0.33612060546875,0.911529541015625,0.4302978515625
1726407238560818200,12.710818115234375,0.338470458984375,0.92047119140625,0.4328765869140625
1726407238570814500,12.720814453125,0.3345489501953125,0.921295166015625,0.4294281005859375
1726407238580810200,12.730810302734374,0.3329315185546875,0.9112091064453125,0.4154205322265625
1726407238590806300,12.74080615234375,0.3264923095703125,0.8871612548828125,0.39251708984375
1726407238600802300,12.75080224609375,0.3106231689453125,0.8455963134765625,0.3720855712890625
1726407238610798300,12.76079833984375,0.29486083984375,0.80792236328125,0.3617706298828125
1726407238620794400,12.77079443359375,0.2829437255859375,0.7860107421875,0.359893798828125
1726407238630790100,12.7807900390625,0.2639312744140625,0.791168212890625,0.364532470703125
1726407238640786200,12.7907861328125,0.245086669921875,0.808349609375,0.3781280517578125
1726407238650782500,12.800782470703124,0.224639892578125,0.821258544921875,0.3835296630859375
1726407238660779300,12.810779296875,0.204986572265625,0.8374786376953125,0.3801422119140625
1726407238670775300,12.820775390625,0.2034912109375,0.84906005859375,0.36602783203125
1726407238680771300,12.830771240234375,0.2255859375,0.86285400390625,0.3543701171875
1726407238690767400,12.840767333984376,0.2591094970703125,0.8798980712890625,0.3479461669921875
1726407238700763100,12.85076318359375,0.2840576171875,0.8898773193359375,0.3364715576171875
1726407238710759200,12.86075927734375,0.3043365478515625,0.859161376953125,0.3261260986328125
1726407238720755500,12.87075537109375,0.33038330078125,0.834197998046875,0.3299713134765625
1726407238730751200,12.880751220703125,0.353363037109375,0.8527679443359375,0.3439483642578125
1726407238740747300,12.890747314453124,0.3616943359375,0.876800537109375,0.3582305908203125
1726407238750743000,12.900742919921875,0.355621337890625,0.88238525390625,0.3615875244140625
1726407238760739300,12.9107392578125,0.340911865234375,0.87896728515625,0.363372802734375
1726407238770735400,12.9207353515625,0.3272705078125,0.87261962890625,0.3633575439453125
1726407238780731100,12.930731201171875,0.319580078125,0.8803558349609375,0.3722686767578125
1726407238790727400,12.9407275390625,0.31756591796875,0.9063262939453125,0.3946380615234375
1726407238800723200,12.95072314453125,0.30389404296875,0.91998291015625,0.403076171875
1726407238810719200,12.96071923828125,0.2859649658203125,0.93212890625,0.4066162109375
1726407238820715300,12.97071533203125,0.2689971923828125,0.9352874755859375,0.41473388671875
1726407238830711300,12.980711181640626,0.26007080078125,0.9362945556640625,0.4195098876953125
1726407238840707300,12.990707275390625,0.2574462890625,0.9320068359375,0.4221954345703125
1726407238850703400,13.000703369140625,0.264129638671875,0.9183349609375,0.41705322265625
1726407238860699100,13.01069921875,0.274658203125,0.90887451171875,0.4078369140625
1726407238870695400,13.0206953125,0.288299560546875,0.902313232421875,0.3960113525390625
1726407238880691200,13.030691162109376,0.294769287109375,0.88970947265625,0.3789215087890625
1726407238890687200,13.040687255859375,0.3006591796875,0.8768463134765625,0.36053466796875
1726407238900683300,13.050683349609375,0.2999725341796875,0.858001708984375,0.341796875
1726407238910679300,13.06067919921875,0.3006134033203125,0.8349609375,0.328643798828125
1726407238920675300,13.07067529296875,0.310577392578125,0.83062744140625,0.32183837890625
1726407238930671000,13.080671142578124,0.3238525390625,0.8394622802734375,0.321197509765625
1726407238940667100,13.090667236328125,0.337860107421875,0.858001708984375,0.3242645263671875
1726407238950663400,13.100663330078126,0.350494384765625,0.88043212890625,0.330169677734375
1726407238960659200,13.1106591796875,0.3549041748046875,0.898529052734375,0.3379669189453125
1726407238970655200,13.1206552734375,0.355072021484375,0.9167633056640625,0.344268798828125
1726407238980651300,13.1306513671875,0.350189208984375,0.933349609375,0.3549346923828125
