time,seconds_elapsed,z,y,x
1726407225875850500,0.0258505859375,0.11735449731349945,-1.9091718196868896,0.0956236720085144
1726407225885846300,0.03584619140625,0.008036022074520588,-1.4940723180770874,0.01376552414149046
1726407225895842600,0.045842529296875,-0.09023568779230118,-0.918243408203125,0.008207772858440876
1726407225905838600,0.055838623046875,-0.023133227601647377,-0.6853699684143066,0.00022525363601744175
1726407225915834400,0.06583447265625,0.08327656239271164,-0.8592461347579956,-0.058151502162218094
1726407225925831400,0.07583154296875,0.05442124605178833,-0.9172537922859192,-0.09709365665912628
1726407225935827500,0.085827392578125,-0.1324508935213089,-0.7725978493690491,-0.05612465366721153
1726407225945823500,0.095823486328125,-0.3148396611213684,-0.6945076584815979,0.0928872674703598
1726407225955819300,0.1058193359375,-0.372328519821167,-0.7460179924964905,0.2652986943721771
1726407225965815600,0.115815673828125,-0.32105162739753723,-0.8683023452758789,0.3834667205810547
1726407225975811600,0.1258115234375,-0.23453299701213837,-0.8586332201957703,0.45471134781837463
1726407225985807400,0.135807373046875,-0.19536955654621124,-0.7107652425765991,0.48469364643096924
1726407225995803400,0.145803466796875,-0.22378681600093842,-0.47596657276153564,0.49815407395362854
1726407226005799400,0.15579931640625,-0.2875259518623352,-0.34306222200393677,0.5207636952400208
1726407226015795500,0.16579541015625,-0.2865171432495117,-0.3330085277557373,0.6138784885406494
1726407226025791500,0.17579150390625,-0.20419827103614807,-0.5882059335708618,0.7461363077163696
1726407226035787300,0.185787353515625,-0.06058651953935623,-0.9953015446662903,0.8966869115829468
1726407226045783600,0.195783447265625,0.09462372213602066,-1.3378560543060303,1.0791935920715332
1726407226055779600,0.205779541015625,0.21641886234283447,-1.6049952507019043,1.2190545797348022
1726407226065775400,0.215775390625,0.340432345867157,-1.8038839101791382,1.2962679862976074
1726407226075771400,0.225771484375,0.5386450290679932,-1.9432953596115112,1.343133568763733
1726407226085767400,0.235767333984375,0.8803337216377258,-2.1151182651519775,1.454516887664795
1726407226095763500,0.245763427734375,1.2444629669189453,-2.332826614379883,1.6543327569961548
1726407226105759500,0.255759521484375,1.3335907459259033,-2.502784013748169,1.7228741645812988
1726407226115754800,0.265754638671875,1.5016593933105469,-2.995708465576172,1.7663875818252563
1726407226125751800,0.275751708984375,2.17691969871521,-3.317479372024536,1.9268721342086792
1726407226135747800,0.285747802734375,2.859419584274292,-3.3174047470092773,2.2943475246429443
1726407226145744000,0.295743896484375,2.945564031600952,-3.145547389984131,2.324575185775757
1726407226155740000,0.305739990234375,3.1639492511749268,-3.1120636463165283,2.0823991298675537
1726407226165735700,0.315735595703125,3.44674015045166,-2.981522560119629,1.9417059421539307
1726407226175732000,0.32573193359375,3.6075992584228516,-2.6097660064697266,1.8866798877716064
1726407226185727700,0.335727783203125,3.706482410430908,-2.1961567401885986,1.9483519792556763
1726407226195723800,0.345723876953125,3.7884912490844727,-2.246079683303833,2.1869800090789795
1726407226205719800,0.3557197265625,3.9251606464385986,-2.49572491645813,2.602201223373413
1726407226215715800,0.3657158203125,4.236194610595703,-2.6465060710906982,3.1344873905181885
1726407226225711900,0.3757119140625,4.769176959991455,-2.6846508979797363,3.652848958969116
1726407226235707600,0.385707763671875,5.405356407165527,-2.669992685317993,4.019647598266602
1726407226245703700,0.39570361328125,6.057307720184326,-2.5783729553222656,4.3202619552612305
1726407226255700000,0.405699951171875,6.640381336212158,-2.512639284133911,4.527216911315918
1726407226265695700,0.41569580078125,7.061068058013916,-2.648456335067749,4.570521354675293
1726407226275691800,0.42569189453125,7.2782111167907715,-3.027416706085205,4.53680944442749
1726407226285687800,0.435687744140625,7.406246185302734,-3.2467567920684814,4.55474853515625
1726407226295683800,0.445683837890625,7.582685947418213,-3.230428695678711,4.773060321807861
1726407226305680000,0.455679931640625,7.872161865234375,-3.0455870628356934,5.12083101272583
1726407226315675600,0.465675537109375,8.33100414276123,-2.3584816455841064,5.5048346519470215
1726407226325672000,0.475671875,9.051605224609375,-1.1921390295028687,5.884335041046143
1726407226335668000,0.48566796875,10.002410888671875,0.17521409690380096,6.183565139770508
1726407226345664800,0.495664794921875,10.535879135131836,0.6337140798568726,5.935543060302734
1726407226355660800,0.505660888671875,10.277332305908203,-0.1387544572353363,5.024063587188721
1726407226365656800,0.51565673828125,9.831489562988281,-0.18524812161922455,4.737025260925293
1726407226375652900,0.52565283203125,9.530441284179688,0.20224234461784363,4.971097946166992
1726407226385648600,0.535648681640625,9.319869995117188,0.7394134402275085,5.304555892944336
1726407226395645000,0.54564501953125,9.232332229614258,1.4081765413284302,5.6658148765563965
1726407226405641000,0.555640869140625,9.177145957946777,2.053420305252075,5.944339752197266
1726407226415636700,0.56563671875,9.029891014099121,2.5064852237701416,6.155520915985107
1726407226425632800,0.5756328125,8.534582138061523,2.6675961017608643,6.323206901550293
1726407226435628800,0.58562890625,7.6372761726379395,2.4540936946868896,6.51139497756958
1726407226445624800,0.595624755859375,6.401634693145752,1.9104028940200806,6.628942012786865
1726407226455620900,0.605620849609375,5.075159072875977,1.4194477796554565,6.570909023284912
1726407226465616600,0.61561669921875,3.654911756515503,1.2109735012054443,6.2024946212768555
1726407226475613000,0.625613037109375,2.202439785003662,1.1864449977874756,5.521153450012207
1726407226485608700,0.635608642578125,0.6937796473503113,1.2806801795959473,4.572183609008789
1726407226495604700,0.645604736328125,-0.8178998231887817,1.3314179182052612,3.433584451675415
1726407226505601000,0.65560107421875,-2.2705929279327393,1.3921406269073486,2.2289879322052
1726407226515596800,0.6655966796875,-3.5563840866088867,1.46030592918396,0.9877028465270996
1726407226525592800,0.6755927734375,-4.6020355224609375,1.4117845296859741,-0.15116897225379944
1726407226535588900,0.6855888671875,-5.39726448059082,1.3954795598983765,-1.1596976518630981
1726407226545586000,0.6955859375,-6.018249988555908,1.4347381591796875,-2.099076271057129
1726407226555581700,0.705581787109375,-6.413332462310791,1.381746530532837,-2.9279236793518066
1726407226565577700,0.71557763671875,-6.567224979400635,1.1889677047729492,-3.5636544227600098
1726407226575574000,0.725573974609375,-6.6381449699401855,0.8888320326805115,-3.9871602058410645
1726407226585569800,0.73556982421875,-6.467014312744141,0.34697937965393066,-4.079241752624512
1726407226595565800,0.74556591796875,-6.281099796295166,-0.41082388162612915,-3.946152925491333
1726407226605561900,0.755561767578125,-6.210259914398193,-1.1191407442092896,-3.848428964614868
1726407226615558000,0.765557861328125,-6.060305595397949,-1.940316915512085,-3.8508455753326416
1726407226625554000,0.775553955078125,-5.634553909301758,-2.316696882247925,-3.8990068435668945
1726407226635549700,0.7855498046875,-5.010217666625977,-2.1422088146209717,-4.021719455718994
1726407226645545700,0.795545654296875,-4.564764022827148,-1.333351492881775,-4.7213215827941895
1726407226655542000,0.8055419921875,-3.780003786087036,-0.1535131186246872,-5.088352203369141
1726407226665537800,0.815537841796875,-3.1985480785369873,0.9401915669441223,-4.533545970916748
1726407226675533800,0.825533935546875,-2.755856513977051,1.1432597637176514,-3.930196762084961
1726407226685529600,0.835529541015625,-2.448768377304077,1.066881537437439,-2.747943878173828
1726407226695526000,0.84552587890625,-2.1950697898864746,0.11402169615030289,-2.0314300060272217
1726407226705522000,0.85552197265625,-2.1000144481658936,-0.9152981042861938,-1.9351873397827148
1726407226715517700,0.865517578125,-2.0367050170898438,-1.590665578842163,-2.119352102279663
1726407226725513700,0.875513671875,-1.942039132118225,-2.1399221420288086,-2.4580237865448
1726407226735509800,0.885509765625,-1.7352758646011353,-2.2664754390716553,-2.965400457382202
1726407226745505800,0.895505859375,-1.534481406211853,-2.0720882415771484,-3.818643808364868
1726407226755502600,0.905502685546875,-1.4140143394470215,-1.6392031908035278,-5.053892135620117
1726407226765499000,0.915498779296875,-1.4082567691802979,-0.9017118811607361,-5.759448051452637
1726407226775495000,0.925494873046875,-1.681809425354004,-0.011131653562188148,-5.997801780700684
1726407226785490700,0.93549072265625,-2.158144474029541,0.7200226783752441,-5.99962854385376
1726407226795487000,0.945487060546875,-2.58796763420105,0.8615553379058838,-5.481771469116211
1726407226805482800,0.955482666015625,-3.401923179626465,-0.18078798055648804,-4.986385822296143
1726407226815478800,0.965478759765625,-4.024905204772949,-1.0053761005401611,-4.211788654327393
1726407226825474800,0.975474853515625,-3.854702949523926,-1.422248125076294,-3.303209066390991
1726407226835470800,0.985470947265625,-3.20341157913208,-1.5944314002990723,-2.4534740447998047
1726407226845467000,0.995466796875,-2.6155617237091064,-1.4206470251083374,-1.7529881000518799
1726407226855463000,1.005462890625,-2.3020598888397217,-1.3570646047592163,-1.2194609642028809
1726407226865458700,1.015458740234375,-1.9494845867156982,-0.9061587452888489,-0.8512461185455322
1726407226875455000,1.025455078125,-1.3690129518508911,-0.22232316434383392,-0.10375642031431198
1726407226885450800,1.03545068359375,-0.9352037906646729,0.6165899038314819,0.7807379961013794
1726407226895446800,1.04544677734375,-0.5773457884788513,1.1229232549667358,1.5747432708740234
1726407226905442800,1.05544287109375,-0.6504315733909607,0.7105215787887573,1.895401120185852
1726407226915438800,1.06543896484375,-1.2225513458251953,-0.2532537579536438,1.974913239479065
1726407226925435000,1.075434814453125,-1.7461122274398804,-0.7619726061820984,1.6663178205490112
1726407226935430700,1.0854306640625,-1.8066186904907227,-0.9302902817726135,0.9293140172958374
1726407226945426700,1.0954267578125,-1.4798771142959595,-0.9177662134170532,0.08221697807312012
1726407226955423000,1.105423095703125,-0.9771327376365662,-0.5436573624610901,-0.6214452981948853
1726407226965418800,1.115418701171875,-0.48324453830718994,-0.1580207645893097,-1.0246362686157227
1726407226975415800,1.125415771484375,-0.27889829874038696,-0.051148369908332825,-1.33207368850708
1726407226985411800,1.135411865234375,-0.28591388463974,-0.19361485540866852,-1.7386153936386108
1726407226995408000,1.145407958984375,-0.2254587709903717,-0.3240967094898224,-2.2660372257232666
1726407227005403600,1.155403564453125,-0.05356207117438316,-0.131505087018013,-2.8822944164276123
1726407227015399700,1.165399658203125,0.33598196506500244,0.15133407711982727,-3.390800952911377
1726407227025396000,1.17539599609375,0.5932205319404602,0.5669033527374268,-3.6052682399749756
1726407227035391700,1.185391845703125,1.1462199687957764,1.1148967742919922,-3.4290897846221924
1726407227045387800,1.1953876953125,1.2193354368209839,1.3515541553497314,-3.045870304107666
1726407227055383800,1.2053837890625,1.4259027242660522,1.1492332220077515,-2.5927257537841797
1726407227065379800,1.2153798828125,1.5236567258834839,0.8922484517097473,-2.0702054500579834
1726407227075375900,1.2253759765625,1.6818511486053467,0.5078696012496948,-1.4646587371826172
1726407227085371600,1.23537158203125,1.8740886449813843,0.1915309727191925,-0.8351041078567505
1726407227095368000,1.245367919921875,3.0388054847717285,-0.798244297504425,-0.5081055164337158
1726407227105364000,1.255364013671875,3.312451124191284,-1.4032200574874878,-0.4126068949699402
1726407227115360300,1.2653603515625,3.8551976680755615,-2.7249484062194824,-0.3661901354789734
1726407227125356300,1.275356201171875,4.856084823608398,-4.000819206237793,-0.3085036873817444
1726407227135352300,1.285352294921875,5.951416492462158,-5.062582492828369,-0.2462397962808609
1726407227145348400,1.295348388671875,6.922555923461914,-5.675853729248047,0.01998109370470047
1726407227155344100,1.30534423828125,7.713044166564941,-6.327652454376221,0.45350536704063416
1726407227165340200,1.315340087890625,8.436466217041016,-7.158090114593506,1.0553585290908813
1726407227175336400,1.32533642578125,8.835334777832031,-7.610562801361084,1.7504019737243652
1726407227185332200,1.335332275390625,9.04143238067627,-7.856683254241943,2.3470945358276367
1726407227195329300,1.345329345703125,8.945039749145508,-8.01563835144043,2.6575915813446045
1726407227205325300,1.3553251953125,8.459784507751465,-7.6550726890563965,2.65316104888916
1726407227215321300,1.3653212890625,7.598001480102539,-6.6976237297058105,2.798290491104126
1726407227225317000,1.375317138671875,6.918698787689209,-6.6698832511901855,2.8192036151885986
1726407227235313200,1.385313232421875,5.939950942993164,-6.751904010772705,2.9913084506988525
1726407227245309400,1.395309326171875,4.354239463806152,-5.766526699066162,3.2361202239990234
1726407227255305200,1.40530517578125,2.5584664344787598,-3.9228382110595703,2.9795873165130615
1726407227265301200,1.41530126953125,1.3273977041244507,-1.947269082069397,2.3784444332122803
1726407227275297300,1.42529736328125,0.46109718084335327,-0.8639633655548096,1.9526402950286865
1726407227285293300,1.435293212890625,0.15532715618610382,-0.15801091492176056,1.420975685119629
1726407227295289300,1.445289306640625,0.2169114202260971,0.06684990227222443,0.9816856384277344
1726407227305285000,1.45528515625,0.6309000253677368,-0.26434728503227234,1.050065040588379
1726407227315281200,1.46528125,1.0351907014846802,0.3939019739627838,1.2120238542556763
1726407227325277400,1.47527734375,1.576308012008667,1.077432632446289,1.0978124141693115
1726407227335273200,1.485273193359375,1.9679925441741943,1.4287464618682861,0.775453507900238
1726407227345269200,1.495269287109375,2.140532970428467,1.4304345846176147,0.2593671679496765
1726407227355265300,1.505265380859375,2.1900672912597656,1.3653887510299683,-0.3067833185195923
1726407227365261300,1.51526123046875,2.232529640197754,1.3494316339492798,-0.8282368779182434
1726407227375257300,1.52525732421875,2.3109054565429688,1.4211719036102295,-1.2137463092803955
1726407227385253000,1.535253173828125,2.4425101280212402,1.6203489303588867,-1.3625835180282593
1726407227395249400,1.54524951171875,2.6871180534362793,1.8462097644805908,-1.2869470119476318
1726407227405245200,1.5552451171875,2.9807310104370117,1.974881887435913,-0.986935555934906
1726407227415242200,1.5652421875,3.2485721111297607,1.890829086303711,-0.6981098651885986
1726407227425238300,1.57523828125,3.404984474182129,1.5321698188781738,-0.5078431963920593
1726407227435234300,1.585234375,3.35612416267395,0.9434956908226013,-0.37582501769065857
1726407227445230300,1.595230224609375,3.2701609134674072,0.2833883464336395,-0.2498268187046051
1726407227455226000,1.60522607421875,3.140657424926758,-0.41101041436195374,-0.1257493495941162
1726407227465222400,1.615222412109375,2.892998695373535,-0.9858018159866333,0.0019853967241942883
1726407227475218200,1.62521826171875,2.3246066570281982,-0.47380325198173523,0.008309339173138142
1726407227485214200,1.635214111328125,1.29696524143219,1.5329335927963257,-0.21797551214694977
1726407227495210200,1.645210205078125,0.3014223277568817,4.261460781097412,-0.42487624287605286
1726407227505206300,1.655206298828125,-0.24948465824127197,5.775503635406494,-0.4013143479824066
1726407227515202300,1.665202392578125,-0.34123164415359497,5.4327216148376465,-0.22562560439109802
1726407227525198300,1.6751982421875,-0.22781430184841156,3.9702258110046387,0.034108057618141174
1726407227535194000,1.685194091796875,-0.017236286774277687,2.283543586730957,0.33174052834510803
1726407227545190400,1.6951904296875,0.2865796983242035,0.9718321561813354,0.5686815977096558
1726407227555186200,1.705186279296875,0.44345933198928833,0.25037726759910583,0.6494571566581726
1726407227565182200,1.71518212890625,0.4481079876422882,0.06873729825019836,0.5684323310852051
1726407227575178500,1.725178466796875,0.3830541670322418,0.09847681224346161,0.367998331785202
1726407227585174300,1.73517431640625,0.3061828315258026,0.07350624352693558,0.14728781580924988
1726407227595170300,1.74517041015625,0.27941539883613586,-0.05908455699682236,-0.012474684976041317
1726407227605166000,1.755166015625,0.15494371950626373,-0.27385860681533813,0.011286156252026558
1726407227615162400,1.765162353515625,-0.006529073230922222,-0.508254885673523,0.16458569467067719
1726407227625159200,1.7751591796875,-0.11450298875570297,-0.6976048946380615,0.29380127787590027
1726407227635155200,1.7851552734375,0.1151038333773613,-1.0951101779937744,0.06537449359893799
1726407227645151500,1.7951513671875,0.32725340127944946,-1.1995596885681152,-0.20946085453033447
1726407227655147300,1.805147216796875,0.521172821521759,-1.0299698114395142,-0.41741591691970825
1726407227665143300,1.815143310546875,0.5586990714073181,-0.7493162751197815,-0.5537461638450623
1726407227675139000,1.82513916015625,0.4457656145095825,-0.4181404411792755,-0.5449193716049194
1726407227685135400,1.83513525390625,0.25192487239837646,-0.11431021988391876,-0.41609591245651245
1726407227695131400,1.84513134765625,0.11005642265081406,0.1472603976726532,-0.2116309255361557
1726407227705127200,1.855127197265625,0.05977651849389076,0.3458743393421173,0.02263239398598671
1726407227715123200,1.865123291015625,0.02961462363600731,0.40644583106040955,0.23562243580818176
1726407227725119200,1.875119140625,0.09061124920845032,0.4977276921272278,0.4096350073814392
1726407227735115300,1.885115234375,0.17871128022670746,0.544779896736145,0.5330554246902466
1726407227745111300,1.895111328125,0.23333606123924255,0.5268753170967102,0.6016685962677002
1726407227755107000,1.905107177734375,0.2394983470439911,0.5223867893218994,0.6271800398826599
1726407227765103400,1.915103271484375,0.20073187351226807,0.524686336517334,0.6065148115158081
1726407227775099400,1.925099365234375,0.1350732445716858,0.47680458426475525,0.5545253753662109
1726407227785095200,1.93509521484375,0.06621236354112625,0.36617156863212585,0.49364563822746277
1726407227795091200,1.94509130859375,0.03267064690589905,0.19388504326343536,0.4247848093509674
1726407227805087200,1.955087158203125,0.01782255806028843,-0.06897104531526566,0.34946295619010925
1726407227815083300,1.965083251953125,-0.015178002417087555,-0.35249385237693787,0.2588249146938324
1726407227825079300,1.975079345703125,-0.060484953224658966,-0.5974985957145691,0.165054053068161
1726407227835075300,1.985075439453125,-0.10884316265583038,-0.7942026257514954,0.07448659837245941
1726407227845072400,1.995072265625,-0.13431516289710999,-0.9743524789810181,-0.002264494076371193
1726407227855068200,2.005068115234375,-0.14586609601974487,-1.1174331903457642,-0.06444397568702698
1726407227865064400,2.015064453125,-0.14962877333164215,-1.216691017150879,-0.1110292449593544
1726407227875060200,2.025060302734375,-0.1540251225233078,-1.2696359157562256,-0.13575270771980286
1726407227885056300,2.03505615234375,-0.1738715022802353,-1.2785871028900146,-0.14721179008483887
1726407227895052300,2.04505224609375,-0.1938454806804657,-1.2302347421646118,-0.1531495749950409
1726407227905048300,2.05504833984375,-0.21670450270175934,-1.1645342111587524,-0.14378929138183594
1726407227915044400,2.06504443359375,-0.23949797451496124,-1.1015946865081787,-0.12995603680610657
1726407227925040000,2.0750400390625,-0.25216636061668396,-1.0693528652191162,-0.1208738461136818
1726407227935036200,2.0850361328125,-0.25220364332199097,-1.0548357963562012,-0.10152837634086609
1726407227945032400,2.095032470703125,-0.2604036331176758,-1.0283057689666748,-0.07519403845071793
1726407227955028200,2.1050283203125,-0.2824745774269104,-0.9840715527534485,-0.048648979514837265
1726407227965024300,2.115024169921875,-0.2996957302093506,-0.9085932970046997,-0.04231046512722969
1726407227975020300,2.125020263671875,-0.3124876916408539,-0.8376930356025696,-0.05277935415506363
1726407227985016300,2.135016357421875,-0.3211648464202881,-0.7581743597984314,-0.08117867261171341
1726407227995012400,2.145012451171875,-0.318374902009964,-0.693419337272644,-0.14057329297065735
1726407228005008100,2.155008056640625,-0.3018648028373718,-0.6809802055358887,-0.23334632813930511
1726407228015004200,2.165004150390625,-0.2802271544933319,-0.6856375336647034,-0.33076128363609314
1726407228025000400,2.17500048828125,-0.2789278030395508,-0.6767702698707581,-0.41272109746932983
1726407228034996200,2.184996337890625,-0.2844828963279724,-0.6821884512901306,-0.46727409958839417
1726407228044992300,2.1949921875,-0.270896852016449,-0.7188208699226379,-0.48807358741760254
1726407228054988300,2.20498828125,-0.24764689803123474,-0.7273054122924805,-0.48902300000190735
1726407228064984300,2.214984375,-0.20780210196971893,-0.709923267364502,-0.46454334259033203
1726407228074981000,2.224981201171875,-0.1690131574869156,-0.6962814927101135,-0.4137677848339081
1726407228084977200,2.23497705078125,-0.1489827036857605,-0.6562756896018982,-0.3423317074775696
1726407228094973400,2.244973388671875,-0.15034863352775574,-0.6060391664505005,-0.24533991515636444
1726407228104969200,2.25496923828125,-0.17106488347053528,-0.5599991679191589,-0.12554392218589783
1726407228114965000,2.264965087890625,-0.19442400336265564,-0.5081223845481873,0.0030065986793488264
1726407228124961000,2.2749609375,-0.21143558621406555,-0.4978722929954529,0.13464690744876862
1726407228134957000,2.28495703125,-0.23953406512737274,-0.5204502940177917,0.2328144758939743
1726407228144953000,2.294953125,-0.2560715079307556,-0.5845765471458435,0.2901153862476349
1726407228154948900,2.304948974609375,-0.2474687099456787,-0.6485970616340637,0.30209481716156006
1726407228164945200,2.314945068359375,-0.23454517126083374,-0.6935819983482361,0.26427626609802246
1726407228174941200,2.324941162109375,-0.22220328450202942,-0.702624499797821,0.20373091101646423
1726407228184937000,2.33493701171875,-0.21627937257289886,-0.6871004700660706,0.1256965845823288
1726407228194933000,2.34493310546875,-0.209542378783226,-0.6863760948181152,0.05043219029903412
1726407228204929000,2.354928955078125,-0.2098783701658249,-0.7358324527740479,-0.00695913378149271
1726407228214925000,2.364925048828125,-0.23063531517982483,-0.79319828748703,-0.05095828324556351
1726407228224921000,2.374921142578125,-0.254610151052475,-0.8578606247901917,-0.07499460875988007
1726407228234916900,2.384916748046875,-0.2683078646659851,-0.8786085247993469,-0.098079152405262
1726407228244913200,2.3949130859375,-0.25801265239715576,-0.8741567730903625,-0.10955307632684708
1726407228254909000,2.404908935546875,-0.22516733407974243,-0.8808404803276062,-0.11160556972026825
1726407228264905000,2.414905029296875,-0.19588977098464966,-0.8545690178871155,-0.0953461155295372
1726407228274901000,2.42490087890625,-0.1538989096879959,-0.8241986036300659,-0.07427438348531723
1726407228284897000,2.43489697265625,-0.1298256665468216,-0.7342147827148438,-0.03424735739827156
1726407228294893000,2.44489306640625,-0.1106032282114029,-0.6158663034439087,0.014291149564087391
1726407228304889900,2.454889892578125,-0.09737048298120499,-0.4555034339427948,0.06438754498958588
1726407228314886100,2.46488623046875,-0.07862156629562378,-0.30041664838790894,0.10652594268321991
1726407228324882000,2.4748818359375,-0.044364847242832184,-0.15725532174110413,0.14354509115219116
1726407228334878000,2.4848779296875,-0.009267045184969902,-0.005495085380971432,0.17710544168949127
1726407228344874000,2.4948740234375,0.01409527100622654,0.12992507219314575,0.20953738689422607
1726407228354870000,2.5048701171875,0.02485816925764084,0.23840707540512085,0.2342240959405899
1726407228364866000,2.514865966796875,0.0335143618285656,0.3242514133453369,0.23574665188789368
1726407228374862000,2.524862060546875,0.054868120700120926,0.386258065700531,0.21881267428398132
1726407228384858000,2.534858154296875,0.08392112702131271,0.42579078674316406,0.19169357419013977
1726407228394854100,2.544854248046875,0.12554767727851868,0.43672171235084534,0.16387340426445007
1726407228404850000,2.554849853515625,0.1772097647190094,0.4235377609729767,0.13488924503326416
1726407228414846000,2.564845947265625,0.22245927155017853,0.38481059670448303,0.09848223626613617
1726407228424842200,2.57484228515625,0.25737401843070984,0.3639381527900696,0.055307988077402115
1726407228434838000,2.584838134765625,0.2797243297100067,0.3734789192676544,0.0011342321522533894
1726407228444834000,2.594833984375,0.2933495342731476,0.38798192143440247,-0.046152178198099136
1726407228454829800,2.604829833984375,0.3017028272151947,0.38928526639938354,-0.08872813731431961
1726407228464826000,2.614826171875,0.30048859119415283,0.3708743751049042,-0.12035936117172241
1726407228474822100,2.624822265625,0.28956538438796997,0.33641496300697327,-0.1339300274848938
1726407228484818000,2.63481787109375,0.268591970205307,0.28312957286834717,-0.1414373815059662
1726407228494814000,2.64481396484375,0.23789584636688232,0.21004576981067657,-0.15136536955833435
1726407228504810000,2.65481005859375,0.196025550365448,0.12274879217147827,-0.1975172609090805
1726407228514806000,2.664805908203125,0.1520487666130066,0.02270580641925335,-0.28890445828437805
1726407228524802000,2.674802001953125,0.10860950499773026,-0.11294534057378769,-0.3723968267440796
1726407228534799000,2.684799072265625,0.0691869929432869,-0.2559424340724945,-0.4036668837070465
1726407228544795100,2.694795166015625,0.0535118468105793,-0.3715735077857971,-0.3709343671798706
1726407228554791000,2.704791015625,0.05789168179035187,-0.4210848808288574,-0.2902427315711975
1726407228564787000,2.714786865234375,0.09404132515192032,-0.34293192625045776,-0.2337382435798645
1726407228574783000,2.724782958984375,0.12613508105278015,-0.15775062143802643,-0.22238971292972565
1726407228584779000,2.734779052734375,0.11899539828300476,0.012090231291949749,-0.23367612063884735
1726407228594775000,2.744775146484375,0.08723453432321548,0.09449482709169388,-0.22868482768535614
1726407228604771000,2.75477099609375,0.03407222032546997,0.06953677535057068,-0.19120532274246216
1726407228614767000,2.76476708984375,-0.0163403507322073,-0.015446560457348824,-0.13884171843528748
1726407228624763100,2.77476318359375,-0.04341559857130051,-0.13059397041797638,-0.09425941854715347
1726407228634759000,2.784759033203125,-0.04235832393169403,-0.23223404586315155,-0.07774755358695984
1726407228644755200,2.794755126953125,-0.047142934054136276,-0.26998797059059143,-0.07990530878305435
1726407228654751000,2.8047509765625,-0.04862738028168678,-0.25908926129341125,-0.09374762326478958
1726407228664747000,2.8147470703125,-0.04037441313266754,-0.19952988624572754,-0.11465869843959808
1726407228674743000,2.824742919921875,-0.015944968909025192,-0.10210585594177246,-0.13851317763328552
1726407228684739000,2.834739013671875,0.005737543571740389,-0.0021190636325627565,-0.13794320821762085
1726407228694735000,2.844735107421875,0.00022107170661911368,0.09267722070217133,-0.1165122240781784
1726407228704731000,2.85473095703125,-0.0032308169174939394,0.16285623610019684,-0.0886446088552475
1726407228714727000,2.864726806640625,0.007442067377269268,0.20051252841949463,-0.054170262068510056
1726407228724723200,2.87472314453125,0.03149791434407234,0.23967958986759186,-0.03972908481955528
1726407228734719000,2.884718994140625,0.06624843925237656,0.3070290684700012,-0.0402958057820797
1726407228744715000,2.894715087890625,0.10962856560945511,0.37348392605781555,-0.07263647764921188
1726407228754712000,2.904712158203125,0.15704482793807983,0.41300392150878906,-0.10913349688053131
1726407228764708000,2.9147080078125,0.18367736041545868,0.40844258666038513,-0.11403129994869232
1726407228774703900,2.924703857421875,0.19725920259952545,0.39041486382484436,-0.07881099730730057
1726407228784700000,2.934699951171875,0.21123316884040833,0.39087963104248047,-0.023253152146935463
1726407228794696200,2.9446962890625,0.20457793772220612,0.41089168190956116,0.029096072539687157
1726407228804692000,2.95469189453125,0.17808319628238678,0.4244871437549591,0.05779304355382919
1726407228814688000,2.96468798828125,0.1464293897151947,0.39017364382743835,0.04815026745200157
1726407228824684000,2.97468408203125,0.11976681649684906,0.3188144564628601,-0.000636832439340651
1726407228834680000,2.98468017578125,0.09894249588251114,0.23990285396575928,-0.07395951449871063
1726407228844676000,2.994676025390625,0.07227807492017746,0.17134222388267517,-0.15726950764656067
1726407228854672000,3.004671875,0.05427803844213486,0.10419514030218124,-0.23059219121932983
1726407228864668200,3.014668212890625,0.042156923562288284,0.06251067668199539,-0.28929463028907776
1726407228874664200,3.024664306640625,0.024893783032894135,0.04398386552929878,-0.3218483030796051
1726407228884660000,3.034659912109375,0.006995018571615219,0.06854387372732162,-0.3328483998775482
1726407228894656000,3.044656005859375,0.0076075452379882336,0.1461944580078125,-0.3205898702144623
1726407228904652000,3.054652099609375,0.015645980834960938,0.21306779980659485,-0.26495394110679626
1726407228914648000,3.06464794921875,0.039105501025915146,0.2605721950531006,-0.17167778313159943
1726407228924644000,3.07464404296875,0.05567454919219017,0.29071044921875,-0.06034256890416145
1726407228934639900,3.084639892578125,0.0675562396645546,0.3381842374801636,0.05296827480196953
1726407228944636200,3.09463623046875,0.06977424770593643,0.3826858103275299,0.14831212162971497
1726407228954632000,3.1046318359375,0.06483754515647888,0.42341113090515137,0.21466664969921112
1726407228964628000,3.1146279296875,0.07038674503564835,0.4578203856945038,0.24204373359680176
1726407228974624000,3.1246240234375,0.08145963400602341,0.4674551784992218,0.23471498489379883
1726407228984620000,3.1346201171875,0.08938919752836227,0.48628702759742737,0.20472487807273865
1726407228994617000,3.1446171875,0.09583111852407455,0.5135719180107117,0.16007591784000397
1726407229004612900,3.15461279296875,0.10679402202367783,0.5289587378501892,0.11236537247896194
1726407229014609200,3.164609130859375,0.10579373687505722,0.5209290385246277,0.06450783461332321
1726407229024605000,3.17460498046875,0.10152186453342438,0.4866076111793518,0.020395278930664062
1726407229034601000,3.18460107421875,0.10896087437868118,0.43042904138565063,-0.02781459502875805
1726407229044597000,3.194596923828125,0.10648434609174728,0.3960177004337311,-0.07129406183958054
1726407229054593000,3.204593017578125,0.10445129126310349,0.3828643560409546,-0.09516104310750961
1726407229064589000,3.214589111328125,0.10624488443136215,0.38892948627471924,-0.09593567997217178
1726407229074585000,3.224585205078125,0.11013282835483551,0.40179362893104553,-0.0741179957985878
1726407229084581000,3.2345810546875,0.10836705565452576,0.4253505766391754,-0.03897096961736679
1726407229094577200,3.2445771484375,0.11856775730848312,0.4614068269729614,-0.007729692384600639
1726407229104573000,3.254572998046875,0.12615564465522766,0.505776584148407,0.018228918313980103
1726407229114568700,3.264568603515625,0.1334814727306366,0.5777000188827515,0.03470483422279358
1726407229124564700,3.274564697265625,0.15126070380210876,0.6012997627258301,0.044780462980270386
1726407229134560500,3.284560546875,0.16483883559703827,0.6126429438591003,0.05166100338101387
1726407229144556800,3.294556884765625,0.16320322453975677,0.5708067417144775,0.06315790116786957
1726407229154552600,3.304552490234375,0.14458373188972473,0.5512663722038269,0.06558883935213089
1726407229164548600,3.314548583984375,0.12038440257310867,0.5106415748596191,0.050228994339704514
1726407229174544600,3.324544677734375,0.11538831144571304,0.45843106508255005,0.022389372810721397
1726407229184540700,3.334540771484375,0.11451513320207596,0.4029543995857239,-0.004229846876114607
1726407229194536700,3.34453662109375,0.11675884574651718,0.3828936219215393,-0.029611635953187943
1726407229204532700,3.35453271484375,0.11552522331476212,0.36942949891090393,-0.055860698223114014
1726407229214528500,3.364528564453125,0.10587392747402191,0.35458904504776,-0.08992971479892731
1726407229224525600,3.374525634765625,0.08976511657238007,0.3152643144130707,-0.12872877717018127
1726407229234521600,3.384521484375,0.06566324084997177,0.28889501094818115,-0.1680295765399933
1726407229244517600,3.394517578125,0.027549462392926216,0.27569276094436646,-0.19892527163028717
1726407229254513700,3.404513671875,0.011791538447141647,0.25355520844459534,-0.21437960863113403
1726407229264509700,3.414509765625,-0.0010996870696544647,0.22206807136535645,-0.2132369577884674
1726407229274505700,3.424505615234375,0.012973521836102009,0.2103392332792282,-0.1995222121477127
1726407229284501500,3.43450146484375,0.022359205409884453,0.20035874843597412,-0.17492803931236267
1726407229294497800,3.444497802734375,0.033336225897073746,0.20987023413181305,-0.1407865732908249
1726407229304493600,3.45449365234375,0.04319754242897034,0.21956288814544678,-0.10319928824901581
1726407229314489600,3.464489501953125,0.04971110448241234,0.2475186139345169,-0.06558001041412354
1726407229324485600,3.474485595703125,0.060162778943777084,0.3001898527145386,-0.02853965014219284
1726407229334481700,3.484481689453125,0.06489680707454681,0.3658525049686432,0.007848717272281647
1726407229344477700,3.494477783203125,0.07730931788682938,0.42859476804733276,0.04950874298810959
1726407229354473500,3.504473388671875,0.0801921859383583,0.46172982454299927,0.09263144433498383
1726407229364469500,3.514469482421875,0.06773225218057632,0.47991690039634705,0.1449536383152008
1726407229374465800,3.5244658203125,0.05102970823645592,0.4748411774635315,0.20391549170017242
1726407229384461600,3.534461669921875,0.017189232632517815,0.43209153413772583,0.248744398355484
1726407229394457600,3.54445751953125,-0.024852760136127472,0.3545386791229248,0.27370914816856384
1726407229404453600,3.55445361328125,-0.06545451283454895,0.28219830989837646,0.2648661136627197
1726407229414449700,3.56444970703125,-0.09423795342445374,0.2251635193824768,0.2083517163991928
1726407229424445700,3.57444580078125,-0.11949431151151657,0.19159410893917084,0.13062971830368042
1726407229434441500,3.58444140625,-0.13591189682483673,0.13839320838451385,0.06217876076698303
1726407229444437800,3.594437744140625,-0.1324014961719513,0.09943040460348129,0.024537453427910805
1726407229454433800,3.604433837890625,-0.1337117701768875,0.08257445693016052,0.04021867737174034
1726407229464429600,3.6144296875,-0.14387117326259613,0.08690925687551498,0.10308095067739487
1726407229474425600,3.624425537109375,-0.15583062171936035,0.12000516802072525,0.19387264549732208
1726407229484422700,3.634422607421875,-0.14983706176280975,0.1699792444705963,0.2764018774032593
1726407229494418700,3.644418701171875,-0.14080415666103363,0.24358582496643066,0.34554871916770935
1726407229504414500,3.65441455078125,-0.1350129097700119,0.3230355978012085,0.40705224871635437
1726407229514410800,3.66441064453125,-0.11933089047670364,0.38363397121429443,0.47948381304740906
1726407229524406800,3.67440673828125,-0.09435198456048965,0.3643267750740051,0.5229251980781555
1726407229534402600,3.684402587890625,-0.05828533321619034,0.3122052550315857,0.5123438835144043
1726407229544398600,3.694398681640625,-0.03607473894953728,0.29211801290512085,0.49007725715637207
1726407229554394600,3.70439453125,-0.019875263795256615,0.2607896327972412,0.46943244338035583
1726407229564390700,3.714390625,-0.014627697877585888,0.2527690529823303,0.4582340121269226
1726407229574386700,3.72438671875,-0.007772987242788076,0.26511627435684204,0.44563406705856323
1726407229584382500,3.734382568359375,0.01505490392446518,0.2668491303920746,0.41874420642852783
1726407229594378800,3.744378662109375,0.02896592579782009,0.2546153664588928,0.3830317556858063
1726407229604374500,3.75437451171875,0.032536257058382034,0.21427105367183685,0.3358645737171173
1726407229614370600,3.76437060546875,0.035730984061956406,0.13136231899261475,0.2696264386177063
1726407229624366800,3.774366943359375,0.030912332236766815,0.04248124361038208,0.18693913519382477
1726407229634362600,3.784362548828125,0.028516553342342377,-0.012368159368634224,0.11426865309476852
1726407229644358700,3.794358642578125,0.03637871518731117,-0.049478624016046524,0.07209223508834839
1726407229654354700,3.804354736328125,0.06206144019961357,-0.09795773774385452,0.04268480837345123
1726407229664350700,3.814350830078125,0.09513693302869797,-0.14068840444087982,0.004813940264284611
1726407229674346800,3.8243466796875,0.10184410214424133,-0.16424299776554108,-0.03975379467010498
1726407229684342500,3.834342529296875,0.09509572386741638,-0.18355324864387512,-0.076185442507267
1726407229694338600,3.844338623046875,0.06284643709659576,-0.20444121956825256,-0.09838049858808517
1726407229704334800,3.8543349609375,0.034879110753536224,-0.243173286318779,-0.09323844313621521
1726407229714330600,3.86433056640625,0.03156613931059837,-0.2828882038593292,-0.06804946810007095
1726407229724327700,3.87432763671875,0.020603502169251442,-0.3198632597923279,-0.03746519610285759
1726407229734323700,3.88432373046875,-0.004697326570749283,-0.35920828580856323,-0.014475724659860134
1726407229744319700,3.89431982421875,-0.021980514749884605,-0.41703900694847107,0.0011925760190933943
1726407229754315500,3.9043154296875,-0.03532295301556587,-0.4624190032482147,0.015387756749987602
1726407229764311600,3.9143115234375,-0.04830898717045784,-0.48626917600631714,0.032041460275650024
1726407229774307800,3.924307861328125,-0.06294545531272888,-0.5069206357002258,0.0508526973426342
1726407229784303600,3.9343037109375,-0.06371677666902542,-0.5176363587379456,0.0668853223323822
1726407229794299600,3.944299560546875,-0.07733777910470963,-0.5045822858810425,0.08207838982343674
1726407229804295400,3.95429541015625,-0.1007135808467865,-0.47541308403015137,0.08325423300266266
1726407229814291700,3.964291748046875,-0.11751919239759445,-0.41634654998779297,0.07533319294452667
1726407229824287700,3.974287841796875,-0.1225876659154892,-0.33701929450035095,0.06575372070074081
1726407229834283500,3.984283447265625,-0.1182219460606575,-0.27473700046539307,0.06469830870628357
1726407229844279600,3.994279541015625,-0.10709761828184128,-0.23905855417251587,0.06377062946557999
1726407229854275600,4.004275634765625,-0.10986490547657013,-0.2326483279466629,0.06432883441448212
1726407229864271600,4.014271728515625,-0.11931457370519638,-0.2484624683856964,0.05984216183423996
1726407229874267600,4.024267578125,-0.12583959102630615,-0.28955504298210144,0.05579175800085068
1726407229884263700,4.034263671875,-0.1377788484096527,-0.3272652328014374,0.05227808654308319
1726407229894259700,4.044259765625,-0.14112164080142975,-0.3557000756263733,0.048463642597198486
1726407229904255700,4.054255859375,-0.13968747854232788,-0.3723675012588501,0.039365097880363464
1726407229914251500,4.06425146484375,-0.13097842037677765,-0.36438706517219543,0.018430255353450775
1726407229924247800,4.074247802734375,-0.12797041237354279,-0.3621249794960022,-0.005386583507061005
1726407229934243600,4.08424365234375,-0.12886816263198853,-0.3759116232395172,-0.022661177441477776
1726407229944239600,4.094239501953125,-0.13056574761867523,-0.36110928654670715,-0.009307103231549263
1726407229954235600,4.104235595703125,-0.11252949386835098,-0.3352491855621338,0.027030663564801216
1726407229964231700,4.114231689453125,-0.09455083310604095,-0.34131404757499695,0.08173506706953049
1726407229974227700,4.124227783203125,-0.08640475571155548,-0.384604275226593,0.1319471001625061
1726407229984224500,4.134224609375,-0.08901487290859222,-0.4452563524246216,0.14089468121528625
1726407229994220800,4.144220703125,-0.09845764189958572,-0.505230724811554,0.10850746184587479
1726407230004216600,4.154216552734375,-0.10768101364374161,-0.5409078598022461,0.04450327530503273
1726407230014212600,4.164212646484375,-0.10338427126407623,-0.5840262770652771,-0.038634490221738815
1726407230024208600,4.174208740234375,-0.09713180363178253,-0.6212424039840698,-0.11935897171497345
1726407230034204700,4.18420458984375,-0.09563403576612473,-0.654703676700592,-0.17296840250492096
1726407230044200700,4.19420068359375,-0.10046210139989853,-0.6949271559715271,-0.1978934109210968
1726407230054196500,4.204196533203125,-0.11136055737733841,-0.7575521469116211,-0.19986814260482788
1726407230064192500,4.214192626953125,-0.11188491433858871,-0.7786949872970581,-0.18376381695270538
1726407230074188800,4.224188720703125,-0.11446870863437653,-0.746937096118927,-0.16325348615646362
1726407230084184600,4.2341845703125,-0.10799078643321991,-0.665492594242096,-0.14999662339687347
1726407230094180600,4.2441806640625,-0.1042887270450592,-0.558571457862854,-0.14432355761528015
1726407230104176600,4.2541767578125,-0.08255299925804138,-0.49700939655303955,-0.1376897394657135
1726407230114172700,4.264172607421875,-0.05969748646020889,-0.4743989109992981,-0.11949875205755234
1726407230124169000,4.2741689453125,-0.04440285637974739,-0.4829820990562439,-0.10496342182159424
1726407230134164700,4.284164794921875,-0.0374341644346714,-0.48313096165657043,-0.1131981834769249
1726407230144160800,4.294160888671875,-0.0463356077671051,-0.47950977087020874,-0.12611085176467896
1726407230154156800,4.30415673828125,-0.0595100000500679,-0.44036635756492615,-0.13083796203136444
1726407230164152800,4.31415283203125,-0.08023890852928162,-0.37842491269111633,-0.11594171822071075
1726407230174148900,4.32414892578125,-0.0953102707862854,-0.3267534673213959,-0.09627160429954529
1726407230184144600,4.33414453125,-0.10276056081056595,-0.3034901022911072,-0.08321049809455872
1726407230194141000,4.344140869140625,-0.11075190454721451,-0.2849390506744385,-0.07920563220977783
1726407230204137000,4.354136962890625,-0.12399616837501526,-0.2825296223163605,-0.07911963760852814
1726407230214132700,4.3641328125,-0.12385714799165726,-0.26922446489334106,-0.07833027839660645
1726407230224128800,4.374128662109375,-0.11994808912277222,-0.2404787689447403,-0.06564263254404068
1726407230234125800,4.384125732421875,-0.11239137500524521,-0.21825973689556122,-0.043451305478811264
1726407230244121900,4.394121826171875,-0.10257771611213684,-0.20119436085224152,-0.029166970402002335
1726407230254117600,4.40411767578125,-0.0930505245923996,-0.2040593922138214,-0.01878383941948414
1726407230264114000,4.414114013671875,-0.08670244365930557,-0.20455105602741241,-0.007699044421315193
1726407230274110000,4.42410986328125,-0.07737472653388977,-0.20366103947162628,0.00733316782861948
1726407230284105700,4.434105712890625,-0.06425753980875015,-0.20125916600227356,0.03196249157190323
1726407230294101800,4.444101806640625,-0.05177264288067818,-0.19865219295024872,0.054984722286462784
1726407230304097800,4.454097900390625,-0.04509731009602547,-0.1988159716129303,0.06375614553689957
1726407230314093800,4.46409375,-0.04589466378092766,-0.2160855084657669,0.046429622918367386
1726407230324089900,4.47408984375,-0.04146836698055267,-0.23948748409748077,0.011122005060315132
1726407230334085600,4.484085693359375,-0.030228495597839355,-0.26163941621780396,-0.024563288316130638
1726407230344082000,4.49408203125,-0.018053516745567322,-0.2778034210205078,-0.06024845689535141
1726407230354077700,4.50407763671875,-0.011002530343830585,-0.28661900758743286,-0.09530417621135712
1726407230364073700,4.51407373046875,-0.0014900339301675558,-0.29050010442733765,-0.1248989850282669
1726407230374070000,4.524070068359375,0.006366557441651821,-0.2866433262825012,-0.1394835263490677
1726407230384065800,4.534065673828125,0.018812116235494614,-0.27471667528152466,-0.14184483885765076
1726407230394061800,4.544061767578125,0.0314653255045414,-0.2527349591255188,-0.12746430933475494
1726407230404057900,4.554057861328125,0.0406196266412735,-0.23383165895938873,-0.10517568141222
1726407230414054000,4.564053955078125,0.047767285257577896,-0.20650948584079742,-0.08458384871482849
1726407230424050000,4.5740498046875,0.05103415995836258,-0.18320852518081665,-0.07716529071331024
1726407230434045700,4.584045654296875,0.059863604605197906,-0.1782579869031906,-0.07890327274799347
1726407230444041700,4.594041748046875,0.06329114735126495,-0.1933971643447876,-0.08513116836547852
1726407230454038000,4.6040380859375,0.06108870729804039,-0.21378126740455627,-0.09635186940431595
1726407230464033800,4.61403369140625,0.06555809825658798,-0.22146962583065033,-0.12063363194465637
1726407230474029800,4.62402978515625,0.07370630651712418,-0.23672793805599213,-0.1448686718940735
1726407230484025600,4.634025634765625,0.0859740823507309,-0.23166945576667786,-0.1514878273010254
1726407230494022000,4.64402197265625,0.10460636019706726,-0.2012130171060562,-0.13636986911296844
1726407230504018700,4.654018798828125,0.11781810224056244,-0.17142309248447418,-0.10434363037347794
1726407230514014700,4.6640146484375,0.1259700506925583,-0.15841808915138245,-0.056131888180971146
1726407230524011000,4.674010986328125,0.1403384506702423,-0.15599925816059113,-0.010726568289101124
1726407230534006800,4.6840068359375,0.1470078080892563,-0.132548525929451,0.036228157579898834
1726407230544002800,4.6940029296875,0.1468387395143509,-0.09232299029827118,0.06212010607123375
1726407230553998600,4.70399853515625,0.1452922374010086,-0.06181515008211136,0.05964043736457825
1726407230563995000,4.713994873046875,0.14074842631816864,-0.05136804282665253,0.018408967182040215
1726407230573991000,4.723990966796875,0.14340706169605255,-0.0693073645234108,-0.04083491489291191
1726407230583986700,4.733986572265625,0.14189204573631287,-0.11112663894891739,-0.10074146091938019
1726407230593982700,4.743982666015625,0.12277454137802124,-0.17775359749794006,-0.15528114140033722
1726407230603978800,4.753978759765625,0.09525392204523087,-0.25879329442977905,-0.19319647550582886
1726407230613974800,4.763974853515625,0.06547179073095322,-0.335197776556015,-0.21990132331848145
1726407230623970800,4.773970703125,0.05314009264111519,-0.40437838435173035,-0.24360281229019165
1726407230633966800,4.783966796875,0.048915520310401917,-0.46088266372680664,-0.26493844389915466
1726407230643963000,4.793962890625,0.03960087150335312,-0.4739883542060852,-0.25426164269447327
1726407230653959000,4.803958984375,0.020182698965072632,-0.42529088258743286,-0.2277671992778778
1726407230663954700,4.81395458984375,-0.0012593308929353952,-0.21086980402469635,-0.2510232627391815
1726407230673951000,4.823950927734375,0.005000961944460869,0.07836601138114929,-0.28936532139778137
1726407230683946800,4.83394677734375,0.04832933470606804,0.2666999101638794,-0.27911922335624695
1726407230693942800,4.84394287109375,0.11846102029085159,0.364687442779541,-0.18524228036403656
1726407230703938800,4.853938720703125,0.1716662049293518,0.39749035239219666,-0.037197962403297424
1726407230713934800,4.863934814453125,0.17741598188877106,0.373328298330307,0.08855970203876495
1726407230723931000,4.873930908203125,0.15383048355579376,0.36103421449661255,0.14134539663791656
1726407230733926700,4.8839267578125,0.12161555141210556,0.37802359461784363,0.13421905040740967
1726407230743922700,4.893922607421875,0.09454900771379471,0.3963986337184906,0.09782706946134567
1726407230753919000,4.9039189453125,0.0922461673617363,0.3950902223587036,0.06180994585156441
1726407230763914800,4.913914794921875,0.0931999683380127,0.38552549481391907,0.042131587862968445
1726407230773910800,4.923910888671875,0.09903068840503693,0.3663819134235382,0.039908647537231445
1726407230783907800,4.933907958984375,0.08984953910112381,0.33945685625076294,0.03785143420100212
1726407230793903900,4.94390380859375,0.059977926313877106,0.3029893934726715,0.018327001482248306
1726407230803899600,4.953899658203125,0.03942437842488289,0.2533818185329437,-0.030046245083212852
1726407230813895700,4.963895751953125,0.03309111297130585,0.20480577647686005,-0.09639384597539902
1726407230823892000,4.97389208984375,0.034222010523080826,0.16083993017673492,-0.14591608941555023
1726407230833887700,4.9838876953125,0.03130904585123062,0.1354520171880722,-0.1670171171426773
1726407230843883800,4.9938837890625,0.030505063012242317,0.11431915313005447,-0.15341325104236603
1726407230853879800,5.0038798828125,0.03315996751189232,0.10014207661151886,-0.1169244721531868
1726407230863875800,5.013875732421875,0.034701697528362274,0.12320423126220703,-0.07261457294225693
1726407230873872000,5.023871826171875,0.04810858145356178,0.17618967592716217,-0.016723349690437317
1726407230883867600,5.03386767578125,0.055463626980781555,0.2441466897726059,0.04460382089018822
1726407230893864000,5.043864013671875,0.07014083862304688,0.32890287041664124,0.10062874108552933
1726407230903860000,5.05385986328125,0.07684188336133957,0.39089325070381165,0.14912889897823334
1726407230913855700,5.063855712890625,0.08093303442001343,0.43681761622428894,0.18190042674541473
1726407230923851800,5.073851806640625,0.07858823984861374,0.44072818756103516,0.19740352034568787
1726407230933847800,5.083847900390625,0.07035853713750839,0.426357239484787,0.20603856444358826
1726407230943843800,5.09384375,0.06789220869541168,0.40288516879081726,0.203924760222435
1726407230953839900,5.10383984375,0.0615011565387249,0.3980643153190613,0.1896478235721588
1726407230963835600,5.113835693359375,0.05812691152095795,0.3984738290309906,0.16476592421531677
1726407230973832000,5.12383203125,0.07019103318452835,0.40971291065216064,0.14487823843955994
1726407230983827700,5.13382763671875,0.08277923613786697,0.4372226893901825,0.14202313125133514
1726407230993823700,5.14382373046875,0.09898696839809418,0.46064653992652893,0.15106749534606934
1726407231003819800,5.15381982421875,0.11597798019647598,0.4698731303215027,0.1609857976436615
1726407231013815800,5.16381591796875,0.11877936124801636,0.4509098529815674,0.1739221066236496
1726407231023811800,5.173811767578125,0.11287228018045425,0.4548566937446594,0.17177703976631165
1726407231033808000,5.183807861328125,0.10726845264434814,0.47621259093284607,0.15798985958099365
1726407231043803600,5.1938037109375,0.12075937539339066,0.5139638185501099,0.13173960149288177
1726407231053800000,5.203800048828125,0.12881863117218018,0.5481910109519958,0.10547018051147461
1726407231063796700,5.213796630859375,0.13886471092700958,0.5629098415374756,0.07298475503921509
1726407231073792800,5.223792724609375,0.13831129670143127,0.557274580001831,0.05042138695716858
1726407231083788800,5.233788818359375,0.13597016036510468,0.5718039274215698,0.03157411515712738
1726407231093784800,5.243784912109375,0.13352245092391968,0.5539780855178833,0.021673545241355896
1726407231103780900,5.25378076171875,0.1366070657968521,0.5221313238143921,0.027200881391763687
1726407231113777000,5.26377685546875,0.13719747960567474,0.49497854709625244,0.04437640681862831
1726407231123773200,5.273773193359375,0.1408008635044098,0.49171510338783264,0.06130376085639
1726407231133769000,5.28376904296875,0.16629131138324738,0.5148502588272095,0.085477814078331
1726407231143765200,5.29376513671875,0.1777062863111496,0.5580734610557556,0.11887840181589127
1726407231153761000,5.303760986328125,0.17802080512046814,0.5953817367553711,0.1512664258480072
1726407231163757000,5.313757080078125,0.1871660351753235,0.5850099325180054,0.1710817813873291
1726407231173753300,5.32375341796875,0.17280441522598267,0.5502673983573914,0.18140766024589539
1726407231183749000,5.3337490234375,0.1510407030582428,0.5258371233940125,0.18049733340740204
1726407231193745200,5.3437451171875,0.1422562599182129,0.5237987041473389,0.17793723940849304
1726407231203741200,5.3537412109375,0.15683898329734802,0.47404220700263977,0.17117294669151306
1726407231213737200,5.3637373046875,0.15123116970062256,0.4034026563167572,0.16709885001182556
1726407231223733200,5.373733154296875,0.12466643005609512,0.34960636496543884,0.1520538181066513
1726407231233729000,5.38372900390625,0.08883465826511383,0.38175711035728455,0.13081936538219452
1726407231243725000,5.39372509765625,0.08405801653862,0.4216163754463196,0.12397851049900055
1726407231253721300,5.403721435546875,0.08551130443811417,0.46630555391311646,0.13927623629570007
1726407231263717000,5.413717041015625,0.08548253774642944,0.4839114546775818,0.1658545881509781
1726407231273713200,5.423713134765625,0.06348615884780884,0.4803904891014099,0.1986415535211563
1726407231283709000,5.433708984375,0.05146878957748413,0.45314180850982666,0.22672832012176514
1726407231293705200,5.443705322265625,0.0636088028550148,0.4207631051540375,0.23496681451797485
1726407231303701200,5.453701171875,0.06273608654737473,0.3711831569671631,0.2199186086654663
1726407231313697000,5.463697021484375,0.05411144345998764,0.3446279764175415,0.19613924622535706
1726407231323693000,5.473693115234375,0.03616621717810631,0.33442091941833496,0.16838519275188446
1726407231333689000,5.483689208984375,0.025662975385785103,0.35072240233421326,0.15859194099903107
1726407231343686100,5.49368603515625,0.02017986588180065,0.3766127824783325,0.1749233603477478
1726407231353682000,5.503681884765625,0.026868928223848343,0.3592151701450348,0.21102383732795715
1726407231363678200,5.51367822265625,0.040891390293836594,0.32015472650527954,0.2528187036514282
1726407231373674200,5.52367431640625,0.05127532035112381,0.3433668315410614,0.29453471302986145
1726407231383670000,5.533669921875,0.06568929553031921,0.39161768555641174,0.33441290259361267
1726407231393666000,5.543666015625,0.07537361234426498,0.4582662284374237,0.37008169293403625
1726407231403662000,5.553662109375,0.08626049757003784,0.5085674524307251,0.3909723162651062
1726407231413658000,5.563658203125,0.09076230227947235,0.5404372215270996,0.3907424807548523
1726407231423654100,5.573654052734375,0.08615648746490479,0.5443836450576782,0.3722814619541168
1726407231433650200,5.583650146484375,0.07032958418130875,0.5177286267280579,0.33641374111175537
1726407231443646200,5.593646240234375,0.059382252395153046,0.45843231678009033,0.28693652153015137
1726407231453642200,5.603642333984375,0.05338134989142418,0.376343309879303,0.22862659394741058
1726407231463638000,5.613637939453125,0.048358604311943054,0.27930715680122375,0.1691609025001526
1726407231473634300,5.62363427734375,0.04397423937916756,0.22121672332286835,0.12601450085639954
1726407231483630000,5.633630126953125,0.0304663497954607,0.20417867600917816,0.11052757501602173
1726407231493626000,5.643626220703125,0.028077760711312294,0.19345837831497192,0.11954157799482346
1726407231503622100,5.6536220703125,0.04759921506047249,0.15743400156497955,0.13046406209468842
1726407231513618200,5.6636181640625,0.0715319812297821,0.11504179984331131,0.144783616065979
1726407231523614200,5.6736142578125,0.0769365057349205,0.09387654811143875,0.15590466558933258
1726407231533610000,5.68360986328125,0.06828656047582626,0.08651290833950043,0.16960449516773224
1726407231543606000,5.69360595703125,0.043374668806791306,0.07300564646720886,0.17836976051330566
1726407231553602300,5.703602294921875,0.015410143882036209,0.037507567554712296,0.17592577636241913
1726407231563598000,5.71359814453125,-0.004598160739988089,-0.014506261795759201,0.15732863545417786
1726407231573594000,5.723593994140625,-0.011511193588376045,-0.06991386413574219,0.12538321316242218
1726407231583590100,5.733590087890625,-0.017647577449679375,-0.10508855432271957,0.08596879243850708
1726407231593586200,5.743586181640625,-0.017955705523490906,-0.12198790907859802,0.04752020537853241
1726407231603582200,5.753582275390625,-0.01358521543443203,-0.1321975141763687,0.013795590028166771
1726407231613578000,5.763577880859375,-0.015421198680996895,-0.15946029126644135,-0.017719991505146027
1726407231623574300,5.77357421875,-0.026901312172412872,-0.2080424427986145,-0.04116109386086464
1726407231633570300,5.7835703125,-0.03303324058651924,-0.28796419501304626,-0.05191813409328461
1726407231643567000,5.793567138671875,-0.046880465000867844,-0.34498462080955505,-0.052844151854515076
1726407231653563100,5.803563232421875,-0.05658475682139397,-0.39158913493156433,-0.05262124538421631
1726407231663559200,5.81355908203125,-0.056826017796993256,-0.4401501715183258,-0.051644422113895416
1726407231673555200,5.82355517578125,-0.05457165092229843,-0.46946120262145996,-0.05064946785569191
1726407231683551000,5.833551025390625,-0.0588231198489666,-0.47215163707733154,-0.04148820787668228
1726407231693547300,5.84354736328125,-0.06904007494449615,-0.4561343193054199,-0.028018472716212273
1726407231703543300,5.853543212890625,-0.0643984004855156,-0.4354557394981384,-0.03551455959677696
1726407231713539000,5.8635390625,-0.06555714458227158,-0.4024985730648041,-0.06004626676440239
1726407231723535000,5.87353515625,-0.0671674832701683,-0.37337738275527954,-0.09272445738315582
1726407231733531100,5.88353125,-0.05637529119849205,-0.31748536229133606,-0.1230115294456482
1726407231743527200,5.893527099609375,-0.041064850986003876,-0.26138338446617126,-0.13431435823440552
1726407231753523200,5.903523193359375,-0.02501184679567814,-0.2160651832818985,-0.1345207542181015
1726407231763519000,5.91351904296875,-0.023309264332056046,-0.20597849786281586,-0.12569108605384827
1726407231773515300,5.923515380859375,-0.02539238892495632,-0.25028470158576965,-0.12023399770259857
1726407231783511000,5.933510986328125,-0.023784928023815155,-0.3020536005496979,-0.12918539345264435
1726407231793507000,5.943507080078125,-0.0198501069098711,-0.3315747380256653,-0.15122145414352417
1726407231803503000,5.953503173828125,-0.013234211131930351,-0.33478233218193054,-0.17861832678318024
1726407231813499100,5.9634990234375,-0.020524615421891212,-0.33921727538108826,-0.2010815590620041
1726407231823495200,5.9734951171875,-0.02104589156806469,-0.3563190698623657,-0.21944516897201538
1726407231833491200,5.9834912109375,-0.0294063538312912,-0.3785865604877472,-0.2320038378238678
1726407231843487200,5.9934873046875,-0.03686763718724251,-0.4150691628456116,-0.2417094111442566
1726407231853483300,6.003483154296875,-0.03735925629734993,-0.4507763087749481,-0.24075308442115784
1726407231863479000,6.01347900390625,-0.04282398521900177,-0.48542556166648865,-0.22567597031593323
1726407231873475000,6.02347509765625,-0.04523148387670517,-0.5195177793502808,-0.20105451345443726
1726407231883471400,6.033471435546875,-0.056284669786691666,-0.5474768280982971,-0.17309775948524475
1726407231893467100,6.043467041015625,-0.08435012400150299,-0.5800603032112122,-0.14595428109169006
1726407231903463200,6.053463134765625,-0.10889517515897751,-0.6094918251037598,-0.13291004300117493
1726407231913459000,6.063458984375,-0.1316220611333847,-0.6512555480003357,-0.13556867837905884
1726407231923455200,6.073455322265625,-0.14872130751609802,-0.6992089152336121,-0.15130949020385742
1726407231933451300,6.083451171875,-0.15398797392845154,-0.7093605995178223,-0.16864880919456482
1726407231943448000,6.093447998046875,-0.16546858847141266,-0.6923601031303406,-0.18946677446365356
1726407231953444400,6.1034443359375,-0.18167205154895782,-0.670078456401825,-0.1992536187171936
1726407231963440000,6.113440185546875,-0.1878078579902649,-0.6698719263076782,-0.1947813630104065
1726407231973436200,6.123436279296875,-0.1825433224439621,-0.6864421367645264,-0.1591048538684845
1726407231983432000,6.133431884765625,-0.18936681747436523,-0.7104669213294983,-0.11110840737819672
1726407231993428200,6.14342822265625,-0.19731982052326202,-0.7076058983802795,-0.07339165359735489
1726407232003424300,6.15342431640625,-0.20408505201339722,-0.6703875660896301,-0.06415819376707077
1726407232013420000,6.163419921875,-0.1986870914697647,-0.6293109655380249,-0.06724505871534348
1726407232023416000,6.173416015625,-0.1965021938085556,-0.5984281897544861,-0.057378657162189484
1726407232033412000,6.183412109375,-0.2012074738740921,-0.5597646832466125,-0.03436202183365822
1726407232043408100,6.193408203125,-0.2078084647655487,-0.5591864585876465,-0.003950426355004311
1726407232053404200,6.203404052734375,-0.21383945643901825,-0.5839466452598572,0.020738674327731133
1726407232063400000,6.21339990234375,-0.2137712687253952,-0.6063719391822815,0.03167678043246269
1726407232073396200,6.223396240234375,-0.2137342393398285,-0.6250652074813843,0.0305878147482872
1726407232083392300,6.233392333984375,-0.21465513110160828,-0.6256993412971497,0.01319197379052639
1726407232093388000,6.243387939453125,-0.2220723032951355,-0.6313785314559937,-0.010116010904312134
1726407232103384300,6.25338427734375,-0.22993095219135284,-0.6642367839813232,-0.03320762515068054
1726407232113380000,6.263380126953125,-0.23951353132724762,-0.70757657289505,-0.06794057786464691
1726407232123375900,6.2733759765625,-0.2599116563796997,-0.7295306921005249,-0.09918468445539474
1726407232133372000,6.283371826171875,-0.2813844680786133,-0.7542067766189575,-0.13019239902496338
1726407232143368000,6.293367919921875,-0.2894328236579895,-0.7679994106292725,-0.1537046581506729
1726407232153364000,6.303364013671875,-0.2810949981212616,-0.7415587306022644,-0.15348148345947266
1726407232163360000,6.313360107421875,-0.26320183277130127,-0.6754934787750244,-0.1275423765182495
1726407232173355800,6.323355712890625,-0.2432084083557129,-0.5703707337379456,-0.07207886129617691
1726407232183352000,6.33335205078125,-0.21851663291454315,-0.4510960280895233,-0.0038462751545011997
1726407232193347800,6.343347900390625,-0.1989075243473053,-0.32680070400238037,0.06859064102172852
1726407232203344000,6.35334375,-0.1751583069562912,-0.22477588057518005,0.12397996336221695
1726407232213340200,6.363340087890625,-0.15056507289409637,-0.14887605607509613,0.1541234850883484
1726407232223336000,6.3733359375,-0.11816365271806717,-0.10799634456634521,0.165835902094841
1726407232233332000,6.38333203125,-0.08724381774663925,-0.11485158652067184,0.16695868968963623
1726407232243327700,6.39332763671875,-0.04655672237277031,-0.1494392603635788,0.16192510724067688
1726407232253324000,6.403323974609375,-0.017520811408758163,-0.17963071167469025,0.16089871525764465
1726407232263320800,6.41332080078125,-0.006698716431856155,-0.17144593596458435,0.1525583267211914
1726407232273316900,6.42331689453125,-0.014705510810017586,-0.156042218208313,0.1313004493713379
1726407232283313200,6.433313232421875,-0.028659772127866745,-0.14194536209106445,0.10363254696130753
1726407232293309000,6.443308837890625,-0.027476796880364418,-0.12789052724838257,0.06805405020713806
1726407232303305000,6.453304931640625,-0.012211848050355911,-0.1207984983921051,0.01723858341574669
1726407232313300700,6.46330078125,0.007302464917302132,-0.11294776946306229,-0.024066247045993805
1726407232323297000,6.473297119140625,0.036096248775720596,-0.09777796268463135,-0.05328179523348808
1726407232333293000,6.48329296875,0.06753912568092346,-0.07847217470407486,-0.07064240425825119
1726407232343288800,6.493288818359375,0.09888232499361038,-0.05219588428735733,-0.08055271953344345
1726407232353284900,6.503284912109375,0.12505747377872467,-0.031109508126974106,-0.09138938784599304
1726407232363281000,6.513281005859375,0.1533452272415161,-0.0219739880412817,-0.10531998425722122
1726407232373277000,6.52327685546875,0.1840251088142395,0.004701565485447645,-0.11530870199203491
1726407232383273000,6.53327294921875,0.2159029096364975,0.038352977484464645,-0.1046675518155098
1726407232393268700,6.543268798828125,0.23991744220256805,0.06863977760076523,-0.08251271396875381
1726407232403265000,6.55326513671875,0.2648616135120392,0.12087773531675339,-0.045716263353824615
1726407232413261000,6.563260986328125,0.2808741331100464,0.20463362336158752,-0.0005514499498531222
1726407232423256800,6.5732568359375,0.30460652709007263,0.29144397377967834,0.04574461281299591
1726407232433253000,6.583253173828125,0.33411142230033875,0.3410000503063202,0.076970174908638
1726407232443249000,6.593248779296875,0.3651655316352844,0.36018356680870056,0.07862125337123871
1726407232453245000,6.603244873046875,0.38732755184173584,0.33995896577835083,0.0414925217628479
1726407232463241000,6.613240966796875,0.3884371817111969,0.2951030433177948,-0.01930086500942707
1726407232473237000,6.623237060546875,0.37788787484169006,0.22366563975811005,-0.09156973659992218
1726407232483233000,6.63323291015625,0.37135636806488037,0.1408315896987915,-0.1512485295534134
1726407232493228800,6.643228759765625,0.36572402715682983,0.06258100271224976,-0.20110636949539185
1726407232503224800,6.653224853515625,0.35326892137527466,-0.014822255820035934,-0.23558464646339417
1726407232513221000,6.66322119140625,0.34241414070129395,-0.10162212699651718,-0.2660093903541565
1726407232523217000,6.673216796875,0.3375636637210846,-0.1965537816286087,-0.27656200528144836
1726407232533213000,6.683212890625,0.3322570323944092,-0.2846895158290863,-0.28079110383987427
1726407232543209000,6.693208984375,0.3457789123058319,-0.22830362617969513,-0.3506139814853668
1726407232553205000,6.703205078125,0.3645035922527313,-0.015004673972725868,-0.4777410626411438
1726407232563201000,6.713200927734375,0.3688561022281647,0.1870208978652954,-0.5857004523277283
1726407232573196800,6.72319677734375,0.34712284803390503,0.3144318461418152,-0.6018557548522949
1726407232583192800,6.73319287109375,0.30900657176971436,0.37631919980049133,-0.5092333555221558
1726407232593190000,6.74318994140625,0.29054635763168335,0.40483421087265015,-0.3252222239971161
1726407232603186000,6.75318603515625,0.30045703053474426,0.41674330830574036,-0.10113347321748734
1726407232613182000,6.763181884765625,0.326778382062912,0.4240627586841583,0.09628665447235107
1726407232623178000,6.773177978515625,0.31038525700569153,0.4309649169445038,0.22655317187309265
1726407232633174000,6.783174072265625,0.2600211501121521,0.4372478723526001,0.26876482367515564
1726407232643169800,6.793169677734375,0.21810200810432434,0.4182281494140625,0.24391283094882965
1726407232653165800,6.803165771484375,0.16497273743152618,0.367980420589447,0.1813943237066269
1726407232663162000,6.813162109375,0.11389917135238647,0.3496260344982147,0.10490167140960693
1726407232673158000,6.823157958984375,0.07570597529411316,0.343329519033432,0.011508344672620296
1726407232683154000,6.83315380859375,0.0464603528380394,0.3025260269641876,-0.06666584312915802
1726407232693150000,6.84314990234375,0.019786927849054337,0.2571297883987427,-0.12649935483932495
1726407232703146000,6.85314599609375,0.001663003582507372,0.22971832752227783,-0.16984085738658905
1726407232713142000,6.86314208984375,-0.005372002720832825,0.2251313030719757,-0.19505088031291962
1726407232723137800,6.8731376953125,-0.002952084643766284,0.2596498131752014,-0.19837188720703125
1726407232733134000,6.883134033203125,0.019355351105332375,0.3040332794189453,-0.16758094727993011
1726407232743129900,6.8931298828125,0.06293153762817383,0.34684881567955017,-0.10236486047506332
1726407232753126000,6.9031259765625,0.09997451305389404,0.37824109196662903,-0.015957798808813095
1726407232763122000,6.913121826171875,0.1200234666466713,0.4049970805644989,0.08220524340867996
1726407232773118000,6.923117919921875,0.13831593096256256,0.4403585195541382,0.17328187823295593
1726407232783114000,6.933114013671875,0.14844802021980286,0.4613249599933624,0.26056069135665894
1726407232793110000,6.943110107421875,0.1501079648733139,0.4988931119441986,0.3343763053417206
1726407232803105800,6.953105712890625,0.15195594727993011,0.5285952687263489,0.38061273097991943
1726407232813102000,6.96310205078125,0.13817329704761505,0.5250087976455688,0.3938260078430176
1726407232823097900,6.973097900390625,0.12398707866668701,0.507287859916687,0.36562249064445496
1726407232833094000,6.983093994140625,0.11606231331825256,0.4815869927406311,0.2995356321334839
1726407232843090000,6.99308984375,0.12195777148008347,0.45407894253730774,0.2055441290140152
1726407232853086000,7.0030859375,0.13852156698703766,0.4358173906803131,0.10873901844024658
1726407232863082000,7.01308203125,0.14460131525993347,0.4191942811012268,0.03244498744606972
1726407232873077800,7.023077880859375,0.1347646713256836,0.40869051218032837,-0.013761389069259167
1726407232883074000,7.033073974609375,0.1127406433224678,0.38982704281806946,-0.0368572399020195
1726407232893070000,7.043070068359375,0.09340742975473404,0.36221352219581604,-0.03330937400460243
1726407232903067000,7.05306689453125,0.0865628570318222,0.3342849314212799,-0.007305514067411423
1726407232913063200,7.063063232421875,0.07278819382190704,0.3173661231994629,0.029822679236531258
1726407232923059000,7.073058837890625,0.054805245250463486,0.3488702178001404,0.06388575583696365
1726407232933055000,7.083054931640625,0.03640573099255562,0.42833760380744934,0.09317706525325775
1726407232943050800,7.09305078125,0.028563689440488815,0.5108581185340881,0.1223713681101799
1726407232953047000,7.103047119140625,0.03954177349805832,0.5740906596183777,0.16315901279449463
1726407232963043000,7.11304296875,0.04810642823576927,0.6204947233200073,0.20583844184875488
1726407232973038800,7.123038818359375,0.03009919635951519,0.6631675958633423,0.24284972250461578
1726407232983035000,7.133034912109375,0.03425394743680954,0.6712734699249268,0.2625018358230591
1726407232993031000,7.143031005859375,0.03853444755077362,0.6298416256904602,0.262172669172287
1726407233003027000,7.15302685546875,0.03839150816202164,0.6062834858894348,0.24117639660835266
1726407233013023000,7.16302294921875,0.045105334371328354,0.6130620837211609,0.2064836621284485
1726407233023018800,7.173018798828125,0.06463611125946045,0.5872898697853088,0.15512578189373016
1726407233033015000,7.18301513671875,0.07205460965633392,0.5582731366157532,0.10438991338014603
1726407233043011000,7.193010986328125,0.07337815314531326,0.5373109579086304,0.07938238233327866
1726407233053006800,7.2030068359375,0.061649858951568604,0.5045197010040283,0.07209864258766174
1726407233063003000,7.2130029296875,0.04407013952732086,0.4748934507369995,0.07769060134887695
1726407233072999000,7.2229990234375,0.03899495303630829,0.4867229461669922,0.08026454597711563
1726407233082995000,7.232994873046875,0.03661246597766876,0.518271267414093,0.06358867138624191
1726407233092991000,7.242990966796875,0.03714429959654808,0.5214971899986267,0.03594266250729561
1726407233102987000,7.252987060546875,0.04470467194914818,0.5547635555267334,0.0294918455183506
1726407233112983000,7.262983154296875,0.04416724666953087,0.5633490681648254,0.028790101408958435
1726407233122979000,7.27297900390625,0.029637113213539124,0.5412216186523438,0.02554408274590969
1726407233132975000,7.28297509765625,0.005632977467030287,0.5627458095550537,0.009575768373906612
1726407233142971400,7.292971435546875,0.004311783704906702,0.578719437122345,-0.017415901646018028
1726407233152967200,7.30296728515625,0.03792273998260498,0.6281799077987671,-0.025155579671263695
1726407233162963200,7.312963134765625,0.06932806223630905,0.5946524739265442,-0.05465729534626007
1726407233172959000,7.322958984375,0.07011210173368454,0.5482538342475891,-0.08475688099861145
1726407233182955300,7.332955322265625,0.05682731047272682,0.4773346483707428,-0.07753434777259827
1726407233192951300,7.342951416015625,0.03905070945620537,0.42682114243507385,-0.030093323439359665
1726407233202947000,7.352947021484375,-0.012320843525230885,0.4242803454399109,0.07212383300065994
1726407233212943000,7.362943115234375,-0.07047869265079498,0.40150952339172363,0.22909186780452728
1726407233222939100,7.372939208984375,-0.08594484627246857,0.3652646541595459,0.4012364149093628
1726407233232936200,7.382936279296875,-0.09616952389478683,0.36737126111984253,0.5534222722053528
1726407233242932000,7.392931884765625,-0.1173212006688118,0.36326441168785095,0.6544235348701477
1726407233252928300,7.40292822265625,-0.13577131927013397,0.3118491768836975,0.6902494430541992
1726407233262924300,7.41292431640625,-0.13687944412231445,0.20495761930942535,0.66546630859375
1726407233272920000,7.422920166015625,-0.11397067457437515,0.0958457738161087,0.5946363210678101
1726407233282916000,7.432916015625,-0.0805610790848732,0.0569005161523819,0.49983668327331543
1726407233292912000,7.442912109375,-0.0624406635761261,0.10339292138814926,0.4085003733634949
1726407233302908200,7.452908203125,-0.08313925564289093,0.1783096194267273,0.33674171566963196
1726407233312904200,7.462904296875,-0.07361872494220734,0.23187990486621857,0.28682926297187805
1726407233322900200,7.472900146484375,-0.03784571588039398,0.25641629099845886,0.26928016543388367
1726407233332896300,7.482896240234375,-0.03499000892043114,0.28758513927459717,0.2698841691017151
1726407233342892300,7.492892333984375,-0.042504843324422836,0.3431828022003174,0.3143566846847534
1726407233352888000,7.50288818359375,-0.01894918642938137,0.37936878204345703,0.4052807092666626
1726407233362884400,7.51288427734375,0.02900698594748974,0.3931213915348053,0.5237895846366882
1726407233372880100,7.522880126953125,0.08453468978404999,0.38465678691864014,0.6445008516311646
1726407233382876200,7.532876220703125,0.1288183480501175,0.38683903217315674,0.7328689098358154
1726407233392872200,7.5428720703125,0.17063316702842712,0.36399418115615845,0.7634209394454956
1726407233402868200,7.5528681640625,0.21961256861686707,0.3257141709327698,0.7506604194641113
1726407233412864300,7.5628642578125,0.2662495970726013,0.2895849347114563,0.7188188433647156
1726407233422860000,7.572860107421875,0.284326434135437,0.2591428756713867,0.6786882281303406
1726407233432856000,7.58285595703125,0.2830134928226471,0.23627938330173492,0.6441746950149536
1726407233442852400,7.592852294921875,0.26293909549713135,0.17593616247177124,0.5970695614814758
1726407233452848000,7.60284814453125,0.19924427568912506,0.06787094473838806,0.5195825099945068
1726407233462844200,7.61284423828125,0.14341184496879578,-0.06626924127340317,0.41872259974479675
1726407233472840200,7.622840087890625,0.08777602761983871,-0.16674605011940002,0.30372941493988037
1726407233482836200,7.632836181640625,0.05204572528600693,-0.20689985156059265,0.15932537615299225
1726407233492832300,7.642832275390625,0.013315374031662941,-0.21482568979263306,-0.016811039298772812
1726407233502828000,7.652828125,-0.033107154071331024,-0.23475022614002228,-0.20343412458896637
1726407233512824300,7.66282421875,-0.07182233035564423,-0.25752267241477966,-0.3772413432598114
1726407233522820400,7.6728203125,-0.09406284242868423,-0.30621930956840515,-0.5099480748176575
1726407233532816100,7.682816162109375,-0.10418391972780228,-0.3521348536014557,-0.5602980852127075
1726407233542812200,7.692812255859375,-0.11117962747812271,-0.4439551830291748,-0.5232101082801819
1726407233552808200,7.70280810546875,-0.11097270250320435,-0.5793202519416809,-0.4124269187450409
1726407233562805200,7.71280517578125,-0.10308359563350677,-0.7369838953018188,-0.269549161195755
1726407233572801000,7.722801025390625,-0.10402768850326538,-0.861517608165741,-0.1273861676454544
1726407233582797300,7.73279736328125,-0.11025270819664001,-0.9331033229827881,-0.0068530854769051075
1726407233592793300,7.74279345703125,-0.11714709550142288,-0.9747820496559143,0.09395608305931091
1726407233602789000,7.7527890625,-0.13381101191043854,-0.9683235287666321,0.1639907956123352
1726407233612785200,7.76278515625,-0.15452800691127777,-0.8816629648208618,0.21591924130916595
1726407233622781200,7.77278125,-0.16804537177085876,-0.7408548593521118,0.2391911894083023
1726407233632777200,7.782777099609375,-0.16482853889465332,-0.5663312673568726,0.24476198852062225
1726407233642773200,7.792773193359375,-0.15125161409378052,-0.4248136579990387,0.2240777611732483
1726407233652769000,7.80276904296875,-0.1311814934015274,-0.3343212902545929,0.17307183146476746
1726407233662765300,7.812765380859375,-0.10815367847681046,-0.2783821225166321,0.09365503489971161
1726407233672761000,7.822760986328125,-0.08645797520875931,-0.2517039179801941,-0.029668491333723068
1726407233682757000,7.832757080078125,-0.06338448822498322,-0.26351916790008545,-0.17004981637001038
1726407233692753200,7.842753173828125,-0.04659991338849068,-0.29800713062286377,-0.2991476356983185
1726407233702749200,7.852749267578125,-0.03483184054493904,-0.31992608308792114,-0.3997279405593872
1726407233712745200,7.8627451171875,-0.025479886680841446,-0.3491646647453308,-0.4606091380119324
1726407233722741200,7.8727412109375,-0.016560403630137444,-0.3961371183395386,-0.4768986701965332
1726407233732737300,7.8827373046875,-0.014081531204283237,-0.41401809453964233,-0.45976096391677856
1726407233742733300,7.8927333984375,-0.01918320544064045,-0.40341755747795105,-0.42614686489105225
1726407233752729000,7.90272900390625,-0.03369104117155075,-0.40457576513290405,-0.389145165681839
1726407233762725000,7.91272509765625,-0.04348140209913254,-0.4266926050186157,-0.3589615821838379
1726407233772721400,7.922721435546875,-0.05834610015153885,-0.4696105122566223,-0.3410622179508209
1726407233782717200,7.93271728515625,-0.0808139368891716,-0.5061400532722473,-0.3386993408203125
1726407233792713200,7.942713134765625,-0.10584578663110733,-0.5429686903953552,-0.33816003799438477
1726407233802709000,7.952708984375,-0.13467130064964294,-0.6045413613319397,-0.31913891434669495
1726407233812705300,7.962705322265625,-0.1578783541917801,-0.6498329639434814,-0.2767499089241028
1726407233822701300,7.972701416015625,-0.1685824990272522,-0.6895886659622192,-0.2184070646762848
1726407233832697000,7.982697021484375,-0.17224274575710297,-0.6966199278831482,-0.15161365270614624
1726407233842693000,7.992693115234375,-0.17103789746761322,-0.6623567938804626,-0.0945860967040062
1726407233852689200,8.002689208984375,-0.17863990366458893,-0.6187291741371155,-0.0612742155790329
1726407233862685200,8.012685302734376,-0.19005149602890015,-0.5882944464683533,-0.0419730544090271
1726407233872681200,8.02268115234375,-0.2029755562543869,-0.5701687335968018,-0.03373190388083458
1726407233882677000,8.032677001953125,-0.20956555008888245,-0.5555133819580078,-0.03129561245441437
1726407233892673300,8.04267333984375,-0.21129101514816284,-0.5194560289382935,-0.02474024146795273
1726407233902669300,8.05266943359375,-0.1987249255180359,-0.49486100673675537,-0.015198329463601112
1726407233912666000,8.062666015625,-0.19386358559131622,-0.4655270576477051,0.009481715969741344
1726407233922662100,8.072662109375,-0.1838540881872177,-0.46142393350601196,0.05515701323747635
1726407233932658200,8.082658203125,-0.16854943335056305,-0.48664113879203796,0.10628305375576019
1726407233942654200,8.092654296875,-0.1548411250114441,-0.5050225257873535,0.15134461224079132
1726407233952650000,8.10264990234375,-0.15202189981937408,-0.5026254057884216,0.19005712866783142
1726407233962646300,8.112646240234374,-0.14320123195648193,-0.5026561617851257,0.21185964345932007
1726407233972642300,8.122642333984375,-0.11838563531637192,-0.5004910230636597,0.22827962040901184
1726407233982638000,8.13263818359375,-0.08148809522390366,-0.504204511642456,0.22245241701602936
1726407233992634400,8.14263427734375,-0.03789188712835312,-0.5098501443862915,0.1897517293691635
1726407234002630100,8.152630126953126,-0.02279370091855526,-0.5033220052719116,0.11770084500312805
1726407234012626200,8.162626220703125,-0.03037465550005436,-0.4707683026790619,0.004215826280415058
1726407234022622200,8.172622314453125,-0.04464409127831459,-0.42664778232574463,-0.13957901298999786
1726407234032618200,8.1826181640625,-0.0519866906106472,-0.3869253993034363,-0.27545881271362305
1726407234042614300,8.1926142578125,-0.035884492099285126,-0.35570067167282104,-0.36698776483535767
1726407234052610000,8.202610107421876,-0.0005161156877875328,-0.3769705593585968,-0.4206227660179138
1726407234062606000,8.212606201171875,0.02966928854584694,-0.31127339601516724,-0.4033358097076416
1726407234072602400,8.222602294921876,0.030023755505681038,-0.20314183831214905,-0.3489580452442169
1726407234082598100,8.23259814453125,0.023709110915660858,-0.10201454162597656,-0.28514331579208374
1726407234092594200,8.24259423828125,0.007987406104803085,0.00839266274124384,-0.23733079433441162
1726407234102590200,8.252590087890624,-0.0010841197799891233,0.11339059472084045,-0.20276084542274475
1726407234112586200,8.262586181640625,0.009509401395916939,0.19603300094604492,-0.17865604162216187
1726407234122582000,8.27258203125,0.029699746519327164,0.23722173273563385,-0.15339592099189758
1726407234132577800,8.282577880859375,0.05258828401565552,0.2402830272912979,-0.13326296210289001
1726407234142573800,8.29257373046875,0.06852301955223083,0.22332724928855896,-0.12893128395080566
1726407234152570000,8.302570068359374,0.06420470774173737,0.20519138872623444,-0.1444157063961029
1726407234162566000,8.31256591796875,0.047634560614824295,0.16983173787593842,-0.19172444939613342
1726407234172562000,8.32256201171875,0.014260893687605858,0.12817111611366272,-0.25368237495422363
1726407234182557700,8.3325576171875,-0.008688824251294136,0.09212076663970947,-0.31120625138282776
1726407234192554000,8.342553955078126,-0.007243527099490166,0.04725635051727295,-0.3318854570388794
1726407234202550000,8.352550048828125,0.016909262165427208,0.016156576573848724,-0.29657813906669617
1726407234212545800,8.3625458984375,0.047688744962215424,0.015349905006587505,-0.20710071921348572
1726407234222541800,8.372541748046874,0.0776485800743103,0.025454796850681305,-0.0909913033246994
1726407234232538000,8.3825380859375,0.09555540978908539,0.03367837145924568,0.024517981335520744
1726407234242534000,8.392533935546876,0.1051236167550087,0.044827695935964584,0.11745990812778473
1726407234252530700,8.40253076171875,0.11038628965616226,0.05267629772424698,0.17977041006088257
1726407234262527000,8.41252685546875,0.10653221607208252,0.06388749182224274,0.2080157995223999
1726407234272523000,8.42252294921875,0.1118694543838501,0.06163499131798744,0.20112168788909912
1726407234282518800,8.432518798828125,0.14398866891860962,0.023130707442760468,0.1856723427772522
1726407234292514800,8.442514892578124,0.17690400779247284,-0.04713546484708786,0.1596231609582901
1726407234302511000,8.452510986328125,0.19500990211963654,-0.12011658400297165,0.10711123794317245
1726407234312507000,8.4625068359375,0.17970524728298187,-0.20655293762683868,0.021465839818120003
1726407234322503000,8.4725029296875,0.12825775146484375,-0.33311325311660767,-0.1011258140206337
1726407234332498700,8.482498779296876,0.06060892716050148,-0.478107750415802,-0.25075817108154297
1726407234342495000,8.492494873046875,0.028005225583910942,-0.6270541548728943,-0.38840773701667786
1726407234352491000,8.502490966796875,0.027013996616005898,-0.7688708901405334,-0.4982855021953583
1726407234362486800,8.51248681640625,0.04013950750231743,-0.8774988651275635,-0.5654776096343994
1726407234372482800,8.52248291015625,0.04889065399765968,-0.9297546148300171,-0.5687026977539062
1726407234382478800,8.532478759765626,0.05668192729353905,-0.9258939027786255,-0.5170100331306458
1726407234392475000,8.542474853515625,0.07895740121603012,-0.8718019127845764,-0.4273509681224823
1726407234402471000,8.552470947265626,0.10584685951471329,-0.7131599187850952,-0.35075750946998596
1726407234412467000,8.562467041015625,0.12250759452581406,-0.2927040457725525,-0.34990984201431274
1726407234422463000,8.572462890625,0.19120115041732788,0.2195548564195633,-0.3812199831008911
1726407234432458800,8.582458740234374,0.2573775053024292,0.6484377384185791,-0.3547212779521942
1726407234442454800,8.592454833984375,0.34407368302345276,0.9904770851135254,-0.2230607569217682
1726407234452451000,8.602451171875,0.39133039116859436,1.2360211610794067,-0.02106691524386406
1726407234462446800,8.61244677734375,0.3885331153869629,1.2922651767730713,0.17631787061691284
1726407234472443000,8.62244287109375,0.3080238699913025,1.2589848041534424,0.3144826591014862
1726407234482439000,8.63243896484375,0.19790294766426086,1.1738512516021729,0.37486162781715393
1726407234492435000,8.64243505859375,0.13045573234558105,1.055351734161377,0.37754449248313904
1726407234502431000,8.652430908203126,0.10378716886043549,0.881901204586029,0.3233679234981537
1726407234512426800,8.6624267578125,0.07605194300413132,0.69354248046875,0.23380662500858307
1726407234522422800,8.6724228515625,0.040837161242961884,0.5572551488876343,0.12570933997631073
1726407234532419000,8.682419189453125,0.014678525738418102,0.4687362611293793,0.014897067099809647
1726407234542414800,8.692414794921875,0.0044314563274383545,0.41346025466918945,-0.057222623378038406
1726407234552411000,8.702410888671874,0.02323523722589016,0.39517179131507874,-0.06403020024299622
1726407234562406700,8.71240673828125,0.04663677141070366,0.36822596192359924,-0.02004583738744259
1726407234572404000,8.722404052734374,0.04471902921795845,0.32024940848350525,0.05215698853135109
1726407234582399000,8.73239892578125,0.018348747864365578,0.2733513116836548,0.1189127191901207
1726407234592395800,8.742395751953126,-0.008007757365703583,0.2641679346561432,0.159059077501297
1726407234602392000,8.75239208984375,-0.0073121157474815845,0.3449160158634186,0.17501160502433777
1726407234612387800,8.762387939453125,0.025748098269104958,0.4620106816291809,0.1837632805109024
1726407234622383900,8.7723837890625,0.06889903545379639,0.5585470795631409,0.2064608633518219
1726407234632380000,8.7823798828125,0.10737372189760208,0.6140497326850891,0.2387961745262146
1726407234642376000,8.7923759765625,0.12627185881137848,0.619390070438385,0.2499632090330124
1726407234652372000,8.8023720703125,0.12417434900999069,0.5891794562339783,0.2348332703113556
1726407234662367700,8.81236767578125,0.10416407883167267,0.5608392357826233,0.1862133890390396
1726407234672364000,8.822364013671875,0.0837341770529747,0.5580402612686157,0.11135752499103546
1726407234682359800,8.83235986328125,0.08616333454847336,0.5431420207023621,0.029191894456744194
1726407234692355800,8.84235595703125,0.1014794409275055,0.5104232430458069,-0.05481911823153496
1726407234702352000,8.852351806640625,0.1163097396492958,0.46982115507125854,-0.12602129578590393
1726407234712348000,8.862347900390626,0.12666437029838562,0.4364964962005615,-0.1830824464559555
1726407234722344000,8.872343994140625,0.10919815301895142,0.4185485243797302,-0.2298872172832489
1726407234732340000,8.882340087890626,0.08173004537820816,0.4222702980041504,-0.2626744508743286
1726407234742335700,8.892335693359374,0.05009011924266815,0.4248732626438141,-0.2764579653739929
1726407234752332000,8.90233203125,0.03870297223329544,0.42488789558410645,-0.26658323407173157
1726407234762327800,8.912327880859374,0.06828437745571136,0.39913210272789,-0.23151780664920807
1726407234772323800,8.92232373046875,0.11880907416343689,0.37914589047431946,-0.17773473262786865
1726407234782319900,8.93231982421875,0.14973555505275726,0.40219900012016296,-0.12989558279514313
1726407234792316000,8.94231591796875,0.14992676675319672,0.4525303542613983,-0.10212333500385284
1726407234802312000,8.95231201171875,0.14336331188678741,0.5266242623329163,-0.08511672914028168
1726407234812307700,8.9623076171875,0.13457408547401428,0.5819932222366333,-0.07982370257377625
1726407234822304000,8.972303955078125,0.13398481905460358,0.6106559038162231,-0.0980747789144516
1726407234832300000,8.982300048828124,0.14147789776325226,0.6180453896522522,-0.1268015056848526
1726407234842295800,8.9922958984375,0.14245761930942535,0.588151752948761,-0.16152264177799225
1726407234852291800,9.002291748046876,0.11474024504423141,0.5004026889801025,-0.19135190546512604
1726407234862288000,9.012287841796875,0.07909668236970901,0.35652339458465576,-0.21642941236495972
1726407234872284000,9.022283935546875,0.04130323603749275,0.20077639818191528,-0.24968989193439484
1726407234882280000,9.032280029296874,0.0014913505874574184,0.06787045300006866,-0.30596432089805603
1726407234892275700,9.042275634765625,-0.017934812232851982,-0.017121674492955208,-0.35192835330963135
1726407234902273000,9.05227294921875,-0.013004670850932598,-0.02169135771691799,-0.36597537994384766
1726407234912268800,9.062268798828125,-0.01280120573937893,0.025108104571700096,-0.3463665246963501
1726407234922264800,9.072264892578126,-0.00883474200963974,0.04386107251048088,-0.2746240496635437
1726407234932260900,9.0822607421875,-0.029396742582321167,0.026011236011981964,-0.17206627130508423
1726407234942257000,9.0922568359375,-0.06555555015802383,0.017947174608707428,-0.06232483312487602
1726407234952253000,9.1022529296875,-0.10771658271551132,0.026225343346595764,0.05260734260082245
1726407234962248700,9.112248779296875,-0.14409929513931274,0.04649101942777634,0.17834359407424927
1726407234972245000,9.122244873046874,-0.16554094851016998,0.09035834670066833,0.29674217104911804
1726407234982241000,9.132240966796875,-0.18189246952533722,0.20237180590629578,0.37139075994491577
1726407234992236800,9.14223681640625,-0.1855391412973404,0.3228529691696167,0.3886648118495941
1726407235002232800,9.15223291015625,-0.1500898152589798,0.36157894134521484,0.34047818183898926
1726407235012228900,9.162228759765625,-0.08224952220916748,0.2681698799133301,0.24593915045261383
1726407235022225000,9.172224853515624,-0.036605797708034515,0.1325274258852005,0.13501301407814026
1726407235032221000,9.182220947265625,-0.03357645124197006,0.1013822928071022,0.03351276367902756
1726407235042216700,9.192216796875,-0.029241574928164482,0.1506856083869934,-0.03526079282164574
1726407235052213000,9.202212890625,-0.02496240846812725,0.1925899237394333,-0.06365541368722916
1726407235062208800,9.212208740234376,-0.041185926645994186,0.2011955976486206,-0.05230357497930527
1726407235072204800,9.222204833984375,-0.06389922648668289,0.16634733974933624,-0.00833771750330925
1726407235082201000,9.232201171875,-0.09878753870725632,0.08291658759117126,0.05009651184082031
1726407235092196900,9.24219677734375,-0.12954677641391754,-0.038688141852617264,0.11475672572851181
1726407235102193000,9.25219287109375,-0.141990065574646,-0.17175187170505524,0.17687828838825226
1726407235112189000,9.26218896484375,-0.13637132942676544,-0.27255570888519287,0.2529509365558624
1726407235122185200,9.272185302734375,-0.1250203251838684,-0.33763834834098816,0.34107479453086853
1726407235132181200,9.28218115234375,-0.10078635066747665,-0.3530665934085846,0.42796599864959717
1726407235142177000,9.292177001953124,-0.07629171013832092,-0.34570077061653137,0.504970371723175
1726407235152173000,9.302173095703125,-0.05867756903171539,-0.3235512673854828,0.5816651582717896
1726407235162169300,9.31216943359375,-0.04636122286319733,-0.2670780122280121,0.6689083576202393
1726407235172165000,9.3221650390625,-0.04819081351161003,-0.18904714286327362,0.7666237354278564
1726407235182161200,9.3321611328125,-0.04703708365559578,-0.0985347256064415,0.8457754254341125
1726407235192157000,9.342156982421875,-0.03748911991715431,-0.032160766422748566,0.8924044966697693
1726407235202153200,9.3521533203125,-0.0356856994330883,-0.033458855003118515,0.8845711946487427
1726407235212149200,9.362149169921874,-0.0507298968732357,-0.09369663149118423,0.839343249797821
1726407235222145000,9.37214501953125,-0.07236965000629425,-0.1703350991010666,0.7610965967178345
1726407235232141300,9.382141357421874,-0.07700088620185852,-0.2129102647304535,0.6482627391815186
1726407235242137000,9.39213720703125,-0.0633145198225975,-0.21077999472618103,0.505892276763916
1726407235252134100,9.402134033203126,-0.05425257980823517,-0.20374685525894165,0.33018171787261963
1726407235262130200,9.412130126953125,-0.06999805569648743,-0.19945268332958221,0.13066479563713074
1726407235272126200,9.422126220703126,-0.0846417173743248,-0.19953951239585876,-0.06975405663251877
1726407235282122200,9.432122314453125,-0.11642652004957199,-0.26461413502693176,-0.252562552690506
1726407235292118000,9.442117919921875,-0.10860348492860794,-0.3021809458732605,-0.4013003706932068
1726407235302114300,9.4521142578125,-0.07406098395586014,-0.2972085475921631,-0.4973863959312439
1726407235312110000,9.462110107421875,-0.052013467997312546,-0.31091850996017456,-0.5519800782203674
1726407235322106000,9.472106201171876,-0.039677318185567856,-0.31952500343322754,-0.558583676815033
1726407235332102100,9.48210205078125,-0.0481184758245945,-0.33652397990226746,-0.5380669236183167
1726407235342098200,9.49209814453125,-0.06817743182182312,-0.3642268180847168,-0.48552295565605164
1726407235352094200,9.50209423828125,-0.07423665374517441,-0.3456006646156311,-0.4161209762096405
1726407235362090000,9.512090087890625,-0.07893649488687515,-0.3201887607574463,-0.31996405124664307
1726407235372086000,9.5220859375,-0.07092277705669403,-0.2956799566745758,-0.2007170170545578
1726407235382082300,9.532082275390625,-0.056772924959659576,-0.2669374644756317,-0.09057337790727615
1726407235392078000,9.542078125,-0.04168691486120224,-0.24028906226158142,-0.01407967321574688
1726407235402074000,9.55207421875,-0.046948328614234924,-0.2065954953432083,0.028960097581148148
1726407235412070100,9.562070068359375,-0.056406810879707336,-0.19441525638103485,0.04245246946811676
1726407235422066200,9.572066162109374,-0.06352776288986206,-0.21079322695732117,0.05427328124642372
1726407235432062200,9.582062255859375,-0.06791345775127411,-0.22500517964363098,0.07191672921180725
1726407235442058000,9.59205810546875,-0.06614049524068832,-0.238137349486351,0.107791468501091
1726407235452054300,9.60205419921875,-0.05794408544898033,-0.2542470693588257,0.16563080251216888
1726407235462050300,9.61205029296875,-0.04733828827738762,-0.2831861972808838,0.2304195761680603
1726407235472046000,9.622046142578125,-0.03313112258911133,-0.30088478326797485,0.2602062523365021
1726407235482042000,9.6320419921875,-0.01755308359861374,-0.2779095768928528,0.25095200538635254
1726407235492038100,9.6420380859375,-0.006602698005735874,-0.25564128160476685,0.20538052916526794
1726407235502034200,9.6520341796875,-0.007709653116762638,-0.2638798952102661,0.12488943338394165
1726407235512030200,9.6620302734375,-0.018436333164572716,-0.311035692691803,0.024385197088122368
1726407235522026000,9.67202587890625,-0.023551996797323227,-0.35087284445762634,-0.08063093572854996
1726407235532022300,9.682022216796875,-0.016853082925081253,-0.32329288125038147,-0.18219298124313354
1726407235542018000,9.69201806640625,-0.00955979898571968,-0.22724992036819458,-0.2701784074306488
1726407235552014000,9.70201416015625,-0.00037535536102950573,-0.12078952044248581,-0.33936306834220886
1726407235562010000,9.712010009765624,-0.0005751651478931308,-0.09032488614320755,-0.38509151339530945
1726407235572006100,9.722006103515625,-0.012598005123436451,-0.12379389256238937,-0.4160182774066925
1726407235582002200,9.732002197265626,-0.03579370304942131,-0.21382315456867218,-0.4399889409542084
1726407235591998200,9.741998291015625,-0.07028936594724655,-0.32095226645469666,-0.45368772745132446
1726407235601994000,9.751993896484375,-0.10013623535633087,-0.42372947931289673,-0.4626143276691437
1726407235611991000,9.761990966796875,-0.12519045174121857,-0.5216094851493835,-0.46948954463005066
1726407235621987000,9.771987060546875,-0.13555298745632172,-0.6086103916168213,-0.47167032957077026
1726407235631983000,9.781983154296874,-0.14705224335193634,-0.6654821634292603,-0.4503362774848938
1726407235641979100,9.791979248046875,-0.1633262038230896,-0.6836060285568237,-0.4034262001514435
1726407235651975200,9.80197509765625,-0.18336062133312225,-0.681721031665802,-0.33785200119018555
1726407235661971200,9.81197119140625,-0.1968308389186859,-0.6490052938461304,-0.2567313611507416
1726407235671967000,9.821967041015625,-0.19723111391067505,-0.5901268124580383,-0.17026947438716888
1726407235681963300,9.83196337890625,-0.18891049921512604,-0.5245667099952698,-0.08346208184957504
1726407235691959000,9.841958984375,-0.16566990315914154,-0.44738030433654785,-0.00969864334911108
1726407235701955000,9.851955078125,-0.1472126543521881,-0.35654377937316895,0.04626968130469322
1726407235711951400,9.861951416015625,-0.13546624779701233,-0.28134462237358093,0.07167064398527145
1726407235721947100,9.871947021484376,-0.11938156932592392,-0.2481619268655777,0.07653357088565826
1726407235731943200,9.881943115234375,-0.10799442231655121,-0.2800772488117218,0.07968888431787491
1726407235741939000,9.89193896484375,-0.1127966120839119,-0.3506094813346863,0.08378132432699203
1726407235751935200,9.901935302734374,-0.13460098206996918,-0.45069801807403564,0.09089196473360062
1726407235761931300,9.91193115234375,-0.15429361164569855,-0.5625337362289429,0.10179023444652557
1726407235771927000,9.921927001953126,-0.17464841902256012,-0.650242269039154,0.11385035514831543
1726407235781923000,9.931923095703125,-0.18270426988601685,-0.6810612678527832,0.12674576044082642
1726407235791919000,9.941919189453126,-0.17851565778255463,-0.6801248788833618,0.13572433590888977
1726407235801915100,9.9519150390625,-0.16064836084842682,-0.6669169664382935,0.14912691712379456
1726407235811911200,9.9619111328125,-0.1354127824306488,-0.6284494400024414,0.15134747326374054
1726407235821907000,9.971906982421874,-0.11670853197574615,-0.5736716389656067,0.12751096487045288
1726407235831903200,9.9819033203125,-0.10906685143709183,-0.5170525312423706,0.08344496786594391
1726407235841899300,9.991899169921876,-0.10950683057308197,-0.47517669200897217,0.020965922623872757
1726407235851895000,10.00189501953125,-0.10120149701833725,-0.44983217120170593,-0.04892980679869652
1726407235861891000,10.01189111328125,-0.0874030813574791,-0.45413538813591003,-0.1076565831899643
1726407235871887000,10.02188720703125,-0.07103662192821503,-0.4739498198032379,-0.1615818738937378
1726407235881883100,10.031883056640625,-0.06977953761816025,-0.5056015849113464,-0.19679594039916992
1726407235891879200,10.041879150390624,-0.06866820156574249,-0.5281828045845032,-0.2368410974740982
1726407235901875200,10.051875244140625,-0.06449466198682785,-0.5250352025032043,-0.26436397433280945
1726407235911871200,10.061871337890626,-0.05023849382996559,-0.5163964033126831,-0.2825448513031006
1726407235921867000,10.071866943359375,-0.042750630527734756,-0.4804920554161072,-0.28612837195396423
1726407235931863000,10.081863037109375,-0.03471134603023529,-0.4205605387687683,-0.28789588809013367
1726407235941859300,10.091859375,-0.01622670702636242,-0.34242820739746094,-0.291128545999527
1726407235951855000,10.101855224609375,0.00425699632614851,-0.26706662774086,-0.3017532229423523
1726407235961852200,10.11185205078125,0.020359409973025322,-0.19703985750675201,-0.318016916513443
1726407235971848200,10.12184814453125,0.03600841015577316,-0.13966499269008636,-0.32578030228614807
1726407235981844200,10.13184423828125,0.04815172404050827,-0.09250611066818237,-0.3307693898677826
1726407235991840000,10.141840087890625,0.05704907700419426,-0.07671143114566803,-0.3263669013977051
1726407236001836000,10.1518359375,0.06457430124282837,-0.09282548725605011,-0.3023868501186371
1726407236011832300,10.161832275390625,0.07383623719215393,-0.1252169907093048,-0.2621898949146271
1726407236021828000,10.171828125,0.07253717631101608,-0.14687037467956543,-0.20591522753238678
1726407236031824100,10.18182421875,0.06453225016593933,-0.15292400121688843,-0.15504033863544464
1726407236041820200,10.191820068359375,0.06756921857595444,-0.1501273214817047,-0.11080902069807053
1726407236051816200,10.201816162109376,0.07401113957166672,-0.11530595272779465,-0.0732099786400795
1726407236061812200,10.211812255859375,0.08653444051742554,-0.07320474833250046,-0.055877454578876495
1726407236071808000,10.22180810546875,0.10602771490812302,-0.02422548457980156,-0.04610232263803482
1726407236081804000,10.231803955078124,0.12065398693084717,0.02976936846971512,-0.04881562665104866
1726407236091800300,10.24180029296875,0.1398463100194931,0.06330788135528564,-0.05411318689584732
1726407236101796000,10.251796142578126,0.16041839122772217,0.05406371131539345,-0.060884471982717514
1726407236111792000,10.261792236328125,0.18958720564842224,-0.01608848012983799,-0.08858533948659897
1726407236121787600,10.27178759765625,0.22034986317157745,-0.13151541352272034,-0.14643444120883942
1726407236131783400,10.281783447265624,0.23545265197753906,-0.2552277743816376,-0.21182863414287567
1726407236141779700,10.29177978515625,0.22648204863071442,-0.3717251121997833,-0.2624824643135071
1726407236151775500,10.301775390625,0.19308654963970184,-0.4575667679309845,-0.28853777050971985
1726407236161771500,10.311771484375,0.14137974381446838,-0.36149024963378906,-0.33249178528785706
1726407236171767600,10.321767578125,0.12552568316459656,-0.049742210656404495,-0.37471407651901245
1726407236181763600,10.331763671875,0.15622743964195251,0.23922069370746613,-0.38792744278907776
1726407236191759600,10.341759521484375,0.22441795468330383,0.393049955368042,-0.34037989377975464
1726407236201755600,10.351755615234374,0.2822088897228241,0.4534752666950226,-0.22283662855625153
1726407236211751400,10.36175146484375,0.3185216188430786,0.4695810079574585,-0.07744960486888885
1726407236221747700,10.371747802734374,0.3066672682762146,0.44584834575653076,0.046347640454769135
1726407236231743500,10.381743408203125,0.28815245628356934,0.41228318214416504,0.08911453932523727
1726407236241739500,10.391739501953126,0.28030380606651306,0.429240882396698,0.055600300431251526
1726407236251735600,10.401735595703125,0.26707854866981506,0.4858977794647217,0.004208484198898077
1726407236261731600,10.411731689453125,0.24654521048069,0.5197644829750061,-0.03528386354446411
1726407236271727600,10.4217275390625,0.22174160182476044,0.4857649803161621,-0.0606779046356678
1726407236281723400,10.431723388671875,0.19242136180400848,0.41745784878730774,-0.08127710968255997
1726407236291719700,10.4417197265625,0.16169515252113342,0.3628193736076355,-0.10133284330368042
1726407236301715700,10.4517158203125,0.1318240612745285,0.32454046607017517,-0.12573647499084473
1726407236311711500,10.46171142578125,0.10458790510892868,0.3057720959186554,-0.154666930437088
1726407236321707500,10.47170751953125,0.07483149319887161,0.2877950966358185,-0.17146192491054535
1726407236331704600,10.48170458984375,0.04972507432103157,0.2522256374359131,-0.17408113181591034
1726407236341700600,10.49170068359375,0.02930387854576111,0.24060751497745514,-0.15622130036354065
1726407236351696400,10.5016962890625,0.028431428596377373,0.2765306532382965,-0.1163974478840828
1726407236361692700,10.511692626953124,0.033980414271354675,0.3445816934108734,-0.06550822407007217
1726407236371688700,10.521688720703125,0.04273742064833641,0.43081989884376526,-0.010819682851433754
1726407236381684500,10.5316845703125,0.054250460118055344,0.4961406886577606,0.05186942592263222
1726407236391680500,10.541680419921875,0.05839727073907852,0.5413877367973328,0.11853393912315369
1726407236401676500,10.551676513671875,0.05869532749056816,0.573888897895813,0.18357864022254944
1726407236411672600,10.561672607421874,0.06876180320978165,0.5882087349891663,0.24215300381183624
1726407236421668600,10.571668701171875,0.08310113847255707,0.5942620635032654,0.2811143398284912
1726407236431664400,10.581664306640626,0.08534777909517288,0.5929118394851685,0.2761281132698059
1726407236441660700,10.59166064453125,0.06635574251413345,0.5510671138763428,0.24228620529174805
1726407236451656700,10.60165673828125,0.04127169027924538,0.4950960576534271,0.1906736195087433
1726407236461652500,10.611652587890624,0.013620451092720032,0.4234413206577301,0.138454407453537
1726407236471648500,10.6216484375,-0.017390994355082512,0.3585003912448883,0.08071627467870712
1726407236481644500,10.63164453125,-0.03256307169795036,0.2971700131893158,0.018035171553492546
1726407236491640600,10.641640625,-0.03795011341571808,0.2366640269756317,-0.03327302262187004
1726407236501636600,10.65163671875,-0.04064871743321419,0.2197166383266449,-0.06282689422369003
1726407236511632400,10.66163232421875,-0.04018532857298851,0.2931697964668274,-0.06220078468322754
1726407236521628700,10.671628662109375,-0.025001194328069687,0.3947732746601105,-0.02506162039935589
1726407236531624400,10.68162451171875,-0.002107596257701516,0.5133952498435974,0.05790463462471962
1726407236541620500,10.691620361328125,0.022778166458010674,0.5898439884185791,0.17347703874111176
1726407236551616800,10.70161669921875,0.04302911087870598,0.6195118427276611,0.30920663475990295
1726407236561612500,10.711612548828125,0.04302557557821274,0.6158819198608398,0.4297345280647278
1726407236571608600,10.721608642578126,0.03204802796244621,0.5890726447105408,0.5067864656448364
1726407236581604600,10.7316044921875,0.011159182526171207,0.56280517578125,0.5317790508270264
1726407236591600600,10.7416005859375,-0.004866921808570623,0.5524803400039673,0.5015084743499756
1726407236601596700,10.7515966796875,0.008889999240636826,0.5797840356826782,0.43735992908477783
1726407236611592400,10.761592529296875,0.027670877054333687,0.5850131511688232,0.3582853376865387
1726407236621588500,10.77158837890625,0.05054128170013428,0.5499687790870667,0.3007217347621918
1726407236631584800,10.781584716796875,0.06538467854261398,0.4925992786884308,0.2838425934314728
1726407236641580500,10.79158056640625,0.0742461308836937,0.45357072353363037,0.298873633146286
1726407236651576600,10.80157666015625,0.06978879868984222,0.4556346833705902,0.31146958470344543
1726407236661572400,10.811572265625,0.06421029567718506,0.44821882247924805,0.3087209165096283
1726407236671568600,10.821568603515624,0.05719686299562454,0.42571085691452026,0.27963706851005554
1726407236681564700,10.831564697265625,0.04239135608077049,0.43486300110816956,0.2386561632156372
1726407236691561500,10.8415615234375,0.050347816199064255,0.41532790660858154,0.19672389328479767
1726407236701557800,10.851557861328125,0.06643626093864441,0.3789885342121124,0.16977345943450928
1726407236711553500,10.861553466796876,0.08324799686670303,0.36286813020706177,0.16984990239143372
1726407236721549600,10.871549560546875,0.0898754894733429,0.3388299345970154,0.1756383627653122
1726407236731545300,10.88154541015625,0.08717770874500275,0.336758017539978,0.180472269654274
1726407236741541600,10.891541748046874,0.06685827672481537,0.3539644777774811,0.18248705565929413
1726407236751537700,10.90153759765625,0.048778608441352844,0.38093164563179016,0.18154776096343994
1726407236761533400,10.911533447265626,0.030183497816324234,0.39081236720085144,0.17310020327568054
1726407236771529700,10.92152978515625,0.01704692281782627,0.40409141778945923,0.1668313890695572
1726407236781525500,10.931525390625,0.0005630216328427196,0.4316980242729187,0.1562112420797348
1726407236791521500,10.941521484375,-0.016618363559246063,0.4806826114654541,0.14372366666793823
1726407236801517600,10.951517578125,-0.038222167640924454,0.5403425693511963,0.13603505492210388
1726407236811513600,10.961513671875,-0.047425784170627594,0.5803911685943604,0.14775696396827698
1726407236821509600,10.971509521484375,-0.03085143305361271,0.6136079430580139,0.1793784648180008
1726407236831505700,10.981505615234376,0.010074693709611893,0.6748539805412292,0.2322792261838913
1726407236841501400,10.99150146484375,0.07316134870052338,0.7212813496589661,0.3006274700164795
1726407236851497700,11.001497802734375,0.1340760886669159,0.7474306225776672,0.36355769634246826
1726407236861493500,11.011493408203124,0.19629047811031342,0.7438713312149048,0.4091377258300781
1726407236871489500,11.021489501953125,0.2454654723405838,0.7099072337150574,0.42298853397369385
1726407236881485600,11.031485595703124,0.2726643681526184,0.6608644127845764,0.42445430159568787
1726407236891481600,11.041481689453125,0.2728118896484375,0.5877665281295776,0.416225403547287
1726407236901477600,11.0514775390625,0.24200545251369476,0.4887847602367401,0.38627028465270996
1726407236911473400,11.061473388671875,0.20029714703559875,0.41330039501190186,0.34290656447410583
1726407236921469400,11.071469482421875,0.15703213214874268,0.33388662338256836,0.28173983097076416
1726407236931465700,11.0814658203125,0.11107902973890305,0.24032017588615417,0.20973995327949524
1726407236941461500,11.09146142578125,0.07794191688299179,0.12580497562885284,0.15316227078437805
1726407236951457500,11.10145751953125,0.05959486961364746,0.004040731117129326,0.10847388952970505
1726407236961453600,11.11145361328125,0.051430340856313705,-0.09693387895822525,0.06458061188459396
1726407236971449600,11.12144970703125,0.03756299614906311,-0.14642713963985443,0.02130264602601528
1726407236981445600,11.131445556640625,0.021108631044626236,-0.12749814987182617,0.007173288147896528
1726407236991441400,11.14144140625,-0.010243167169392109,-0.06171274930238724,0.03349464014172554
1726407237001437700,11.151437744140624,-0.03175189718604088,0.033854227513074875,0.12581759691238403
1726407237011433700,11.161433837890625,-0.02447614073753357,0.1501813679933548,0.2609653174877167
1726407237021429500,11.171429443359376,-0.011986665427684784,0.24328583478927612,0.38159415125846863
1726407237031425500,11.181425537109375,-0.02424732595682144,0.21947477757930756,0.41129401326179504
1726407237041421600,11.191421630859375,-0.05673912540078163,0.10263767093420029,0.3405354619026184
1726407237051417600,11.20141748046875,-0.09534776955842972,-0.07546468824148178,0.22837591171264648
1726407237061414400,11.211414306640625,-0.12218163907527924,-0.2540469467639923,0.14125747978687286
1726407237071410700,11.22141064453125,-0.13370780646800995,-0.3771289587020874,0.116943359375
1726407237081406700,11.23140673828125,-0.13533703982830048,-0.4728353023529053,0.14168213307857513
1726407237091402500,11.241402587890626,-0.11413003504276276,-0.5440975427627563,0.20853440463542938
1726407237101398500,11.2513984375,-0.08614391088485718,-0.6127442717552185,0.296684205532074
1726407237111394600,11.26139453125,-0.06917265057563782,-0.6304196715354919,0.3608115017414093
1726407237121391400,11.271391357421875,-0.05980362370610237,-0.5901457667350769,0.3619118630886078
1726407237131387100,11.28138720703125,-0.06174453720450401,-0.5293455123901367,0.30877968668937683
1726407237141383200,11.291383056640624,-0.05757734179496765,-0.47156277298927307,0.23461991548538208
1726407237151379500,11.30137939453125,-0.043401867151260376,-0.4575417637825012,0.17381569743156433
1726407237161375200,11.311375244140624,-0.03164009377360344,-0.46780964732170105,0.11605776846408844
1726407237171371300,11.321371337890625,-0.03207019343972206,-0.4878177046775818,0.03686920180916786
1726407237181367000,11.331366943359376,-0.050806377083063126,-0.5323804616928101,-0.07346255332231522
1726407237191363300,11.34136328125,-0.08136268705129623,-0.5874786376953125,-0.2160138487815857
1726407237201359400,11.351359375,-0.11983314156532288,-0.6711597442626953,-0.3749808073043823
1726407237211355100,11.361355224609374,-0.15727078914642334,-0.7435231804847717,-0.5108038783073425
1726407237221351400,11.371351318359375,-0.19126896560192108,-0.785743236541748,-0.6059106588363647
1726407237231347200,11.38134716796875,-0.21099047362804413,-0.8292952179908752,-0.664995551109314
1726407237241343200,11.39134326171875,-0.21279068291187286,-0.8658260107040405,-0.690481424331665
1726407237251339300,11.40133935546875,-0.2192288637161255,-0.8871912360191345,-0.6915227174758911
1726407237261335300,11.411335205078124,-0.22785687446594238,-0.8864946365356445,-0.6729497313499451
1726407237271331300,11.421331298828125,-0.23715929687023163,-0.8356708884239197,-0.6321154832839966
1726407237281327400,11.431327392578124,-0.23100364208221436,-0.7376834750175476,-0.5707342624664307
1726407237291323100,11.4413232421875,-0.21410802006721497,-0.5903345346450806,-0.49149268865585327
1726407237301319400,11.4513193359375,-0.1948414146900177,-0.4050949811935425,-0.39782044291496277
1726407237311315200,11.461315185546875,-0.17448367178440094,-0.2509525418281555,-0.2990472614765167
1726407237321311200,11.471311279296875,-0.1529335081577301,-0.1482318937778473,-0.19089767336845398
1726407237331307300,11.481307373046874,-0.15188075602054596,-0.08796696364879608,-0.0773916244506836
1726407237341303300,11.49130322265625,-0.15910515189170837,-0.05990200117230415,0.03850819915533066
1726407237351299300,11.50129931640625,-0.16548901796340942,-0.0489066056907177,0.1439424753189087
1726407237361295000,11.511295166015625,-0.1534777283668518,-0.04206245392560959,0.23454661667346954
1726407237371291100,11.521291015625,-0.12902963161468506,-0.04118520766496658,0.2976403534412384
1726407237381287400,11.531287353515625,-0.11047745496034622,-0.044130999594926834,0.31061726808547974
1726407237391283200,11.541283203125,-0.10173989087343216,-0.036378536373376846,0.2855808734893799
1726407237401279200,11.551279296875,-0.09508924931287766,-0.043267395347356796,0.22928765416145325
1726407237411275300,11.561275146484375,-0.0938468873500824,-0.08945140242576599,0.17296180129051208
1726407237421271300,11.571271240234376,-0.10273677855730057,-0.16686882078647614,0.1200578585267067
1726407237431267300,11.581267333984375,-0.11144930869340897,-0.2447255402803421,0.06456663459539413
1726407237441264000,11.59126416015625,-0.11683940887451172,-0.354139119386673,0.011963840574026108
1726407237451260400,11.601260498046875,-0.13472652435302734,-0.4811761677265167,-0.015117311850190163
1726407237461256200,11.611256103515625,-0.15708398818969727,-0.6095051765441895,-0.029180753976106644
1726407237471252200,11.621252197265624,-0.17012441158294678,-0.7096895575523376,-0.04854645952582359
1726407237481248300,11.631248291015625,-0.17427974939346313,-0.7861267924308777,-0.08855356276035309
1726407237491244300,11.641244384765624,-0.1746446043252945,-0.8270705342292786,-0.1517525166273117
1726407237501240300,11.651240234375,-0.170367032289505,-0.8406599760055542,-0.21922926604747772
1726407237511236000,11.661236083984376,-0.1551542580127716,-0.8364101052284241,-0.273660808801651
1726407237521232400,11.671232421875,-0.15015947818756104,-0.8328294157981873,-0.2984676659107208
1726407237531228400,11.681228515625,-0.161668598651886,-0.8550691604614258,-0.29674968123435974
1726407237541224200,11.69122412109375,-0.19482801854610443,-0.8766590356826782,-0.27002614736557007
1726407237551220200,11.70122021484375,-0.22514811158180237,-0.9085349440574646,-0.22409193217754364
1726407237561216300,11.71121630859375,-0.24283088743686676,-0.9209780693054199,-0.16273607313632965
1726407237571212300,11.72121240234375,-0.24322637915611267,-0.8936021327972412,-0.11280845105648041
1726407237581208300,11.731208251953126,-0.22563707828521729,-0.8401992321014404,-0.0902007445693016
1726407237591204000,11.7412041015625,-0.1993844360113144,-0.7692265510559082,-0.08547709882259369
1726407237601200400,11.751200439453125,-0.16210705041885376,-0.6913917064666748,-0.10100075602531433
1726407237611196200,11.761196044921874,-0.1223955824971199,-0.5831978917121887,-0.09412473440170288
1726407237621192200,11.771192138671875,-0.08526869863271713,-0.4587598145008087,-0.04794210195541382
1726407237631188200,11.781188232421876,-0.04545550420880318,-0.3605664074420929,0.02237653359770775
1726407237641184300,11.791184326171875,-0.0006837004330009222,-0.2735322415828705,0.0782492533326149
1726407237651180300,11.80118017578125,0.036684710532426834,-0.19119875133037567,0.11274624615907669
1726407237661176300,11.81117626953125,0.06531860679388046,-0.11775529384613037,0.10177750885486603
1726407237671172400,11.82117236328125,0.08706624060869217,-0.04437588155269623,0.03187299147248268
1726407237681168400,11.83116845703125,0.10909578949213028,0.019258882850408554,-0.0652642622590065
1726407237691164200,11.8411640625,0.14566364884376526,0.060861192643642426,-0.16034923493862152
1726407237701160200,11.85116015625,0.1782107651233673,0.09953180700540543,-0.22788526117801666
1726407237711156500,11.861156494140625,0.20275498926639557,0.125033438205719,-0.24947337806224823
1726407237721152300,11.87115234375,0.2139682024717331,0.13019385933876038,-0.24109846353530884
1726407237731148300,11.881148193359374,0.2087678462266922,0.11226865649223328,-0.2436433732509613
1726407237741144000,11.89114404296875,0.1995832324028015,0.08029878884553909,-0.2647709846496582
1726407237751140400,11.901140380859376,0.18975457549095154,0.04657357558608055,-0.29277196526527405
1726407237761136400,11.911136474609375,0.1677360087633133,0.019532185047864914,-0.3090754747390747
1726407237771132200,11.921132080078126,0.16083069145679474,0.0034560123458504677,-0.30212780833244324
1726407237781128200,11.931128173828125,0.1619052141904831,-0.010326576419174671,-0.2618878483772278
1726407237791124200,11.941124267578125,0.16932931542396545,-0.01757889613509178,-0.20314647257328033
1726407237801120300,11.951120361328124,0.1704503297805786,0.012377705425024033,-0.14872071146965027
1726407237811116300,11.9611162109375,0.15719497203826904,0.09585954993963242,-0.1091940775513649
1726407237821112000,11.971112060546876,0.1414555013179779,0.1857287734746933,-0.08593124151229858
1726407237831109400,11.981109375,0.14188240468502045,0.23829451203346252,-0.07676330953836441
1726407237841105200,11.991105224609376,0.15257491171360016,0.2654834985733032,-0.0781405046582222
1726407237851101200,12.00110107421875,0.162150040268898,0.30102846026420593,-0.09252797067165375
1726407237861097200,12.01109716796875,0.1709982454776764,0.3376738131046295,-0.1142880842089653
1726407237871093200,12.02109326171875,0.17076095938682556,0.3320803642272949,-0.13640883564949036
1726407237881089300,12.03108935546875,0.1774832159280777,0.27842867374420166,-0.14939825236797333
1726407237891085300,12.041085205078126,0.1799256056547165,0.20614594221115112,-0.14512041211128235
1726407237901081300,12.051081298828125,0.17944476008415222,0.14293862879276276,-0.13382062315940857
1726407237911077400,12.061077392578126,0.17316024005413055,0.09127970039844513,-0.1262628436088562
1726407237921073200,12.0710732421875,0.15702539682388306,0.08292397111654282,-0.13521145284175873
1726407237931069400,12.0810693359375,0.1522679328918457,0.1451071798801422,-0.16795048117637634
1726407237941065200,12.091065185546874,0.16032882034778595,0.2686384320259094,-0.20034202933311462
1726407237951061200,12.101061279296875,0.1604931354522705,0.3911816477775574,-0.21407195925712585
1726407237961057300,12.111057373046876,0.16691841185092926,0.45600244402885437,-0.17826230823993683
1726407237971053300,12.12105322265625,0.18091891705989838,0.46700024604797363,-0.10371483117341995
1726407237981049300,12.13104931640625,0.18880030512809753,0.43808719515800476,-0.013366349041461945
1726407237991045000,12.141045166015624,0.1829725056886673,0.40596017241477966,0.056069452315568924
1726407238001041200,12.151041259765625,0.17178288102149963,0.39509254693984985,0.07016843557357788
1726407238011037400,12.161037353515624,0.1339995414018631,0.3914480209350586,0.03368685767054558
1726407238021033200,12.171033203125,0.11143097281455994,0.40589088201522827,-0.03426261991262436
1726407238031029200,12.181029296875,0.11339425295591354,0.4092824161052704,-0.10363077372312546
1726407238041025300,12.191025390625,0.1170063242316246,0.3771076798439026,-0.14898686110973358
1726407238051021300,12.201021240234375,0.0979255735874176,0.30080440640449524,-0.17651568353176117
1726407238061017300,12.211017333984374,0.07433391362428665,0.2053213268518448,-0.18856745958328247
1726407238071013000,12.22101318359375,0.03889629617333412,0.13748182356357574,-0.18334099650382996
1726407238081009400,12.231009521484374,0.005235707387328148,0.1111254096031189,-0.15898752212524414
1726407238091005400,12.24100537109375,-0.016136690974235535,0.10681375861167908,-0.11697988957166672
1726407238101001200,12.251001220703126,-0.012558153830468655,0.15848089754581451,-0.07113020122051239
1726407238110997200,12.260997314453125,0.010248092003166676,0.24822115898132324,-0.017255783081054688
1726407238120993300,12.2709931640625,0.024411847814917564,0.3158706724643707,0.027726061642169952
1726407238130989300,12.2809892578125,0.03901928290724754,0.3655737638473511,0.050730179995298386
1726407238140985300,12.2909853515625,0.05356261506676674,0.36614906787872314,0.05829634144902229
1726407238150981000,12.300981201171876,0.04778968170285225,0.34727656841278076,0.05667101591825485
1726407238160977400,12.310977294921875,0.03432188183069229,0.319183886051178,0.06103844195604324
1726407238170973200,12.32097314453125,0.033808156847953796,0.31671595573425293,0.06721564382314682
