time,seconds_elapsed,z,y,x
1726407225865854500,0.0158544921875,0.16386376321315765,-2.042484998703003,0.2851499915122986
1726407225875850500,0.0258505859375,0.11764833331108093,-1.9036132097244263,0.09398827701807022
1726407225885846300,0.03584619140625,0.008329568430781364,-1.4885139465332031,0.01212963368743658
1726407225895842600,0.045842529296875,-0.08994214236736298,-0.912684977054596,0.006571882404386997
1726407225905838600,0.055838623046875,-0.022840334102511406,-0.6798120737075806,-0.0014117417158558965
1726407225915834400,0.06583447265625,0.08356945961713791,-0.8536882400512695,-0.059788499027490616
1726407225925831400,0.07583154296875,0.05471544340252876,-0.9116948246955872,-0.09872844070196152
1726407225935827500,0.085827392578125,-0.13215669989585876,-0.767038881778717,-0.05775943771004677
1726407225945823500,0.095823486328125,-0.31454595923423767,-0.6889491081237793,0.09125161916017532
1726407225955819300,0.1058193359375,-0.37203481793403625,-0.7404594421386719,0.26366305351257324
1726407225965815600,0.115815673828125,-0.32075831294059753,-0.8627440929412842,0.38183045387268066
1726407225975811600,0.1258115234375,-0.23423966765403748,-0.8530749678611755,0.4530750811100006
1726407225985807400,0.135807373046875,-0.1950768083333969,-0.7052074670791626,0.4830563962459564
1726407225995803400,0.145803466796875,-0.22349406778812408,-0.4704087972640991,0.4965168237686157
1726407226005799400,0.15579931640625,-0.2872336506843567,-0.3375048041343689,0.5191256999969482
1726407226015795500,0.16579541015625,-0.2862248420715332,-0.32745110988616943,0.6122404932975769
1726407226025791500,0.17579150390625,-0.2039046585559845,-0.582647442817688,0.7445005178451538
1726407226035787300,0.185787353515625,-0.06029289960861206,-0.9897430539131165,0.895051121711731
1726407226045783600,0.195783447265625,0.09491799026727676,-1.3322969675064087,1.0775588750839233
1726407226055779600,0.205779541015625,0.21671313047409058,-1.5994361639022827,1.2174198627471924
1726407226065775400,0.215775390625,0.34072670340538025,-1.7983248233795166,1.294633388519287
1726407226075771400,0.225771484375,0.538939356803894,-1.9377362728118896,1.3414989709854126
1726407226085767400,0.235767333984375,0.8806272149085999,-2.109560012817383,1.452880859375
1726407226095763500,0.245763427734375,1.2447564601898193,-2.327268362045288,1.6526967287063599
1726407226105759500,0.255759521484375,1.3338834047317505,-2.4972264766693115,1.7212367057800293
1726407226115754800,0.265754638671875,1.501952052116394,-2.9901509284973145,1.7647501230239868
1726407226125751800,0.275751708984375,2.177213430404663,-3.311920642852783,1.925236701965332
1726407226135747800,0.285747802734375,2.859713315963745,-3.3118460178375244,2.2927122116088867
1726407226145744000,0.295743896484375,2.9458563327789307,-3.1399900913238525,2.322937250137329
1726407226155740000,0.305739990234375,3.1642415523529053,-3.10650634765625,2.080761194229126
1726407226165735700,0.315735595703125,3.447033166885376,-2.9759645462036133,1.9400691986083984
1726407226175732000,0.32573193359375,3.6078922748565674,-2.604207992553711,1.8850431442260742
1726407226185727700,0.335727783203125,3.7067761421203613,-2.190598249435425,1.9467164278030396
1726407226195723800,0.345723876953125,3.788784980773926,-2.240521192550659,2.1853444576263428
1726407226205719800,0.3557197265625,3.9254539012908936,-2.490166664123535,2.600564956665039
1726407226215715800,0.3657158203125,4.236487865447998,-2.6409478187561035,3.1328511238098145
1726407226225711900,0.3757119140625,4.76947021484375,-2.6790926456451416,3.6512129306793213
1726407226235707600,0.385707763671875,5.405649662017822,-2.6644344329833984,4.018011569976807
1726407226245703700,0.39570361328125,6.057600498199463,-2.572815179824829,4.318624973297119
1726407226255700000,0.405699951171875,6.640674114227295,-2.5070815086364746,4.525579929351807
1726407226265695700,0.41569580078125,7.061359405517578,-2.642899513244629,4.568881988525391
1726407226275691800,0.42569189453125,7.278502464294434,-3.021859884262085,4.535170078277588
1726407226285687800,0.435687744140625,7.406539440155029,-3.241198778152466,4.553112030029297
1726407226295683800,0.445683837890625,7.582979202270508,-3.2248706817626953,4.771423816680908
1726407226305680000,0.455679931640625,7.872455596923828,-3.0400285720825195,5.119194984436035
1726407226315675600,0.465675537109375,8.331297874450684,-2.3529231548309326,5.503198623657227
1726407226325672000,0.475671875,9.051898002624512,-1.186581015586853,5.8826985359191895
1726407226335668000,0.48566796875,10.002703666687012,0.18077217042446136,6.181928634643555
1726407226345664800,0.495664794921875,10.536172866821289,0.639272928237915,5.933907985687256
1726407226355660800,0.505660888671875,10.277626037597656,-0.13319560885429382,5.022428512573242
1726407226365656800,0.51565673828125,9.831783294677734,-0.17968986928462982,4.735389232635498
1726407226375652900,0.52565283203125,9.53073501586914,0.20780059695243835,4.969461917877197
1726407226385648600,0.535648681640625,9.32016372680664,0.7449719309806824,5.302920341491699
1726407226395645000,0.54564501953125,9.232625961303711,1.413735032081604,5.66417932510376
1726407226405641000,0.555640869140625,9.17743968963623,2.058978796005249,5.942704200744629
1726407226415636700,0.56563671875,9.030184745788574,2.5120437145233154,6.153885364532471
1726407226425632800,0.5756328125,8.534875869750977,2.673154592514038,6.321571350097656
1726407226435628800,0.58562890625,7.637569904327393,2.4596521854400635,6.509759426116943
1726407226445624800,0.595624755859375,6.401927947998047,1.9159611463546753,6.62730598449707
1726407226455620900,0.605620849609375,5.0754523277282715,1.4250060319900513,6.569272994995117
1726407226465616600,0.61561669921875,3.655203104019165,1.2165300846099854,6.200855255126953
1726407226475613000,0.625613037109375,2.202731132507324,1.1920015811920166,5.519514083862305
1726407226485608700,0.635608642578125,0.6940735578536987,1.2862389087677002,4.5705485343933105
1726407226495604700,0.645604736328125,-0.8176059126853943,1.3369766473770142,3.4319491386413574
1726407226505601000,0.65560107421875,-2.2702999114990234,1.3976985216140747,2.227350950241089
1726407226515596800,0.6655966796875,-3.556091070175171,1.465863823890686,0.9860659837722778
1726407226525592800,0.6755927734375,-4.601742267608643,1.4173429012298584,-0.15280498564243317
1726407226535588900,0.6855888671875,-5.396971225738525,1.4010379314422607,-1.161333680152893
1726407226545586000,0.6955859375,-6.01795768737793,1.4402955770492554,-2.1007142066955566
1726407226555581700,0.705581787109375,-6.4130401611328125,1.3873039484024048,-2.9295616149902344
1726407226565577700,0.71557763671875,-6.566932678222656,1.1945250034332275,-3.5652925968170166
1726407226575574000,0.725573974609375,-6.637852668762207,0.8943893313407898,-3.9887983798980713
1726407226585569800,0.73556982421875,-6.466722011566162,0.35253673791885376,-4.0808796882629395
1726407226595565800,0.74556591796875,-6.2808074951171875,-0.40526652336120605,-3.94779109954834
1726407226605561900,0.755561767578125,-6.209967613220215,-1.1135834455490112,-3.850067138671875
1726407226615558000,0.765557861328125,-6.060013294219971,-1.9347596168518066,-3.8524837493896484
1726407226625554000,0.775553955078125,-5.6342620849609375,-2.3111398220062256,-3.9006452560424805
1726407226635549700,0.7855498046875,-5.009925842285156,-2.1366517543792725,-4.02335786819458
1726407226645545700,0.795545654296875,-4.56447172164917,-1.327794075012207,-4.722959518432617
1726407226655542000,0.8055419921875,-3.7797114849090576,-0.14795564115047455,-5.089990139007568
1726407226665537800,0.815537841796875,-3.198256015777588,0.9457486867904663,-4.535184383392334
1726407226675533800,0.825533935546875,-2.7555644512176514,1.1488168239593506,-3.931835412979126
1726407226685529600,0.835529541015625,-2.448474168777466,1.0724406242370605,-2.7495784759521484
1726407226695526000,0.84552587890625,-2.1947755813598633,0.1195807233452797,-2.033064603805542
1726407226705522000,0.85552197265625,-2.099722146987915,-0.9097406268119812,-1.936825156211853
1726407226715517700,0.865517578125,-2.0364127159118652,-1.5851081609725952,-2.120990037918091
1726407226725513700,0.875513671875,-1.941746711730957,-2.134364604949951,-2.4596617221832275
1726407226735509800,0.885509765625,-1.7349834442138672,-2.260917901992798,-2.96703839302063
1726407226745505800,0.895505859375,-1.5341895818710327,-2.066531181335449,-3.820282459259033
1726407226755502600,0.905502685546875,-1.4137225151062012,-1.6336461305618286,-5.055531024932861
1726407226765499000,0.915498779296875,-1.407963514328003,-0.8961536884307861,-5.76108455657959
1726407226775495000,0.925494873046875,-1.681516170501709,-0.005573463626205921,-5.999438285827637
1726407226785490700,0.93549072265625,-2.157851219177246,0.7255808711051941,-6.001265048980713
1726407226795487000,0.945487060546875,-2.587674379348755,0.8671135306358337,-5.483407974243164
1726407226805482800,0.955482666015625,-3.401630401611328,-0.17523014545440674,-4.988022804260254
1726407226815478800,0.965478759765625,-4.0246124267578125,-0.9998183250427246,-4.213425636291504
1726407226825474800,0.975474853515625,-3.8544092178344727,-1.4166895151138306,-3.304844379425049
1726407226835470800,0.985470947265625,-3.203117847442627,-1.5888727903366089,-2.4551093578338623
1726407226845467000,0.995466796875,-2.6152689456939697,-1.4150892496109009,-1.7546253204345703
1726407226855463000,1.005462890625,-2.301767110824585,-1.3515068292617798,-1.2210981845855713
1726407226865458700,1.015458740234375,-1.9491918087005615,-0.9006009101867676,-0.8528832197189331
1726407226875455000,1.025455078125,-1.3687201738357544,-0.21676532924175262,-0.10539353638887405
1726407226885450800,1.03545068359375,-0.9349106550216675,0.6221479773521423,0.7791013717651367
1726407226895446800,1.04544677734375,-0.577052652835846,1.1284812688827515,1.5731066465377808
1726407226905442800,1.05544287109375,-0.6501386165618896,0.7160795331001282,1.8937642574310303
1726407226915438800,1.06543896484375,-1.2222583293914795,-0.24769581854343414,1.9732763767242432
1726407226925435000,1.075434814453125,-1.7458208799362183,-0.7564160227775574,1.6646780967712402
1726407226935430700,1.0854306640625,-1.8063273429870605,-0.9247336983680725,0.9276743531227112
1726407226945426700,1.0954267578125,-1.4795838594436646,-0.9122080206871033,0.08058059960603714
1726407226955423000,1.105423095703125,-0.9768394827842712,-0.5380991697311401,-0.6230816841125488
1726407226965418800,1.115418701171875,-0.48295122385025024,-0.15246251225471497,-1.0262725353240967
1726407226975415800,1.125415771484375,-0.27860498428344727,-0.0455901212990284,-1.333709955215454
1726407226985411800,1.135411865234375,-0.2856200337409973,-0.18805618584156036,-1.740250825881958
1726407226995408000,1.145407958984375,-0.22516493499279022,-0.31853803992271423,-2.267672538757324
1726407227005403600,1.155403564453125,-0.05326961353421211,-0.12594754993915558,-2.883932113647461
1726407227015399700,1.165399658203125,0.3362744152545929,0.1568916141986847,-3.3924386501312256
1726407227025396000,1.17539599609375,0.5935128927230835,0.5724608302116394,-3.6069061756134033
1726407227035391700,1.185391845703125,1.1465123891830444,1.12045419216156,-3.43072772026062
1726407227045387800,1.1953876953125,1.219628930091858,1.3571125268936157,-3.047506332397461
1726407227055383800,1.2053837890625,1.4261962175369263,1.1547915935516357,-2.5943617820739746
1726407227065379800,1.2153798828125,1.5239510536193848,0.8978075385093689,-2.0718400478363037
1726407227075375900,1.2253759765625,1.6821454763412476,0.5134286880493164,-1.4662933349609375
1726407227085371600,1.23537158203125,1.874381184577942,0.1970885694026947,-0.8367417454719543
1726407227095368000,1.245367919921875,3.039098024368286,-0.7926867008209229,-0.5097431540489197
1726407227105364000,1.255364013671875,3.3127450942993164,-1.3976613283157349,-0.4142421782016754
1726407227115360300,1.2653603515625,3.8554916381835938,-2.7193896770477295,-0.3678254187107086
1726407227125356300,1.275356201171875,4.856377601623535,-3.9952614307403564,-0.31014081835746765
1726407227135352300,1.285352294921875,5.951709270477295,-5.0570244789123535,-0.24787691235542297
1726407227145348400,1.295348388671875,6.922848701477051,-5.6702961921691895,0.0183438528329134
1726407227155344100,1.30534423828125,7.713336944580078,-6.322094917297363,0.45186811685562134
1726407227165340200,1.315340087890625,8.436758041381836,-7.152532577514648,1.053720474243164
1726407227175336400,1.32533642578125,8.835626602172852,-7.605005264282227,1.748763918876648
1726407227185332200,1.335332275390625,9.041726112365723,-7.8511247634887695,2.345459222793579
1726407227195329300,1.345329345703125,8.945333480834961,-8.010079383850098,2.655956268310547
1726407227205325300,1.3553251953125,8.460077285766602,-7.649515151977539,2.6515231132507324
1726407227215321300,1.3653212890625,7.598293781280518,-6.692066192626953,2.7966525554656982
1726407227225317000,1.375317138671875,6.918991565704346,-6.664325714111328,2.817566156387329
1726407227235313200,1.385313232421875,5.940243721008301,-6.746346473693848,2.989670991897583
1726407227245309400,1.395309326171875,4.3545331954956055,-5.760968208312988,3.2344844341278076
1726407227255305200,1.40530517578125,2.558760166168213,-3.9172797203063965,2.9779515266418457
1726407227265301200,1.41530126953125,1.3276902437210083,-1.9417115449905396,2.3768067359924316
1726407227275297300,1.42529736328125,0.4613897204399109,-0.8584057688713074,1.9510027170181274
1726407227285293300,1.435293212890625,0.1556204855442047,-0.15245266258716583,1.4193394184112549
1726407227295289300,1.445289306640625,0.217204749584198,0.07240815460681915,0.9800493717193604
1726407227305285000,1.45528515625,0.6311931610107422,-0.25878921151161194,1.0484284162521362
1726407227315281200,1.46528125,1.0354838371276855,0.3994600474834442,1.2103872299194336
1726407227325277400,1.47527734375,1.5766011476516724,1.0829906463623047,1.0961757898330688
1726407227335273200,1.485273193359375,1.9682856798171997,1.4343044757843018,0.7738168835639954
1726407227345269200,1.495269287109375,2.140824556350708,1.4359914064407349,0.2577279508113861
1726407227355265300,1.505265380859375,2.190358877182007,1.3709455728530884,-0.3084225356578827
1726407227365261300,1.51526123046875,2.2328221797943115,1.3549891710281372,-0.8298745155334473
1726407227375257300,1.52525732421875,2.3111979961395264,1.426729440689087,-1.2153838872909546
1726407227385253000,1.535253173828125,2.442803144454956,1.6259069442749023,-1.3642202615737915
1726407227395249400,1.54524951171875,2.687411069869995,1.8517677783966064,-1.288583755493164
1726407227405245200,1.5552451171875,2.9810242652893066,1.9804400205612183,-0.9885720610618591
1726407227415242200,1.5652421875,3.2488653659820557,1.8963872194290161,-0.6997463703155518
1726407227425238300,1.57523828125,3.405277729034424,1.5377280712127686,-0.5094794631004333
1726407227435234300,1.585234375,3.356417417526245,0.949053943157196,-0.3774612843990326
1726407227445230300,1.595230224609375,3.270453691482544,0.2889460623264313,-0.25146418809890747
1726407227455226000,1.60522607421875,3.1409502029418945,-0.405452698469162,-0.12738671898841858
1726407227465222400,1.615222412109375,2.8932909965515137,-0.9802443385124207,0.0003475425182841718
1726407227475218200,1.62521826171875,2.3248989582061768,-0.4682457745075226,0.006671485025435686
1726407227485214200,1.635214111328125,1.2972590923309326,1.538492202758789,-0.21961091458797455
1726407227495210200,1.645210205078125,0.3017161786556244,4.267019271850586,-0.42651164531707764
1726407227505206300,1.655206298828125,-0.2491919845342636,5.781061172485352,-0.402951717376709
1726407227515202300,1.665202392578125,-0.3409389555454254,5.438279151916504,-0.2272629737854004
1726407227525198300,1.6751982421875,-0.2275218367576599,3.975783348083496,0.032470326870679855
1726407227535194000,1.685194091796875,-0.016943829134106636,2.2891011238098145,0.330102801322937
1726407227545190400,1.6951904296875,0.2868725061416626,0.9773899912834167,0.5670444965362549
1726407227555186200,1.705186279296875,0.44375213980674744,0.25593510270118713,0.6478200554847717
1726407227565182200,1.71518212890625,0.44840067625045776,0.07429500669240952,0.5667949914932251
1726407227575178500,1.725178466796875,0.3833468556404114,0.10403452068567276,0.36636096239089966
1726407227585174300,1.73517431640625,0.30647578835487366,0.07906419038772583,0.1456509381532669
1726407227595170300,1.74517041015625,0.2797083556652069,-0.053526606410741806,-0.014111557975411415
1726407227605166000,1.755166015625,0.1552356630563736,-0.26830148696899414,0.009647566825151443
1726407227615162400,1.765162353515625,-0.0062371231615543365,-0.502697765827179,0.16294710338115692
1726407227625159200,1.7751591796875,-0.11420965939760208,-0.6920466423034668,0.29216501116752625
1726407227635155200,1.7851552734375,0.11539716273546219,-1.0895519256591797,0.06373823434114456
1726407227645151500,1.7951513671875,0.32754644751548767,-1.1940016746520996,-0.2110975980758667
1726407227655147300,1.805147216796875,0.5214658379554749,-1.0244117975234985,-0.4190526604652405
1726407227665143300,1.815143310546875,0.5589913725852966,-0.7437588572502136,-0.5553841590881348
1726407227675139000,1.82513916015625,0.44605791568756104,-0.41258302330970764,-0.5465573668479919
1726407227685135400,1.83513525390625,0.2522197365760803,-0.10875071585178375,-0.41772958636283875
1726407227695131400,1.84513134765625,0.11035127192735672,0.1528199017047882,-0.213264599442482
1726407227705127200,1.855127197265625,0.06006919592618942,0.35143205523490906,0.02099503017961979
1726407227715123200,1.865123291015625,0.02990729920566082,0.4120035469532013,0.2339850664138794
1726407227725119200,1.875119140625,0.09090407192707062,0.5032855272293091,0.40799787640571594
1726407227735115300,1.885115234375,0.17900410294532776,0.5503377318382263,0.5314183235168457
1726407227745111300,1.895111328125,0.23362873494625092,0.532433032989502,0.6000312566757202
1726407227755107000,1.905107177734375,0.23979102075099945,0.5279445052146912,0.6255427002906799
1726407227765103400,1.915103271484375,0.20102497935295105,0.5302444100379944,0.6048781871795654
1726407227775099400,1.925099365234375,0.13536635041236877,0.48236265778541565,0.5528887510299683
1726407227785095200,1.93509521484375,0.06650445610284805,0.3717288076877594,0.4920072853565216
1726407227795091200,1.94509130859375,0.03296274319291115,0.19944226741790771,0.42314645648002625
1726407227805087200,1.955087158203125,0.01811588741838932,-0.06341279298067093,0.34782668948173523
1726407227815083300,1.965083251953125,-0.014884673990309238,-0.34693560004234314,0.2571886479854584
1726407227825079300,1.975079345703125,-0.06019090116024017,-0.5919397473335266,0.16341902315616608
1726407227835075300,1.985075439453125,-0.10854911059141159,-0.7886437773704529,0.07285156846046448
1726407227845072400,1.995072265625,-0.13402198255062103,-0.9687943458557129,-0.0039009982720017433
1726407227855068200,2.005068115234375,-0.14557291567325592,-1.111875057220459,-0.0660804808139801
1726407227865064400,2.015064453125,-0.14933595061302185,-1.2111332416534424,-0.11266636103391647
1726407227875060200,2.025060302734375,-0.1537322998046875,-1.264078140258789,-0.13738982379436493
1726407227885056300,2.03505615234375,-0.17357897758483887,-1.2730295658111572,-0.14884939789772034
1726407227895052300,2.04505224609375,-0.19355295598506927,-1.2246772050857544,-0.15478718280792236
1726407227905048300,2.05504833984375,-0.2164105921983719,-1.1589754819869995,-0.14542457461357117
1726407227915044400,2.06504443359375,-0.2392040640115738,-1.0960359573364258,-0.1315913200378418
1726407227925040000,2.0750400390625,-0.251873254776001,-1.0637948513031006,-0.12251047044992447
1726407227935036200,2.0850361328125,-0.251910537481308,-1.0492777824401855,-0.10316500067710876
1726407227945032400,2.095032470703125,-0.2601109445095062,-1.0227481126785278,-0.0768314003944397
1726407227955028200,2.1050283203125,-0.28218188881874084,-0.9785138368606567,-0.050286341458559036
1726407227965024300,2.115024169921875,-0.2994026839733124,-0.9030352830886841,-0.043947216123342514
1726407227975020300,2.125020263671875,-0.3121946454048157,-0.832135021686554,-0.05441610515117645
1726407227985016300,2.135016357421875,-0.320872038602829,-0.7526165246963501,-0.08281578868627548
1726407227995012400,2.145012451171875,-0.3180820941925049,-0.6878615021705627,-0.14221040904521942
1726407228005008100,2.155008056640625,-0.30157262086868286,-0.6754229068756104,-0.23498454689979553
1726407228015004200,2.165004150390625,-0.27993497252464294,-0.680080235004425,-0.33239951729774475
1726407228025000400,2.17500048828125,-0.2786353528499603,-0.6712127327919006,-0.41435882449150085
1726407228034996200,2.184996337890625,-0.28419044613838196,-0.6766309142112732,-0.4689118266105652
1726407228044992300,2.1949921875,-0.2706030011177063,-0.7132622003555298,-0.4897089898586273
1726407228054988300,2.20498828125,-0.24735306203365326,-0.7217467427253723,-0.49065840244293213
1726407228064984300,2.214984375,-0.20750819146633148,-0.704364538192749,-0.46617862582206726
1726407228074981000,2.224981201171875,-0.16871924698352814,-0.6907227635383606,-0.4154030680656433
1726407228084977200,2.23497705078125,-0.1486898809671402,-0.6507178544998169,-0.34396883845329285
1726407228094973400,2.244973388671875,-0.15005581080913544,-0.6004813313484192,-0.2469770312309265
1726407228104969200,2.25496923828125,-0.17077147960662842,-0.5544408559799194,-0.1271800547838211
1726407228114965000,2.264965087890625,-0.19413059949874878,-0.5025640726089478,0.0013704627053812146
1726407228124961000,2.2749609375,-0.21114233136177063,-0.49231410026550293,0.13301052153110504
1726407228134957000,2.28495703125,-0.23924081027507782,-0.5148921012878418,0.23117808997631073
1726407228144953000,2.294953125,-0.25577956438064575,-0.5790194272994995,0.2884767949581146
1726407228154948900,2.304948974609375,-0.24717676639556885,-0.6430399417877197,0.3004562258720398
1726407228164945200,2.314945068359375,-0.2342527061700821,-0.6880244612693787,0.26263853907585144
1726407228174941200,2.324941162109375,-0.22191081941127777,-0.6970669627189636,0.2020931839942932
1726407228184937000,2.33493701171875,-0.21598581969738007,-0.6815420389175415,0.12406069785356522
1726407228194933000,2.34493310546875,-0.20924882590770721,-0.6808176636695862,0.04879629984498024
1726407228204929000,2.354928955078125,-0.20958438515663147,-0.7302736639976501,-0.008594286628067493
1726407228214925000,2.364925048828125,-0.2303413301706314,-0.7876394987106323,-0.05259343609213829
1726407228224921000,2.374921142578125,-0.2543177604675293,-0.852303147315979,-0.07663246244192123
1726407228234916900,2.384916748046875,-0.26801547408103943,-0.8730510473251343,-0.09971700608730316
1726407228244913200,2.3949130859375,-0.2577199637889862,-0.8685990571975708,-0.11119043827056885
1726407228254909000,2.404908935546875,-0.22487466037273407,-0.8752827644348145,-0.11324293166399002
1726407228264905000,2.414905029296875,-0.19559666514396667,-0.8490109443664551,-0.09698273986577988
1726407228274901000,2.42490087890625,-0.15360580384731293,-0.8186405301094055,-0.0759110078215599
1726407228284897000,2.43489697265625,-0.12953269481658936,-0.7286568284034729,-0.03588423132896423
1726407228294893000,2.44489306640625,-0.11031026393175125,-0.6103083491325378,0.012654276564717293
1726407228304889900,2.454889892578125,-0.09707701206207275,-0.4499450623989105,0.06275153160095215
1726407228314886100,2.46488623046875,-0.07832809537649155,-0.29485827684402466,0.10488992929458618
1726407228324882000,2.4748818359375,-0.044073186814785004,-0.15169845521450043,0.1419060081243515
1726407228334878000,2.4848779296875,-0.008975385688245296,0.00006178533658385277,0.1754663586616516
1726407228344874000,2.4948740234375,0.014388526789844036,0.1354832649230957,0.2079010009765625
1726407228354870000,2.5048701171875,0.02515142597258091,0.2439652681350708,0.23258771002292633
1726407228364866000,2.514865966796875,0.03380696475505829,0.3298090696334839,0.23410916328430176
1726407228374862000,2.524862060546875,0.05516072362661362,0.391815721988678,0.2171751856803894
1726407228384858000,2.534858154296875,0.08421474695205688,0.4313492774963379,0.19005781412124634
1726407228394854100,2.544854248046875,0.12584128975868225,0.44228020310401917,0.16223764419555664
1726407228404850000,2.554849853515625,0.1775020807981491,0.42909517884254456,0.13325126469135284
1726407228414846000,2.564845947265625,0.22275158762931824,0.3903680145740509,0.09684425592422485
1726407228424842200,2.57484228515625,0.25766721367836,0.36949628591537476,0.05367148295044899
1726407228434838000,2.584838134765625,0.28001752495765686,0.3790370523929596,-0.0005022721597924829
1726407228444834000,2.594833984375,0.2936427891254425,0.3935401141643524,-0.04778856039047241
1726407228454829800,2.604829833984375,0.3019960820674896,0.3948434591293335,-0.09036451578140259
1726407228464826000,2.614826171875,0.30078139901161194,0.3764322102069855,-0.12199647724628448
1726407228474822100,2.624822265625,0.2898581922054291,0.34197279810905457,-0.13556714355945587
1726407228484818000,2.63481787109375,0.2688855230808258,0.2886880040168762,-0.14307327568531036
1726407228494814000,2.64481396484375,0.23818939924240112,0.21560420095920563,-0.15300126373767853
1726407228504810000,2.65481005859375,0.19632025063037872,0.12830817699432373,-0.1991511881351471
1726407228514806000,2.664805908203125,0.15234346687793732,0.028265193104743958,-0.29053837060928345
1726407228524802000,2.674802001953125,0.10890305042266846,-0.10738690942525864,-0.3740327060222626
1726407228534799000,2.684799072265625,0.0694805383682251,-0.25038400292396545,-0.4053027629852295
1726407228544795100,2.694795166015625,0.05380517616868019,-0.3660152554512024,-0.37257063388824463
1726407228554791000,2.704791015625,0.05818501114845276,-0.4155266284942627,-0.29187899827957153
1726407228564787000,2.714786865234375,0.09433422237634659,-0.3373740315437317,-0.23537524044513702
1726407228574783000,2.724782958984375,0.12642797827720642,-0.15219272673130035,-0.22402670979499817
1726407228584779000,2.734779052734375,0.11928778141736984,0.017647702246904373,-0.23531398177146912
1726407228594775000,2.744775146484375,0.08752691745758057,0.10005229711532593,-0.2303226888179779
1726407228604771000,2.75477099609375,0.03436489775776863,0.07509448379278183,-0.19284269213676453
1726407228614767000,2.76476708984375,-0.016047675162553787,-0.009888849221169949,-0.14047908782958984
1726407228624763100,2.77476318359375,-0.043123502284288406,-0.12503674626350403,-0.09589776396751404
1726407228634759000,2.784759033203125,-0.04206622764468193,-0.2266768217086792,-0.0793858990073204
1726407228644755200,2.794755126953125,-0.046850331127643585,-0.26443031430244446,-0.08154279738664627
1726407228654751000,2.8047509765625,-0.04833477735519409,-0.2535316050052643,-0.0953851118683815
1726407228664747000,2.8147470703125,-0.04008137434720993,-0.19397187232971191,-0.11629544943571091
1726407228674743000,2.824742919921875,-0.01565193012356758,-0.09654784202575684,-0.14014992117881775
1726407228684739000,2.834739013671875,0.0060299295000731945,0.0034384073223918676,-0.13958106935024261
1726407228694735000,2.844735107421875,0.0005134574603289366,0.09823469072580338,-0.11815007776021957
1726407228704731000,2.85473095703125,-0.002936401404440403,0.1684153825044632,-0.09027902781963348
1726407228714727000,2.864726806640625,0.007736483123153448,0.206071674823761,-0.05580467730760574
1726407228724723200,2.87472314453125,0.031791750341653824,0.2452382594347,-0.041364483535289764
1726407228734719000,2.884718994140625,0.06654227524995804,0.3125877380371094,-0.04193120449781418
1726407228744715000,2.894715087890625,0.1099211722612381,0.3790415823459625,-0.0742739662528038
1726407228754712000,2.904712158203125,0.15733742713928223,0.41856157779693604,-0.11077098548412323
1726407228764708000,2.9147080078125,0.183970108628273,0.41400036215782166,-0.11566854268312454
1726407228774703900,2.924703857421875,0.19755195081233978,0.3959726393222809,-0.08044824004173279
1726407228784700000,2.934699951171875,0.21152715384960175,0.3964384198188782,-0.024888304993510246
1726407228794696200,2.9446962890625,0.20487192273139954,0.41645047068595886,0.027460919693112373
1726407228804692000,2.95469189453125,0.17837586998939514,0.43004485964775085,0.05615568161010742
1726407228814688000,2.96468798828125,0.14672206342220306,0.3957313597202301,0.0465129055082798
1726407228824684000,2.97468408203125,0.12005956470966339,0.32437223196029663,-0.0022740731947124004
1726407228834680000,2.98468017578125,0.09923524409532547,0.2454606294631958,-0.07559675723314285
1726407228844676000,2.994676025390625,0.07257140427827835,0.1769004762172699,-0.1589057594537735
1726407228854672000,3.004671875,0.05457136780023575,0.10975339263677597,-0.23222844302654266
1726407228864668200,3.014668212890625,0.042449455708265305,0.06806826591491699,-0.29093223810195923
1726407228874664200,3.024664306640625,0.025186313316226006,0.04954145476222038,-0.3234859108924866
1726407228884660000,3.034659912109375,0.007289072033017874,0.0741027221083641,-0.33448344469070435
1726407228894656000,3.044656005859375,0.007901598699390888,0.15175330638885498,-0.3222249150276184
1726407228904652000,3.054652099609375,0.01593901962041855,0.21862581372261047,-0.2665906846523285
1726407228914648000,3.06464794921875,0.03939853981137276,0.2661302089691162,-0.17331452667713165
1726407228924644000,3.07464404296875,0.05596686154603958,0.29626786708831787,-0.06198054552078247
1726407228934639900,3.084639892578125,0.0678485557436943,0.34374165534973145,0.05133029818534851
1726407228944636200,3.09463623046875,0.07006670534610748,0.38824334740638733,0.14667439460754395
1726407228954632000,3.1046318359375,0.06513000279664993,0.4289686679840088,0.2130289226770401
1726407228964628000,3.1146279296875,0.0706786960363388,0.4633775055408478,0.2404051423072815
1726407228974624000,3.1246240234375,0.08175158500671387,0.4730122983455658,0.23307639360427856
1726407228984620000,3.1346201171875,0.08968035131692886,0.49184349179267883,0.20308494567871094
1726407228994617000,3.1446171875,0.09612227231264114,0.5191283822059631,0.15843598544597626
1726407229004612900,3.15461279296875,0.10708597302436829,0.5345158576965332,0.11072678118944168
1726407229014609200,3.164609130859375,0.10608568787574768,0.5264861583709717,0.06286924332380295
1726407229024605000,3.17460498046875,0.10181504487991333,0.492165744304657,0.018758773803710938
1726407229034601000,3.18460107421875,0.10925405472517014,0.4359871745109558,-0.029451100155711174
1726407229044597000,3.194596923828125,0.10677731037139893,0.40157565474510193,-0.07293093204498291
1726407229054593000,3.204593017578125,0.10474425554275513,0.38842231035232544,-0.09679791331291199
1726407229064589000,3.214589111328125,0.10653842985630035,0.3944879174232483,-0.09757156670093536
1726407229074585000,3.224585205078125,0.11042637377977371,0.4073520600795746,-0.07575388252735138
1726407229084581000,3.2345810546875,0.10865937173366547,0.4309079945087433,-0.04060894623398781
1726407229094577200,3.2445771484375,0.11886007338762283,0.4669642448425293,-0.009367669001221657
1726407229104573000,3.254572998046875,0.12644875049591064,0.5113346576690674,0.016592292115092278
1726407229114568700,3.264568603515625,0.13377457857131958,0.5832580924034119,0.033068206161260605
1726407229124564700,3.274564697265625,0.15155170857906342,0.606856107711792,0.04314028099179268
1726407229134560500,3.284560546875,0.16512984037399292,0.6181992888450623,0.05002082139253616
1726407229144556800,3.294556884765625,0.1634962558746338,0.5763647556304932,0.061521150171756744
1726407229154552600,3.304552490234375,0.14487676322460175,0.5568243861198425,0.06395208835601807
1726407229164548600,3.314548583984375,0.12067794799804688,0.5162000060081482,0.048593103885650635
1726407229174544600,3.324544677734375,0.11568185687065125,0.4639894962310791,0.02075348235666752
1726407229184540700,3.334540771484375,0.11480780690908432,0.4085121154785156,-0.00586721021682024
1726407229194536700,3.34453662109375,0.11705151945352554,0.38845133781433105,-0.031248999759554863
1726407229204532700,3.35453271484375,0.1158168837428093,0.3749863803386688,-0.057499777525663376
1726407229214528500,3.364528564453125,0.10616558790206909,0.3601459264755249,-0.09156879782676697
1726407229224525600,3.374525634765625,0.09005772322416306,0.32082197070121765,-0.1303662657737732
1726407229234521600,3.384521484375,0.06595584750175476,0.2944526672363281,-0.1696670651435852
1726407229244517600,3.394517578125,0.027842283248901367,0.28125059604644775,-0.20056238770484924
1726407229254513700,3.404513671875,0.012084359303116798,0.25911304354667664,-0.2160167247056961
1726407229264509700,3.414509765625,-0.0008077367674559355,0.22762517631053925,-0.21487554907798767
1726407229274505700,3.424505615234375,0.013265471905469894,0.215896338224411,-0.20116080343723297
1726407229284501500,3.43450146484375,0.022653114050626755,0.20591747760772705,-0.1765633225440979
1726407229294497800,3.444497802734375,0.0336301326751709,0.21542896330356598,-0.14242185652256012
1726407229304493600,3.45449365234375,0.04348941892385483,0.2251199334859848,-0.10483799874782562
1726407229314489600,3.464489501953125,0.05000298097729683,0.25307565927505493,-0.06721872091293335
1726407229324485600,3.474485595703125,0.060455888509750366,0.305747926235199,-0.030176278203725815
1726407229334481700,3.484481689453125,0.0651899203658104,0.3714105784893036,0.00621208967640996
1726407229344477700,3.494477783203125,0.07760105282068253,0.43415170907974243,0.047869786620140076
1726407229354473500,3.504473388671875,0.08048392087221146,0.46728676557540894,0.09099248796701431
1726407229364469500,3.514469482421875,0.06802485883235931,0.485474556684494,0.1433161497116089
1726407229374465800,3.5244658203125,0.05132231116294861,0.48039883375167847,0.2022780030965805
1726407229384461600,3.534461669921875,0.017481256276369095,0.4376487135887146,0.2471059262752533
1726407229394457600,3.54445751953125,-0.02456073649227619,0.3600958585739136,0.27207067608833313
1726407229404453600,3.55445361328125,-0.06516329199075699,0.2877548336982727,0.26322630047798157
1726407229414449700,3.56444970703125,-0.09394673258066177,0.23072002828121185,0.20671190321445465
1726407229424445700,3.57444580078125,-0.11920148879289627,0.19715194404125214,0.12899260222911835
1726407229434441500,3.58444140625,-0.13561907410621643,0.14395104348659515,0.06054164096713066
1726407229444437800,3.594437744140625,-0.13210903108119965,0.10498793423175812,0.022899722680449486
1726407229454433800,3.604433837890625,-0.13341930508613586,0.08813198655843735,0.03858094662427902
1726407229464429600,3.6144296875,-0.14357900619506836,0.09246654808521271,0.10144273191690445
1726407229474425600,3.624425537109375,-0.15553845465183258,0.12556245923042297,0.19223442673683167
1726407229484422700,3.634422607421875,-0.14954474568367004,0.17553666234016418,0.27476391196250916
1726407229494418700,3.644418701171875,-0.14051184058189392,0.24914324283599854,0.34391075372695923
1726407229504414500,3.65441455078125,-0.13472212851047516,0.3285917341709137,0.4054116904735565
1726407229514410800,3.66441064453125,-0.1190401017665863,0.38919010758399963,0.4778432548046112
1726407229524406800,3.67440673828125,-0.09406018257141113,0.36988377571105957,0.5212863683700562
1726407229534402600,3.684402587890625,-0.05799352750182152,0.31776225566864014,0.5107050538063049
1726407229544398600,3.694398681640625,-0.03578249737620354,0.29767537117004395,0.4884391725063324
1726407229554394600,3.70439453125,-0.019583022221922874,0.2663469910621643,0.46779435873031616
1726407229564390700,3.714390625,-0.014335529878735542,0.25832635164260864,0.456595778465271
1726407229574386700,3.72438671875,-0.007480819243937731,0.27067357301712036,0.4439958333969116
1726407229584382500,3.734382568359375,0.01534779742360115,0.27240702509880066,0.4171072244644165
1726407229594378800,3.744378662109375,0.029258819296956062,0.2601732611656189,0.38139477372169495
1726407229604374500,3.75437451171875,0.032829586416482925,0.21982930600643158,0.3342283070087433
1726407229614370600,3.76437060546875,0.0360243134200573,0.13692057132720947,0.2679901719093323
1726407229624366800,3.774366943359375,0.031205588951706886,0.04803943261504173,0.1853027492761612
1726407229634362600,3.784362548828125,0.028809810057282448,-0.006809968966990709,0.11263227462768555
1726407229644358700,3.794358642578125,0.036671463400125504,-0.0439208522439003,0.07045499235391617
1726407229654354700,3.804354736328125,0.0623541884124279,-0.0923999696969986,0.04104756936430931
1726407229664350700,3.814350830078125,0.09542931616306305,-0.13513092696666718,0.0031760858837515116
1726407229674346800,3.8243466796875,0.10213648527860641,-0.15868552029132843,-0.04139164835214615
1726407229684342500,3.834342529296875,0.09538803994655609,-0.17799583077430725,-0.07782342284917831
1726407229694338600,3.844338623046875,0.06313875317573547,-0.1988838016986847,-0.10001847892999649
1726407229704334800,3.8543349609375,0.035171568393707275,-0.23761574923992157,-0.09487617760896683
1726407229714330600,3.86433056640625,0.031858596950769424,-0.2773306667804718,-0.06968720257282257
1726407229724327700,3.87432763671875,0.020895959809422493,-0.31430572271347046,-0.03910292685031891
1726407229734323700,3.88432373046875,-0.0044048684649169445,-0.3536507487297058,-0.016113456338644028
1726407229744319700,3.89431982421875,-0.021687185391783714,-0.41148075461387634,-0.00044368262751959264
1726407229754315500,3.9043154296875,-0.03502962365746498,-0.45686075091362,0.01375149842351675
1726407229764311600,3.9143115234375,-0.04801732674241066,-0.48071229457855225,0.030402380973100662
1726407229774307800,3.924307861328125,-0.0626537948846817,-0.5013637542724609,0.04921361804008484
1726407229784303600,3.9343037109375,-0.0634242445230484,-0.5120787620544434,0.06524771451950073
1726407229794299600,3.944299560546875,-0.0770452469587326,-0.49902471899986267,0.08044078201055527
1726407229804295400,3.95429541015625,-0.10042061656713486,-0.4698551297187805,0.08161736279726028
1726407229814291700,3.964291748046875,-0.11722622811794281,-0.4107885956764221,0.0736963227391243
1726407229824287700,3.974287841796875,-0.12229528278112411,-0.3314618170261383,0.06411586701869965
1726407229834283500,3.984283447265625,-0.11792956292629242,-0.2691795229911804,0.0630604550242424
1726407229844279600,3.994279541015625,-0.10680501163005829,-0.2335008978843689,0.062133144587278366
1726407229854275600,4.004275634765625,-0.10957229882478714,-0.22709067165851593,0.0626913458108902
1726407229864271600,4.014271728515625,-0.11902225762605667,-0.24290505051612854,0.05820418521761894
1726407229874267600,4.024267578125,-0.12554727494716644,-0.28399762511253357,0.05415378138422966
1726407229884263700,4.034263671875,-0.1374867558479309,-0.32170799374580383,0.050639741122722626
1726407229894259700,4.044259765625,-0.14082954823970795,-0.35014283657073975,0.04682529717683792
1726407229904255700,4.054255859375,-0.1393943727016449,-0.3668094277381897,0.03772846981883049
1726407229914251500,4.06425146484375,-0.13068531453609467,-0.35882899165153503,0.0167936272919178
1726407229924247800,4.074247802734375,-0.12767860293388367,-0.35656797885894775,-0.0070254188030958176
1726407229934243600,4.08424365234375,-0.1285763531923294,-0.37035462260246277,-0.02430001273751259
1726407229944239600,4.094239501953125,-0.13027358055114746,-0.35555198788642883,-0.010945325717329979
1726407229954235600,4.104235595703125,-0.11223732680082321,-0.32969188690185547,0.0253924410790205
1726407229964231700,4.114231689453125,-0.09425859153270721,-0.33575668931007385,0.08009696751832962
1726407229974227700,4.124227783203125,-0.08611251413822174,-0.3790469169616699,0.13030900061130524
1726407229984224500,4.134224609375,-0.08872241526842117,-0.43969881534576416,0.13925695419311523
1726407229994220800,4.144220703125,-0.09816518425941467,-0.49967318773269653,0.10686972737312317
1726407230004216600,4.154216552734375,-0.10738877207040787,-0.535350501537323,0.04286517575383186
1726407230014212600,4.164212646484375,-0.10309202969074249,-0.578468918800354,-0.04027258977293968
1726407230024208600,4.174208740234375,-0.09683919697999954,-0.6156847476959229,-0.12099646031856537
1726407230034204700,4.18420458984375,-0.09534142911434174,-0.6491460204124451,-0.17460589110851288
1726407230044200700,4.19420068359375,-0.10017000883817673,-0.6893699169158936,-0.19953174889087677
1726407230054196500,4.204196533203125,-0.11106846481561661,-0.7519949078559875,-0.20150648057460785
1726407230064192500,4.214192626953125,-0.11159151047468185,-0.7731366753578186,-0.18539994955062866
1726407230074188800,4.224188720703125,-0.11417530477046967,-0.7413787841796875,-0.1648896187543869
1726407230084184600,4.2341845703125,-0.10769796371459961,-0.6599347591400146,-0.15163373947143555
1726407230094180600,4.2441806640625,-0.1039959043264389,-0.5530136227607727,-0.14596067368984222
1726407230104176600,4.2541767578125,-0.08226104825735092,-0.49145227670669556,-0.13932833075523376
1726407230114172700,4.264172607421875,-0.05940553545951843,-0.4688417911529541,-0.1211373433470726
1726407230124169000,4.2741689453125,-0.04411046952009201,-0.47742462158203125,-0.1066012755036354
1726407230134164700,4.284164794921875,-0.03714177757501602,-0.4775734841823578,-0.11483603715896606
1726407230144160800,4.294160888671875,-0.04604365676641464,-0.47395265102386475,-0.12774944305419922
1726407230154156800,4.30415673828125,-0.05921804904937744,-0.43480923771858215,-0.1324765533208847
1726407230164152800,4.31415283203125,-0.07994703203439713,-0.3728678524494171,-0.11758042871952057
1726407230174148900,4.32414892578125,-0.09501839429140091,-0.32119640707969666,-0.0979103147983551
1726407230184144600,4.33414453125,-0.10246752202510834,-0.29793208837509155,-0.08484724909067154
1726407230194141000,4.344140869140625,-0.1104588657617569,-0.27938103675842285,-0.08084238320589066
1726407230204137000,4.354136962890625,-0.12370516359806061,-0.27697327733039856,-0.08075982332229614
1726407230214132700,4.3641328125,-0.1235661432147026,-0.26366811990737915,-0.07997046411037445
1726407230224128800,4.374128662109375,-0.1196555569767952,-0.2349211722612381,-0.06728024035692215
1726407230234125800,4.384125732421875,-0.11209884285926819,-0.21270214021205902,-0.045088913291692734
1726407230244121900,4.394121826171875,-0.10228562355041504,-0.19563713669776917,-0.0308053158223629
1726407230254117600,4.40411767578125,-0.0927584320306778,-0.19850216805934906,-0.020422184839844704
1726407230264114000,4.414114013671875,-0.08640998601913452,-0.198993518948555,-0.009336776100099087
1726407230274110000,4.42410986328125,-0.07708226889371872,-0.19810350239276886,0.0056954361498355865
1726407230284105700,4.434105712890625,-0.06396406888961792,-0.19570079445838928,0.03032648004591465
1726407230294101800,4.444101806640625,-0.051479168236255646,-0.19309382140636444,0.053348708897829056
1726407230304097800,4.454097900390625,-0.04480448737740517,-0.193258136510849,0.062119029462337494
1726407230314093800,4.46409375,-0.04560184106230736,-0.2105276733636856,0.044792503118515015
1726407230324089900,4.47408984375,-0.0411761999130249,-0.23393020033836365,0.009483782574534416
1726407230334085600,4.484085693359375,-0.029936326667666435,-0.25608211755752563,-0.026201510801911354
1726407230344082000,4.49408203125,-0.01776142045855522,-0.27224618196487427,-0.061886802315711975
1726407230354077700,4.50407763671875,-0.01071043498814106,-0.2810617685317993,-0.09694252163171768
1726407230364073700,4.51407373046875,-0.0011981561547145247,-0.2849430441856384,-0.12653769552707672
1726407230374070000,4.524070068359375,0.006658435333520174,-0.281086266040802,-0.1411222368478775
1726407230384065800,4.534065673828125,0.019104719161987305,-0.2691590189933777,-0.14348232746124268
1726407230394061800,4.544061767578125,0.03175792843103409,-0.24717730283737183,-0.12910179793834686
1726407230404057900,4.554057861328125,0.04091201350092888,-0.2282741814851761,-0.10681353509426117
1726407230414054000,4.564053955078125,0.048059672117233276,-0.20095200836658478,-0.08622170239686966
1726407230424050000,4.5740498046875,0.05132603645324707,-0.17765147984027863,-0.07880400121212006
1726407230434045700,4.584045654296875,0.0601554811000824,-0.1727009415626526,-0.08054198324680328
1726407230444041700,4.594041748046875,0.06358323991298676,-0.18783994019031525,-0.08676951378583908
1726407230454038000,4.6040380859375,0.06138080358505249,-0.20822404325008392,-0.09799021482467651
1726407230464033800,4.61403369140625,0.06584931910037994,-0.21591311693191528,-0.12227344512939453
1726407230474029800,4.62402978515625,0.07399752736091614,-0.23117142915725708,-0.14650848507881165
1726407230484025600,4.634025634765625,0.0862661749124527,-0.2261122316122055,-0.15312616527080536
1726407230494022000,4.64402197265625,0.10489845275878906,-0.19565579295158386,-0.1380082070827484
1726407230504018700,4.654018798828125,0.11811012774705887,-0.1658659279346466,-0.10598209500312805
1726407230514014700,4.6640146484375,0.12626206874847412,-0.15286092460155487,-0.05777035653591156
1726407230524011000,4.674010986328125,0.14063061773777008,-0.150441974401474,-0.01236479077488184
1726407230534006800,4.6840068359375,0.14729997515678406,-0.12699124217033386,0.03458993509411812
1726407230544002800,4.6940029296875,0.14713113009929657,-0.08676552027463913,0.06048225238919258
1726407230553998600,4.70399853515625,0.14558462798595428,-0.05625768005847931,0.05800258368253708
1726407230563995000,4.713994873046875,0.14104074239730835,-0.04581063240766525,0.016770990565419197
1726407230573991000,4.723990966796875,0.14369937777519226,-0.06374995410442352,-0.04247289150953293
1726407230583986700,4.733986572265625,0.14218297600746155,-0.10557036846876144,-0.10238176584243774
1726407230593982700,4.743982666015625,0.12306547164916992,-0.17219732701778412,-0.15692144632339478
1726407230603978800,4.753978759765625,0.09554543346166611,-0.2532365322113037,-0.19483579695224762
1726407230613974800,4.763974853515625,0.06576330214738846,-0.3296410143375397,-0.2215406447649002
1726407230623970800,4.773970703125,0.05343153327703476,-0.3988216817378998,-0.24524225294589996
1726407230633966800,4.783966796875,0.04920696094632149,-0.4553259611129761,-0.26657789945602417
1726407230643963000,4.793962890625,0.03989361971616745,-0.4684305787086487,-0.2558988928794861
1726407230653959000,4.803958984375,0.020475447177886963,-0.41973310708999634,-0.22940443456172943
1726407230663954700,4.81395458984375,-0.000966727442573756,-0.20531214773654938,-0.25266075134277344
1726407230673951000,4.823950927734375,0.005293565336614847,0.08392366021871567,-0.2910028100013733
1726407230683946800,4.83394677734375,0.04862266406416893,0.2722581624984741,-0.28075549006462097
1726407230693942800,4.84394287109375,0.11875434964895248,0.37024569511413574,-0.1868785321712494
1726407230703938800,4.853938720703125,0.17195764183998108,0.4030470550060272,-0.038837410509586334
1726407230713934800,4.863934814453125,0.17770741879940033,0.3788850009441376,0.08692025393247604
1726407230723931000,4.873930908203125,0.1541227251291275,0.36659157276153564,0.1397072970867157
1726407230733926700,4.8839267578125,0.1219077929854393,0.3835809528827667,0.1325809508562088
1726407230743922700,4.893922607421875,0.09484022855758667,0.40195515751838684,0.09618725627660751
1726407230753919000,4.9039189453125,0.09253738820552826,0.40064674615859985,0.06017012894153595
1726407230763914800,4.913914794921875,0.09349213540554047,0.3910827934741974,0.04049336537718773
1726407230773910800,4.923910888671875,0.0993228554725647,0.37193921208381653,0.03827042505145073
1726407230783907800,4.933907958984375,0.09014134109020233,0.3450138568878174,0.03621260076761246
1726407230793903900,4.94390380859375,0.060269732028245926,0.30854639410972595,0.016688166186213493
1726407230803899600,4.953899658203125,0.03971625491976738,0.25893887877464294,-0.031684957444667816
1726407230813895700,4.963895751953125,0.03338298946619034,0.21036282181739807,-0.09803255647420883
1726407230823892000,4.97389208984375,0.034513235092163086,0.16639643907546997,-0.1475559026002884
1726407230833887700,4.9838876953125,0.03160027042031288,0.14100852608680725,-0.16865693032741547
1726407230843883800,4.9938837890625,0.03079839237034321,0.1198774054646492,-0.15504950284957886
1726407230853879800,5.0038798828125,0.03345329686999321,0.10570032894611359,-0.11856073141098022
1726407230863875800,5.013875732421875,0.034994736313819885,0.12876224517822266,-0.07425132393836975
1726407230873872000,5.023871826171875,0.048401620239019394,0.1817476898431778,-0.01836009882390499
1726407230883867600,5.03386767578125,0.055755939334630966,0.24970410764217377,0.0429658442735672
1726407230893864000,5.043864013671875,0.07043315470218658,0.3344602882862091,0.09899076074361801
1726407230903860000,5.05385986328125,0.07713419944047928,0.3964506685733795,0.14749091863632202
1726407230913855700,5.063855712890625,0.08122535049915314,0.4423750340938568,0.18026244640350342
1726407230923851800,5.073851806640625,0.07887990027666092,0.44628506898880005,0.1957644373178482
1726407230933847800,5.083847900390625,0.07065019756555557,0.4319141209125519,0.2043994814157486
1726407230943843800,5.09384375,0.06818357855081558,0.40844181180000305,0.20228518545627594
1726407230953839900,5.10383984375,0.0617925263941288,0.40362095832824707,0.18800824880599976
1726407230963835600,5.113835693359375,0.058419369161129,0.404031366109848,0.16312819719314575
1726407230973832000,5.12383203125,0.0704834908246994,0.41527044773101807,0.14324051141738892
1726407230983827700,5.13382763671875,0.08307118713855743,0.4427798092365265,0.14038453996181488
1726407230993823700,5.14382373046875,0.09927891939878464,0.4662036597728729,0.14942890405654907
1726407231003819800,5.15381982421875,0.11627014726400375,0.475430428981781,0.15934757888317108
1726407231013815800,5.16381591796875,0.11907152831554413,0.4564671516418457,0.17228388786315918
1726407231023811800,5.173811767578125,0.11316437274217606,0.46041393280029297,0.17013870179653168
1726407231033808000,5.183807861328125,0.10756054520606995,0.4817698299884796,0.15635152161121368
1726407231043803600,5.1938037109375,0.12105132639408112,0.5195209383964539,0.1301010102033615
1726407231053800000,5.203800048828125,0.12911057472229004,0.5537481307983398,0.10383158922195435
1726407231063796700,5.213796630859375,0.1391562968492508,0.5684666633605957,0.07134555280208588
1726407231073792800,5.223792724609375,0.13860288262367249,0.5628314018249512,0.04878218472003937
1726407231083788800,5.233788818359375,0.13626116514205933,0.5773602724075317,0.029933931306004524
1726407231093784800,5.243784912109375,0.13381345570087433,0.5595344305038452,0.02003336325287819
1726407231103780900,5.25378076171875,0.13689953088760376,0.5276888608932495,0.025563150644302368
1726407231113777000,5.26377685546875,0.1374899446964264,0.5005360841751099,0.04273867607116699
1726407231123773200,5.273773193359375,0.1410926729440689,0.4972721040248871,0.059664927423000336
1726407231133769000,5.28376904296875,0.1665831208229065,0.5204072594642639,0.08383897691965103
1726407231143765200,5.29376513671875,0.17799822986125946,0.5636305809020996,0.117239810526371
1726407231153761000,5.303760986328125,0.178312748670578,0.6009388566017151,0.14962783455848694
1726407231163757000,5.313757080078125,0.18745777010917664,0.590566873550415,0.169442817568779
1726407231173753300,5.32375341796875,0.17309615015983582,0.555824339389801,0.17976869642734528
1726407231183749000,5.3337490234375,0.15133120119571686,0.5313930511474609,0.17885629832744598
1726407231193745200,5.3437451171875,0.14254675805568695,0.5293546319007874,0.176296204328537
1726407231203741200,5.3537412109375,0.15713129937648773,0.47959962487220764,0.16953496634960175
1726407231213737200,5.3637373046875,0.15152348577976227,0.4089600741863251,0.16546086966991425
1726407231223733200,5.373733154296875,0.12495765089988708,0.3551628887653351,0.15041400492191315
1726407231233729000,5.38372900390625,0.08912587910890579,0.3873136341571808,0.12917955219745636
1726407231243725000,5.39372509765625,0.08434923738241196,0.4271728992462158,0.12233869731426239
1726407231253721300,5.403721435546875,0.08580252528190613,0.4718620777130127,0.13763642311096191
1726407231263717000,5.413717041015625,0.0857737585902214,0.489467978477478,0.16421477496623993
1726407231273713200,5.423713134765625,0.0637773796916008,0.48594701290130615,0.19700174033641815
1726407231283709000,5.433708984375,0.05175906792283058,0.45869752764701843,0.22508691251277924
1726407231293705200,5.443705322265625,0.06389908492565155,0.42631882429122925,0.23332540690898895
1726407231303701200,5.453701171875,0.06302716583013535,0.3767395615577698,0.21827854216098785
1726407231313697000,5.463697021484375,0.05440252274274826,0.3501843810081482,0.1944991797208786
1726407231323693000,5.473693115234375,0.03645787760615349,0.33997780084609985,0.1667461097240448
1726407231333689000,5.483689208984375,0.025954635813832283,0.35627928376197815,0.1569528579711914
1726407231343686100,5.49368603515625,0.020472250878810883,0.38217025995254517,0.17328549921512604
1726407231353682000,5.503681884765625,0.027161313220858574,0.36477264761924744,0.2093859761953354
1726407231363678200,5.51367822265625,0.041183922439813614,0.32571232318878174,0.25118109583854675
1726407231373674200,5.52367431640625,0.05156785249710083,0.3489244282245636,0.29289710521698
1726407231383670000,5.533669921875,0.06598088145256042,0.39717450737953186,0.33277368545532227
1726407231393666000,5.543666015625,0.0756651982665062,0.4638230502605438,0.36844247579574585
1726407231403662000,5.553662109375,0.08655113726854324,0.5141234993934631,0.38933151960372925
1726407231413658000,5.563658203125,0.09105294197797775,0.5459932684898376,0.38910168409347534
1726407231423654100,5.573654052734375,0.08644727617502213,0.5499398112297058,0.37064090371131897
1726407231433650200,5.583650146484375,0.07062037289142609,0.5232847929000854,0.3347731828689575
1726407231443646200,5.593646240234375,0.059672385454177856,0.46398791670799255,0.28529486060142517
1726407231453642200,5.603642333984375,0.05367148295044899,0.3818989098072052,0.22698494791984558
1726407231463638000,5.613637939453125,0.048649828881025314,0.28486368060112,0.16752108931541443
1726407231473634300,5.62363427734375,0.04426546394824982,0.2267732322216034,0.12437468022108078
1726407231483630000,5.633630126953125,0.03075684793293476,0.20973458886146545,0.10888653248548508
1726407231493626000,5.643626220703125,0.028368258848786354,0.19901429116725922,0.1179005354642868
1726407231503622100,5.6536220703125,0.04789109155535698,0.16299104690551758,0.1288253515958786
1726407231513618200,5.6636181640625,0.0718238577246666,0.12059885263442993,0.1431449055671692
1726407231523614200,5.6736142578125,0.0772271454334259,0.0994325801730156,0.15426386892795563
1726407231533610000,5.68360986328125,0.06857720017433167,0.09206894040107727,0.16796369850635529
1726407231543606000,5.69360595703125,0.043666254729032516,0.07856245338916779,0.17673055827617645
1726407231553602300,5.703602294921875,0.01570173166692257,0.04306437820196152,0.17428657412528992
1726407231563598000,5.71359814453125,-0.004307663068175316,-0.008950351737439632,0.1556876003742218
1726407231573594000,5.723593994140625,-0.01122069638222456,-0.0643579512834549,0.12374217808246613
1726407231583590100,5.733590087890625,-0.017355553805828094,-0.0995313823223114,0.08433032780885696
1726407231593586200,5.743586181640625,-0.017663681879639626,-0.11643073707818985,0.045881737023591995
1726407231603582200,5.753582275390625,-0.013293701224029064,-0.12664076685905457,0.01215626485645771
1726407231613578000,5.763577880859375,-0.01512968447059393,-0.1539035439491272,-0.019359316676855087
1726407231623574300,5.77357421875,-0.026609506458044052,-0.20248545706272125,-0.0427999272942543
1726407231633570300,5.7835703125,-0.03274143487215042,-0.2824071943759918,-0.05355696752667427
1726407231643567000,5.793567138671875,-0.04658800736069679,-0.33942708373069763,-0.054481882601976395
1726407231653563100,5.803563232421875,-0.056292299181222916,-0.3860315978527069,-0.05425897613167763
1726407231663559200,5.81355908203125,-0.056534647941589355,-0.43459352850914,-0.053283993154764175
1726407231673555200,5.82355517578125,-0.05428028106689453,-0.46390455961227417,-0.05228903889656067
1726407231683551000,5.833551025390625,-0.05853095278143883,-0.4665943384170532,-0.043126430362463
1726407231693547300,5.84354736328125,-0.06874790787696838,-0.4505770206451416,-0.02965669520199299
1726407231703543300,5.853543212890625,-0.06410681456327438,-0.4298989176750183,-0.037153761833906174
1726407231713539000,5.8635390625,-0.06526555866003036,-0.39694175124168396,-0.0616854690015316
1726407231723535000,5.87353515625,-0.06687597185373306,-0.3678206205368042,-0.09436378628015518
1726407231733531100,5.88353125,-0.05608377605676651,-0.3119286000728607,-0.12465085089206696
1726407231743527200,5.893527099609375,-0.040774062275886536,-0.25582724809646606,-0.13595490157604218
1726407231753523200,5.903523193359375,-0.0247210580855608,-0.2105090320110321,-0.13616129755973816
1726407231763519000,5.91351904296875,-0.023018766194581985,-0.20042258501052856,-0.12733212113380432
1726407231773515300,5.923515380859375,-0.02510189078748226,-0.24472878873348236,-0.12187504023313522
1726407231783511000,5.933510986328125,-0.023492543026804924,-0.29649612307548523,-0.1308232545852661
1726407231793507000,5.943507080078125,-0.01955772191286087,-0.32601726055145264,-0.15285931527614594
1726407231803503000,5.953503173828125,-0.012942696921527386,-0.3292255699634552,-0.180257648229599
1726407231813499100,5.9634990234375,-0.020233100280165672,-0.3336605131626129,-0.20272088050842285
1726407231823495200,5.9734951171875,-0.02075561136007309,-0.35076335072517395,-0.22108657658100128
1726407231833491200,5.9834912109375,-0.0291160736232996,-0.3730308413505554,-0.2336452454328537
1726407231843487200,5.9934873046875,-0.03657612204551697,-0.40951240062713623,-0.24334873259067535
1726407231853483300,6.003483154296875,-0.03706774115562439,-0.4452195465564728,-0.2423924058675766
1726407231863479000,6.01347900390625,-0.04253414273262024,-0.4798702001571655,-0.22731810808181763
1726407231873475000,6.02347509765625,-0.04494164139032364,-0.5139623880386353,-0.20269665122032166
1726407231883471400,6.033471435546875,-0.055992428213357925,-0.541919469833374,-0.17473585903644562
1726407231893467100,6.043467041015625,-0.08405788242816925,-0.5745029449462891,-0.14759238064289093
1726407231903463200,6.053463134765625,-0.1086050420999527,-0.6039361953735352,-0.13455168902873993
1726407231913459000,6.063458984375,-0.1313319206237793,-0.6456999182701111,-0.13721032440662384
1726407231923455200,6.073455322265625,-0.14842994511127472,-0.6936522722244263,-0.15294906497001648
1726407231933451300,6.083451171875,-0.15369661152362823,-0.7038039565086365,-0.17028838396072388
1726407231943448000,6.093447998046875,-0.16517750918865204,-0.6868036985397339,-0.19110684096813202
1726407231953444400,6.1034443359375,-0.1813809722661972,-0.6645220518112183,-0.20089368522167206
1726407231963440000,6.113440185546875,-0.18751662969589233,-0.664315402507782,-0.19642117619514465
1726407231973436200,6.123436279296875,-0.18225209414958954,-0.6808856129646301,-0.16074466705322266
1726407231983432000,6.133431884765625,-0.18907538056373596,-0.7049102187156677,-0.11274785548448563
1726407231993428200,6.14342822265625,-0.19702838361263275,-0.702049195766449,-0.0750311017036438
1726407232003424300,6.15342431640625,-0.20379440486431122,-0.6648315191268921,-0.06579899042844772
1726407232013420000,6.163419921875,-0.1983964443206787,-0.6237549185752869,-0.06888585537672043
1726407232023416000,6.173416015625,-0.19621025025844574,-0.5928710699081421,-0.05901724845170975
1726407232033412000,6.183412109375,-0.20091553032398224,-0.5542075634002686,-0.03600061312317848
1726407232043408100,6.193408203125,-0.20751723647117615,-0.5536299347877502,-0.005590241402387619
1726407232053404200,6.203404052734375,-0.2135482281446457,-0.5783901214599609,0.019098859280347824
1726407232063400000,6.21339990234375,-0.2134811282157898,-0.6008163094520569,0.03003513067960739
1726407232073396200,6.223396240234375,-0.21344409883022308,-0.6195095777511597,0.02894616313278675
1726407232083392300,6.233392333984375,-0.214363694190979,-0.6201426386833191,0.011552526615560055
1726407232093388000,6.243387939453125,-0.22178086638450623,-0.6258218288421631,-0.011755459010601044
1726407232103384300,6.25338427734375,-0.22963958978652954,-0.6586801409721375,-0.0348471961915493
1726407232113380000,6.263380126953125,-0.23922216892242432,-0.7020199298858643,-0.06958014518022537
1726407232123375900,6.2733759765625,-0.25962144136428833,-0.7239750027656555,-0.1008262112736702
1726407232133372000,6.283371826171875,-0.2810942530632019,-0.7486510872840881,-0.13183392584323883
1726407232143368000,6.293367919921875,-0.28914180397987366,-0.7624430656433105,-0.15534484386444092
1726407232153364000,6.303364013671875,-0.28080397844314575,-0.7360023856163025,-0.15512166917324066
1726407232163360000,6.313360107421875,-0.2629104554653168,-0.6699368357658386,-0.12918195128440857
1726407232173355800,6.323355712890625,-0.2429170459508896,-0.5648140907287598,-0.07371842861175537
1726407232183352000,6.33335205078125,-0.21822527050971985,-0.4455393850803375,-0.005485845264047384
1726407232193347800,6.343347900390625,-0.198616161942482,-0.3212440609931946,0.06695107370615005
1726407232203344000,6.35334375,-0.1748671531677246,-0.21921943128108978,0.12234002351760864
1726407232213340200,6.363340087890625,-0.15027391910552979,-0.14331960678100586,0.15248355269432068
1726407232223336000,6.3733359375,-0.11787177622318268,-0.10243929177522659,0.1641971915960312
1726407232233332000,6.38333203125,-0.08695194125175476,-0.10929453372955322,0.16531997919082642
1726407232243327700,6.39332763671875,-0.04626629874110222,-0.14388340711593628,0.16028395295143127
1726407232253324000,6.403323974609375,-0.017230385914444923,-0.17407485842704773,0.15925756096839905
1726407232263320800,6.41332080078125,-0.00640676636248827,-0.16588883101940155,0.15091973543167114
1726407232273316900,6.42331689453125,-0.0144135607406497,-0.1504851132631302,0.12966185808181763
1726407232283313200,6.433313232421875,-0.028369056060910225,-0.13638927042484283,0.10199187695980072
1726407232293309000,6.443308837890625,-0.027186080813407898,-0.12233443558216095,0.06641338020563126
1726407232303305000,6.453304931640625,-0.011920841410756111,-0.11524216830730438,0.015598400495946407
1726407232313300700,6.46330078125,0.0075934710912406445,-0.10739143937826157,-0.025706429034471512
1726407232323297000,6.473297119140625,0.036385439336299896,-0.0922231376171112,-0.05492503568530083
1726407232333293000,6.48329296875,0.06782831251621246,-0.07291734963655472,-0.07228564471006393
1726407232343288800,6.493288818359375,0.09917318820953369,-0.04663967341184616,-0.08219314366579056
1726407232353284900,6.503284912109375,0.12534832954406738,-0.025553297251462936,-0.09302981197834015
1726407232363281000,6.513281005859375,0.15363696217536926,-0.01641705632209778,-0.10695894062519073
1726407232373277000,6.52327685546875,0.18431684374809265,0.01025849673897028,-0.11694765836000443
1726407232383273000,6.53327294921875,0.21619434654712677,0.043909668922424316,-0.1063069999217987
1726407232393268700,6.543268798828125,0.24020887911319733,0.0741964653134346,-0.08415216207504272
1726407232403265000,6.55326513671875,0.2651536464691162,0.12643490731716156,-0.04735473170876503
1726407232413261000,6.563260986328125,0.2811661660671234,0.2101907879114151,-0.0021899172570556402
1726407232423256800,6.5732568359375,0.30489811301231384,0.29700079560279846,0.0441054105758667
1726407232433253000,6.583253173828125,0.33440300822257996,0.3465568721294403,0.07533097267150879
1726407232443249000,6.593248779296875,0.36545655131340027,0.3657399117946625,0.0769810676574707
1726407232453245000,6.603244873046875,0.3876185715198517,0.34551531076431274,0.039852339774370193
1726407232463241000,6.613240966796875,0.3887285590171814,0.3006596863269806,-0.02094043605029583
1726407232473237000,6.623237060546875,0.37817925214767456,0.22922226786613464,-0.09320930391550064
1726407232483233000,6.63323291015625,0.37164759635925293,0.14638809859752655,-0.15288834273815155
1726407232493228800,6.643228759765625,0.3660152554512024,0.0681375116109848,-0.20274618268013
1726407232503224800,6.653224853515625,0.35356152057647705,-0.00926460511982441,-0.23722213506698608
1726407232513221000,6.66322119140625,0.34270673990249634,-0.0960644781589508,-0.2676468789577484
1726407232523217000,6.673216796875,0.3378547430038452,-0.1909973919391632,-0.2782020568847656
1726407232533213000,6.683212890625,0.3325481116771698,-0.2791331112384796,-0.28243115544319153
1726407232543209000,6.693208984375,0.3460708558559418,-0.22274652123451233,-0.3522525727748871
1726407232553205000,6.703205078125,0.3647955358028412,-0.00944756343960762,-0.47937965393066406
1726407232563201000,6.713200927734375,0.3691476881504059,0.19257770478725433,-0.5873396396636963
1726407232573196800,6.72319677734375,0.34741443395614624,0.3199886679649353,-0.6034949421882629
1726407232583192800,6.73319287109375,0.30929845571517944,0.38187626004219055,-0.5108720660209656
1726407232593190000,6.74318994140625,0.29083824157714844,0.41039127111434937,-0.3268609344959259
1726407232603186000,6.75318603515625,0.30074891448020935,0.4223003685474396,-0.10277218371629715
1726407232613182000,6.763181884765625,0.3270702660083771,0.42961981892585754,0.09464794397354126
1726407232623178000,6.773177978515625,0.31067612767219543,0.43652111291885376,0.22491274774074554
1726407232633174000,6.783174072265625,0.260312020778656,0.4428040683269501,0.26712438464164734
1726407232643169800,6.793169677734375,0.21839278936386108,0.4237842857837677,0.242272287607193
1726407232653165800,6.803165771484375,0.16526351869106293,0.3735365569591522,0.17975378036499023
1726407232663162000,6.813162109375,0.11419075727462769,0.35518285632133484,0.10326246917247772
1726407232673158000,6.823157958984375,0.07599756121635437,0.3488863408565521,0.009869142435491085
1726407232683154000,6.83315380859375,0.04675179347395897,0.3080827295780182,-0.06830529123544693
1726407232693150000,6.84314990234375,0.020078370347619057,0.26268649101257324,-0.12813879549503326
1726407232703146000,6.85314599609375,0.0019542276859283447,0.23527483642101288,-0.1714806705713272
1726407232713142000,6.86314208984375,-0.005080778617411852,0.23068781197071075,-0.19669069349765778
1726407232723137800,6.8731376953125,-0.002662095706909895,0.2652052938938141,-0.20001378655433655
1726407232733134000,6.883134033203125,0.019645340740680695,0.309588760137558,-0.1692228466272354
1726407232743129900,6.8931298828125,0.06322290748357773,0.35240545868873596,-0.10400442779064178
1726407232753126000,6.9031259765625,0.10026588290929794,0.3837977349758148,-0.017597369849681854
1726407232763122000,6.913121826171875,0.12031389027833939,0.4105529189109802,0.08056408166885376
1726407232773118000,6.923117919921875,0.13860635459423065,0.4459143579006195,0.17164072394371033
1726407232783114000,6.933114013671875,0.14873887598514557,0.4668811559677124,0.25892025232315063
1726407232793110000,6.943110107421875,0.15039882063865662,0.5044493079185486,0.3327358663082123
1726407232803105800,6.953105712890625,0.15224651992321014,0.5341512560844421,0.37897181510925293
1726407232813102000,6.96310205078125,0.13846386969089508,0.5305647850036621,0.3921850919723511
1726407232823097900,6.973097900390625,0.1242780089378357,0.5128441452980042,0.3639822006225586
1726407232833094000,6.983093994140625,0.11635324358940125,0.48714327812194824,0.2978953421115875
1726407232843090000,6.99308984375,0.12224841117858887,0.4596349596977234,0.20390333235263824
1726407232853086000,7.0030859375,0.13881221413612366,0.44137340784072876,0.10709822177886963
1726407232863082000,7.01308203125,0.14489246904850006,0.42475074529647827,0.03080505132675171
1726407232873077800,7.023077880859375,0.13505582511425018,0.41424697637557983,-0.015401327051222324
1726407232883074000,7.033073974609375,0.11303281038999557,0.3953843414783478,-0.03849546238780022
1726407232893070000,7.043070068359375,0.09369959682226181,0.36777082085609436,-0.03494759649038315
1726407232903067000,7.05306689453125,0.0868547335267067,0.3398419916629791,-0.008944226428866386
1726407232913063200,7.063063232421875,0.07308007031679153,0.3229231834411621,0.028183966875076294
1726407232923059000,7.073058837890625,0.05509654060006142,0.3544268012046814,0.062246061861515045
1726407232933055000,7.083054931640625,0.03669702634215355,0.43389418721199036,0.09153737127780914
1726407232943050800,7.09305078125,0.028854550793766975,0.5164143443107605,0.1207309439778328
1726407232953047000,7.103047119140625,0.03983263298869133,0.57964688539505,0.16151858866214752
1726407232963043000,7.11304296875,0.04839815944433212,0.626051664352417,0.20419947803020477
1726407232973038800,7.123038818359375,0.03039092943072319,0.668724536895752,0.24121075868606567
1726407232983035000,7.133034912109375,0.03454466164112091,0.6768295764923096,0.2608611583709717
1726407232993031000,7.143031005859375,0.03882516175508499,0.635397732257843,0.2605319917201996
1726407233003027000,7.15302685546875,0.03868294879794121,0.6118401885032654,0.23953695595264435
1726407233013023000,7.16302294921875,0.045396775007247925,0.6186187863349915,0.20484422147274017
1726407233023018800,7.173018798828125,0.06492653489112854,0.5928457379341125,0.15348462760448456
1726407233033015000,7.18301513671875,0.07234503328800201,0.5638290047645569,0.10274875164031982
1726407233043011000,7.193010986328125,0.07366915792226791,0.5428673028945923,0.07774219661951065
1726407233053006800,7.2030068359375,0.061940863728523254,0.5100760459899902,0.07045845687389374
1726407233063003000,7.2130029296875,0.04436107352375984,0.48044970631599426,0.0760502964258194
1726407233072999000,7.2229990234375,0.03928588703274727,0.49227920174598694,0.07862424105405807
1726407233082995000,7.232994873046875,0.03690369054675102,0.5238277912139893,0.061948854476213455
1726407233092991000,7.242990966796875,0.03743552416563034,0.527053713798523,0.03430284559726715
1726407233102987000,7.252987060546875,0.04499517008662224,0.5603194832801819,0.027850806713104248
1726407233112983000,7.262983154296875,0.04445774480700493,0.5689049959182739,0.027149062603712082
1726407233122979000,7.27297900390625,0.029928337782621384,0.54677814245224,0.023904267698526382
1726407233132975000,7.28297509765625,0.00592420157045126,0.56830233335495,0.007935953326523304
1726407233142971400,7.292971435546875,0.004603007808327675,0.5842759609222412,-0.019055716693401337
1726407233152967200,7.30296728515625,0.03821396455168724,0.6337364315986633,-0.026795394718647003
1726407233162963200,7.312963134765625,0.06962008774280548,0.600209653377533,-0.056295763701200485
1726407233172959000,7.322958984375,0.07040412724018097,0.5538110136985779,-0.08639534562826157
1726407233182955300,7.332955322265625,0.05711868032813072,0.4828912913799286,-0.07917391508817673
1726407233192951300,7.342951416015625,0.03934207931160927,0.43237778544425964,-0.031732894480228424
1726407233202947000,7.352947021484375,-0.012030564248561859,0.42983606457710266,0.07048242539167404
1726407233212943000,7.362943115234375,-0.07018841058015823,0.4070652425289154,0.22745046019554138
1726407233222939100,7.372939208984375,-0.08565391600131989,0.37082093954086304,0.39959612488746643
1726407233232936200,7.382936279296875,-0.09587859362363815,0.3729275166988373,0.551781952381134
1726407233242932000,7.392931884765625,-0.1170312836766243,0.36881983280181885,0.6527815461158752
1726407233252928300,7.40292822265625,-0.13548140227794647,0.3174045979976654,0.6886074542999268
1726407233262924300,7.41292431640625,-0.1365879327058792,0.2105143666267395,0.6638270020484924
1726407233272920000,7.422920166015625,-0.11367916315793991,0.10140252113342285,0.5929970145225525
1726407233282916000,7.432916015625,-0.08027087152004242,0.06245618686079979,0.4981951415538788
1726407233292912000,7.442912109375,-0.06215045601129532,0.10894858837127686,0.4068588316440582
1726407233302908200,7.452908203125,-0.08284854143857956,0.1838657110929489,0.33510103821754456
1726407233312904200,7.462904296875,-0.07332801073789597,0.23743599653244019,0.28518858551979065
1726407233322900200,7.472900146484375,-0.03755456581711769,0.2619727551937103,0.26764023303985596
1726407233332896300,7.482896240234375,-0.034698858857154846,0.29314160346984863,0.2682442367076874
1726407233342892300,7.492892333984375,-0.042212966829538345,0.3487398624420166,0.3127179741859436
1726407233352888000,7.50288818359375,-0.01865730807185173,0.38492584228515625,0.4036419987678528
1726407233362884400,7.51288427734375,0.02929690293967724,0.3986768126487732,0.5221475958824158
1726407233372880100,7.522880126953125,0.08482460677623749,0.39021220803260803,0.6428588628768921
1726407233382876200,7.532876220703125,0.12910978496074677,0.3923957347869873,0.7312294840812683
1726407233392872200,7.5428720703125,0.1709246039390564,0.369550883769989,0.7617815136909485
1726407233402868200,7.5528681640625,0.21990306675434113,0.3312700688838959,0.7490193843841553
1726407233412864300,7.5628642578125,0.2665400803089142,0.2951408326625824,0.7171778082847595
1726407233422860000,7.572860107421875,0.2846178710460663,0.2646995782852173,0.6770488023757935
1726407233432856000,7.58285595703125,0.28330492973327637,0.2418360710144043,0.6425352692604065
1726407233442852400,7.592852294921875,0.2632308304309845,0.18149308860301971,0.5954306125640869
1726407233452848000,7.60284814453125,0.1995360106229782,0.07342787832021713,0.5179435610771179
1726407233462844200,7.61284423828125,0.14370256662368774,-0.06071314960718155,0.41708192229270935
1726407233472840200,7.622840087890625,0.08806674182415009,-0.1611899584531784,0.30208873748779297
1726407233482836200,7.632836181640625,0.0523364394903183,-0.20134375989437103,0.15768469870090485
1726407233492832300,7.642832275390625,0.013606090098619461,-0.20926959812641144,-0.018451711162924767
1726407233502828000,7.652828125,-0.03281600400805473,-0.229193776845932,-0.20507405698299408
1726407233512824300,7.66282421875,-0.07153117656707764,-0.2519662082195282,-0.3788812756538391
1726407233522820400,7.6728203125,-0.09377176314592361,-0.30066290497779846,-0.5115881562232971
1726407233532816100,7.682816162109375,-0.10389284044504166,-0.346578449010849,-0.5619381666183472
1726407233542812200,7.692812255859375,-0.11088869720697403,-0.43839892745018005,-0.5248504281044006
1726407233552808200,7.70280810546875,-0.11068177223205566,-0.5737639665603638,-0.41406720876693726
1726407233562805200,7.71280517578125,-0.10279295593500137,-0.7314278483390808,-0.27118995785713196
1726407233572801000,7.722801025390625,-0.10373704880475998,-0.8559615612030029,-0.12902696430683136
1726407233582797300,7.73279736328125,-0.1099611222743988,-0.927546501159668,-0.008492288179695606
1726407233592793300,7.74279345703125,-0.11685550957918167,-0.9692252278327942,0.0923168808221817
1726407233602789000,7.7527890625,-0.13352051377296448,-0.9627676010131836,0.16234976053237915
1726407233612785200,7.76278515625,-0.1542375087738037,-0.8761070370674133,0.2142782062292099
1726407233622781200,7.77278125,-0.1677546501159668,-0.735298752784729,0.2375505119562149
1726407233632777200,7.782777099609375,-0.16453781723976135,-0.5607751607894897,0.24312131106853485
1726407233642773200,7.792773193359375,-0.1509607583284378,-0.4192574620246887,0.22243733704090118
1726407233652769000,7.80276904296875,-0.1308906376361847,-0.3287650942802429,0.17143140733242035
1726407233662765300,7.812765380859375,-0.10786281526088715,-0.2728259265422821,0.0920146107673645
1726407233672761000,7.822760986328125,-0.086167111992836,-0.24614772200584412,-0.031308919191360474
1726407233682757000,7.832757080078125,-0.06309348344802856,-0.25796282291412354,-0.17169000208377838
1726407233692753200,7.842753173828125,-0.046308908611536026,-0.29245078563690186,-0.3007878065109253
1726407233702749200,7.852749267578125,-0.03454039990901947,-0.3143693804740906,-0.4013673961162567
1726407233712745200,7.8627451171875,-0.025188444182276726,-0.34360796213150024,-0.4622485935688019
1726407233722741200,7.8727412109375,-0.016270050778985023,-0.390581339597702,-0.47853994369506836
1726407233732737300,7.8827373046875,-0.013791179284453392,-0.4084623157978058,-0.4614022374153137
1726407233742733300,7.8927333984375,-0.01889139972627163,-0.3978605568408966,-0.4277856945991516
1726407233752729000,7.90272900390625,-0.03339923545718193,-0.3990187644958496,-0.39078399538993835
1726407233762725000,7.91272509765625,-0.04318981617689133,-0.4211357831954956,-0.3606007993221283
1726407233772721400,7.922721435546875,-0.05805451422929764,-0.4640536904335022,-0.34270143508911133
1726407233782717200,7.93271728515625,-0.08052227646112442,-0.5005831718444824,-0.34033840894699097
1726407233792713200,7.942713134765625,-0.10555412620306015,-0.5374118089675903,-0.33979910612106323
1726407233802709000,7.952708984375,-0.13438044488430023,-0.5989851355552673,-0.32077935338020325
1726407233812705300,7.962705322265625,-0.15758749842643738,-0.6442767381668091,-0.2783903479576111
1726407233822701300,7.972701416015625,-0.16829127073287964,-0.684032142162323,-0.22004687786102295
1726407233832697000,7.982697021484375,-0.1719515174627304,-0.691063404083252,-0.1532534658908844
1726407233842693000,7.992693115234375,-0.17074696719646454,-0.6568005084991455,-0.09622640162706375
1726407233852689200,8.002689208984375,-0.17834897339344025,-0.6131728887557983,-0.06291452050209045
1726407233862685200,8.012685302734376,-0.18976034224033356,-0.5827379822731018,-0.04361299052834511
1726407233872681200,8.02268115234375,-0.2026844024658203,-0.5646122694015503,-0.03537184000015259
1726407233882677000,8.032677001953125,-0.2092759907245636,-0.5499582290649414,-0.032938241958618164
1726407233892673300,8.04267333984375,-0.211001455783844,-0.513900876045227,-0.026382870972156525
1726407233902669300,8.05266943359375,-0.1984339952468872,-0.48930472135543823,-0.01683863438665867
1726407233912666000,8.062666015625,-0.19357265532016754,-0.4599708020687103,0.007841411046683788
1726407233922662100,8.072662109375,-0.1835634410381317,-0.4558679163455963,0.053516220301389694
1726407233932658200,8.082658203125,-0.16825878620147705,-0.4810851216316223,0.10464225709438324
1726407233942654200,8.092654296875,-0.15454989671707153,-0.4994660019874573,0.14970479905605316
1726407233952650000,8.10264990234375,-0.15173067152500153,-0.4970688819885254,0.18841731548309326
1726407233962646300,8.112646240234374,-0.14291080832481384,-0.4971003234386444,0.21021848917007446
1726407233972642300,8.122642333984375,-0.11809521168470383,-0.49493515491485596,0.22663846611976624
1726407233982638000,8.13263818359375,-0.08119738101959229,-0.49864840507507324,0.22081173956394196
1726407233992634400,8.14263427734375,-0.03760117292404175,-0.5042940378189087,0.1881110519170761
1726407234002630100,8.152630126953126,-0.02250291220843792,-0.49776583909988403,0.1160602942109108
1726407234012626200,8.162626220703125,-0.03008386678993702,-0.4652121663093567,0.0025752766523510218
1726407234022622200,8.172622314453125,-0.04435228556394577,-0.4210907816886902,-0.14121784269809723
1726407234032618200,8.1826181640625,-0.05169488489627838,-0.38136839866638184,-0.2770976424217224
1726407234042614300,8.1926142578125,-0.035594213753938675,-0.3501449525356293,-0.3686291575431824
1726407234052610000,8.202610107421876,-0.0002258360618725419,-0.37141484022140503,-0.4222641587257385
1726407234062606000,8.212606201171875,0.02996029518544674,-0.3057170510292053,-0.4049759805202484
1726407234072602400,8.222602294921876,0.030314762145280838,-0.19758550822734833,-0.35059821605682373
1726407234082598100,8.23259814453125,0.023999609053134918,-0.09645862877368927,-0.2867843508720398
1726407234092594200,8.24259423828125,0.00827790331095457,0.013948572799563408,-0.23897182941436768
1726407234102590200,8.252590087890624,-0.0007928230334073305,0.11894716322422028,-0.20440053939819336
1726407234112586200,8.262586181640625,0.009800698608160019,0.20158956944942474,-0.18029573559761047
1726407234122582000,8.27258203125,0.029990389943122864,0.2427777647972107,-0.15503671765327454
1726407234132577800,8.282577880859375,0.05287892743945122,0.24583905935287476,-0.13490375876426697
1726407234142573800,8.29257373046875,0.06881394982337952,0.2288835197687149,-0.13057158887386322
1726407234152570000,8.302570068359374,0.06449563801288605,0.21074765920639038,-0.14605601131916046
1726407234162566000,8.31256591796875,0.047924913465976715,0.17538753151893616,-0.19336573779582977
1726407234172562000,8.32256201171875,0.014551245607435703,0.13372690975666046,-0.2553236484527588
1726407234182557700,8.3325576171875,-0.00839854497462511,0.09767649322748184,-0.31284764409065247
1726407234192554000,8.342553955078126,-0.006953247357159853,0.05281208083033562,-0.3335268497467041
1726407234202550000,8.352550048828125,0.017199760302901268,0.02171248570084572,-0.2982191741466522
1726407234212545800,8.3625458984375,0.047979243099689484,0.020905815064907074,-0.20874175429344177
1726407234222541800,8.372541748046874,0.0779390037059784,0.031010646373033524,-0.0926324650645256
1726407234232538000,8.3825380859375,0.09584583342075348,0.0392342209815979,0.022876819595694542
1726407234242534000,8.392533935546876,0.10541404038667679,0.0503835454583168,0.11581874638795853
1726407234252530700,8.40253076171875,0.11067671328783035,0.0582321472465992,0.17812925577163696
1726407234262527000,8.41252685546875,0.10682285577058792,0.06944352388381958,0.20637500286102295
1726407234272523000,8.42252294921875,0.1121600940823555,0.06719101965427399,0.19948089122772217
1726407234282518800,8.432518798828125,0.14427967369556427,0.028687037527561188,0.1840321570634842
1726407234292514800,8.442514892578124,0.1771950125694275,-0.04157913476228714,0.1579829752445221
1726407234302511000,8.452510986328125,0.19530105590820312,-0.11456013470888138,0.10547129809856415
1726407234312507000,8.4625068359375,0.17999640107154846,-0.2009964883327484,0.019825901836156845
1726407234322503000,8.4725029296875,0.12854918837547302,-0.3275565505027771,-0.10276526212692261
1726407234332498700,8.482498779296876,0.06090036779642105,-0.47255104780197144,-0.2523976266384125
1726407234342495000,8.492494873046875,0.028296086937189102,-0.6214979290962219,-0.39004817605018616
1726407234352491000,8.502490966796875,0.027304857969284058,-0.7633146643638611,-0.4999259412288666
1726407234362486800,8.51248681640625,0.04043131321668625,-0.871941864490509,-0.5671164393424988
1726407234372482800,8.52248291015625,0.0491824597120285,-0.9241976141929626,-0.5703415274620056
1726407234382478800,8.532478759765626,0.0569722056388855,-0.9203381538391113,-0.5186514258384705
1726407234392475000,8.542474853515625,0.07924768328666687,-0.8662461638450623,-0.428992360830307
1726407234402471000,8.552470947265626,0.10613895207643509,-0.7076026797294617,-0.3523958623409271
1726407234412467000,8.562467041015625,0.12279968708753586,-0.28714680671691895,-0.3515481948852539
1726407234422463000,8.572462890625,0.19149114191532135,0.22511035203933716,-0.3828618824481964
1726407234432458800,8.582458740234374,0.2576674818992615,0.6539932489395142,-0.3563631772994995
1726407234442454800,8.592454833984375,0.34436431527137756,0.9960331320762634,-0.22470155358314514
1726407234452451000,8.602451171875,0.39162102341651917,1.2415771484375,-0.022707710042595863
1726407234462446800,8.61244677734375,0.38882339000701904,1.2978209257125854,0.17467646300792694
1726407234472443000,8.62244287109375,0.30831414461135864,1.2645405530929565,0.3128412663936615
1726407234482439000,8.63243896484375,0.19819431006908417,1.1794078350067139,0.3732220530509949
1726407234492435000,8.64243505859375,0.13074709475040436,1.060908317565918,0.37590491771698
1726407234502431000,8.652430908203126,0.10407766699790955,0.8874571323394775,0.32172688841819763
1726407234512426800,8.6624267578125,0.07634244114160538,0.6990984082221985,0.23216558992862701
1726407234522422800,8.6724228515625,0.041127730160951614,0.5628111362457275,0.12406841665506363
1726407234532419000,8.682419189453125,0.014969095587730408,0.47429221868515015,0.013256150297820568
1726407234542414800,8.692414794921875,0.004722317215055227,0.41901645064353943,-0.05886305123567581
1726407234552411000,8.702410888671874,0.02352609857916832,0.4007279872894287,-0.06567062437534332
1726407234562406700,8.71240673828125,0.046927560120821,0.37378209829330444,-0.021686386317014694
1726407234572404000,8.722404052734374,0.04500981792807579,0.32580554485321045,0.050516437739133835
1726407234582399000,8.73239892578125,0.018638664856553078,0.2789067327976227,0.11727070063352585
1726407234592395800,8.742395751953126,-0.00771784083917737,0.2697233557701111,0.15741705894470215
1726407234602392000,8.75239208984375,-0.007020891644060612,0.3504725396633148,0.1733717918395996
1726407234612387800,8.762387939453125,0.026039322838187218,0.46756720542907715,0.18212346732616425
1726407234622383900,8.7723837890625,0.06919025629758835,0.5641036033630371,0.20482105016708374
1726407234632380000,8.7823798828125,0.10766494274139404,0.6196062564849854,0.23715636134147644
1726407234642376000,8.7923759765625,0.1265622079372406,0.624945878982544,0.24832192063331604
1726407234652372000,8.8023720703125,0.12446469813585281,0.5947352647781372,0.23319198191165924
1726407234662367700,8.81236767578125,0.10445529967546463,0.5663957595825195,0.18457357585430145
1726407234672364000,8.822364013671875,0.08402539789676666,0.563596785068512,0.1097177118062973
1726407234682359800,8.83235986328125,0.08645419776439667,0.5486982464790344,0.02755146659910679
1726407234692355800,8.84235595703125,0.1017703041434288,0.5159794688224792,-0.05645954608917236
1726407234702352000,8.852351806640625,0.11660037934780121,0.4753771722316742,-0.12766209244728088
1726407234712348000,8.862347900390626,0.12695501744747162,0.4420525133609772,-0.18472324311733246
1726407234722344000,8.872343994140625,0.10948894172906876,0.4241046607494354,-0.23152776062488556
1726407234732340000,8.882340087890626,0.0820208340883255,0.4278264343738556,-0.26431500911712646
1726407234742335700,8.892335693359374,0.05038061738014221,0.4304291605949402,-0.278099000453949
1726407234752332000,8.90233203125,0.0389934703707695,0.43044379353523254,-0.2682242691516876
1726407234762327800,8.912327880859374,0.06857559829950333,0.40468862652778625,-0.23315761983394623
1726407234772323800,8.92232373046875,0.11910029500722885,0.3847024142742157,-0.1793745458126068
1726407234782319900,8.93231982421875,0.15002678334712982,0.4077555239200592,-0.1315353959798813
1726407234792316000,8.94231591796875,0.15021799504756927,0.45808687806129456,-0.103763148188591
1726407234802312000,8.95231201171875,0.14365489780902863,0.5321810841560364,-0.08675593137741089
1726407234812307700,8.9623076171875,0.1348656713962555,0.5875500440597534,-0.08146290481090546
1726407234822304000,8.972303955078125,0.13427524268627167,0.6162117719650269,-0.0997159406542778
1726407234832300000,8.982300048828124,0.14176832139492035,0.6236012578010559,-0.1284426599740982
1726407234842295800,8.9922958984375,0.14274862408638,0.5937080979347229,-0.16316282749176025
1726407234852291800,9.002291748046876,0.11503124982118607,0.5059590339660645,-0.19299209117889404
1726407234862288000,9.012287841796875,0.07938696444034576,0.36207911372184753,-0.21807081997394562
1726407234872284000,9.022283935546875,0.0415935143828392,0.20633213222026825,-0.25133129954338074
1726407234882280000,9.032280029296874,0.0017827199772000313,0.07342708110809326,-0.3076038956642151
1726407234892275700,9.042275634765625,-0.017643442377448082,-0.011565043590962887,-0.3535679280757904
1726407234902273000,9.05227294921875,-0.012713664211332798,-0.01613502763211727,-0.36761555075645447
1726407234912268800,9.062268798828125,-0.012510199099779129,0.030664434656500816,-0.3480066955089569
1726407234922264800,9.072264892578126,-0.00854315422475338,0.0494178831577301,-0.2762632668018341
1726407234932260900,9.0822607421875,-0.029105154797434807,0.031568046659231186,-0.17370547354221344
1726407234942257000,9.0922568359375,-0.06526555866003036,0.023502662777900696,-0.06396672874689102
1726407234952253000,9.1022529296875,-0.10742659121751785,0.03178083151578903,0.05096544697880745
1726407234962248700,9.112248779296875,-0.14380909502506256,0.05204669013619423,0.17670206725597382
1726407234972245000,9.122244873046874,-0.1652507483959198,0.09591401368379593,0.2951006293296814
1726407234982241000,9.132240966796875,-0.18160174787044525,0.2079278975725174,0.36975008249282837
1726407234992236800,9.14223681640625,-0.18524841964244843,0.3284090459346771,0.3870241343975067
1726407235002232800,9.15223291015625,-0.14979961514472961,0.36713460087776184,0.3388366401195526
1726407235012228900,9.162228759765625,-0.0819593146443367,0.2737255394458771,0.24429762363433838
1726407235022225000,9.172224853515624,-0.036315664649009705,0.13808304071426392,0.13337136805057526
1726407235032221000,9.182220947265625,-0.03328631818294525,0.10693790018558502,0.031871113926172256
1726407235042216700,9.192216796875,-0.02895202301442623,0.15624073147773743,-0.03690342232584953
1726407235052213000,9.202212890625,-0.024672856554389,0.1981450468301773,-0.06529804319143295
1726407235062208800,9.212208740234376,-0.040894702076911926,0.20675210654735565,-0.053943391889333725
1726407235072204800,9.222204833984375,-0.06360800564289093,0.1719038486480713,-0.009977532550692558
1726407235082201000,9.232201171875,-0.09849754720926285,0.08847207576036453,0.04845461621880531
1726407235092196900,9.24219677734375,-0.12925678491592407,-0.033132653683423996,0.11311483383178711
1726407235102193000,9.25219287109375,-0.1417001485824585,-0.16619643568992615,0.1752362698316574
1726407235112189000,9.26218896484375,-0.13608141243457794,-0.267000287771225,0.2513089179992676
1726407235122185200,9.272185302734375,-0.12472967803478241,-0.3320823311805725,0.3394339978694916
1726407235132181200,9.28218115234375,-0.10049571096897125,-0.34751057624816895,0.4263252019882202
1726407235142177000,9.292177001953124,-0.07600048929452896,-0.34014424681663513,0.5033305287361145
1726407235152173000,9.302173095703125,-0.05838634446263313,-0.31799474358558655,0.580025315284729
1726407235162169300,9.31216943359375,-0.046071089804172516,-0.26152241230010986,0.6672667264938354
1726407235172165000,9.3221650390625,-0.04790068045258522,-0.1834915280342102,0.7649821043014526
1726407235182161200,9.3321611328125,-0.04674673080444336,-0.09297893941402435,0.8441341519355774
1726407235192157000,9.342156982421875,-0.03719876706600189,-0.02660497836768627,0.8907632231712341
1726407235202153200,9.3521533203125,-0.03539527580142021,-0.027903003618121147,0.8829300403594971
1726407235212149200,9.362149169921874,-0.05043947324156761,-0.08814077824354172,0.8377020955085754
1726407235222145000,9.37214501953125,-0.07207871973514557,-0.16477882862091064,0.7594562768936157
1726407235232141300,9.382141357421874,-0.07670995593070984,-0.20735399425029755,0.6466224193572998
1726407235242137000,9.39213720703125,-0.06302423775196075,-0.20522426068782806,0.5042508840560913
1726407235252134100,9.402134033203126,-0.05396230146288872,-0.19819112122058868,0.3285403251647949
1726407235262130200,9.412130126953125,-0.06970850378274918,-0.1938975602388382,0.12902216613292694
1726407235272126200,9.422126220703126,-0.08435216546058655,-0.19398438930511475,-0.07139668613672256
1726407235282122200,9.432122314453125,-0.11613565683364868,-0.2590579390525818,-0.2542029917240143
1726407235292118000,9.442117919921875,-0.10831262171268463,-0.2966247498989105,-0.4029408097267151
1726407235302114300,9.4521142578125,-0.07376983016729355,-0.2916520833969116,-0.4990263283252716
1726407235312110000,9.462110107421875,-0.051722317934036255,-0.3053620457649231,-0.5536200404167175
1726407235322106000,9.472106201171876,-0.039386820048093796,-0.31396910548210144,-0.560224711894989
1726407235332102100,9.48210205078125,-0.04782797768712044,-0.33096808195114136,-0.5397079586982727
1726407235342098200,9.49209814453125,-0.06788744032382965,-0.3586713373661041,-0.48716485500335693
1726407235352094200,9.50209423828125,-0.07394666224718094,-0.34004518389701843,-0.4177628755569458
1726407235362090000,9.512090087890625,-0.07864527404308319,-0.31463223695755005,-0.3216038644313812
1726407235372086000,9.5220859375,-0.07063155621290207,-0.29012343287467957,-0.20235683023929596
1726407235382082300,9.532082275390625,-0.056481119245290756,-0.26138046383857727,-0.09221221506595612
1726407235392078000,9.542078125,-0.04139510914683342,-0.23473207652568817,-0.015718508511781693
1726407235402074000,9.55207421875,-0.046657249331474304,-0.20103910565376282,0.02732003852725029
1726407235412070100,9.562070068359375,-0.056115731596946716,-0.18885886669158936,0.0408124104142189
1726407235422066200,9.572066162109374,-0.06323596090078354,-0.20523624122142792,0.05263444781303406
1726407235432062200,9.582062255859375,-0.06762165576219559,-0.21944819390773773,0.07027789205312729
1726407235442058000,9.59205810546875,-0.06584985554218292,-0.23258131742477417,0.10615067183971405
1726407235452054300,9.60205419921875,-0.05765344202518463,-0.24869103729724884,0.16399000585079193
1726407235462050300,9.61205029296875,-0.04704713821411133,-0.2776297330856323,0.2287796437740326
1726407235472046000,9.622046142578125,-0.03283997252583504,-0.2953283190727234,0.25856631994247437
1726407235482042000,9.6320419921875,-0.01726207695901394,-0.27235323190689087,0.24931181967258453
1726407235492038100,9.6420380859375,-0.006311691831797361,-0.25008493661880493,0.20374034345149994
1726407235502034200,9.6520341796875,-0.007418501656502485,-0.25832343101501465,0.12324949353933334
1726407235512030200,9.6620302734375,-0.018145181238651276,-0.3054792284965515,0.02274525910615921
1726407235522026000,9.67202587890625,-0.023262444883584976,-0.3453177213668823,-0.08227356523275375
1726407235532022300,9.682022216796875,-0.016563531011343002,-0.31773775815963745,-0.18383561074733734
1726407235542018000,9.69201806640625,-0.009269664995372295,-0.22169430553913116,-0.271820068359375
1726407235552014000,9.70201416015625,-0.0000852211524033919,-0.11523391306400299,-0.34100472927093506
1726407235562010000,9.712010009765624,-0.0002849582233466208,-0.08476921916007996,-0.3867330551147461
1726407235572006100,9.722006103515625,-0.012307798489928246,-0.11823822557926178,-0.41765981912612915
1726407235582002200,9.732002197265626,-0.03550313413143158,-0.2082671821117401,-0.4416298568248749
1726407235591998200,9.741998291015625,-0.06999879330396652,-0.3153963088989258,-0.45532864332199097
1726407235601994000,9.751993896484375,-0.09984537214040756,-0.41817328333854675,-0.464254766702652
1726407235611991000,9.761990966796875,-0.12489958852529526,-0.5160532593727112,-0.47112998366355896
1726407235621987000,9.771987060546875,-0.13526248931884766,-0.6030544638633728,-0.4733113646507263
1726407235631983000,9.781983154296874,-0.14676174521446228,-0.6599262356758118,-0.45197731256484985
1726407235641979100,9.791979248046875,-0.1630360633134842,-0.6780503988265991,-0.4050678610801697
1726407235651975200,9.80197509765625,-0.18307048082351685,-0.6761654019355774,-0.33949366211891174
1726407235661971200,9.81197119140625,-0.19654208421707153,-0.6434508562088013,-0.258375346660614
1726407235671967000,9.821967041015625,-0.19694235920906067,-0.5845723748207092,-0.17191344499588013
1726407235681963300,9.83196337890625,-0.18862050771713257,-0.5190111994743347,-0.08510397374629974
1726407235691959000,9.841958984375,-0.16537991166114807,-0.4418248236179352,-0.01134053897112608
1726407235701955000,9.851955078125,-0.1469217985868454,-0.35098758339881897,0.04462925344705582
1726407235711951400,9.861951416015625,-0.13517539203166962,-0.27578842639923096,0.07003021985292435
1726407235721947100,9.871947021484376,-0.11909070611000061,-0.24260571599006653,0.07489314675331116
1726407235731943200,9.881943115234375,-0.1077035591006279,-0.2745210528373718,0.0780484601855278
1726407235741939000,9.89193896484375,-0.11250603944063187,-0.3450535237789154,0.08214040845632553
1726407235751935200,9.901935302734374,-0.13431040942668915,-0.44514206051826477,0.08925104886293411
1726407235761931300,9.91193115234375,-0.15400341153144836,-0.5569780468940735,0.10014870762825012
1726407235771927000,9.921927001953126,-0.17435821890830994,-0.6446865797042847,0.11220882833003998
1726407235781923000,9.931923095703125,-0.18241427838802338,-0.6755057573318481,0.12510386109352112
1726407235791919000,9.941919189453126,-0.17822566628456116,-0.6745693683624268,0.13408243656158447
1726407235801915100,9.9519150390625,-0.16035771369934082,-0.6613609194755554,0.1474861204624176
1726407235811911200,9.9619111328125,-0.1351221352815628,-0.6228933930397034,0.1497066766023636
1726407235821907000,9.971906982421874,-0.11641795933246613,-0.5681156516075134,0.12587004899978638
1726407235831903200,9.9819033203125,-0.1087762787938118,-0.5114965438842773,0.0818040519952774
1726407235841899300,9.991899169921876,-0.10921596735715866,-0.4696204960346222,0.01932549476623535
1726407235851895000,10.00189501953125,-0.10091063380241394,-0.44427597522735596,-0.05057023465633392
1726407235861891000,10.01189111328125,-0.08711279928684235,-0.44857966899871826,-0.1092979907989502
1726407235871887000,10.02188720703125,-0.07074633985757828,-0.46839410066604614,-0.1632232815027237
1726407235881883100,10.031883056640625,-0.0694885328412056,-0.5000452399253845,-0.19843612611293793
1726407235891879200,10.041879150390624,-0.06837719678878784,-0.5226264595985413,-0.2384812831878662
1726407235901875200,10.051875244140625,-0.06420402228832245,-0.5194791555404663,-0.2660047709941864
1726407235911871200,10.061871337890626,-0.04994785040616989,-0.5108403563499451,-0.28418564796447754
1726407235921867000,10.071866943359375,-0.04246143996715546,-0.47493723034858704,-0.287771612405777
1726407235931863000,10.081863037109375,-0.03442215546965599,-0.41500571370124817,-0.2895391285419464
1726407235941859300,10.091859375,-0.01593715511262417,-0.3368730843067169,-0.2927711606025696
1726407235951855000,10.101855224609375,0.004546548705548048,-0.26151150465011597,-0.3033958375453949
1726407235961852200,10.11185205078125,0.020651215687394142,-0.19148287177085876,-0.31965574622154236
1726407235971848200,10.12184814453125,0.03630021587014198,-0.13410800695419312,-0.32741913199424744
1726407235981844200,10.13184423828125,0.04844236746430397,-0.08695007860660553,-0.33241018652915955
1726407235991840000,10.141840087890625,0.05733972042798996,-0.07115539908409119,-0.32800769805908203
1726407236001836000,10.1518359375,0.064863421022892,-0.08727072179317474,-0.3040302097797394
1726407236011832300,10.161832275390625,0.07412535697221756,-0.11966221779584885,-0.26383325457572937
1726407236021828000,10.171828125,0.07282759994268417,-0.1413145214319229,-0.20755638182163239
1726407236031824100,10.18182421875,0.06482267379760742,-0.1473681479692459,-0.15668149292469025
1726407236041820200,10.191820068359375,0.0678592100739479,-0.14457182586193085,-0.11245091259479523
1726407236051816200,10.201816162109376,0.07430113106966019,-0.10975046455860138,-0.0748518705368042
1726407236061812200,10.211812255859375,0.08682624250650406,-0.06764775514602661,-0.05751628801226616
1726407236071808000,10.22180810546875,0.10631951689720154,-0.018668493255972862,-0.047741156071424484
1726407236081804000,10.231803955078124,0.12094346433877945,0.03532443568110466,-0.050458379089832306
1726407236091800300,10.24180029296875,0.14013579487800598,0.06886295229196548,-0.055755939334630966
1726407236101796000,10.251796142578126,0.16070924699306488,0.05961992219090462,-0.06252489984035492
1726407236111792000,10.261792236328125,0.18987806141376495,-0.01053226925432682,-0.09022576361894608
1726407236121787600,10.27178759765625,0.22064130008220673,-0.12595872581005096,-0.14807388186454773
1726407236131783400,10.281783447265624,0.23574408888816833,-0.2496710866689682,-0.21346807479858398
1726407236141779700,10.29177978515625,0.2267734855413437,-0.36616840958595276,-0.2641219198703766
1726407236151775500,10.301775390625,0.19337798655033112,-0.45201006531715393,-0.29017722606658936
1726407236161771500,10.311771484375,0.14166951179504395,-0.3559349477291107,-0.334134042263031
1726407236171767600,10.321767578125,0.12581545114517212,-0.044186901301145554,-0.3763563334941864
1726407236181763600,10.331763671875,0.15651743113994598,0.24477618932724,-0.38956934213638306
1726407236191759600,10.341759521484375,0.2247079461812973,0.39860543608665466,-0.34202179312705994
1726407236201755600,10.351755615234374,0.2824988067150116,0.4590306878089905,-0.22447864711284637
1726407236211751400,10.36175146484375,0.3188115358352661,0.4751364290714264,-0.0790916234254837
1726407236221747700,10.371747802734374,0.3069567382335663,0.45140340924263,0.04470488801598549
1726407236231743500,10.381743408203125,0.288441926240921,0.4178382456302643,0.08747179061174393
1726407236241739500,10.391739501953126,0.2805935740470886,0.43479618430137634,0.05395803973078728
1726407236251735600,10.401735595703125,0.2673683166503906,0.4914530813694,0.0025662221014499664
1726407236261731600,10.411731689453125,0.24683454632759094,0.5253194570541382,-0.03692685812711716
1726407236271727600,10.4217275390625,0.22203093767166138,0.4913199245929718,-0.06232089921832085
1726407236281723400,10.431723388671875,0.19271032512187958,0.42301249504089355,-0.08292071521282196
1726407236291719700,10.4417197265625,0.16198411583900452,0.3683740198612213,-0.10297644883394241
1726407236301715700,10.4517158203125,0.13211463391780853,0.33009642362594604,-0.12737739086151123
1726407236311711500,10.46171142578125,0.10487847775220871,0.31132805347442627,-0.15630784630775452
1726407236321707500,10.47170751953125,0.0751219168305397,0.2933509349822998,-0.17310307919979095
1726407236331704600,10.48170458984375,0.05001549795269966,0.2577814757823944,-0.17572228610515594
1726407236341700600,10.49170068359375,0.02959437668323517,0.24616342782974243,-0.1578623354434967
1726407236351696400,10.5016962890625,0.028721926733851433,0.2820865511894226,-0.11803849041461945
1726407236361692700,10.511692626953124,0.034271419048309326,0.3501380383968353,-0.06714840978384018
1726407236371688700,10.521688720703125,0.04302842542529106,0.4363762438297272,-0.012459865771234035
1726407236381684500,10.5316845703125,0.054540738463401794,0.5016964077949524,0.050228018313646317
1726407236391680500,10.541680419921875,0.05868754908442497,0.5469434857368469,0.11689253151416779
1726407236401676500,10.551676513671875,0.05898502469062805,0.579444169998169,0.18193624913692474
1726407236411672600,10.561672607421874,0.06905150413513184,0.5937640070915222,0.24051061272621155
1726407236421668600,10.571668701171875,0.08339156210422516,0.5998179316520691,0.2794731855392456
1726407236431664400,10.581664306640626,0.08563820272684097,0.5984677076339722,0.2744869589805603
1726407236441660700,10.59166064453125,0.06664587557315826,0.5566227436065674,0.24064455926418304
1726407236451656700,10.60165673828125,0.04156182333827019,0.5006516575813293,0.18903197348117828
1726407236461652500,10.611652587890624,0.013911820948123932,0.4289979636669159,0.13681483268737793
1726407236471648500,10.6216484375,-0.017099624499678612,0.3640570342540741,0.07907670736312866
1726407236481644500,10.63164453125,-0.03227271884679794,0.30272579193115234,0.016393886879086494
1726407236491640600,10.641640625,-0.03765976056456566,0.24221982061862946,-0.03491430729627609
1726407236501636600,10.65163671875,-0.04035727679729462,0.22527332603931427,-0.06446634232997894
1726407236511632400,10.66163232421875,-0.03989388793706894,0.29872649908065796,-0.06384023278951645
1726407236521628700,10.671628662109375,-0.024711204692721367,0.40032875537872314,-0.026703516021370888
1726407236531624400,10.68162451171875,-0.001817607437260449,0.5189507603645325,0.05626273900270462
1726407236541620500,10.691620361328125,0.023069100454449654,0.5954002737998962,0.1718367338180542
1726407236551616800,10.70161669921875,0.04332004487514496,0.6250681281089783,0.3075663447380066
1726407236561612500,10.711612548828125,0.04331658035516739,0.6214382648468018,0.42809435725212097
1726407236571608600,10.721608642578126,0.032339032739400864,0.5946289896965027,0.5051462650299072
1726407236581604600,10.7316044921875,0.011449461802840233,0.5683609247207642,0.5301376581192017
1726407236591600600,10.7416005859375,-0.004576642066240311,0.5580360889434814,0.4998670816421509
1726407236601596700,10.7515966796875,0.009180715307593346,0.585340142250061,0.43571925163269043
1726407236611592400,10.761592529296875,0.027961593121290207,0.590569257736206,0.3566446602344513
1726407236621588500,10.77158837890625,0.05083148926496506,0.555524468421936,0.2990801930427551
1726407236631584800,10.781584716796875,0.06567488610744476,0.4981549382209778,0.28220105171203613
1726407236641580500,10.79158056640625,0.07453655451536179,0.4591265618801117,0.2972324788570404
1726407236651576600,10.80157666015625,0.07007922232151031,0.46119052171707153,0.30982843041419983
1726407236661572400,10.811572265625,0.06450042873620987,0.45377442240715027,0.3070792555809021
1726407236671568600,10.821568603515624,0.05748699605464935,0.4312664568424225,0.27799540758132935
1726407236681564700,10.831564697265625,0.0426822155714035,0.44041919708251953,0.2370157390832901
1726407236691561500,10.8415615234375,0.050638675689697266,0.4208841025829315,0.19508346915245056
1726407236701557800,10.851557861328125,0.06672683358192444,0.3845444917678833,0.16813254356384277
1726407236711553500,10.861553466796876,0.08353856950998306,0.36842408776283264,0.1682089865207672
1726407236721549600,10.871549560546875,0.09016664326190948,0.34438639879226685,0.17399843037128448
1726407236731545300,10.88154541015625,0.08746886253356934,0.3423144817352295,0.17883233726024628
1726407236741541600,10.891541748046874,0.06714840978384018,0.3595200777053833,0.18084540963172913
1726407236751537700,10.90153759765625,0.049068741500377655,0.3864872455596924,0.17990611493587494
1726407236761533400,10.911533447265626,0.030473487451672554,0.3963678479194641,0.17145830392837524
1726407236771529700,10.92152978515625,0.01733691245317459,0.4096468985080719,0.1651894897222519
1726407236781525500,10.931525390625,0.0008530105114914477,0.43725350499153137,0.1545693427324295
1726407236791521500,10.941521484375,-0.016328373923897743,0.4862380921840668,0.14208176732063293
1726407236801517600,10.951517578125,-0.037931669503450394,0.5458984971046448,0.13439401984214783
1726407236811513600,10.961513671875,-0.047135286033153534,0.5859470963478088,0.14611592888832092
1726407236821509600,10.971509521484375,-0.03056057170033455,0.6191641688346863,0.1777380406856537
1726407236831505700,10.981505615234376,0.010365555062890053,0.6804102063179016,0.2306388020515442
1726407236841501400,10.99150146484375,0.07345264405012131,0.7268379330635071,0.2989877760410309
1726407236851497700,11.001497802734375,0.13436739146709442,0.7529872059822083,0.36191800236701965
1726407236861493500,11.011493408203124,0.196580171585083,0.7494266033172607,0.4074953496456146
1726407236871489500,11.021489501953125,0.2457551658153534,0.7154625058174133,0.42134615778923035
1726407236881485600,11.031485595703124,0.2729545831680298,0.6664201021194458,0.4228127598762512
1726407236891481600,11.041481689453125,0.2731021046638489,0.593322217464447,0.41458386182785034
1726407236901477600,11.0514775390625,0.24229572713375092,0.4943404793739319,0.38462889194488525
1726407236911473400,11.061473388671875,0.2005874216556549,0.41885611414909363,0.34126517176628113
1726407236921469400,11.071469482421875,0.1573219746351242,0.3394419848918915,0.28009769320487976
1726407236931465700,11.0814658203125,0.11136887222528458,0.2458755522966385,0.20809781551361084
1726407236941461500,11.09146142578125,0.07823248952627182,0.1313609480857849,0.15152135491371155
1726407236951457500,11.10145751953125,0.05988543853163719,0.00959670078009367,0.10683297365903854
1726407236961453600,11.11145361328125,0.051720984280109406,-0.09137784689664841,0.06293981522321701
1726407236971449600,11.12144970703125,0.03785363957285881,-0.1408711075782776,0.019661851227283478
1726407236981445600,11.131445556640625,0.021399565041065216,-0.12194188684225082,0.005532983224838972
1726407236991441400,11.14144140625,-0.009952233172953129,-0.05615647882223129,0.031854335218667984
1726407237001437700,11.151437744140624,-0.03146125376224518,0.03941025584936142,0.12417680770158768
1726407237011433700,11.161433837890625,-0.02418549731373787,0.15573740005493164,0.2593245208263397
1726407237021429500,11.171429443359376,-0.011695804074406624,0.2488420456647873,0.3799537122249603
1726407237031425500,11.181425537109375,-0.02395646460354328,0.22503098845481873,0.40965357422828674
1726407237041421600,11.191421630859375,-0.05644862726330757,0.10819358378648758,0.33889442682266235
1726407237051417600,11.20141748046875,-0.09505727142095566,-0.06990877538919449,0.22673487663269043
1726407237061414400,11.211414306640625,-0.12189048528671265,-0.24849049746990204,0.13961754739284515
1726407237071410700,11.22141064453125,-0.13341665267944336,-0.37157249450683594,0.1153034195303917
1726407237081406700,11.23140673828125,-0.13504676520824432,-0.4672795832157135,0.14004072546958923
1726407237091402500,11.241402587890626,-0.11383975297212601,-0.5385417938232422,0.20689299702644348
1726407237101398500,11.2513984375,-0.08585391938686371,-0.6071887612342834,0.2950423061847687
1726407237111394600,11.26139453125,-0.06888265907764435,-0.6248641610145569,0.359169602394104
1726407237121390600,11.271390625,-0.05951392650604248,-0.584590494632721,0.3602694869041443
1726407237131387100,11.28138720703125,-0.06145484000444412,-0.5237902402877808,0.30713731050491333
1726407237141383200,11.291383056640624,-0.05728619173169136,-0.4660063087940216,0.23297998309135437
1726407237151379500,11.30137939453125,-0.043110717087984085,-0.45198529958724976,0.17217576503753662
1726407237161375200,11.311375244140624,-0.03135046735405922,-0.46225446462631226,0.1144152581691742
1726407237171371300,11.321371337890625,-0.03178056702017784,-0.482262521982193,0.035226695239543915
1726407237181367000,11.331366943359376,-0.050515372306108475,-0.5268241167068481,-0.07510273903608322
1726407237191363300,11.34136328125,-0.08107168227434158,-0.5819222927093506,-0.2176540344953537
1726407237201359400,11.351359375,-0.11954264342784882,-0.6656038165092468,-0.3766218423843384
1726407237211355100,11.361355224609374,-0.15698029100894928,-0.7379672527313232,-0.5124449133872986
1726407237221351400,11.371351318359375,-0.1909792721271515,-0.7801879644393921,-0.6075530648231506
1726407237231347200,11.38134716796875,-0.21070078015327454,-0.8237399458885193,-0.6666379570960999
1726407237241343200,11.39134326171875,-0.21249975264072418,-0.8602697253227234,-0.6921217441558838
1726407237251339300,11.40133935546875,-0.2189379334449768,-0.8816349506378174,-0.6931630373001099
1726407237261335300,11.411335205078124,-0.22756710648536682,-0.8809393048286438,-0.6745920181274414
1726407237271331300,11.421331298828125,-0.23686952888965607,-0.830115556716919,-0.6337577700614929
1726407237281327400,11.431327392578124,-0.2307133674621582,-0.7321277260780334,-0.5723756551742554
1726407237291323100,11.4413232421875,-0.2138177454471588,-0.5847787857055664,-0.493134081363678
1726407237301319400,11.4513193359375,-0.19455164670944214,-0.39953967928886414,-0.3994626998901367
1726407237311315200,11.461315185546875,-0.17419390380382538,-0.24539723992347717,-0.3006895184516907
1726407237321311200,11.471311279296875,-0.15264227986335754,-0.14267538487911224,-0.19253748655319214
1726407237331307300,11.481307373046874,-0.1515895277261734,-0.08241045475006104,-0.07903143763542175
1726407237341303300,11.49130322265625,-0.1588149517774582,-0.05434633046388626,0.036866672337055206
1726407237351299300,11.50129931640625,-0.16519881784915924,-0.043350934982299805,0.14230094850063324
1726407237361295000,11.511295166015625,-0.15318796038627625,-0.03650714457035065,0.2329043596982956
1726407237371291100,11.521291015625,-0.1287398636341095,-0.03562989830970764,0.29599809646606445
1726407237381287400,11.531287353515625,-0.11018695682287216,-0.03857509046792984,0.3089762330055237
1726407237391283200,11.541283203125,-0.1014493927359581,-0.030822627246379852,0.28393983840942383
1726407237401279200,11.551279296875,-0.09479867666959763,-0.03771142661571503,0.22764673829078674
1726407237411275300,11.561275146484375,-0.09355631470680237,-0.08389542996883392,0.17132088541984558
1726407237421271300,11.571271240234376,-0.102447010576725,-0.1613135188817978,0.11841559410095215
1726407237431267300,11.581267333984375,-0.1111595407128334,-0.23917023837566376,0.06292437016963959
1726407237441264000,11.59126416015625,-0.11654898524284363,-0.34858328104019165,0.010322678834199905
1726407237451260400,11.601260498046875,-0.13443610072135925,-0.4756203293800354,-0.016758473590016365
1726407237461256200,11.611256103515625,-0.15679414570331573,-0.603949785232544,-0.030822893604636192
1726407237471252200,11.621252197265624,-0.16983456909656525,-0.7041341662406921,-0.05018860101699829
1726407237481248300,11.631248291015625,-0.17398831248283386,-0.7805700898170471,-0.090193010866642
1726407237491244300,11.641244384765624,-0.17435316741466522,-0.821513831615448,-0.15339195728302002
1726407237501240300,11.651240234375,-0.170076385140419,-0.8351039290428162,-0.22087006270885468
1726407237511236000,11.661236083984376,-0.1548636108636856,-0.830854058265686,-0.27530160546302795
1726407237521232400,11.671232421875,-0.1498699188232422,-0.8272742629051208,-0.3001102805137634
1726407237531228400,11.681228515625,-0.16137903928756714,-0.8495140075683594,-0.29839229583740234
1726407237541224200,11.69122412109375,-0.19453832507133484,-0.8711037635803223,-0.27166852355003357
1726407237551220200,11.70122021484375,-0.22485841810703278,-0.9029796719551086,-0.22573432326316833
1726407237561216300,11.71121630859375,-0.24254046380519867,-0.9154222011566162,-0.16437722742557526
1726407237571212300,11.72121240234375,-0.24293595552444458,-0.8880462646484375,-0.11444961279630661
1726407237581208300,11.731208251953126,-0.22534577548503876,-0.8346426486968994,-0.09184043854475021
1726407237591204000,11.7412041015625,-0.19909313321113586,-0.7636699676513672,-0.0871167927980423
1726407237601200400,11.751200439453125,-0.1618163287639618,-0.685835599899292,-0.10264142602682114
1726407237611196200,11.761196044921874,-0.12210486829280853,-0.5776417851448059,-0.09576540440320969
1726407237621192200,11.771192138671875,-0.08497827500104904,-0.4532039761543274,-0.04958326369524002
1726407237631188200,11.781188232421876,-0.045165080577135086,-0.3550105690956116,0.020735371857881546
1726407237641184300,11.791184326171875,-0.00039414784987457097,-0.26797711849212646,0.0766066238284111
1726407237651180300,11.80118017578125,0.036974262446165085,-0.18564362823963165,0.1111036166548729
1726407237661176300,11.81117626953125,0.06560830771923065,-0.1122000440955162,0.10013512521982193
1726407237671172400,11.82117236328125,0.08735594153404236,-0.03882063180208206,0.030230605974793434
1726407237681168400,11.83116845703125,0.10938694328069687,0.024815334007143974,-0.06690420210361481
1726407237691164200,11.8411640625,0.14595480263233185,0.0664176419377327,-0.16198916733264923
1726407237701160200,11.85116015625,0.17850103974342346,0.1050875335931778,-0.22952666878700256
1726407237711156500,11.861156494140625,0.20304526388645172,0.13058917224407196,-0.25111478567123413
1726407237721152300,11.87115234375,0.2142571657896042,0.1357485055923462,-0.24274207651615143
1726407237731148300,11.881148193359374,0.2090568095445633,0.11782330274581909,-0.2452869862318039
1726407237741144000,11.89114404296875,0.1998734325170517,0.08585445582866669,-0.26641252636909485
1726407237751140400,11.901140380859376,0.19004477560520172,0.052129246294498444,-0.2944135069847107
1726407237761136400,11.911136474609375,0.1680270880460739,0.02508857473731041,-0.31071552634239197
1726407237771132200,11.921132080078126,0.16112177073955536,0.009012402966618538,-0.3037678599357605
1726407237781128200,11.931128173828125,0.16219556331634521,-0.004770786967128515,-0.26352912187576294
1726407237791124200,11.941124267578125,0.16961966454982758,-0.012023107148706913,-0.20478776097297668
1726407237801120300,11.951120361328124,0.17074032127857208,0.0179331935942173,-0.15036261081695557
1726407237811116300,11.9611162109375,0.1574849635362625,0.10141503810882568,-0.1108359694480896
1726407237821112000,11.971112060546876,0.1417454183101654,0.1912842094898224,-0.08757326006889343
1726407237831109400,11.981109375,0.14217232167720795,0.2438499480485916,-0.07840532809495926
1726407237841105200,11.991105224609376,0.1528651863336563,0.271039217710495,-0.0797819122672081
1726407237851101200,12.00110107421875,0.16244031488895416,0.3065841794013977,-0.09416937828063965
1726407237861097200,12.01109716796875,0.17128786444664001,0.3432289958000183,-0.11593059450387955
1726407237871093200,12.02109326171875,0.17105057835578918,0.3376355469226837,-0.1380513459444046
1726407237881089300,12.03108935546875,0.17777211964130402,0.2839832603931427,-0.15104198455810547
1726407237891085300,12.041085205078126,0.1802145093679428,0.21170052886009216,-0.1467641443014145
1726407237901081300,12.051081298828125,0.17973540723323822,0.1484946608543396,-0.13546141982078552
1726407237911077400,12.061077392578126,0.17345088720321655,0.09683573246002197,-0.12790364027023315
1726407237921073200,12.0710732421875,0.15731611847877502,0.08848006278276443,-0.13685213029384613
1726407237931069400,12.0810693359375,0.15255865454673767,0.15066327154636383,-0.16959115862846375
1726407237941065200,12.091065185546874,0.16061924397945404,0.27419427037239075,-0.20198318362236023
1726407237951061200,12.101061279296875,0.1607835590839386,0.3967374861240387,-0.21571311354637146
1726407237961057300,12.111057373046876,0.16720789670944214,0.4615575075149536,-0.17990505695343018
1726407237971053300,12.12105322265625,0.18120840191841125,0.4725553095340729,-0.1053575798869133
1726407237981049300,12.13104931640625,0.189090296626091,0.44364267587661743,-0.015008244663476944
1726407237991045000,12.141045166015624,0.18326249718666077,0.41151565313339233,0.054427556693553925
1726407238001041200,12.151041259765625,0.172071635723114,0.40064701437950134,0.06852446496486664
1726407238011037400,12.161037353515624,0.13428829610347748,0.3970024883747101,0.032042887061834335
1726407238021033200,12.171033203125,0.11172067373991013,0.41144612431526184,-0.03590500354766846
1726407238031029200,12.181029296875,0.11368395388126373,0.41483765840530396,-0.10527315735816956
1726407238041025300,12.191025390625,0.11729573458433151,0.38266268372535706,-0.15062972903251648
1726407238051021300,12.201021240234375,0.09821498394012451,0.3063594102859497,-0.17815855145454407
1726407238061017300,12.211017333984374,0.07462390512228012,0.21087682247161865,-0.19020935893058777
1726407238071013000,12.22101318359375,0.03918628394603729,0.1430373191833496,-0.18498289585113525
1726407238081009400,12.231009521484374,0.005525260232388973,0.11668054014444351,-0.16063015162944794
1726407238091005400,12.24100537109375,-0.015847139060497284,0.11236888915300369,-0.11862251907587051
1726407238101001200,12.251001220703126,-0.012269183062016964,0.16403554379940033,-0.07277380675077438
1726407238110997200,12.260997314453125,0.010537062771618366,0.25377580523490906,-0.01889938861131668
1726407238120993300,12.2709931640625,0.024701617658138275,0.3214259743690491,0.026083799079060555
1726407238130989300,12.2809892578125,0.0393090546131134,0.3711290657520294,0.04908791929483414
1726407238140985300,12.2909853515625,0.05385231226682663,0.3717043101787567,0.056653957813978195
1726407238150981000,12.300981201171876,0.04807937890291214,0.35283181071281433,0.055028632283210754
1726407238160977400,12.310977294921875,0.03461230546236038,0.3247397243976593,0.05939728021621704
