time,seconds_elapsed,z,y,x
1726940528115065300,0.0190654296875,-2.488411975726485,0.9344304291173815,1.5336340473681687
1726940528125050400,0.02905029296875,-3.1176480364084243,1.200750292496383,1.3136634088404475
1726940528135036200,0.0390361328125,-3.546653785690665,1.4073787805005906,0.9323153366595506
1726940528145022500,0.0490224609375,-3.076116002580523,1.7556877757802605,0.9590227263212203
1726940528155008300,0.05900830078125,-2.0078531493395566,1.893255294778943,1.0540177625283598
1726940528164994300,0.068994384765625,-0.9749287359833717,1.8243796192124484,1.0048520189516246
1726940528174980400,0.07898046875,-0.013467384338378905,1.7291040124982595,1.0750348315939307
1726940528184965400,0.08896533203125,0.540036851271987,1.5171031838059426,1.1374418956682086
1726940528194951200,0.098951171875,0.372576006051898,1.4468202717900276,1.1627443869680165
1726940528204937500,0.1089375,0.22370003431439398,1.4677490780502558,1.4262117835253476
1726940528214923300,0.11892333984375,0.007723872250318527,1.3818354661822319,2.1087768449433146
1726940528224909300,0.128909423828125,-0.587277325874567,0.8789473190873861,3.286137055632472
1726940528234894300,0.138894287109375,-0.9024591275781393,1.1447937197357416,4.309546621668338
1726940528244880400,0.14888037109375,-0.40711949616670606,2.4823569134712216,4.475140503972768
1726940528254866400,0.158866455078125,-0.5892459955990315,3.6472172696799037,4.287040775349736
1726940528264852200,0.168852294921875,-1.0820680912315845,3.8822716417014598,3.8787396681830284
1726940528274838500,0.178838623046875,-0.996280736091733,4.0363124488562345,3.0661770846292375
1726940528284823300,0.1888232421875,-0.22884265789985656,4.454242677372694,1.5046423461616039
1726940528294809300,0.198809326171875,0.9421873268544674,5.398603256613016,1.1007026490747929
1726940528304795400,0.20879541015625,1.6344705030798912,5.128215120881795,1.8531623538434505
1726940528314781400,0.218781494140625,2.4555495705664154,5.438420887738466,3.304807561571896
1726940528324767200,0.228767333984375,3.716288467818498,5.848017003151774,4.263933163745701
1726940528334753300,0.238753173828125,4.490277282828092,6.238638368982076,4.433916805441677
1726940528344738300,0.24873828125,4.607082292044162,5.880072768104076,4.2238294091552495
1726940528354724400,0.258724365234375,5.03943326010108,5.143178296735883,4.17267994441539
1726940528364710400,0.26871044921875,5.773925931024551,5.768305753055214,3.088338063032925
1726940528374696200,0.2786962890625,5.997053133887052,5.727337198328971,2.188563936755061
1726940528384682500,0.2886826171875,6.157814773729443,5.043426129129529,0.9544792376726865
1726940528394667300,0.298667236328125,5.948195287215709,4.649438501736522,-0.3089619042754173
1726940528404653300,0.3086533203125,6.034857087102532,3.949962783658504,-1.6086305439025164
1726940528414639400,0.318639404296875,5.852440664812923,3.018858576354384,-2.8976041865140196
1726940528424625400,0.32862548828125,-5.842514898604154,-8.008444394224881,-60.19886663177013
1726940528434611200,0.338611083984375,5.338789131641388,-5.2614072012752295,1.7663327961742876
1726940528444596200,0.34859619140625,3.7923920488119123,0.5042097510874272,13.722027792489527
1726940528454582500,0.35858251953125,-0.455110935267061,-1.0031167195916175,-13.9024626855731
1726940528464568300,0.368568359375,1.3842904581189155,-0.9096680360436439,4.531295521914958
1726940528474554400,0.378554443359375,0.8951181171655654,1.2304723538041114,3.1290912214428186
1726940528484540200,0.3885400390625,1.1083791750520466,-0.05883388176262378,0.4145639669537544
1726940528494526500,0.3985263671875,1.241978082680702,-1.797688888424635,-2.147772492161393
1726940528504511200,0.40851123046875,0.8708446766525506,-1.9955682527840137,-5.276303157112002
1726940528514497300,0.418497314453125,1.815035160022974,-0.7409691734611987,2.998080576741695
1726940528524483300,0.4284833984375,0.8358242166757583,0.7862251962482929,0.8572329154074192
1726940528534469400,0.438469482421875,1.8542530716896055,1.320028998349607,3.886722775891423
1726940528544455200,0.448455078125,1.6914122874855995,1.5071286100193857,3.7938545225799083
1726940528554440200,0.458440185546875,0.6787421421289443,1.3725184795215726,2.1717969263494012
1726940528564426500,0.468426513671875,0.9706277508538216,1.3337731538027524,4.650346848753094
1726940528574412300,0.478412353515625,0.4779601151306182,1.2001371290341019,4.793937573564052
1726940528584398300,0.4883984375,1.3272457978606222,-0.28160920244753357,4.1276019085437055
1726940528594384400,0.49838427734375,3.0418203497469425,-0.7743924273744225,2.8511954865604636
1726940528604370400,0.508370361328125,3.1341338917851447,0.7097182951509952,0.5390513473659754
1726940528614355200,0.518355224609375,2.131641441571712,0.267144477634877,-2.7813381064802405
1726940528624341200,0.52834130859375,1.1721953752718866,-0.5133455359622836,-5.512768564975262
1726940528634327300,0.538327392578125,-8.10302354310751,-2.400671440692246,-13.782186785376071
1726940528644313300,0.548313232421875,-13.898616531538963,-3.856667829367518,-21.98659214311838
1726940528654299100,0.558299072265625,-2.6548306184172628,-3.633399756729603,-8.27003372195065
1726940528664284200,0.5682841796875,1.8575135347902774,-1.8555499796323478,-0.5363070170938968
1726940528674270500,0.5782705078125,3.611161036914587,2.220627592752874,3.4071541295856234
1726940528684256300,0.58825634765625,2.1180967542134224,3.1928613905638454,4.055251542603969
1726940528694242300,0.5982421875,2.606251004165411,2.714527839010954,6.857286400154233
1726940528704228400,0.608228271484375,5.40708116210103,1.4186942475020885,9.380900622165203
1726940528714214400,0.61821435546875,5.611216079723834,1.8729590873338282,6.398925377050042
1726940528724199200,0.62819921875,4.005557829630375,3.2582968625485895,2.19826407751441
1726940528734185500,0.638185546875,3.938139074873924,3.33197263187319,0.5199900885432959
1726940528744171300,0.648171142578125,4.732050733971596,1.8710672822378576,0.1290390523672104
1726940528754157300,0.6581572265625,4.868012863600254,0.3272404152225703,0.1664174736469984
1726940528764143000,0.66814306640625,4.051290530018508,-0.6697681236870586,0.4229121085822582
1726940528774128400,0.67812841796875,2.770081968450546,-1.0676549504756927,-0.2686439224123955
1726940528784114400,0.688114501953125,1.3718730212248862,-1.5189081874012946,-1.848834553772211
1726940528794100200,0.698100341796875,0.008345803540945053,-1.7728021383188663,-3.5875673953592777
1726940528804086500,0.70808642578125,-1.2489175265550612,-1.4118138403385876,-4.763032147690653
1726940528814072300,0.718072265625,-2.4162441267468036,-1.3496635275043547,-5.627963216385245
1726940528824058400,0.728058349609375,-3.304200535589456,-1.8372507912233471,-5.8367012438893315
1726940528834043400,0.73804345703125,-3.8815316369891164,-2.913825253474712,-4.862065353372693
1726940528844029400,0.748029541015625,-5.423495705807209,-3.9306943118259308,-3.8762703554600475
1726940528854015200,0.75801513671875,-6.823344967585801,-5.219690458530187,-2.8888521402597425
1726940528864001300,0.768001220703125,-5.841356376218795,-4.706817508515715,-1.565301105263829
1726940528873987300,0.7779873046875,-4.475829070758819,-4.118145513412356,-0.6648445496797561
1726940528883972400,0.787972412109375,-3.273591462314129,-3.988488621407747,0.11355448298752308
1726940528893958400,0.79795849609375,-2.813329574024677,-3.2815465129718184,1.4520546653121709
1726940528903944200,0.807944091796875,-3.2395196813642975,-3.3919165207043287,3.0608956370949745
1726940528913930500,0.817930419921875,-3.25644977337718,-4.020533280444145,3.987050697559118
1726940528923916300,0.827916259765625,-2.9421280956342817,-4.7681537284880875,2.952183333441615
1726940528933902300,0.83790234375,-2.7293925229266285,-5.9099792460680005,1.434551157325506
1726940528943887400,0.847887451171875,-2.4104329562500117,-6.429082614904642,-0.15298983679711817
1726940528953873400,0.857873291015625,-1.6331424693465233,-5.175452672874927,-1.8059604576855897
1726940528963859200,0.867859130859375,-0.7444432793125509,-3.937309638312459,-2.7859406318396327
1726940528973845200,0.87784521484375,0.2730725525096059,-3.506311546169221,-2.6575994986087084
1726940528983831300,0.887831298828125,1.1475351273983716,-3.4118951866328713,-1.6143226180642842
1726940528993816300,0.89781640625,1.7067685543105005,-3.130715023252368,-0.4933312141984701
1726940529003802400,0.90780224609375,1.7870532203808427,-2.2078934911251067,0.18785598299503325
1726940529013788200,0.9177880859375,0.8099138226106762,-0.42058337337374685,0.20468319915533065
1726940529023774500,0.9277744140625,0.1863967240974307,2.162225964927673,-0.3772065884619951
1726940529033760300,0.93776025390625,0.2670619139179587,4.923307465320825,-1.2038742697358131
1726940529043746300,0.947746337890625,0.6028586336269974,7.085360411769151,-2.746149888721108
1726940529053731300,0.9577314453125,-2.7665114164873956,12.364416082459687,-5.844431545880436
1726940529063717400,0.96771728515625,-4.4837858749821775,12.847590059781075,-4.208742899182439
1726940529073703200,0.977703125,-0.6206546948194503,9.375033191436529,-1.1024719968348742
1726940529083689500,0.987689453125,1.1015773860827087,5.330232900220156,2.570970431947708
1726940529093675300,0.99767529296875,2.2225416096806523,4.084383821325003,0.5171282693713903
1726940529103661300,1.007661376953125,2.2556512676000593,3.603129998411238,-0.2859270656466484
1726940529113646300,1.017646240234375,1.2968633729480206,3.1919644417241213,1.159147823780775
1726940529123632400,1.02763232421875,-0.3453983685299754,1.893281306003034,2.8086469691663978
1726940529133618400,1.037618408203125,-0.5646215496912599,-0.19863252081423996,4.999933024361729
1726940529143604200,1.047604248046875,0.25588585538715125,0.006402852779626846,4.646128938797116
1726940529153590500,1.057590576171875,1.124697272646427,1.6115245117783545,3.936472018444538
1726940529163575300,1.0675751953125,1.5789619663476944,2.2748918285124002,2.8943536602854727
1726940529173561300,1.077561279296875,1.6873825935781002,2.0028290375672277,1.6444021145075558
1726940529183547100,1.087547119140625,1.3590315136998892,1.7613981162510812,1.9585025507152078
1726940529193533400,1.097533447265625,1.1280945138692855,2.0739966234631835,1.6090537377506493
1726940529203519200,1.107519287109375,1.1731786872208119,3.045757981456816,2.371974046257138
1726940529213505300,1.11750537109375,1.2920757002800702,3.256008167089522,3.120555448287725
1726940529223490300,1.127490234375,0.5855880576133727,1.8397320866450666,3.0373113478899
1726940529233476400,1.137476318359375,-0.3617553368300199,1.6094573501154779,3.1394659004628656
1726940529243462400,1.14746240234375,-0.6017074177652597,2.6306626841053364,2.890542577564716
1726940529253448200,1.1574482421875,-1.3427178000196813,2.623171451567113,1.0887450847774744
1726940529263434500,1.1674345703125,-1.4416791095092891,2.7336390744552013,-0.37841128807663915
1726940529273419300,1.177419189453125,-1.0022264927536249,2.7500340366780756,-3.0649872903227804
1726940529283405300,1.1874052734375,-1.3021280154779553,2.5007646768212317,-4.999792739108204
1726940529293391000,1.19739111328125,-2.336184939995408,2.1741826524421572,-6.0126084304153915
1726940529303377400,1.20737744140625,-3.2495500769913193,1.4608713012352585,-7.589592959210276
1726940529313363200,1.21736328125,-2.20339208805263,-0.9730990363381803,-3.8776393057256935
1726940529323349200,1.227349365234375,1.1683376769304274,-2.4377765979886052,-2.929623711109161
1726940529333334500,1.23733447265625,3.4673552080482244,-3.4722187224313616,-1.3188824586629866
1726940529343320300,1.2473203125,3.5743630458712574,-2.7572856152415275,0.017295418193936346
1726940529353306400,1.257306396484375,2.983339519205689,-2.1381635368168355,1.733295618969202
1726940529363292400,1.26729248046875,2.4580396338164805,-1.838422173090279,2.1442302895098924
1726940529373278500,1.277278564453125,1.484039118593931,-1.2803218418613076,1.456733763039112
1726940529383264300,1.28726416015625,-0.1419178231626749,-1.0867968733191489,0.4368307438194752
1726940529393249300,1.297249267578125,-0.8824819229543208,-0.8895169361576437,0.033255788391828536
1726940529403235300,1.3072353515625,-1.1185212143599987,-0.9975240141510963,-0.7431219675809144
1726940529413221400,1.317221435546875,-1.0042132826566696,-0.9174179195180535,-1.4727309581160544
1726940529423207200,1.327207275390625,-0.7381652219563722,-1.1285203380659221,-1.7492706022143363
1726940529433193500,1.337193359375,-0.86825349111557,-1.2359127912923693,-1.5856506503313779
1726940529443178500,1.347178466796875,-1.0244073449015616,-1.3265724286437033,-1.1917103692114352
1726940529453164300,1.357164306640625,-0.9761252522915601,-1.3330027539521454,-0.8296376369953155
1726940529463150300,1.367150390625,-0.8386047873049974,-1.104941309557855,-0.14881576598286628
1726940529473136400,1.377136474609375,-0.6205488963574171,-0.9241595027327537,0.5826794766902923
1726940529483122400,1.387122314453125,-0.2019581581056118,-1.0312836604118347,1.0674521213799715
1726940529493108200,1.397108154296875,0.2616623929619789,-1.28571610212028,1.2654267628073692
1726940529503093200,1.40709326171875,0.808002728292346,-1.5362915761396287,1.1791653604149819
1726940529513079300,1.417079345703125,1.2098106740474701,-1.645271006296575,0.9064853143543005
1726940529523065300,1.4270654296875,1.3948206199616193,-1.7545184397399425,0.7431231366246939
1726940529533051100,1.437051025390625,1.349367028775811,-1.6481670199990273,0.5373147328317165
1726940529543037400,1.447037353515625,1.139132625234127,-1.4775515101402996,0.43433366630673403
1726940529553023200,1.457023193359375,0.766830759948492,-1.2800661135345697,0.4699672897458076
1726940529563008300,1.46700830078125,0.24409751017689704,-1.1080772694960237,0.5449801528930663
1726940529572994300,1.476994384765625,-0.20166823524832725,-0.9256082402363419,0.5562023886531591
1726940529582980400,1.48698046875,-0.4408604377269745,-0.6738599230453372,0.5439741907209158
1726940529592966400,1.49696630859375,-0.43252106392681594,-0.5680240516111255,0.44737201157808304
1726940529602952200,1.5069521484375,-0.24706162067949772,-0.5410223551779985,0.46214054164290425
1726940529612937500,1.5169375,-0.21006898384690284,-0.3963602017432451,0.6401362248808146
1726940529622923300,1.52692333984375,-0.053196168136596673,-0.3774339674770832,0.6753332104682922
1726940529632909000,1.536908935546875,0.16285422820746898,-0.28135113603323697,0.42897535414397714
1726940529642895000,1.54689501953125,0.3882622354835272,-0.07099895133078098,0.21589432899951932
1726940529652881000,1.556880859375,0.6560615237653256,0.2487229780204594,0.14710370136797427
1726940529662867000,1.566866943359375,0.9568231704503297,0.4957407595582306,0.12180500946044921
1726940529672852000,1.57685205078125,1.1042600492954253,0.7085235324084759,0.27978666319549084
1726940529682838000,1.586838134765625,1.2185136204630136,0.8243918452963233,0.4033575132846832
1726940529692823800,1.59682373046875,1.3299421973377465,0.8094758695848285,0.3534469426900148
1726940529702810000,1.60681005859375,1.4131921429544687,0.6325593598857522,0.25031448499560355
1726940529712796000,1.6167958984375,1.426695767650008,0.3832613584563136,0.15504092410802842
1726940529722781000,1.626781005859375,1.378670280149579,0.10713190259411931,0.030706103909015653
1726940529732767000,1.63676708984375,1.1864485031604766,-0.21357202353179452,-0.38053134897053237
1726940529742753000,1.6467529296875,0.7658560696974396,-0.3760637020371854,-0.4525806861370802
1726940529752739000,1.656739013671875,0.1924637690514326,-0.44166284015104174,0.030631869629025456
1726940529762724900,1.666724853515625,-0.28450901554226876,-0.5197852136209606,0.4095055145204067
1726940529772711000,1.6767109375,-0.5404959932163358,-0.6316412221275269,0.3631044133514166
1726940529782696000,1.686696044921875,-0.5894359652131795,-0.9187529675140976,0.28087796556353567
1726940529792682000,1.696681884765625,-0.5894079081624746,-1.197843903530389,0.03076806322932243
1726940529802667800,1.706667724609375,-0.548283870613575,-1.473939603253454,-0.2839467054843902
1726940529812654000,1.716654052734375,-0.4628051430314779,-1.6713756077595054,-0.5875491285532712
1726940529822639900,1.726639892578125,-0.4998702605783939,-1.8550529898956416,-0.7220739188551902
1726940529832626000,1.7366259765625,-0.7261492054700851,-1.8831823751844465,-0.5990285539448261
1726940529842611200,1.746611083984375,-1.0099965422332287,-1.8985237367011605,-0.1750654750049114
1726940529852597000,1.756596923828125,-1.1989470424667,-1.852870385159552,0.3949304612010717
1726940529862583000,1.7665830078125,-1.2615201107576488,-1.7360495938524603,0.9903525150865315
1726940529872568800,1.77656884765625,-1.104412024986744,-1.5777072901114821,1.573156494939327
1726940529882555000,1.786554931640625,-0.7900789490669965,-1.3481015388846396,1.5883634164214133
1726940529892540000,1.796539794921875,-0.29180209515988825,-1.2308765506908297,1.160486963430047
1726940529902526000,1.80652587890625,0.13212328211814164,-1.2602300709471106,0.49507484299540516
1726940529912512000,1.816511962890625,0.4000935430526733,-1.306202863701433,0.2620768189817667
1726940529922498000,1.826498046875,0.5531760265693069,-1.309096393185854,0.5454752429336309
1726940529932483800,1.83648388671875,0.5752028571993112,-1.3138362811893225,0.5979103635698556
1726940529942470100,1.84647021484375,0.589945960561931,-1.3160538111083209,0.35756022322773934
1726940529952455200,1.856455078125,0.5788520273566246,-1.298887133860588,0.04995499425828456
1726940529962441000,1.86644091796875,0.5046434663295746,-1.1750270915664731,-0.4736930322706699
1726940529972427000,1.876427001953125,0.6742249569654465,-0.9560844809122383,-1.5217390269130469
1726940529982413000,1.8864130859375,0.9111638275593519,-0.7271973993487656,-2.8242127870887517
1726940529992399000,1.896399169921875,0.9727233348935842,-0.1405988495185971,-3.6197950097471474
1726940530002385000,1.906385009765625,0.5999065058231353,0.6527323793426155,-3.2609581907123326
1726940530012370000,1.916369873046875,0.06672405049055814,1.2664578594207763,-2.1626690325200557
1726940530022356000,1.92635595703125,-0.12333411872386932,1.6302990626141427,-1.557059931141138
1726940530032342000,1.936342041015625,0.058059974780678744,1.8531418955773113,-1.3990104728668928
1726940530042327800,1.946327880859375,0.18171499602198599,2.207512236722559,-1.6912684951007366
1726940530052314000,1.956314208984375,0.5575079182937741,2.643238964822888,-2.032840875601768
1726940530062299100,1.966299072265625,0.7829267392247915,2.9714105964809656,-1.779784398421645
1726940530072285000,1.976284912109375,0.5961264027625321,3.1507045028358696,-0.7374696409076452
1726940530082271000,1.98627099609375,0.47086949928253885,3.0155329390630126,0.050338440617918964
1726940530092257000,1.996257080078125,0.4558636533305049,2.8749624388560653,0.5900245787560939
1726940530102243000,2.0062431640625,0.247486275832355,2.6877976529955863,1.1579659205198287
1726940530112228900,2.016228759765625,0.2925502831786871,2.3016940568506716,1.3307780636399984
1726940530122214100,2.026214111328125,0.3557490821525454,1.778307603867352,1.4318337150603533
1726940530132200000,2.036199951171875,0.16601473806500433,1.3443787189692258,1.6750024199545384
1726940530142186000,2.04618603515625,-0.003924479967355728,0.9418081182785332,1.8913252034991979
1726940530152171800,2.056171875,-0.09133037621974945,0.5266279921878129,2.0238281325846907
1726940530162158000,2.066157958984375,-0.0682183807015419,0.15277100641466676,2.3393618164658547
1726940530172143900,2.076143798828125,-0.048107320564985276,-0.0530248301576823,2.84021758095026
1726940530182129000,2.08612890625,0.05546995828747749,-0.3667831749293953,3.0330805784523487
1726940530192115000,2.096114990234375,0.22985388076901433,-0.7955577458042651,2.7198434810757637
1726940530202101000,2.10610107421875,0.386761183270812,-1.5557500175863503,2.158599591124058
1726940530212087000,2.116087158203125,0.35942309449017046,-2.4096549576148387,1.390640119406581
1726940530222073000,2.126072998046875,0.5324883355885743,-3.2609827406316994,0.9283230521529913
1726940530232059000,2.136058837890625,0.9376286406368016,-4.039549238820374,0.5396422989964484
1726940530242044000,2.1460439453125,1.2822253373950718,-4.802863222819567,0.33800855053961276
1726940530252030000,2.156030029296875,1.0744283901333809,-4.328426678705215,0.5239496398240328
1726940530262016000,2.16601611328125,0.738753250977397,-2.5342528126642105,0.26917116115689277
1726940530272002000,2.176001953125,0.48556321054548024,-0.8057982770506292,-0.10727437980473041
1726940530281987800,2.18598779296875,0.2948538839459419,0.3406684173986316,-0.5919798044770955
1726940530291972900,2.195972900390625,0.30694355019032954,1.0140690523691476,-1.0046960977375508
1726940530301959000,2.205958984375,0.23273089751005172,1.761030013591051,-1.114894840556383
1726940530311945000,2.215945068359375,0.5442793111473322,2.491011929091811,-1.7014017665803431
1726940530321931000,2.225930908203125,0.7576920524641871,3.2512396375134585,-2.439071898496151
1726940530331917000,2.2359169921875,1.140710249814391,3.6863539328038692,-2.8900457339584826
1726940530341902800,2.24590283203125,1.4669675722837447,3.252514479754865,-2.8533780912965536
1726940530351888000,2.255887939453125,1.32054571570009,2.6228257068693637,-2.0757582263082264
1726940530361874000,2.2658740234375,1.0624617657467723,2.1754662625119088,-1.4126941303044556
1726940530371860000,2.27585986328125,0.8780097459763287,1.9379016612350939,-0.8095978885293006
1726940530381846000,2.285845947265625,0.8613684077769518,1.8579948885664344,-0.7587333782106638
1726940530391831800,2.295831787109375,0.9494178626298904,1.7787402961961924,-0.7544768898099661
1726940530401818000,2.305818115234375,0.7638450221359729,1.7288807251363991,-0.1480605637013912
1726940530411803000,2.315802978515625,0.41784985675662756,1.674496662389487,0.9805003986358642
1726940530421789000,2.325788818359375,0.10056173042356967,1.4693544674202799,1.864823565542698
1726940530431775000,2.33577490234375,-0.00042027123868465424,1.09218499609828,2.2026532523840663
1726940530441761000,2.345760986328125,-0.12380524336695671,0.6609313948240131,2.2014555670320988
1726940530451746800,2.355746826171875,-0.2546738492488861,0.12734043175578116,1.9677157847404478
1726940530461732900,2.36573291015625,-0.35080607279241083,-0.41821255258917805,1.8099895670711994
1726940530471718100,2.37571826171875,-0.6409948875367641,-0.7970869281329214,1.903262894052267
1726940530481704000,2.385703857421875,-0.9613970542371273,-1.1431076663449407,2.2080752774327994
1726940530491690000,2.39568994140625,-1.1539788967102764,-1.4807675495773553,2.163147755947709
1726940530501676000,2.405676025390625,-0.738413643759489,-1.7787490640245378,1.2468991724699734
1726940530511662000,2.415662109375,-0.049293607740104196,-1.8406174911774693,0.01332300743162632
1726940530521647000,2.425647216796875,0.3179807847723365,-1.4020897341817617,-0.6655208415061235
1726940530531633000,2.4356328125,0.6426783105790614,-0.7883170539610087,-0.8303104216903447
1726940530541619000,2.445618896484375,0.8686100494682788,-0.6081764676488935,-0.9339052361994982
1726940530551605000,2.45560498046875,0.8725696007490158,-0.6289300634726882,-1.062879991158843
1726940530561590800,2.4655908203125,0.5514028794169425,-0.807320006725192,-0.7679694085896015
1726940530571577000,2.4755771484375,-0.004374269561469555,-0.906082432641834,-0.3531511746138334
1726940530581562000,2.48556201171875,-0.47943303722739217,-0.5973645662553608,-0.29942133799195286
1726940530591548000,2.4955478515625,-0.5473682170733809,-0.29120076826587316,-0.7212246085494757
1726940530601534000,2.505533935546875,-0.2642418880611658,-0.39268735844939945,-0.992097312927246
1726940530611520000,2.51552001953125,0.06818097130060195,-0.7118729889668524,-1.137575458920002
1726940530621506000,2.525506103515625,0.28018881425559516,-0.8432356619760394,-0.7842740621805191
1726940530631491600,2.53549169921875,0.4448457079708576,-0.19917948717251419,-0.4457154765427112
1726940530641476600,2.5454765625,0.6056318977326154,0.6766640206806361,-0.4238187020331621
1726940530651463000,2.555462890625,0.4240592327907681,1.3741907966479658,-0.6263941152542829
1726940530661448700,2.56544873046875,-0.10300094026923179,2.04055466484949,-0.33471827682256694
1726940530671434800,2.575434814453125,-0.7896180535569787,2.4030165425136683,0.6051484981298446
1726940530681420800,2.5854208984375,-1.111778754362464,2.302304882225394,1.8321411931246518
1726940530691406800,2.59540673828125,-1.027459718209505,1.5498533607631921,2.876663689815998
1726940530701391600,2.6053916015625,-0.4176341681793332,0.734827309705317,3.165858817347884
1726940530711377700,2.615377685546875,0.39592590197920796,0.17932751636356115,2.5813778441935775
1726940530721363700,2.62536376953125,1.049405300296843,-0.300530760538578,1.3931068017810582
1726940530731349800,2.635349853515625,1.4410934185758233,-0.37565073732212184,0.2527764911949634
1726940530741335600,2.64533544921875,1.4163538218557834,-0.1308260819144547,-0.44692952850759027
1726940530751321900,2.65532177734375,1.0846814886003733,-0.056640609502047294,-0.6017839901328087
1726940530761307000,2.665306884765625,0.8715010947346686,-0.14709420288726688,-0.8872574667930603
1726940530771292700,2.675292724609375,0.8005822229027748,-0.03251300720050931,-1.5809826585203408
1726940530781278700,2.68527880859375,0.8068541427791118,0.4510512846127152,-1.834138504421711
1726940530791264800,2.6952646484375,0.5839031732663512,1.0253611384950578,-2.009104026183486
1726940530801250800,2.705250732421875,0.21546967384666202,1.6584287401638924,-2.3071049759835005
1726940530811235600,2.715235595703125,-0.1865168433457613,1.864844754461199,-2.2712363747447726
1726940530821222000,2.725221923828125,-0.6734861212968826,1.8019748951807617,-1.372638598769903
1726940530831207700,2.735207763671875,-0.9779448689341544,1.740957970290631,0.016143910071253775
1726940530841193700,2.74519384765625,-0.9936281757563352,1.3721468697302042,1.1188438704431056
1726940530851179500,2.755179443359375,-0.05284837761223316,0.767316643769294,1.9160060557693241
1726940530861165800,2.765165771484375,-0.29773937625437974,0.39889293509125706,2.0386188744813203
1726940530871150800,2.77515087890625,-0.875687440508604,0.23116752065084872,1.3503250601530075
1726940530881136600,2.78513671875,-0.4907675011903047,-0.06843465380072593,1.0033300700813532
1726940530891123000,2.795123046875,0.11707505832910536,-0.5006153798572719,0.9708341601461171
1726940530901108700,2.805108642578125,0.6737286978811026,-0.8597072696316986,0.6633563569486141
1726940530911094800,2.8150947265625,1.031644602678716,-1.075929807672277,0.11296353135704994
1726940530921080800,2.825080810546875,1.416481247627735,-1.3471622122079132,-0.4537427156537771
1726940530931065900,2.83506591796875,1.590342607539892,-1.6744709434263407,-0.7220335868448019
1726940530941051600,2.8450517578125,1.4651345116376875,-2.1475471589729187,-0.43910628753602504
1726940530951037700,2.85503759765625,1.0326432583272456,-2.4303197061114012,0.2814057888299227
1726940530961023700,2.865023681640625,0.6355681863129139,-2.632103238302469,0.9845137259304523
1726940530971009800,2.875009765625,0.4152195082530379,-2.6215876895070074,1.7199872245848178
1726940530980995600,2.88499560546875,0.24715572870373725,-2.4624504359960553,2.48431856893301
1726940530990980600,2.894980712890625,0.48770139161795373,-2.414467910854518,3.163529497617483
1726940531000967000,2.904966796875,1.4210820194214582,-2.3944332769550383,3.255776404160261
1726940531010952700,2.91495263671875,2.771023925475776,-2.4842335209980604,2.178033774912357
1726940531020938800,2.924938720703125,3.9850083780765533,-2.5224454704925416,0.8634814544081687
1726940531030924800,2.9349248046875,4.776310731458664,-2.718172917515039,0.13324877901673315
1726940531040909800,2.944909912109375,5.042698399376869,-3.0082775611072776,-0.48088791221082205
1726940531050895600,2.9548955078125,4.771808159342408,-3.124308663341403,-1.32917121296525
1726940531060881700,2.964881591796875,4.078056079608202,-2.8796424133658407,-2.539774498695135
1726940531070867700,2.97486767578125,3.3130554576963185,-2.693126739063859,-4.340501731902361
1726940531080853800,2.984853759765625,2.7376883498460054,-2.7269009983718395,-5.0796144638419145
1726940531090839600,2.994839599609375,1.8562194033265114,-2.4705349582523106,-4.2104444424033165
1726940531100824800,3.004824951171875,1.0528770680606365,-2.198140743395686,-2.6028368118077516
1726940531110811000,3.014810791015625,0.56481707226336,-1.8559633827388287,-1.185571135804057
1726940531120796700,3.024796630859375,0.43113165539503095,-1.2896261151708661,-0.5684545519828796
1726940531130782700,3.03478271484375,0.5921440551280975,-0.7716297577280551,-0.7867138565480709
1726940531140768800,3.044768798828125,0.5925508823633193,-0.2076052971471101,-1.0927531513750552
1726940531150754800,3.0547548828125,0.2634621358603239,0.3544938944596797,-1.2825503315657376
1726940531160739600,3.064739501953125,-0.23696868121027945,0.8964569645538926,-1.1408768385529517
1726940531170726000,3.074725830078125,-1.047335216024518,1.615544853335619,-0.3657914604783058
1726940531180711700,3.084711669921875,-1.7292583262771366,2.2556072823278606,0.5526619395673275
1726940531190697700,3.09469775390625,-2.0785095708429813,2.785802684673667,1.126468958494067
1726940531200683800,3.104683837890625,-2.225503674356639,3.2254952476650476,1.6528636533826588
1726940531210669800,3.114669921875,-2.155515653634071,3.697019995985925,2.027761380380392
1726940531220654800,3.12465478515625,-1.7186802336394786,3.9553994217544792,2.171106021475792
1726940531230640600,3.134640625,-0.9295669147342442,3.922200039725005,2.086412306791544
1726940531240626700,3.144626708984375,0.06791852097213268,3.6393677252233028,1.6563719537645578
1726940531250612700,3.15461279296875,0.6973316917866468,3.42981107481271,1.4171347431004047
1726940531260598800,3.164598876953125,0.8183768227905035,3.1228134563475844,1.6020435667276383
1726940531270583600,3.17458349609375,1.009177042543888,2.8646292608901858,1.8027637074708938
1726940531280569900,3.18456982421875,1.2760934105113149,2.54232009152472,1.5872329510867595
1726940531290555600,3.1945556640625,1.6622399690151213,2.229087816453725,1.078967787128687
1726940531300541700,3.204541748046875,2.0825521242320537,1.82632578484416,0.41908465924859045
1726940531310527700,3.21452783203125,2.2346844674170017,1.3012212758965789,-0.26185996136069295
1726940531320513800,3.224513671875,1.9764339287251234,0.8676515796996652,-0.4591752620965242
1726940531330498800,3.234498779296875,1.3620675203949213,0.7977658503077923,-0.2277595388382673
1726940531340484600,3.244484619140625,0.6272638838261365,0.8632130127303301,0.4805862989157438
1726940531350470700,3.254470703125,-0.014357611176371573,0.9002876287579535,1.2817618115365506
1726940531360456700,3.264456787109375,-0.5321764931604266,0.948631680688262,1.8796809429347514
1726940531370442800,3.27444287109375,-0.9365028514772653,0.9394568789772689,2.27957808663249
1726940531380428800,3.2844287109375,-1.3111825518101452,0.9872709156841039,2.413903554970026
1726940531390413800,3.294413818359375,-1.4444427290037274,0.9660720603108406,2.1632599841505287
1726940531400399600,3.304399658203125,-1.1962404138565064,0.8294032437175511,0.9302993206620216
1726940531410385700,3.3143857421875,-0.7863321637541055,0.6274607215724886,-0.7995797678619623
1726940531420371700,3.324371826171875,-0.5348176553189754,0.35047537953332064,-2.5716180822014807
1726940531430357800,3.334357666015625,-0.5025175602167844,0.014057897577434777,-3.891553264787793
1726940531440342800,3.3443427734375,-0.7985504248142242,-0.25760230391621586,-4.118949815532565
1726940531450328800,3.354328857421875,-1.2617694093436003,-0.4142829580552876,-3.625114743465185
1726940531460314600,3.364314697265625,-1.441401753872633,-0.6481856758236885,-3.207067610570788
1726940531470300700,3.37430078125,-1.282428166490793,-0.8402508009463548,-2.788472196143865
1726940531480286700,3.38428662109375,-1.3751438595891,-0.9706713707998395,-2.1267057387351986
1726940531490272800,3.394272705078125,-1.3042536293298006,-1.1681424466192722,-1.4779367100656031
1726940531500257800,3.4042578125,-0.9815203893333673,-1.3257073362469671,-1.1682353855997323
1726940531510243600,3.41424365234375,-0.7565139485955238,-1.5254086553364992,-0.9528338085532188
1726940531520230000,3.42422998046875,-0.6122913556218147,-1.5957877212032674,-0.5577221455663443
1726940531530215700,3.434215576171875,-0.6503513294249773,-1.394658999659121,0.15836919174790381
1726940531540201700,3.44420166015625,-0.8441571607351303,-1.1638038328930735,0.987813351997733
1726940531550187800,3.454187744140625,-0.9939099153071641,-0.9445055406689643,1.706709809860587
1726940531560172800,3.4641728515625,-0.8043401141315698,-0.8428422787442803,1.860733081358671
1726940531570158800,3.474158935546875,-0.5751590180575847,-0.8441554071694612,1.5991642118990421
1726940531580144600,3.48414453125,-0.5424550183296203,-0.789104551076889,1.4120114087373017
1726940531590130700,3.494130615234375,-0.6085404786556958,-0.7528437356501817,1.3685691573739052
1726940531600116700,3.50411669921875,-0.599933393830061,-0.730992846108973,1.2337532751709221
1726940531610102500,3.5141025390625,-0.3366244027048349,-0.7931406747251749,0.7196224340498447
1726940531620087600,3.524087646484375,-0.23628888225257394,-0.8782213429003953,0.5917623623341322
1726940531630073900,3.534073974609375,-0.08214403020143508,-0.7365218386635184,0.6017027415901423
1726940531640060000,3.544059814453125,0.04168167143166065,-0.37539077121168374,0.8058581174790859
1726940531650046000,3.5540458984375,0.13310031045675277,0.26379940499067306,0.6247124457776546
1726940531660031700,3.56403173828125,0.6188380007863045,0.5297188708752394,0.48310325017273426
1726940531670018000,3.57401806640625,1.297594755962491,0.45182226898521183,0.23670681540369987
1726940531680002800,3.5840029296875,1.9852198772490024,0.2791270302429795,-0.723575555589795
1726940531689988900,3.59398876953125,2.698478621485829,0.2902577883273363,-0.980105261838436
1726940531699974700,3.603974609375,2.9953181262910364,0.47335985479354853,-1.0012047484904527
1726940531709961000,3.6139609375,2.931526329860091,0.5869514549210667,-0.9093903881460428
1726940531719946800,3.62394677734375,2.6125284769997,0.4998898420616984,-0.7477934665232896
1726940531729931800,3.633931884765625,3.009920067617297,0.28254443747103214,-0.6001046587437391
1726940531739918000,3.64391796875,3.6395103485643863,0.31010026065558194,-1.1641320419341326
1726940531749904000,3.65390380859375,3.757382694751024,0.850647984059155,-2.380312835535407
1726940531759890000,3.663889892578125,2.5698487344413996,1.9207991352647542,-3.335546106445789
1726940531769875700,3.673875732421875,1.3066495845556259,2.72715146600157,-3.3194261617720127
1726940531779862000,3.683862060546875,0.2552308986097574,3.00296688747853,-2.345278347033262
1726940531789846800,3.6938466796875,-0.37977906929850574,2.537500708544254,-1.055640103033185
1726940531799832800,3.703832763671875,-0.10187222850024699,1.6196908670991659,0.12058277418911456
1726940531809819000,3.71381884765625,-0.04319938251823187,0.9075275168836117,1.0923925013691187
1726940531819805000,3.723804931640625,-0.08676116860806941,0.38590076704919335,2.205584629660845
1726940531829790700,3.733790771484375,-0.23896745381206272,0.17204671170562505,3.361874725922942
1726940531839777000,3.743777099609375,-0.6684533878266811,-0.11350450636595487,4.493046163019538
1726940531849762000,3.753761962890625,-1.078825748309493,-0.29078210446238517,5.017773801478743
1726940531859747800,3.763747802734375,-1.176442072930932,-0.41655251042246816,4.7707221176713706
1726940531869734000,3.77373388671875,-1.328302028915286,-0.6395341673344374,3.910893340551853
1726940531879720000,3.783719970703125,-1.7533654703125356,-0.537304503698647,2.657090380042791
1726940531889706000,3.7937060546875,-1.6966320679605007,-0.3522051259353757,1.3901391841471193
1726940531899690800,3.803690673828125,-1.3039844569995998,-0.4048866225481033,0.2994850508779287
1726940531909676800,3.8136767578125,-0.8706061917215585,-0.463634871853888,-0.9177350226432085
1726940531919662800,3.823662841796875,-0.1845341450959444,-0.6650956018313765,-1.5602870764940977
1726940531929649000,3.83364892578125,-0.4624421549379825,-0.9652233345270156,-1.580236224067211
1726940531939634700,3.843634765625,-0.6666103903084993,-1.1017387141242623,-1.2408084543794393
1726940531949621000,3.85362109375,-0.6167120946735143,-1.0204574382320046,-1.0258090283930301
1726940531959606000,3.86360595703125,-0.7961629451557993,-0.8004507054775953,-1.1533750855982303
1726940531969591800,3.873591796875,-0.8526333126574754,-0.5648255478307604,-1.2635744129389523
1726940531979577900,3.883577880859375,-0.6457540647625922,-0.35844197449833154,-1.0619921024084091
1726940531989564000,3.89356396484375,-0.6156979491949081,0.07382745275497436,-0.649484483462572
1726940531999550000,3.903550048828125,-0.9796744692057371,0.5408157266899943,-0.46094811698794363
1726940532009535700,3.91353564453125,-0.4979179574668407,0.6400073378041387,-0.422300698685646
1726940532019521000,3.92352099609375,-0.3828530699163675,0.9511769812569022,-0.32528000186979766
1726940532029506800,3.9335068359375,-0.7436217337965965,1.454287246669829,-0.41036125456690786
1726940532039492900,3.943492919921875,-0.8818480089649557,1.8591800066977737,-0.6190782392829656
1726940532049478700,3.953478759765625,-0.44063013610243795,2.0181480411216617,-0.8955074087440967
1726940532059465000,3.96346484375,-0.04449322172105312,1.8008426762804388,-1.0884615916609763
1726940532069450800,3.97345068359375,0.32072482278347014,1.046369001340866,-1.0368827955931426
1726940532079435800,3.983435791015625,0.5933645368337631,0.1978799488812685,-1.1688491335839033
1726940532089422000,3.993422119140625,0.12230477567613124,-0.12257131765782832,-1.2719278152644633
1726940532099408000,4.003407958984375,-0.5693319193392992,-0.26363398529589177,-1.3450491655766963
1726940532109394000,4.013393798828125,-0.9516045590192079,-0.4587418391153216,-1.34446405916512
1726940532119380000,4.0233798828125,-0.9886281755119561,-0.8207423828780651,-1.2138923904031513
1726940532129365000,4.033364990234375,-0.941264951312542,-1.0175541180059313,-0.927916809439659
1726940532139350800,4.043350830078125,-0.7905851450234651,-1.0438087954640387,-1.0688725095719098
1726940532149336800,4.0533369140625,-0.6028671091943979,-0.7195207272410392,-1.2034276950120926
1726940532159323000,4.063322998046875,-0.5244593429118395,0.0055693245649337765,-0.9884399594634771
1726940532169309000,4.073308837890625,-0.1471057471945882,0.4547507236525416,-0.46044893529415126
1726940532179294700,4.083294677734375,-0.09889671982079744,0.709828769788146,0.2989578121334314
1726940532189279700,4.09327978515625,-0.0469166494756937,1.0398258633077144,0.5045470202177763
1726940532199266000,4.10326611328125,0.08942658842504024,1.136303247027099,0.6446750373542308
1726940532209251800,4.113251953125,-0.271212896117568,0.9593366145759821,0.8571744632184505
1726940532219238000,4.12323779296875,-0.656534401974082,0.9616542438685893,1.1512918495833873
1726940532229224000,4.133223876953125,-0.5482607819989324,0.5710396000400185,1.4814455949693917
1726940532239210000,4.1432099609375,-0.6988149160817265,0.3451999233484268,2.180146821543574
1726940532249194800,4.15319482421875,-0.7355693602442741,0.2686164498835802,2.389430792492628
1726940532259180800,4.163180908203125,-0.8875707705259323,0.007971125009655952,1.9978303524971006
1726940532269166800,4.173166748046875,-0.6117056646883487,-0.2342833876490593,1.256421034052968
1726940532279153000,4.18315283203125,-0.6187146666675806,-0.6499389492318034,0.1883417206853628
1726940532289138700,4.193138671875,-0.5936240645527839,-1.1562649618208407,-0.9577665887802839
1726940532299123700,4.203123779296875,-0.21496493919491766,-1.5745298291191459,-2.1252052710443734
1726940532309110000,4.213110107421875,-0.007920271605253219,-1.571237801836431,-2.480561846747994
1726940532319095800,4.223095703125,-0.2522378542736173,-1.2365578111976385,-1.8239432736217975
1726940532329081900,4.233081787109375,-0.6314490605562925,-0.7692638323143124,-0.9806319160610437
1726940532339068000,4.24306787109375,-0.946775823688507,-0.289329567566514,-0.2778349446058273
1726940532349054000,4.253053955078125,-1.174933421933651,0.25401947699338195,0.4306201987415552
1726940532359038700,4.263038818359375,-1.0321499218523502,0.5369529137820005,0.6904197204411029
1726940532369025000,4.27302490234375,-0.6676204441338777,0.6356640479028225,0.6349298884093761
1726940532379010800,4.2830107421875,-0.39599575234502554,0.7039899806320666,0.49199441263675686
1726940532388996900,4.292996826171875,-0.29398002372086046,0.7670961328864098,0.4290718002557754
1726940532398982700,4.302982666015625,-0.16861936760544777,0.7474351546049117,0.34096213964819905
1726940532408969000,4.312968994140625,-0.1444488029450178,0.6012696108698845,0.18808570009768008
1726940532418954000,4.3229541015625,-0.2707312500804663,0.47954760351777076,0.08026245423853397
1726940532428939800,4.332939697265625,-0.25656243947446344,0.4851406012192368,0.029174072036147115
1726940532438926000,4.342926025390625,-0.024048399585485457,0.585283521708846,-0.08670797711610793
1726940532448912000,4.352911865234375,0.1521399419695139,0.7347197576776147,-0.10491992563307284
1726940532458898000,4.36289794921875,0.2100216375738382,0.8065452229604124,-0.04708382273614406
1726940532468884000,4.372884033203125,0.3471674240291118,0.5841843282952904,-0.09966273575723171
1726940532478869000,4.382868896484375,0.4971598325759172,0.34210137281119823,-0.09536474630236626
1726940532488854800,4.392854736328125,0.6000771862149238,0.041323359513282774,-0.03774140937328339
1726940532498840800,4.4028408203125,0.5489987408846616,-0.2488844521924853,-0.010356558841466903
1726940532508827000,4.412826904296875,0.5689192468851805,-0.5041752642959356,-0.04046469685733318
1726940532518813000,4.42281298828125,0.30915947267413135,-0.5403238515198231,0.025895488756895065
1726940532528798000,4.4327978515625,0.26477263393700123,-0.5820858947113156,0.09745791918933391
1726940532538783700,4.44278369140625,0.2593295661002397,-0.43139644381105896,0.2692833893597126
1726940532548770000,4.45277001953125,0.23791443762779235,-0.42631899441629645,0.16385843681395054
1726940532558755800,4.462755859375,0.3326818025588989,-0.4632473338410258,-0.11207739617228507
1726940532568742000,4.472741943359375,0.38216859478354454,-0.7297314478710293,-0.3943734118402004
1726940532578728000,4.48272802734375,0.2600426828056574,-1.0383809251964091,-0.45671150233149527
1726940532588713000,4.492712890625,0.10949556298553943,-1.1694973683595657,-0.19647125112712382
1726940532598698800,4.50269873046875,-0.15243629456758498,-1.1970189970135687,0.2282347551345825
1726940532608684800,4.512684814453125,-0.2828904744297266,-1.20637894603312,0.5432751025408507
1726940532618670800,4.5226708984375,-0.3404688031733036,-1.0454445799723266,0.5323480503350496
1726940532628657000,4.532656982421875,-0.35340193450450896,-0.6866635827779769,0.3333002267181873
1726940532638642700,4.542642578125,-0.16470014833509922,-0.26638562209159133,-0.3359551251411438
1726940532648627700,4.552627685546875,0.06806523596644401,0.2807499552696943,-0.9467074346274137
1726940532658613800,4.56261376953125,-0.1472860721975565,0.9616501522153615,-1.298290337011218
1726940532668599600,4.572599609375,-0.5733633668124676,1.6124010023519395,-1.347780051845312
1726940532678585900,4.5825859375,-1.0794079321116208,2.0156322589084503,-1.2669278150200842
1726940532688571600,4.592571533203125,-1.2341203549176454,2.208187213374674,-1.22415250313282
1726940532698556700,4.602556640625,-1.2232470787256955,2.1021584497168657,-1.2552911532402038
1726940532708542700,4.612542724609375,-1.2561264350205659,1.8600068129107354,-1.1412871729195118
1726940532718528800,4.62252880859375,-1.0719447566241025,1.676215741267055,-1.0254518855184316
1726940532728514600,4.6325146484375,-0.5715250454694032,1.5708280519917606,-0.9903338103860616
1726940532738500600,4.64250048828125,0.1449456465512514,1.4711030646532772,-0.966623264452815
1726940532748486700,4.652486572265625,0.6202893686383962,1.2980604737780987,-0.9071499157428741
1726940532758471700,4.6624716796875,0.9545096328109502,1.2086752402767538,-0.31169746671915055
1726940532768457700,4.672457763671875,1.0846136840611695,0.9807727858364581,0.33510581483542917
1726940532778443800,4.68244384765625,1.140363628333807,0.5543805800534785,0.7351578568339348
1726940532788429800,4.692429931640625,1.1049813493072986,-0.00015416764840483663,1.1035235517144202
1726940532798415600,4.70241552734375,1.108408401146531,-0.6954260042957962,1.2517074495345353
1726940532808402000,4.71240185546875,1.1245768611371516,-1.5169069305814802,1.0373211870104073
1726940532818386700,4.72238671875,1.13121936789155,-2.21583728973642,0.662638564068079
1726940532828372700,4.732372802734375,0.8987316314876079,-2.494943423321843,0.19293664726018905
1726940532838358500,4.742358642578125,0.46054187427461146,-1.9602267441593109,-0.1979921770840883
1726940532848344800,4.7523447265625,-0.038675475353002545,-1.024632093568146,-0.3271884658396244
1726940532858330600,4.76233056640625,-0.3674918346554041,-0.17360358575880527,-0.02926934910416603
1726940532868316700,4.772316650390625,-0.49003041908740996,0.27283815923184157,0.28449031084179877
1726940532878301700,4.7823017578125,-0.5810065750420094,0.32231004614830017,0.3717869015008211
1726940532888287700,4.792287841796875,-0.5036363351136446,0.0638479105323553,0.3902203838139772
1726940532898273800,4.802273681640625,-0.49527182687222954,-0.21828882292062043,0.15353519572019575
1726940532908259600,4.812259521484375,-0.5513087713927031,-0.21431319728791712,-0.17733458898067472
1726940532918246000,4.822245849609375,-0.697433983117342,-0.09365268168747425,-0.3814052091956138
1726940532928231700,4.832231689453125,-0.6490946073621511,0.15122487295120954,-0.5967477495312691
1726940532938216700,4.842216796875,-0.3202414231806993,0.4346516462147236,-0.6226812322109937
1726940532948202500,4.852202392578125,0.043138884502649306,0.51881666084975,-0.5683329714298248
1726940532958188800,4.862188720703125,0.3652747431278229,0.4418579243317246,-0.5493108755737542
1726940532968174600,4.872174560546875,0.5002379248470068,0.15149214558526872,-0.45678749017715453
1726940532978160600,4.88216064453125,0.4316267454355955,-0.2826008438333869,-0.17496259915232656
1726940532988146700,4.892146728515625,0.3483686165124178,-0.8456720953427255,0.22863456810712812
1726940532998131700,4.902131591796875,0.3578279342532158,-1.5013723845802247,0.5718827728658914
1726940533008117800,4.91211767578125,0.20443769996166228,-1.9547113417387008,1.0119295561224222
1726940533018103600,4.922103515625,-0.14533435360789299,-2.0465284785620868,1.446273159301281
1726940533028089900,4.93208984375,-0.4543213923245668,-1.8330480788365004,1.5501766013681888
1726940533038075600,4.94207568359375,-0.8362269522577523,-1.1767442707479,1.3969944568693637
1726940533048060700,4.952060791015625,-1.0222872840076684,-0.16781915713846682,1.2956108886688946
1726940533058046700,4.962046630859375,-1.0407774649441242,0.5884034072950483,1.2848369811981917
1726940533068032800,4.97203271484375,-0.8897703263968229,0.8807390248097479,1.2971902668148279
1726940533078018600,4.9820185546875,-0.5605646755158901,0.8082105258241296,0.9322826034337282
1726940533088004900,4.9920048828125,-0.06879530380666256,0.5284500199832022,0.2970914337396621
1726940533097990700,5.00199072265625,0.5114771117419004,0.010940496209263802,-0.688228347876668
1726940533107975700,5.0119755859375,1.4010001853793859,-0.4081771885260939,-2.1389982340753075
1726940533117961700,5.021961669921875,1.6931623460233212,-0.46664662089049813,-2.844590973728895
1726940533127947800,5.03194775390625,1.4142922131508588,-0.2634681272096932,-2.790882179895043
1726940533137933800,5.041933837890625,0.7460083366721868,0.0632376696795225,-1.9922510910600422
1726940533147919600,5.051919677734375,0.20983283700346944,0.41230800472050905,-1.411874630615115
1726940533157906000,5.061906005859375,0.2911374937713146,0.6281627323620022,-1.117134728437662
1726940533167890700,5.071890625,0.1867518211454153,0.6908049203664064,-1.0769406652152538
1726940533177876700,5.081876708984375,0.25688860268890856,0.6180711080670357,-0.9059007924646139
1726940533187862500,5.091862548828125,0.1882587185770273,0.42249812095388767,-0.6174614517360926
1726940533197848800,5.101848876953125,0.1773538782030344,0.29015900412797924,-0.2908119150787592
1726940533207834600,5.111834716796875,0.21796002935767173,0.15620120005905627,0.0745621967703104
1726940533217820700,5.121820556640625,0.2138034942001104,-0.1372030696004629,0.49127720427811145
1726940533227805700,5.1318056640625,0.13337094409167766,-0.41908802024945613,0.8246557569295168
1726940533237791700,5.141791748046875,-0.12822481337487696,-0.8331294246338308,1.3106716796785591
1726940533247777800,5.15177783203125,-0.5744944166690111,-1.1026580209262669,1.9176018005281685
1726940533257763600,5.161763671875,-0.8012094148904084,-1.1242428068771957,2.294305700165033
1726940533267750000,5.17175,-0.9459364502549171,-1.0609341177880764,2.3777941307127475
1726940533277735700,5.181735595703125,-0.9011731794208288,-0.9409420029684901,2.1084733319520947
1726940533287720700,5.191720703125,-0.7321539988428354,-0.743157185024768,1.5744512109249829
1726940533297706500,5.20170654296875,-0.3658300389230251,-0.5259245931588113,0.7612889079123735
1726940533307692800,5.21169287109375,0.04242226066589355,-0.4606608244791627,0.029949732583761213
1726940533317678600,5.2216787109375,0.10408932002782821,-0.6089889530755579,-0.42413434385359283
1726940533327664600,5.23166455078125,0.06306231311261654,-0.9017220454752445,-0.3751578392386436
1726940533337650000,5.24164990234375,0.23135317941606043,-1.3183406068712473,-0.20942717881202697
1726940533347635700,5.2516357421875,0.3934562969952822,-1.8674147510796784,-0.001897358053922653
1726940533357621800,5.261621826171875,0.40703006431758404,-2.395835544968396,0.18494857111573218
1726940533367607800,5.27160791015625,0.5733931774288415,-2.979268324244022,0.366139835524559
1726940533377593900,5.28159375,0.649579760530591,-3.210799198314547,0.6817506762951612
1726940533387579600,5.29157958984375,0.5917448266774415,-2.9407576840639114,0.7624269720315933
1726940533397564700,5.301564697265625,0.5155179115653038,-2.403108458580822,0.6307026261031627
1726940533407550700,5.31155078125,0.48545069008171554,-1.6703505024954675,0.1879980218142271
1726940533417536800,5.321536865234375,0.6955646821141243,-1.1303566135823726,-0.4092091619223356
1726940533427522600,5.3315224609375,0.7346908238440751,-0.7284598205000161,-1.2811983324348926
1726940533437508900,5.3415087890625,0.7175549801260233,-0.3568910917945206,-1.6292372786015272
1726940533447494700,5.35149462890625,0.5836334164142608,0.022266411539539694,-1.6492834568083286
1726940533457479700,5.361479736328125,0.39418402674794195,0.45563218266218897,-1.226747195801139
1726940533467465700,5.3714658203125,0.5716857889890671,0.652318391714245,-1.0364145935595035
1726940533477451800,5.38145166015625,0.528536967614293,0.6062186115793884,-0.6684346831262111
1726940533487437800,5.391437744140625,0.324447642698884,0.2965028201967478,0.09960019191503525
1726940533497423600,5.401423583984375,-0.11259703613221644,0.0181760734859854,0.7450397839009761
1726940533507410000,5.411409912109375,-0.45858138785660263,-0.11335793750211595,0.8608505213826895
1726940533517394700,5.421394775390625,-0.6440215418815612,-0.27509653261788186,0.8547054427564144
1726940533527380700,5.431380615234375,-0.5393482844859361,-0.22283903357088564,0.838200882679224
1726940533537366500,5.441366455078125,-0.4521107305377722,-0.03154182408079505,0.6241729320734739
1726940533547352800,5.451352783203125,-0.7782067249655723,0.223187116356194,0.41251521773040295
1726940533557338600,5.461338623046875,-0.7277595632761716,0.4273583474013954,0.1454249545007944
1726940533567323600,5.47132373046875,-0.5744868178844451,0.6857507787819951,0.0969873790681362
1726940533577309700,5.481309814453125,-0.5844745434135198,0.7056596674099564,0.13735329172611235
1726940533587295700,5.491295654296875,-0.19870354022383688,0.46240847186408934,0.010194061756134033
1726940533597281800,5.50128173828125,0.10597849477529525,0.11434409899525344,-0.18535539835095405
1726940533607267600,5.511267578125,0.176843590593338,-0.06696158557347953,-0.08369827390611172
1726940533617254000,5.52125390625,0.008512976801395416,-0.2125895518330857,-0.011417466071248054
1726940533627239700,5.53123974609375,-0.37372283799946304,-0.37511966265272345,0.4643441891670227
1726940533637225700,5.541225830078125,-0.5000613992363214,-0.6524277703728526,0.8673176715701818
1726940533647211500,5.55121142578125,-0.3476122451871633,-0.9059924893360585,1.1733581354409455
1726940533657197600,5.561197509765625,-0.007477204012870788,-1.0204680326912552,1.4885872834175824
1726940533667183600,5.57118359375,0.11163842023313045,-0.9162273214939981,1.577151702055335
1726940533677169700,5.581169677734375,0.245798468875885,-0.4850817837040871,1.5615338616847991
1726940533687154400,5.591154541015625,0.5480336952447891,-0.1934169415904209,0.9791361245453357
1726940533697140700,5.601140625,0.8645417771160602,-0.04157561724130064,-0.04041676606237888
1726940533707126500,5.61112646484375,0.7234446226865052,0.2581863874144852,-0.6327507908046245
1726940533717112600,5.621112548828125,-0.20009937849640846,0.2091783186174929,-0.5629758283108472
1726940533727098600,5.6310986328125,-0.1879839932888746,0.25776955024190246,-0.5622422533392906
1726940533737084700,5.641084716796875,-0.21360592580139637,0.04014218690469861,-0.39968671581745147
1726940533747069700,5.651069580078125,-0.1456909119606018,-0.5665547097109258,-0.4222936844229698
1726940533757055500,5.661055419921875,0.03548164774775505,-1.1738628700926899,-0.9108142834693193
1726940533767041800,5.671041748046875,-0.3111749041497707,-1.4288979538694022,-0.7531149538069963
1726940533777027600,5.681027587890625,-0.2790472430050373,-1.0695450020059942,-0.6998340299963951
1726940533787013600,5.691013671875,-0.08846855704784393,-0.4456288942378014,-0.8288397646158933
1726940533796999700,5.700999755859375,-0.12000059038698672,0.14443302085399626,-0.5786462756514549
1726940533806984700,5.710984619140625,-0.1821282529979944,0.3546777265939861,0.0927834976375103
1726940533816970500,5.720970458984375,-0.21816110488772392,0.3627473435420543,0.4688052602291107
1726940533826956500,5.73095654296875,-0.01362403620481491,0.5228291478941217,0.7057622510015964
1726940533836942600,5.740942626953125,0.4952659816533327,0.6249345640957356,0.7691887212514877
1726940533846928600,5.7509287109375,0.8660878375142812,0.41800855444967744,0.5679810892522335
1726940533856914400,5.76091455078125,0.8324088552743196,-0.2831407959289849,0.3008797201067209
1726940533866899500,5.7708994140625,0.6079536186784505,-0.99487817581743,0.47538697670698166
1726940533876885800,5.7808857421875,0.4121832092970609,-1.1198840271458028,0.558078703919053
1726940533886871600,5.79087158203125,0.31271102767586706,-0.9045213208049535,0.5047457576602697
1726940533896857600,5.800857666015625,0.32353929568231105,-0.6741321641154587,0.3830716811031103
1726940533906843600,5.81084375,0.2797469157069921,-0.49423141444120555,0.46231940534114835
1726940533916829700,5.82082958984375,0.2957949641883373,-0.4284768300373107,0.47437633835971355
1726940533926814500,5.830814453125,0.3779641288310289,-0.23863456859588622,0.45737376563251014
1726940533936800500,5.840800537109375,0.45251346611976623,-0.026392916885018346,0.5157850380688905
1726940533946786600,5.85078662109375,0.5476034871339798,0.1598733127005398,0.7395622292727232
1726940533956772600,5.860772705078125,0.6567874999523162,0.3352632704194635,0.7001479182511567
1726940533966758400,5.87075830078125,0.7483066767424345,0.4692432863201946,0.42962534248530865
1726940533976744700,5.88074462890625,0.7970552178204059,0.423352545826137,0.3055693392276764
1726940533986729700,5.890729736328125,0.7511836934834718,0.29003756970539685,0.2917734535872936
1726940533996715500,5.900715576171875,0.5888748241990804,0.2220752095915377,0.3418132035195827
1726940534006701800,5.910701904296875,0.4689256717383861,0.30557394233755764,0.36065175950229167
1726940534016687600,5.9206875,0.44480420691668987,0.3408592637956142,0.2516717448234558
1726940534026673700,5.930673583984375,0.4540437444269657,0.3851306594595313,0.2289543015807867
1726940534036658400,5.940658447265625,0.618618805077672,0.14580664729475973,-0.018285598275065422
1726940534046644700,5.950644775390625,0.8262158458530903,-0.11616269272454083,-0.06698445499241351
1726940534056630500,5.960630615234375,1.0604174004375935,-0.502538895265758,-0.15543547638356683
1726940534066616600,5.970616455078125,1.372464995768666,-0.8507412153005599,-0.43231180509030814
1726940534076602600,5.9806025390625,1.4922610034942627,-1.2165749074853955,-0.3604875088512897
1726940534086588700,5.990588623046875,1.3036790443122386,-1.4683952669993041,0.19938100109398363
1726940534096574500,6.000574462890625,0.8861001134514808,-1.628450512138009,0.9107599229335784
1726940534106559500,6.0105595703125,0.4761129528939724,-1.624784829237312,1.7780775945037601
1726940534116545800,6.0205458984375,0.4933399820268154,-1.5915312328025697,2.1243045228123663
1726940534126531600,6.030531494140625,0.6240437527358531,-1.5267007409736513,2.1921692677706477
1726940534136517600,6.040517578125,1.027318263912201,-1.4111018926769494,2.053556331372261
1726940534146503700,6.050503662109375,1.3738660947382448,-1.1240665735274553,1.6447586728602648
1726940534156488700,6.06048876953125,1.4698779067724943,-0.5625982271701098,1.2734849815785885
1726940534166474500,6.070474609375,1.317237029543519,0.04207929244711995,1.2363041286975145
1726940534176460500,6.08046044921875,1.3745944090127944,0.5817836968943476,1.037336969101429
1726940534186446600,6.090446533203125,1.7501339410454033,0.9373395945623516,0.7225731005489826
1726940534196432600,6.1004326171875,2.098791895893216,1.1504964614219964,0.5105144041895866
1726940534206418400,6.11041845703125,2.0567881529003382,1.3454052855379879,0.6118079560190439
1726940534216403500,6.120403564453125,2.078579128947854,1.518137203028798,0.7568687533825635
1726940534226389800,6.1303896484375,2.2970208043426275,1.6482202114909887,0.5981967792958021
1726940534236375600,6.14037548828125,2.3272516919553277,1.896548491105437,0.5493962157696485
1726940534246361600,6.150361572265625,2.097863675132394,2.243496281034499,0.6506786616832018
1726940534256347600,6.16034765625,1.6145371375977993,2.5716929010033605,0.9552776945739984
1726940534266333700,6.170333740234375,1.1654717661052942,2.786283161666989,1.4945815553963184
1726940534276318500,6.180318359375,1.1261685142427682,2.722712899032235,1.746941867005825
1726940534286304500,6.190304443359375,1.2168097391545771,2.532894676053524,1.8059668874263763
1726940534296290600,6.20029052734375,1.1740572236210107,2.308353514739871,1.9086299740433692
1726940534306276600,6.210276611328125,1.2022475453168153,2.0557582253307105,1.7568962747871875
1726940534316262400,6.220262451171875,1.0647925467818975,1.7593708482071757,1.5452981816768645
1726940534326248700,6.230248779296875,0.6535001488447189,1.6247963735446334,1.3939029205948115
1726940534336233700,6.240233642578125,0.34717560733556746,1.3642954255774615,1.292809275251627
1726940534346219500,6.250219482421875,0.11312544392049312,1.0709867252469063,1.135934121453762
1726940534356205800,6.260205810546875,-0.1663742190271616,0.9012085429951548,0.9252548967540264
1726940534366191600,6.270191650390625,-0.32616613705456254,0.6782847537502646,0.7404138776659965
1726940534376177700,6.280177734375,-0.07623626746237278,0.38819326190054415,0.006458382359147072
1726940534386163500,6.29016357421875,0.37463293858170504,0.09574643909633158,-0.799680890148878
1726940534396148700,6.300148681640625,0.46168286100327965,-0.08710837461054324,-1.5186813929080962
1726940534406134500,6.310134521484375,0.3633616029828787,-0.12437339864373206,-2.063877234378457
1726940534416120600,6.32012060546875,-0.06321078167259693,-0.14451193130910395,-2.0315221942186352
1726940534426106600,6.330106689453125,-0.5588485192477702,-0.2387175707042217,-1.6446861921459435
1726940534436092700,6.3400927734375,-0.960147930958867,-0.36996348546594376,-1.1320254235774279
1726940534446078500,6.350078369140625,-1.225237960281968,-0.38573300926685333,-0.6174369018167257
1726940534456063500,6.3600634765625,-1.3442910406857729,-0.3454395773231983,-0.3835696937531233
1726940534466049800,6.3700498046875,-1.2938783657878636,-0.32584611131995916,-0.43448213486671444
1726940534476035600,6.38003564453125,-0.9837678759992122,-0.3019844664782286,-0.6306336525201797
1726940534486021600,6.390021728515625,-0.7900695967167616,-0.42518925973400473,-0.6592226181447506
1726940534496007700,6.400007568359375,-0.8035574393212794,-0.6206649239525198,-0.311584653994441
1726940534505992700,6.40999267578125,-0.6413613827615976,-0.7085695635072886,-0.15588497371673582
1726940534515978500,6.419978515625,-0.431437360343337,-0.7819739685446023,-0.16197043111026285
1726940534525964500,6.429964599609375,-0.06750877112746238,-0.8094508812740445,-0.30093408064246174
1726940534535950600,6.43995068359375,0.4898182376414537,-0.9071161596037447,-0.5041922154307366
1726940534545936600,6.4499365234375,1.0377502260774374,-0.9332742448195814,-0.6113333242446184
1726940534555922400,6.45992236328125,1.4099217429816722,-0.887512464467436,-0.6233095932424068
1726940534565907500,6.469907470703125,1.8952017526715992,-0.7526004284135996,-0.529893058398366
1726940534575893800,6.479893798828125,2.404734744608402,-0.6454147498056292,-0.44268356150090693
1726940534585879600,6.489879638671875,2.396862403798103,-0.6471192156359553,-0.6964665993899106
1726940534595865600,6.499865478515625,2.2599650391459463,-0.7076834283225238,-1.431123520964384
1726940534605851600,6.5098515625,1.6572855614781379,-0.502975240856409,-2.3758248764663934
1726940534615837700,6.519837646484375,1.5347674353122711,-0.27463600243404507,-3.0729782890766857
1726940534625822500,6.529822509765625,1.3246791622430085,0.07414850140288472,-2.937436430686712
1726940534635808300,6.539808349609375,0.9681441904097795,0.3495107722848654,-2.7621880003303287
1726940534645794300,6.549794189453125,0.6676274583965539,0.5934887477353215,-2.6461773563623425
1726940534655780400,6.5597802734375,0.1277875910013914,1.036619614612311,-2.297271564233303
1726940534665766100,6.56976611328125,-0.9033148676246404,1.4125408394388854,-1.5091788205474614
1726940534675752400,6.57975244140625,-1.627476698669791,1.5765703950360417,-0.2816752534210682
1726940534685737500,6.589737548828125,-1.9014000227898358,1.638355527819693,0.7522235579252242
1726940534695723300,6.59972314453125,-1.931295979359746,1.5331889339491724,1.8840408917099236
1726940534705709600,6.60970947265625,-2.0973469577819106,1.3347759011045097,3.0807407397717235
1726940534715695400,6.6196953125,-1.9512445424109697,1.1158332904502748,3.699434948173165
1726940534725681400,6.629681396484375,-1.6655366724729537,0.9598089082628488,3.407947910311818
1726940534735667200,6.639667236328125,-1.8418243827491998,0.9030760904327034,2.9273429066956043
1726940534745652500,6.649652587890625,-2.3334423632889987,0.8735954366654157,2.6311177343964576
1726940534755638300,6.65963818359375,-2.2559254083663225,0.6973802071034908,2.3387445613503455
1726940534765624300,6.669624267578125,-1.6278747580766677,0.5552691994562745,1.9569313558757304
1726940534775610400,6.6796103515625,-0.9799351659685372,0.3823641173556447,1.3238199150651693
1726940534785596400,6.689596435546875,-0.4450415228039026,0.03466770101636648,1.0968623402595519
1726940534795582200,6.699582275390625,0.028581951361894606,-0.23945991350412368,1.0469067614793777
1726940534805567200,6.709567138671875,0.3821995744436979,-0.6431704780101776,0.7680716999202967
1726940534815553500,6.719553466796875,0.5391799421817064,-1.0232812634810804,0.18742811297178266
1726940534825539300,6.729539306640625,0.5782979006052017,-1.376404088783264,-0.45935120318531986
1726940534835525400,6.739525390625,0.6706704793542623,-1.8826438843935727,-0.8941349513471126
1726940534845511400,6.749511474609375,0.6317039121001958,-2.0384438101753592,-0.909680895525217
1726940534855497500,6.75949755859375,0.8519149352550506,-2.224594158296287,-0.8687059110581874
1726940534865482200,6.769482177734375,0.9030085781544447,-2.0914412408694623,-0.33918519310355183
1726940534875468300,6.77946826171875,0.9240595494896173,-1.445588684168458,0.6191863758325576
1726940534885454300,6.789454345703125,0.732544459465146,-0.7276938045635819,1.1606465379059314
1726940534895440400,6.7994404296875,0.4154214605659246,-0.3454807861164212,1.0975637665271758
1726940534905426200,6.80942626953125,0.2168932769089937,-0.046373920901119706,1.1292512826889753
1726940534915412500,6.81941259765625,0.11441548373103141,0.19928864663541315,1.2638561524897813
1726940534925397500,6.8293974609375,0.19127251344025134,0.35946342650055885,1.3462912745922804
1726940534935383300,6.83938330078125,0.5721235958844423,0.4519494024962187,1.5461638585954904
1726940534945369300,6.849369384765625,0.9187550133407115,0.2689633636251092,1.2491969280183315
1726940534955355400,6.85935546875,1.1303291410535574,-0.1694431050784886,0.7711381017535924
1726940534965341400,6.869341552734375,1.0674334166795014,-0.42206572088599204,0.6332458808451891
1726940534975327200,6.8793271484375,1.282814535459876,-0.6440158427931368,0.32885026157200337
1726940534985312300,6.889312255859375,1.0969529411524535,-0.6200273567013442,0.20237901386618612
1726940534995298300,6.89929833984375,0.9597831892997026,-0.4094669360756874,0.4954851773619651
1726940535005284400,6.909284423828125,0.8672060278892516,-0.32534985223561524,0.7029471935808658
1726940535015270100,6.919270263671875,0.34442543184459207,-0.3276962692312896,0.3138812404990196
1726940535025256400,6.92925634765625,0.2557937931895256,-0.3196859812550247,-0.16193652884066104
1726940535035242200,6.9392421875,0.9672112934738397,-0.4921444886319339,0.05793839422762394
1726940535045227300,6.949227294921875,0.5495037677973509,-0.7720596005126833,-0.2574924138009548
1726940535055213600,6.959213623046875,0.15255904416441918,-0.6550114301905036,-0.43039457329213615
1726940535065199400,6.969199462890625,0.07070785942971707,-0.31688290653303264,0.029366964259743687
1726940535075185400,6.979185302734375,-0.2518015086829662,0.0037280806124210357,0.4086830922216177
1726940535085171200,6.989171142578125,-0.2605044550985098,0.4118608454748988,0.9985708928555249
1726940535095157500,6.999157470703125,0.17424831340312957,0.6615662586614489,1.275986735266447
1726940535105142300,7.009142333984375,0.7530518254429102,0.6102861532792448,1.1546890908062457
1726940535115128300,7.01912841796875,1.36003689135015,0.4579869290947914,0.7315969494819641
1726940535125114400,7.0291142578125,1.9193805006384848,0.2814775388918817,0.3643623044580221
1726940535135100400,7.039100341796875,2.5231793377250433,-0.17169322209283708,0.6539917317539453
1726940535145086200,7.049086181640625,2.8101427606821057,-0.43856487413570283,0.7183417465895414
1726940535155071200,7.0590712890625,2.4142934310704467,-0.5239058006823063,0.5606874251127243
1726940535165057500,7.0690576171875,1.661280184072256,-0.3379055285565555,0.4851087447762489
1726940535175043300,7.079043212890625,1.2962602924883364,-0.34131635991334913,0.13795008857548235
1726940535185029400,7.089029296875,1.6689759992718696,-0.5719150677002967,-0.3548345976561308
1726940535195015400,7.099015380859375,2.428523031952977,-0.8765328052915632,-0.9994050055921078
1726940535205001500,7.10900146484375,3.372057681763172,-1.047080510611087,-1.6567834571748972
1726940535214986200,7.118986328125,3.7002889346539973,-0.8433283086955546,-1.963968414905667
1726940535224972300,7.12897216796875,2.7752888894438743,-0.3812546948090195,-1.6032237164229153
1726940535234958300,7.138958251953125,1.2648036624729633,0.0853792127303779,-0.8211310899347066
1726940535244944400,7.1489443359375,0.2770166139602661,0.270432413264364,-0.196789815557003
1726940535254930200,7.15893017578125,-0.33329438149929047,0.17777407637648282,0.06802315039038657
1726940535264916500,7.16891650390625,-0.6379448523163795,-0.17226408078335226,0.006736614778637886
1726940535274901500,7.178901611328125,-0.8200438792198896,-0.439087217509374,-0.2331540913581848
1726940535284887300,7.18888720703125,-1.004479240116477,-0.5349694848798215,-0.5362795445650815
1726940535294873300,7.198873291015625,-1.067993973171711,-0.6425953815359622,-0.7491811214894056
1726940535304859400,7.208859375,-1.2978431777656076,-0.7164362052291632,-0.7066916408061981
1726940535314845400,7.218845458984375,-1.6946493697106837,-0.4218853228177875,-0.3136725661844015
1726940535324831200,7.228831298828125,-2.123883667051792,-0.05020929781291634,0.37409284035563467
1726940535334816500,7.23881640625,-2.398629413470626,-0.0500271279127337,0.6600801117569208
1726940535344802300,7.24880224609375,-2.4688135412871834,-0.29058888344522565,0.6796200940072537
1726940535354788400,7.258788330078125,-2.287180378329754,-0.7868951313991099,0.6320294907927513
1726940535364774100,7.268774169921875,-1.9343670573681593,-1.249137160655111,0.48415597409605976
1726940535374760400,7.278760498046875,-1.7543734783113,-1.359789784721285,0.4862374565452337
1726940535384746200,7.288746337890625,-1.6388298673331736,-1.2365610260680318,0.32773499380648136
1726940535394731300,7.298731201171875,-1.6481629283457992,-0.895100654574111,0.025925883895158767
1726940535404717600,7.308717529296875,-1.5879343773543835,-0.16828860128112136,-0.17694179027080534
1726940535414703400,7.318703369140625,-1.7897054884552954,0.6140101422384381,0.035709611284732816
1726940535424689400,7.328689453125,-1.636622712677717,1.511754370123893,0.5040016612946987
1726940535434675500,7.338675537109375,-0.9553197801500558,1.981096952100098,0.4720692304611206
1726940535444661500,7.34866162109375,-0.11818097374439239,2.0482509184405204,0.0686971041291952
1726940535454646300,7.358646240234375,1.091080834248662,1.9580128675021231,-0.32810031998753547
1726940535464632300,7.36863232421875,1.827707594591379,1.729817421464622,-0.5219336238265038
1726940535474618400,7.378618408203125,1.6515537398278712,1.3835242960520089,-0.6223585761278867
1726940535484604400,7.3886044921875,0.9713462013214826,1.0942328685387968,-0.4565349767208099
1726940535494590200,7.398590087890625,0.30183658244013784,0.9487066456206142,-0.5838064348936081
1726940535504576500,7.408576416015625,-0.056200026127696034,1.122189819870144,-0.5740303062886
1726940535514561500,7.4185615234375,0.23090718921422956,1.1239463081486523,0.5267126747965812
1726940535524547300,7.42854736328125,0.5376642769217491,0.7061462818831205,1.207973521748185
1726940535534533400,7.438533447265625,0.28669512740969655,0.5140934317201376,1.1306231555640698
1726940535544519400,7.44851953125,-0.15705577106177807,0.44703605762198567,1.1946622047543525
1726940535554505500,7.45850537109375,-0.3852648072332144,0.7807352205298841,1.3416215292155742
1726940535564491300,7.4684912109375,-0.4234124593198299,0.978865198649466,1.521495865806937
1726940535574476300,7.478476318359375,-0.4256359805881977,0.7973327195875346,1.6915701083958148
1726940535584462300,7.48846240234375,-0.5212497332155704,0.7035393142551183,1.8806617706656454
1726940535594448400,7.498448486328125,-0.7133242106884717,0.6702193745858966,1.9598615641087291
1726940535604434200,7.50843408203125,-0.7665572037041187,0.6038938218936324,1.7666227190315722
1726940535614420500,7.51842041015625,-0.7197346622526645,0.6591979220949113,1.5354343747884034
1726940535624406300,7.52840625,-0.5484767628371715,0.8048147459059953,1.3122428745180368
1726940535634391300,7.538391357421875,-0.506624995535612,0.9759359402645379,1.0562006595253943
1726940535644377000,7.548377197265625,-0.44081192241013045,1.0489042919721454,0.7107949844717979
1726940535654363100,7.558363037109375,-0.2335685173779726,1.167938229284063,0.3825438578367233
1726940535664349200,7.56834912109375,-0.03831190273761749,1.1739886153642087,0.18765256937742233
1726940535674335000,7.5783349609375,0.22571897292137144,1.1011029004387556,-0.05240063384473324
1726940535684321300,7.5883212890625,0.38862931523025035,1.0044023754879832,-0.26458500241041183
1726940535694306000,7.59830615234375,0.3691401863843202,0.8891261832743883,-0.3738239602863788
1726940535704292000,7.6082919921875,0.22794892393052577,0.7634132065899669,-0.4394020556122064
1726940535714278000,7.61827783203125,0.20665420696735382,0.6117609385395423,-0.5905395425409078
1726940535724264200,7.62826416015625,0.3555506369709968,0.43575588112957775,-0.7684101380944252
1726940535734250000,7.63825,0.60814125020504,0.16508070861790328,-0.8607628430992365
1726940535744236000,7.648236083984375,0.6369207699656486,-0.22924278139965606,-0.8519248721271753
1726940535754222000,7.65822216796875,0.825876823157072,-0.7325462130308151,-0.8739525795400143
1726940535764207000,7.66820703125,1.1829875490516424,-1.0513508814066648,-0.899938084667921
1726940535774193200,7.678193115234375,1.3127771275252103,-1.3022775069512427,-0.8994956015974283
1726940535784179000,7.688178955078125,1.1905495087385176,-1.3473133111163973,-0.9147890323191881
1726940535794165200,7.698165283203125,1.3911580058008433,-1.2157315885290503,-1.0175386281758547
1726940535804151000,7.708151123046875,1.4670090733379124,-1.0718784864548594,-1.1086597455590963
1726940535814137000,7.71813720703125,0.9440186339348554,-0.9786313898935913,-1.0029998152136803
1726940535824122000,7.7281220703125,0.06209785199463367,-0.8316141247000545,-0.7686316718906163
1726940535834108200,7.738108154296875,-0.7321750416308641,-0.725294196075946,-0.44387832424342627
1726940535844094000,7.748093994140625,-1.1753688907414674,-0.6117125328205526,-0.22922318165004252
1726940535854080300,7.758080322265625,-1.3802093262851238,-0.3966108885686844,0.10777239245474338
1726940535864066000,7.768066162109375,-1.047342814809084,-0.14967362492121755,0.478058826264739
1726940535874052000,7.778052001953125,-0.45752983297705646,-0.16728176232613623,0.6154676475703716
1726940535884037000,7.788037109375,-0.07698971617817878,-0.20534575471729039,0.6546230153948068
1726940535894023200,7.798023193359375,0.3372293828606605,-0.40974619140848517,0.6456102723777294
1726940535904009200,7.80800927734375,0.3347434112638235,-0.626944150352478,0.474897731885314
1726940535913995000,7.8179951171875,0.3329150267928839,-0.7639020860854536,0.5096551570117474
1726940535923981300,7.827981201171875,0.09950549936890601,-0.7381481977563351,0.7979360923081636
1726940535933967000,7.837967041015625,0.5116688349217177,-0.6277485986031591,0.7659522235482931
1726940535943952100,7.8479521484375,1.1952888122200964,-0.5129309638120234,0.5454384180545807
1726940535953938000,7.85793798828125,1.2411574139475823,-0.14315576745979486,0.27858547071218487
1726940535963924200,7.86792431640625,0.6756885997772216,0.18057108668386934,0.24369886624813078
1726940535973910000,7.877909912109375,0.03643441842794418,0.38349436349458993,0.307964709931612
1726940535983896000,7.88789599609375,-0.34883097332715984,0.5149258639562875,0.33455519521534444
1726940535993882000,7.897882080078125,-0.6039928983539342,0.5984395020104945,0.1566886913150549
1726940536003867100,7.9078671875,-0.325583368730545,0.7575558588638901,0.3012415391564369
1726940536013853200,7.917853271484375,0.23892390693128107,0.8322695198688655,0.6374596991479397
1726940536023839000,7.9278388671875,0.8694014921069144,0.7104814615432172,0.5213227984517812
1726940536033825300,7.9378251953125,1.004852165082097,0.8245839338023215,-0.13206395314633845
1726940536043811000,7.94781103515625,0.27659926533102985,1.324069652042538,-0.8811194024294614
1726940536053797000,7.957797119140625,-0.2175467723816633,1.6162015636786817,-2.290163193532824
1726940536063782000,7.967781982421875,-0.8168822003185748,2.170618530219793,-2.932995817890763
1726940536073768200,7.977768310546875,-0.8969956014752387,2.598249484017491,-2.4566946489483117
1726940536083754000,7.98775390625,-0.02750993821620941,2.609995743651688,-1.226188977396488
1726940536093740000,7.997739990234375,1.4057353972077369,1.9440360723368821,-0.5852753384023904
1726940536103726000,8.00772607421875,1.3661077356964348,1.6072459576763212,-0.18337328462302685
1726940536113712000,8.017712158203125,-0.08337386425733566,1.3820556848041712,-0.14774433735907078
1726940536123697200,8.027697265625,-1.6238316201657055,0.7700807016551494,-0.09865735810697078
1726940536133683200,8.03768310546875,-2.686871770322323,0.6803108527503907,0.5739022959947586
1726940536143669200,8.047669189453124,-3.15792101008594,0.7632761362068354,1.4562570854380725
1726940536153655000,8.057655029296875,-2.310931256273389,0.21581381110921502,2.3292796906515956
1726940536163641000,8.06764111328125,-1.0735556989520787,-0.22969532920643687,2.5777748512655494
1726940536173627100,8.077627197265626,-0.2467833882600069,-0.4437016525022685,1.8971230761229991
1726940536183612200,8.087612060546874,-0.5143658189207315,-0.5985078910715877,0.2947147677361965
1726940536193598000,8.097597900390625,-1.5870663623481989,-0.723218558845669,-1.2914753962993621
1726940536203584300,8.107584228515625,-2.1375661554455756,-0.8793085536152124,-1.5367343514710663
1726940536213570000,8.117570068359376,-1.3373895907342432,-1.2883444047972559,-0.7069277876496315
1726940536223556000,8.12755615234375,-0.01533025560081005,-1.8031844171009956,0.13438567409217356
1726940536233542100,8.137542236328125,0.885721343266964,-2.1131584210284053,0.6624030017465352
1726940536243527200,8.147527099609375,1.302615214473009,-2.355081802036613,0.7281944475620985
1726940536253513200,8.15751318359375,0.47924657474458215,-2.0115143021956086,0.5319733718037605
1726940536263499000,8.1674990234375,-1.11876086833477,-1.334647452419251,0.5893026942223311
1726940536273485000,8.177485107421875,-1.3599369381070137,-0.9545856206566095,0.9613941316276788
1726940536283471000,8.18747119140625,-0.25125556523799897,-1.2379450277723372,1.070675759601593
1726940536293457200,8.19745703125,0.5828676927387714,-1.516640388599783,1.0861977383822201
1726940536303442000,8.20744189453125,1.0354220753908157,-1.686002829657495,0.6867869168967008
1726940536313428200,8.21742822265625,1.1499690765470265,-1.6757716507613658,0.28674773437976836
1726940536323414000,8.2274140625,0.30464287203252316,-1.2421160298466682,0.09456395131349563
1726940536333400000,8.237400146484376,-0.5166548066407441,-0.6495927661426365,0.10796645372211933
1726940536343386000,8.24738623046875,-0.8304173891961574,-0.13479951559007167,0.24376199461221693
1726940536353372200,8.2573720703125,-0.6163537827551364,0.2231323174290359,0.06007715982198715
1726940536363357200,8.267357177734375,0.09179331755638122,0.35672450305595993,-0.4597346495449543
1726940536373343000,8.277343017578126,0.876155642542243,0.2750689870238304,-1.1780828258752822
1726940536383329300,8.287329345703125,1.6979080792456864,0.3484275070928037,-0.0008761983126401901
1726940536393315000,8.297315185546875,0.8026900088369846,0.00388473247885704,-0.2503051326453686
1726940536403301000,8.307301025390625,0.07746610151827335,-0.21858882878050206,-1.0207067368179559
1726940536413287200,8.317287109375,0.0902519333332777,-0.19306158881410956,-0.36682197256982324
1726940536423272200,8.327272216796874,0.090182375228405,0.16280761258676646,0.13775135113298892
1726940536433258000,8.337258056640625,0.7830570876061916,0.3746269472323358,0.5018354231715202
1726940536443244000,8.347244140625,1.464927006366849,0.3405857075512409,0.5642401491582393
1726940536453230000,8.35722998046875,1.542755511456728,0.1280574939839542,0.4556032488286495
1726940536463216000,8.367216064453125,1.1222276676625014,-0.27109920661002396,0.27092764943540093
1726940536473202000,8.377201904296875,0.7014531556308269,-0.39938013408631085,0.7240706456303596
1726940536483187200,8.387187255859375,0.5929290680259466,-0.37124446518719195,1.4687211379528045
1726940536493173200,8.39717333984375,0.5354062688618898,-0.3676202833406627,1.832282647421956
1726940536503159000,8.407158935546875,0.4403758690804243,-0.3133944798953831,1.4060375950247048
1726940536513145000,8.41714501953125,0.5035001415133475,-0.43191944477185606,0.5161971260011196
1726940536523131100,8.427131103515626,0.7279167996644973,-0.6874613090269267,0.05365151068866253
1726940536533117000,8.437116943359374,0.3444499817639589,-0.9933334305934607,-0.12285510303527115
1726940536543102000,8.44710205078125,-0.34829964292943477,-1.0883365039765833,-0.145574884365499
1726940536553088300,8.457088134765625,-0.8013409323155879,-1.1513316701371221,0.05761778397113084
1726940536563074000,8.467073974609375,-0.933051249718666,-1.1129695715822279,0.26152882971018554
1726940536573060000,8.47706005859375,-0.8512345517754554,-1.0578612131487577,0.43876814162284133
1726940536583046100,8.487046142578125,-0.4052537022948265,-1.0910720664203166,0.12934592635929584
1726940536593032200,8.4970322265625,-0.1815010610103607,-1.1053394420299678,-0.22017858218997716
1726940536603017200,8.507017333984376,-0.005551788908243179,-1.0626678827781229,-0.468681633849442
1726940536613003000,8.5170029296875,0.047906245034933084,-1.1412383653417228,-0.6889169146627188
1726940536622989000,8.526989013671875,-0.12879121508598326,-1.0214208033714443,-0.8936030364274978
1726940536632975000,8.53697509765625,0.2275508645236492,-0.6939588543526828,-1.0680097552627323
1726940536642961200,8.546961181640626,0.8013514537096023,-0.27952191131208093,-1.0982836052343248
1726940536652947200,8.556947265625,1.140089487567544,-0.055231546421721574,-1.0131547140032053
1726940536662932200,8.56693212890625,0.901280731448531,-0.17852821921203285,-0.9636743515193462
1726940536672918300,8.576918212890625,0.4034580510497093,-0.4056021504063159,-0.8244131803452968
1726940536682904300,8.586904296875,0.03367313702106475,-0.35387883130125697,-0.5486243546143174
1726940536692890000,8.59689013671875,0.04120762417912483,-0.20617066123411057,-0.4418766290321946
1726940536702876400,8.60687646484375,-0.057683542683720584,0.1314533469673246,0.002249240231513977
1726940536712862200,8.6168623046875,-0.25025778637230395,0.34583749059960245,0.26724370022565125
1726940536722847200,8.62684716796875,-0.6700842038989067,0.20534692376106975,0.35787849539667366
1726940536732833000,8.6368330078125,-1.192999824500084,-0.027096681240200995,0.47049335944652554
1726940536742819300,8.6468193359375,-1.434215641760826,-0.06636544631123542,0.45535424250364304
1726940536752805000,8.65680517578125,-1.2338923913806676,0.22437033479139207,0.333809929805994
1726940536762791200,8.666791259765626,-1.088874264115095,0.5719201822668314,0.21363135250359772
1726940536772777200,8.676777099609374,-0.8597545428395271,0.6186022923342883,0.29325492431670425
1726940536782763300,8.68676318359375,-0.6898211700260639,0.4373889622241258,0.14273907641768455
1726940536792748300,8.696748291015625,-0.5604553699225187,0.3190897689275443,-0.1982540428906679
1726940536802734300,8.706734375,-0.1798550473690033,0.4106669595152139,-0.4269900255456567
1726940536812720400,8.716720458984375,0.061275429695844645,0.8321765078231692,-0.5938882684469222
1726940536822706200,8.7267060546875,-0.2278518932968378,1.2508427955292165,-0.6439300642058253
1726940536832692200,8.736692138671875,-0.6059855334758758,1.2909320832028983,-0.5961003915384412
1726940536842678300,8.74667822265625,-1.1539216135650872,0.7283955230921506,-0.3789163149893284
1726940536852663300,8.756663330078124,-2.092082169121504,0.26850831333398817,-0.036786008344590664
1726940536862649000,8.766649169921875,-2.31217921050787,0.09613689971864223,0.4866431147366762
1726940536872635400,8.776635498046875,-1.7764356725156307,0.16269991442859172,1.1073071619063615
1726940536882621200,8.78662109375,-0.9598626842767,0.274481396394223,1.1226990845665334
1726940536892607200,8.796607177734375,-0.14262451012730598,0.09458426344916224,0.7611994760632514
1726940536902593300,8.80659326171875,0.40373920607864855,-0.2516149000696838,0.2241045234620571
1726940536912578300,8.816578369140625,0.47338966540992256,-0.9792794785387814,-0.38838703090697524
1726940536922564400,8.826564453125,0.03923544732332229,-1.1660302767708897,-0.44494332312643525
1726940536932550100,8.836550048828125,-0.5083393982380628,-0.6825397808462381,-0.2475955814257264
1726940536942536400,8.846536376953125,-0.736145698827505,-0.21569734512269495,-0.05086100318729877
1726940536952522200,8.856522216796876,-0.48172202494740485,0.05701601868569851,0.07564502357095479
1726940536962508300,8.86650830078125,-0.16454115838110445,0.09647044252194463,0.022645547050237653
1726940536972493000,8.8764931640625,-0.007703413984179497,-0.05264313736371696,-0.025645313388109204
1726940536982479400,8.886479248046875,0.07217910102605819,-0.134999604739435,-0.05835282024741172
1726940536992465200,8.896465087890626,0.137411743915081,-0.27251075390838086,-0.03745820851773023
1726940537002451200,8.906451171875,0.513579636979103,-0.43109497664645313,-0.02013824040442705
1726940537012437200,8.916437255859375,1.0748656125068663,-0.1626924252418801,-0.05192249493896961
1726940537022423300,8.92642333984375,1.4907845012009142,0.25242771428991106,-0.11963263385742902
1726940537032408300,8.936408203125,1.5013883128017187,0.38804077475257215,-0.4782712999716401
1726940537042394000,8.94639404296875,1.0575421372622251,0.30916126277241857,-0.5332011600330472
1726940537052380400,8.95638037109375,0.5349240383028984,0.11724526379685848,-0.34255788440704343
1726940537062366200,8.9663662109375,-0.10023673625290393,-0.12141672252891585,0.1219797815054655
1726940537072352300,8.976352294921876,-0.3107090402036905,-0.2476101762066595,0.48587388392984865
1726940537082338300,8.98633837890625,-0.07097030975818634,-0.181065172077436,0.7224032969400286
1726940537092324400,8.996324462890625,-0.02886661352217197,-0.015335182937677017,1.016776703892648
1726940537102309000,9.00630908203125,0.14594108732938765,0.2194214436797425,1.0189043635711073
1726940537112295200,9.016295166015626,0.4658353045076132,0.38014892552420493,0.8516805419772863
1726940537122281200,9.02628125,0.7813093671560287,0.41718591295517976,0.7421610135942697
1726940537132267300,9.036267333984375,1.0675076509594916,0.29998881741529326,0.7669312977135181
1726940537142253000,9.046253173828125,1.3136176700025797,0.12083066626926883,0.8666860956683754
1726940537152239400,9.0562392578125,1.437091489458084,0.06039126727245748,0.7623501074030995
1726940537162224400,9.066224365234374,1.1178759021937847,0.07574852047804742,0.396979502685368
1726940537172210200,9.076210205078125,0.7450444600760936,0.040328576322272415,0.10826572892963886
1726940537182196200,9.0861962890625,0.48821840122938154,-0.003952975409477949,0.13745090688169
1726940537192182300,9.096182373046876,0.530745291313529,-0.10316533705070614,0.35567572465538977
1726940537202168300,9.106168212890625,0.6433984415471553,-0.050663544386439024,0.7322270640790463
1726940537212154000,9.116154052734375,0.47229777851998805,0.03353325362633913,1.1055740545034407
1726940537222139400,9.126139404296875,0.08298924885392188,0.07250164751131087,1.4301494152352212
1726940537232125200,9.136125244140626,0.2286088491439819,0.2084722527073696,1.3324027422323823
1726940537242111200,9.146111328125,0.6675391955912113,0.35344106093849986,0.9888546777442097
1726940537252097300,9.15609716796875,1.402525202989578,0.4273718644700944,0.45779900530725715
1726940537262083300,9.166083251953125,1.964511435741186,0.25426190744712945,-0.5681637523427605
1726940537272069000,9.176069091796874,1.690519722560048,0.35084253234528,-1.3413546949729322
1726940537282054100,9.18605419921875,0.29348493368029593,0.7619580393455923,-0.8920648670747876
1726940537292040400,9.19604052734375,-0.8498562491595745,1.0903048083748668,0.010932897424697875
1726940537302026200,9.206026123046875,-1.0530816507220269,1.260449558916688,0.5466448712348938
1726940537312012300,9.21601220703125,-0.3970306483507156,1.2317303910411894,0.16138590922057627
1726940537321998300,9.225998291015625,0.4018050231456756,1.555521177266538,-2.1912761183232066
1726940537331984400,9.235984375,0.8857786264121532,1.7440346012569963,-2.8593662257954477
1726940537341969200,9.24596923828125,-0.4703869764626026,1.6045055729269981,-2.7834926541656255
1726940537351955200,9.255955078125,-1.7231062333881855,1.727119414552301,-1.662945779196918
1726940537361941200,9.265941162109375,-2.1835236045002935,1.743723635611683,-0.5261918657928705
1726940537371927300,9.27592724609375,-1.8229449102342128,1.6575253615833818,0.41989334528297184
1726940537381913000,9.2859130859375,-0.4965490072011947,1.0148680207271128,0.5462389207825065
1726940537391899400,9.2958994140625,0.07570610610842704,0.3024743688870221,-0.20455548112243413
1726940537401884400,9.305884521484375,-0.9443792839407921,0.3875760798502713,-0.7934244601026177
1726940537411870200,9.3158701171875,-2.6271698735535143,0.5130331090122461,-0.9175529440745711
1726940537421856300,9.325856201171876,-2.7338638231217858,0.30617329647019503,0.09443915589004755
1726940537431842300,9.33584228515625,-1.717716941565275,-0.3209538092337548,1.477834710995853
1726940537441828400,9.345828369140625,-0.8525105630606412,-0.7457407717771828,1.7481977122858166
1726940537451814100,9.355814208984375,-0.03861351603269577,-1.2129964644767344,1.5208552298158406
1726940537461800400,9.365800537109376,-0.04594985027015209,-1.415107036665082,0.560977055709064
1726940537471785200,9.37578515625,-1.1211387033820153,-1.1265290181182324,-0.27281507061719895
1726940537481771300,9.385771240234375,-2.004720696532726,-0.8292886774271726,-0.5238032170906662
1726940537491757000,9.395757080078125,-1.5823913562744856,-0.8493110363669693,-0.2773205653429031
1726940537501743400,9.405743408203126,-0.6894494141042232,-0.9820688169963657,0.32130759110748763
1726940537511729200,9.415729248046874,-0.020191724157333373,-1.0472338014766573,0.5716939722955227
1726940537521715200,9.425715087890625,0.45383916176557537,-0.9368436277389526,0.26801205424964425
1726940537531700500,9.435700439453125,0.273786545997858,-0.5203830333836377,0.020417349606752396
1726940537541686300,9.445686279296876,-0.04204232143759727,-0.035847850711643696,0.05573211635500192
1726940537551672300,9.45567236328125,-0.06345218921303748,0.1287440880086273,-0.7330754976019263
1726940537561658000,9.465658203125,0.09982932449579238,0.2650324539169669,-0.3782254101157188
1726940537571644400,9.47564453125,0.06923895592093467,0.16213504708744583,0.07517769832015037
1726940537581630200,9.485630126953126,-0.328233590978384,0.0423712611310184,-0.6414584133952855
1726940537591615200,9.495615234375,-0.03188333099484444,0.20014782074801624,0.13740852904468773
1726940537601601300,9.505601318359375,0.22350538852512836,0.28412228124700484,0.2555667064353824
1726940537611587300,9.51558740234375,0.8932078996300696,0.28896877143010496,0.19688918427824972
1726940537621573000,9.525572998046876,1.403532918727398,0.20840682278834283,0.10110708934664725
1726940537631559400,9.535559326171875,1.3021113566040992,0.14417955754958092,-0.18867606720626354
1726940537641545500,9.54554541015625,0.8476607849419117,0.09453750169798732,-0.4856581953525543
1726940537651530500,9.555530517578125,0.7462012288957833,-0.035537104262039064,-0.13957652073353527
1726940537661516500,9.5655166015625,0.8984323562800883,-0.0885952521674335,0.7153273672044277
1726940537671502300,9.57550244140625,0.6279553732216357,-0.15911029243879019,0.905725143636763
1726940537681488600,9.585488525390625,0.38639234995841976,-0.22561456269882618,0.7724228808671235
1726940537691474400,9.595474365234375,0.2625298234462738,-0.13519172977805136,0.8587038647428155
1726940537701460500,9.60546044921875,0.2975163811534643,-0.11976283610835671,0.9078928430646658
1726940537711445500,9.615445556640625,0.760420892906189,-0.14448686993308366,0.4358279965177178
1726940537721431600,9.625431640625,1.2584423107475042,-0.15962043391801417,-0.09061755177527665
1726940537731417300,9.635417236328125,1.4682722251415252,-0.24519779956899582,-0.4600386009275913
1726940537741403600,9.645403564453124,1.4474492173433302,-0.30717180598825217,-0.6457935199901461
1726940537751389400,9.655389404296875,1.0161959813952446,-0.371861720302701,-0.6911918738573789
1726940537761375500,9.66537548828125,0.34107670593857764,-0.4911847036890685,-0.5593611449450254
1726940537771361300,9.675361328125,-0.02279518465399742,-0.7631781557250767,-0.40321488994359966
1726940537781346600,9.6853466796875,-0.1982674868941307,-1.0148308305218816,-0.2927718169748783
1726940537791332600,9.69533251953125,-0.03280161488354206,-0.9840756998393684,-0.17938333820402622
1726940537801318400,9.705318359375,0.19429975230693816,-0.7998309661440551,-0.004702478602528572
1726940537811304400,9.715304443359376,0.10485621274709701,-0.8744144248981028,0.004622983625531196
1726940537821290500,9.72529052734375,-0.15527473286390303,-1.2417417897067964,-0.23566782774478195
1726940537831276500,9.735276611328125,-0.6300163974046706,-1.249397126765549,-0.4083680349230766
1726940537841261300,9.74526123046875,-0.4947025025516748,-1.3660028140172362,-0.24465455953776835
1726940537851247600,9.75524755859375,-0.10379939717054366,-1.569851608175039,-0.4201446896955371
1726940537861233400,9.7652333984375,0.42241234236657615,-1.4775941802382468,-0.5368295796632766
1726940537871219500,9.775219482421875,0.7232546530723571,-1.2503358689203858,-0.6815317728474736
1726940537881205500,9.78520556640625,0.09151040896177291,-1.1031874516278504,-0.7274278471037745
1726940537891191600,9.795191650390626,-1.145098840162158,-1.14803708557114,-0.3654994917944073
1726940537901176600,9.805176513671874,-1.9590888261705637,-1.393178844103962,-0.3883955064743757
1726940537911162400,9.815162353515625,-1.9085586623728275,-1.2728947606004775,-0.7424322317510843
1726940537921148400,9.8251484375,-1.362080964398384,-0.5424567718952894,-0.9717579969927668
1726940537931134500,9.835134521484376,-0.8342237957417964,0.19134543254598974,-0.9584782441809773
1726940537941120500,9.84512060546875,-0.9906617271661757,0.27436931432187556,-0.776864662706852
1726940537951106600,9.8551064453125,-1.532995749464631,0.05537132021859288,-0.3886681859359145
1726940537961091600,9.865091552734375,-1.7888684531092642,-0.11904431257545947,-0.1339531278938055
1726940537971077400,9.875077392578126,-1.7703695043444632,0.47475043236911296,0.23881606264263391
1726940537981063400,9.8850634765625,-0.7996072403907776,1.4629149358920752,0.548222203554213
1726940537991049500,9.895049560546875,0.2458382163643837,1.9355761408969758,0.47147214135080573
1726940538001035500,9.905035400390625,0.45741643573045726,1.7710110171183944,0.29455022482424975
1726940538011021300,9.915021240234376,-0.6177595578998327,0.5408494828291237,0.4627329545781016
1726940538021007600,9.925007568359375,-1.435880944624543,-0.45556510877534745,1.4169891971498727
1726940538030992400,9.934992431640625,-1.1914847437620162,-0.12505451277568935,1.968174342162907
1726940538040978400,9.944978515625,0.3244377058267593,0.724088473547995,2.2673130638211965
1726940538050964500,9.954964599609376,1.607441041857004,0.8275437334559858,1.7129609792098401
1726940538060950500,9.964950439453125,1.8035440441936252,-0.06510784746557474,0.6109539695382118
1726940538070936300,9.974936279296875,0.42279929585754866,-0.7930243548691273,0.21990794855505227
1726940538080922400,9.98492236328125,-0.7375000360459089,-0.4182746580399573,0.5057309693053365
1726940538090907600,9.99490771484375,-0.48690088889002797,0.42767581585273146,0.5975742634832859
1726940538100893400,10.0048935546875,0.3633738779425621,1.2996809145867825,0.24479864418357608
1726940538110879500,10.01487939453125,0.6587625994175672,1.7612077082455158,-0.3285083162665367
1726940538120865500,10.024865478515625,0.6127320851266383,1.8004565995723008,-0.8648048119664191
1726940538130851600,10.0348515625,0.47437516931593415,1.273600570782274,-0.8849708171606063
1726940538140837400,10.04483740234375,0.055823009508848186,0.8027958072990179,-0.37701603432595726
1726940538150822400,10.054822509765625,0.1410638366818428,0.6972733857281506,0.1484513165846467
1726940538160808400,10.064808349609375,0.8549304836839436,0.8396195173054933,0.18783581698983906
1726940538170794500,10.07479443359375,1.3268114980965853,0.9272305076759308,0.16050181986242532
1726940538180780300,10.0847802734375,0.866177853885293,1.0017629668951034,-0.03998275855928659
1726940538190766600,10.0947666015625,-0.07538052741587162,0.8596158650211989,0.11450345427542924
1726940538200752400,10.10475244140625,-0.5613251384943724,0.3940660263914615,0.32764790004491806
1726940538210737400,10.1147373046875,-0.10931202311217784,0.2541189918451011,0.4753305703446269
1726940538220723500,10.124723388671875,1.0502829599142074,0.5814068264059722,0.16119886221587656
1726940538230709500,10.13470947265625,1.6743927636235951,1.1866540356699378,-0.35291444324851035
1726940538240695600,10.144695556640626,0.7878793931961059,1.6563190545335411,-0.34900165371894837
1726940538250681300,10.154681396484374,-0.5292985996365547,1.3107207795172928,-0.06723053870797156
1726940538260667600,10.164667724609375,-1.1497545570135115,0.8156858301408588,0.47638826270401474
1726940538270653400,10.1746533203125,-1.0735451775580644,0.4605396823175251,0.5808358946502208
1726940538280638500,10.184638427734376,-0.5014239197611808,0.25933226951397953,0.45891164272427554
1726940538290624300,10.194624267578124,-0.07417290519177913,0.26428148941919205,0.15847177533954382
1726940538300610600,10.204610595703125,-0.2640408125311136,0.3995440924763679,-0.028714930091798305
1726940538310596400,10.214596435546875,-0.7265221304357051,0.43499512589015066,0.022843699970841406
1726940538320582400,10.22458251953125,-0.8797668187767267,0.17941303922254592,0.2159595031902194
1726940538330568400,10.234568359375,-0.5349252073466777,-0.23554864007821305,0.4267325436532497
1726940538340553500,10.244553466796875,0.36623218998312945,-0.5426876215090974,0.4683125082761049
1726940538350539500,10.25453955078125,1.1752122388750315,-0.7088976994831114,0.13158522971868514
1726940538360525300,10.264525390625,1.5786638601839542,-0.7294611795622855,-0.4241501259446144
1726940538370511600,10.27451171875,1.0724620584964752,-0.6538946280550211,-0.7702735938787459
1726940538380497400,10.284497314453125,0.45539983521103855,-0.7255521163597702,-0.46648529284894463
1726940538390483500,10.2944833984375,0.48228199691772455,-0.8485864484194665,0.038783904163539405
1726940538400468200,10.30446826171875,0.8539163382053375,-0.9942889046873896,0.49548546962291
1726940538410454500,10.31445458984375,0.5466431176692247,-1.055760076151043,0.18892945744544268
1726940538420440300,10.3244404296875,0.10347674108743667,-0.46157063280045985,-0.44404812785238024
1726940538430426400,10.33442626953125,-0.1077151093095541,0.2647117705952376,-0.6908776933416724
1726940538440412400,10.344412353515626,-0.3466378471970558,0.6339838397309183,-0.9986050873860717
1726940538450398500,10.3543984375,-0.04279986180663108,0.6535398963332176,-0.8743927245229483
1726940538460383500,10.364383544921875,0.3810661864995956,0.7499176190704107,-1.1248118389368056
1726940538470369500,10.37436962890625,0.558261659270525,0.9961549177549779,-1.0394617061704396
1726940538480355600,10.38435546875,0.6679226419508457,1.2393845590561627,-1.0780287527129053
1726940538490341400,10.39434130859375,0.9675473935604095,1.4410675534822046,-1.1335776214554905
1726940538500327400,10.404327392578125,0.9014110798299312,1.342589497464895,-0.6606552812963724
1726940538510313500,10.4143134765625,0.2171153952270746,1.1493077630940824,-0.41260874123275276
1726940538520299500,10.424299560546874,-0.7673503999084234,0.9601450083494186,-0.4762736964136362
1726940538530284300,10.4342841796875,-1.7078583953738211,0.8708952377960085,-0.24958412489444015
1726940538540270600,10.4442705078125,-2.1482155597537753,0.7825839902017265,-0.5179825481131672
1726940538550256400,10.45425634765625,-1.4581038823485373,0.1336391665738076,-0.4837032618924975
1726940538560242400,10.464242431640624,-1.3373410754173993,-0.5108789997182787,0.31228432669639583
1726940538570228500,10.474228515625,-2.2870874393492935,-0.8125887409083544,1.0640481581553816
1726940538580214500,10.484214599609375,-3.3009085083067413,-0.901360737882182,1.4360548398867248
1726940538590199600,10.494199462890625,-3.605087854480743,-0.7778074965149163,1.380457163566351
1726940538600185300,10.504185302734374,-2.321906823796034,-0.904191212067753,1.02055914504081
1726940538610171600,10.514171630859375,-0.43139352120161056,-1.339723002117872,0.891260272693634
1726940538620157400,10.524157470703125,0.9696832365453243,-1.546722077000141,0.8218412840306758
1726940538630143500,10.5341435546875,0.8728641997814178,-1.3867702922359109,0.7351490890055894
1726940538640130000,10.544130126953124,-0.5094038125991821,-0.8677744023617356,0.365548591633141
1726940538650115000,10.554114990234375,-1.7161492538571357,-0.225868537459895,0.12385872711986302
1726940538660101000,10.56410107421875,-1.5261562588334083,-0.2938232987891882,-0.18036299689114094
1726940538670087200,10.574087158203126,-0.562177955931425,-0.5887552894726396,-0.7925093910843134
1726940538680073000,10.584072998046874,0.012736731976270675,-0.6361626450747251,-0.946218189805746
1726940538690059300,10.594059326171875,-0.059740475213527676,-0.5164941361863166,-0.35086949341744184
1726940538700045000,10.604045166015625,-0.4999848268687725,-0.3130777420964092,0.2674552971497178
1726940538710030000,10.614030029296876,-0.1790881546497345,-0.01893441757261753,0.40853637722730635
1726940538720016100,10.62401611328125,0.7690075194656848,0.33297548827584833,0.22425182297825813
1726940538730002200,10.634002197265625,2.24820913490057,0.538726170532219,0.037999183526635165
1726940538739988000,10.643988037109375,3.2165280973553654,0.6378560049891472,0.0033951953962445256
1726940538749974000,10.65397412109375,2.9216970097631214,0.5235498633841053,0.18050912736356256
1726940538759960000,10.6639599609375,2.016688782224059,0.1478795080460608,0.45563218266218897
1726940538769946000,10.673946044921875,1.289604926252365,-0.17303049857858568,0.708702103845775
1726940538779931100,10.68393115234375,0.9942173738211393,-0.47597292336877434,0.7072025129377841
1726940538789917000,10.6939169921875,1.3044623036444187,-0.4957371428290382,0.7342813662603497
1726940538799903200,10.7039033203125,1.0399240629851818,-0.4716846150577068,0.7136284543320536
1726940538809889000,10.713888916015625,0.12426117044091224,-0.6315948987677693,0.7478063260048627
1726940538819875000,10.723875,-0.594056610751152,-0.7886796767283231,0.8314753738164902
1726940538829861000,10.733861083984374,-0.9042962798774242,-0.9129976188577711,0.7605982952997088
1726940538839846100,10.74384619140625,-1.07866325122416,-0.9586450521152466,0.5109884514421225
1726940538849832000,10.75383203125,-1.233835692757368,-0.9366367069900036,0.4218360037833452
1726940538859818000,10.76381787109375,-0.9410749816983938,-1.0744555704012513,0.27846009076684713
1726940538869804000,10.773803955078124,-0.6149164434283971,-1.3636940986834465,0.19623247393518686
1726940538879790000,10.7837900390625,-0.5461988810330629,-1.3643217290624976,-0.004088146096467972
1726940538889775900,10.79377587890625,-0.4579588720440864,-1.2767638571187854,-0.2431307109713554
1726940538899762200,10.80376220703125,-0.02559972068071365,-1.4992171062424777,-0.3549631924718618
1726940538909747200,10.813747314453124,0.5236445193976164,-1.5363970823407171,-0.48025721309185027
1726940538919733000,10.82373291015625,1.2828642198204994,-1.6275569242991506,-0.8142424994647502
1726940538929719000,10.833718994140625,2.2424153539299962,-1.5203180541992187,-1.100616432096064
1726940538939705000,10.843705078125,3.0510008505463597,-1.2665709644064307,-1.2390543041884898
1726940538949691100,10.853691162109374,3.5991689858257767,-1.1205736168451605,-1.4078896526321767
1726940538959677000,10.863677001953125,3.4230724142074584,-0.9422842113576829,-1.7487106302440165
1726940538969662200,10.873662109375,2.7055145114719865,-0.6250422622539102,-1.9562170701265333
1726940538979648000,10.88364794921875,1.3982254599690436,-0.5126083077289164,-2.1794734523266555
1726940538989634000,10.893634033203124,-0.183788879686594,-0.44806130901649593,-1.9806369333729146
1726940538999620000,10.9036201171875,-1.1914601938426495,-0.28500673593133685,-1.5306918564364314
1726940539009606100,10.913606201171875,-1.7787807743370532,-0.16081366229057312,-1.301858258625865
1726940539019592000,10.923592041015626,-2.1409546288400887,-0.08115706499069929,-1.040489003391564
1726940539029577000,10.933576904296874,-2.3912813887953757,0.10573533366918564,-0.5893199376180768
1726940539039563300,10.943563232421875,-2.787058822214603,0.21782705062776803,-0.021170213800668716
1726940539049549000,10.953549072265625,-3.3208851284086705,0.20868366696834564,0.5223848747253418
1726940539059535000,10.96353515625,-3.6496389438688754,0.3248880799427628,0.8920312570661306
1726940539069521200,10.973521240234374,-3.6791397636413574,0.5432704263657331,1.2498299652248621
1726940539079507200,10.983507080078125,-3.51602074701786,0.6873495192155241,1.3489131475284695
1726940539089493000,10.993492919921875,-3.113687316083908,0.6649968176320195,1.4032608237877486
1726940539099478000,11.00347802734375,-2.6295266658127305,0.5124041634589434,1.5645672380313276
1726940539109464000,11.013464111328124,-2.449755789595842,0.7290893505752086,1.5249357771277428
1726940539119450000,11.0234501953125,-1.7804905008643865,1.0342004246413707,1.5711925013899801
1726940539129436000,11.033435791015625,-0.9895955592393875,0.8132514426007866,1.5420979243308306
1726940539139422200,11.043422119140626,-0.5851677863746881,0.40417292132079596,1.4068328370556233
1726940539149408000,11.053407958984375,-0.5678659384399652,-0.05457242492586374,0.945130979090929
1726940539159393000,11.06339306640625,-0.41566754428148267,-0.09418561952039599,0.5518535457938909
1726940539169379000,11.073379150390625,0.666159723931551,-0.09370938031077385,0.1105208143800497
1726940539179365000,11.083365234375,2.0169675991654397,0.1090045645982027,-0.044810324846208095
1726940539189351200,11.09335107421875,2.609402746194601,0.4669784831933677,-0.1804889613583684
1726940539199337000,11.1033369140625,2.3615853387117385,0.6509795443259179,-0.8150605378493666
1726940539209323300,11.1133232421875,1.9501643459588287,0.5468968001693487,-1.5035194796115159
1726940539219308000,11.12330810546875,1.5152309601932763,0.30829949484393,-1.6738947509735822
1726940539229294000,11.133294189453125,1.3785539602935313,0.26257351645752786,-1.4360598083227871
1726940539239279900,11.14327978515625,1.312626905399561,0.43771512543857094,-0.9618070963427424
1726940539249266200,11.15326611328125,0.8581108672857284,0.489454080504179,-0.3308981340125203
1726940539259252000,11.163251953125,0.664772068965435,-0.001324307406321168,-0.2302335277363658
1726940539269238000,11.173238037109375,0.5449450815796851,-0.44520051275789735,-0.06665770725607871
1726940539279224000,11.18322412109375,0.1608750370889902,-0.2532480542294681,-0.16557137821167706
1726940539289209000,11.193208984375,-0.40877953833341596,0.0870432734850794,-0.3182902891129255
1726940539299195100,11.203195068359374,-0.8537070793688297,0.29383345485702156,-0.3014022826761007
1726940539309181000,11.213180908203125,-1.4497428812384605,0.2513657476142049,-0.193106450869143
1726940539319167200,11.223167236328125,-2.032476133942604,0.12564502601474523,0.09343611632734537
1726940539329153000,11.233153076171876,-2.0522329738140104,-0.09971998236980288,0.40577392677664753
1726940539339139000,11.24313916015625,-1.3103092761069535,-0.44791364417411383,0.8102148513838648
1726940539349124000,11.2531240234375,-0.03582417757511139,-0.7084508324984461,1.0465595554769038
1726940539359110100,11.263110107421875,0.7668897966593503,-0.7152697917982935,1.1703536929279565
1726940539369096000,11.273095947265626,0.7456874341547489,-0.6362791110612451,0.8806602604851126
1726940539379082200,11.283082275390624,0.6292068345874547,-0.5741466626772657,0.6299114757254719
1726940539389068000,11.293068115234375,1.0206956309020518,-0.5363709126429632,0.49087622226178645
1726940539399054000,11.30305419921875,2.1480103925704954,-0.6519626370791346,0.13774229104369878
1726940539409039000,11.3130390625,2.999202274248004,-0.6148517806943505,-0.3296799903944134
1726940539419025200,11.323025146484374,2.9823499236464497,-0.28586675029415637,-0.917528686416149
1726940539429011200,11.33301123046875,2.444047348821163,-0.07668986558192409,-1.59221190854311
1726940539438997000,11.3429970703125,1.6495558440089224,-0.14384408765067347,-1.6873606740072369
1726940539448983300,11.3529833984375,1.2411544913381338,0.09818400497417896,-1.2552110737413167
1726940539458969000,11.362968994140624,1.6161521715790033,0.36621366794575005,-0.6141846220225096
1726940539468955100,11.372955078125,1.7531155872046946,0.6183822198428213,-0.24420155507326124
1726940539478940000,11.38293994140625,1.3678911119818686,0.9938745517328381,-0.34832974580675363
1726940539488926200,11.39292626953125,0.4909375970602035,1.2601315790086984,-0.34940760417133565
1726940539498912000,11.402912109375,-0.29113924733698365,1.2628107350900768,0.17377222032397985
1726940539508898000,11.41289794921875,-0.422651411819458,1.3742312747888266,0.7355167532742023
1726940539518884000,11.422884033203125,-0.11587795749902724,1.4269777994617818,0.7413014741554856
1726940539528870100,11.4328701171875,-0.21894319517612457,1.3332847857639192,0.24682605835795401
1726940539538855200,11.442855224609374,-0.6948316916644572,1.3079276416674255,-0.3485819670021534
1726940539548841000,11.452841064453125,-1.3426350901722908,1.2139704971406609,-0.48287324080914257
1726940539558827300,11.4628271484375,-2.3389941521972415,1.0274892365649342,-0.19436200388818978
1726940539568813000,11.47281298828125,-3.266267403036356,0.8800855293370783,0.3196963565185666
1726940539578799000,11.482799072265625,-3.556519930666685,0.5943127774693071,0.9464207266405225
1726940539588785200,11.49278515625,-3.0575100863099096,0.1729497980251908,1.3072826217621565
1726940539598771200,11.502771240234376,-2.994239098882675,0.09943053443655371,1.3944754597857594
1726940539608756000,11.512755859375,-2.425009470874071,-0.13056465449929236,1.327763099732995
1726940539618742000,11.522741943359375,-1.3744786736786365,-0.5435058425568043,1.0111261307850479
1726940539628728000,11.53272802734375,-0.15345686978697776,-0.8732701502338052,0.3423451184391975
1726940539638714000,11.542714111328126,0.12675240273475646,-0.7285293786048889,-0.27108897747695443
1726940539648699600,11.55269970703125,-0.7119675353825092,-0.693717008420825,-0.9567679331317543
1726940539658685700,11.562685791015625,-1.2245616684556007,-0.5409865532122552,-0.9184270965605974
1726940539668670700,11.572670654296875,-1.5167957252919673,-0.6164022980719804,-0.8609925602018833
1726940539678656500,11.582656494140625,-0.8312216913163661,-0.8151517232641577,-0.6249205355703831
1726940539688642600,11.592642578125,-0.33139936153292654,-0.8975945902816951,-0.2188753906369209
1726940539698628600,11.602628662109375,-0.19210078095793723,-0.9524057923994957,0.038807869561016554
1726940539708614700,11.61261474609375,-0.044510172855854034,-0.8802898928027599,0.0225020469263196
1726940539718600400,11.622600341796876,0.15530395895838736,-0.693862919697538,-0.2372173952743411
1726940539728585500,11.63258544921875,0.3751625154137611,-0.3529404544726014,-0.1871244538500905
1726940539738571500,11.642571533203125,0.8110907574355601,-0.09391235553696752,-0.18106588446348904
1726940539748557600,11.6525576171875,0.8484457978397607,-0.03128375766649842,-0.37858606012165547
1726940539758543600,11.662543701171876,0.6543769316792488,0.08434314768090843,-0.4528475203797221
1726940539768529700,11.67252978515625,0.7753735473662614,0.26117672833688554,-0.4254138622701168
1726940539778515500,11.682515380859375,1.100562363821268,0.2950245643377304,-0.4552750397875905
1726940539788501500,11.69250146484375,1.347313603377342,0.440762530310452,-0.19910306093543767
1726940539798486500,11.702486572265625,1.192827975064516,0.6246267402555793,0.02581365569233894
1726940539808472600,11.71247265625,1.0137708000749348,0.6716948539659381,0.1900578769534826
1726940539818458600,11.722458740234375,0.9255085792541503,0.5940292112875729,0.559872893859446
1726940539828444400,11.7324443359375,0.5038754045665264,0.6173959122192114,0.7314072721287608
1726940539838430700,11.7424306640625,0.10809563305974006,0.536101922975853,1.1849191016361116
1726940539848416500,11.75241650390625,0.07580781291723251,0.5761709715791046,1.1890630695730446
1726940539858401500,11.762401611328125,0.34962884570658204,0.6179064920898526,0.8814458579048514
1726940539868387600,11.7723876953125,0.4190168547093868,0.344242768754065,0.758762896566093
1726940539878373600,11.78237353515625,0.1769780306279659,-0.07097995436936616,0.7619149308562279
1726940539888359400,11.792359375,-0.7681874352544545,-0.59382024471201,0.6524982783257961
1726940539898345500,11.802345458984375,-1.2512556141138076,-1.2629723553925751,0.8681625979617238
1726940539908331500,11.81233154296875,-0.7789923223853111,-1.7400199587881564,0.73857964797616
1726940539918317600,11.822317626953126,0.007342763978242873,-2.1850820859886704,0.13225304597765206
1726940539928302600,11.832302490234374,0.7043640746414661,-2.5151968145385384,-0.2030295867294073
1726940539938288600,11.84228857421875,1.26881932785511,-2.489399233198166,-0.4045537373319268
1726940539948274700,11.852274658203125,1.487055251544714,-2.2059027556993067,-0.7186340075343847
1726940539958260500,11.862260498046876,0.7556319050639867,-2.048863058989495,-0.8726762759938835
1726940539968246800,11.872246826171875,0.31215923901200293,-2.3335692045390606,-1.1691782194077969
1726940539978232600,11.882232666015625,0.01050268931388855,-2.438213820362091,-1.3307631583318114
1726940539988217600,11.892217529296875,0.3961632178664207,-2.2708551203422247,-1.3052026006177067
1726940539998203400,11.902203369140626,1.09488899435997,-1.8321140128567814,-1.263406947417557
1726940540008189700,11.912189697265624,1.6968763981103896,-1.0186012889713048,-1.427402454614639
1726940540018175500,11.922175537109375,1.707448061007261,-0.19919205439314244,-1.9466896555855868
1726940540028161500,11.93216162109375,0.7122691486775875,0.2033266699798405,-2.3438716951057312
1726940540038147600,11.942147705078124,-0.08052899622023105,0.23829803011789916,-2.4643863724946975
1726940540048133600,11.952133544921875,-0.6210965933680535,0.4030070924118161,-2.273267003789544
1726940540058118700,11.96211865234375,-1.0936381175160408,0.7322150813803077,-1.8912163362972436
1726940540068104400,11.9721044921875,-1.587379081559181,1.2898928032830357,-1.0185073270775378
1726940540078090800,11.9820908203125,-2.150086614322662,1.440353706124425,-0.24387159246653317
1726940540088076500,11.99207666015625,-2.6065204687565564,1.2704922295033931,0.23562647282108662
1726940540098062600,12.0020625,-2.7970564846158026,1.2823261674210429,1.0351289376631378
1726940540108048600,12.012048583984376,-2.38709562754333,1.496374576292932,1.7756719946667552
1726940540118033700,12.02203369140625,-1.358326580300927,1.7529831929966806,1.8320837638489902
1726940540128019500,12.03201953125,-0.9344143547654151,1.423212017187476,1.7921325694717465
1726940540138005500,12.042005615234375,-1.9770745647162198,0.7213043957874179,1.7615610517278313
1726940540147991600,12.051991455078126,-2.7126322345227,0.14039631268382072,1.337951900792122
1726940540157977600,12.0619775390625,-2.517436994680762,-0.030812194631993767,0.9342910206466912
1726940540167963400,12.07196337890625,-2.23399706967473,0.08951791997030377,0.9017144466906786
1726940540177949700,12.08194970703125,-1.869623659300804,0.41712081182971594,0.9106102853298187
1726940540187934700,12.091934814453126,-1.4035714971721172,0.5432452919244766,0.9266010506659745
1726940540197920500,12.10192041015625,-1.1701192996501921,0.5660369694471359,0.7601721788421273
1726940540207906600,12.111906494140625,-0.836264946180582,0.5386950812742114,0.39142420664578675
1726940540217892600,12.121892578125,0.3822387374103069,0.4752281328834593,-0.24825726020485162
1726940540227878700,12.131878662109376,1.7171382648944853,0.5889338609099388,-0.6370107863366603
1726940540237864400,12.141864501953124,2.2678818036198614,0.780848179385066,-0.5857496779158711
1726940540247849700,12.151849609375,2.2131132716000077,0.797489152258262,-0.3971721026480198
1726940540257835500,12.16183544921875,1.7800597082316874,0.16620923772379756,-0.5324941808074712
1726940540267821600,12.171821533203126,1.8005168053269385,-0.8803479796655476,-0.4421306037932634
1726940540277807400,12.181807373046874,2.493259415757656,-1.5636669281907378,-0.11117051046043634
1726940540287793700,12.191793701171875,2.7765304139375684,-1.6101492779023945,0.22484189782589672
1726940540297779500,12.201779541015625,2.370505142748356,-1.15377906328924,-0.38597237098068
1726940540307764500,12.211764404296876,1.1757365550100802,-0.616004603991285,-1.461580910809338
1726940540317750800,12.221750732421874,0.10038578933477402,-0.3878270589366555,-1.8724241036742924
1726940540327736600,12.231736572265625,-0.9116367057681083,-0.38849703062009067,-1.604350966887176
1726940540337722600,12.24172265625,-1.0875286947250367,-0.48543370241429656,-1.239514322915673
1726940540347708700,12.251708740234376,-1.164345392423868,-0.4983926257738843,-0.6661433573186397
1726940540357694700,12.26169482421875,-1.3295254332304,-0.31553825045842676,-0.3042790071561932
1726940540367680500,12.271680419921875,-1.4808160648941993,-0.07901676502637564,0.001266074413061142
1726940540377665500,12.28166552734375,-0.9723165076583623,0.0461335362739861,0.2664630712419748
1726940540387651600,12.291651611328126,-0.11136311042308807,0.09514591591991484,0.49994420259743927
1726940540397637600,12.3016376953125,0.9617243864953517,0.31237416040431704,0.7573182507157326
1726940540407623400,12.31162353515625,2.0291700781345368,0.6037647156212479,0.8635925135672092
1726940540417609700,12.321609619140625,1.5868074191510677,0.44438349728658794,0.19452333192974328
1726940540427595500,12.331595458984374,0.6965314813196659,0.5137094008386135,0.10074643934071063
1726940540437580500,12.34158056640625,0.13464929346442223,0.39146103152483697,0.038053836323320864
1726940540447566600,12.351566650390625,0.5473030428826808,0.274416240469832,0.2933089925915003
1726940540457552600,12.361552734375,1.6011983480751513,0.3414582160694524,0.39267771383821964
1726940540467538700,12.37153857421875,2.17580908460021,0.3546457605531439,-0.15250643719434737
1726940540477524500,12.3815244140625,1.983652189540863,0.3362746759517118,-0.5896987078025937
1726940540487510800,12.3915107421875,1.5027514178484678,0.2938757230961695,-0.4179489332169294
1726940540497496600,12.40149658203125,0.9413643200337887,0.36379064204990863,0.01693009201288223
1726940540507481600,12.411481689453124,0.9617834232062101,0.38441560652535406,0.2636146960735321
1726940540517467400,12.42146728515625,0.9947767612695694,0.2696866363983601,-0.26200433826744557
1726940540527453700,12.43145361328125,0.4858277067005634,0.04194068769402802,-1.0695040854737161
1726940540537439500,12.441439453125,-0.7078805583298206,-0.11233443967327475,-1.1419567427441477
1726940540547425500,12.451425537109374,-1.875353142863512,-0.19769962387830017,-0.5208893754705787
1726940540557411600,12.46141162109375,-2.3485265351742504,-0.2548006904989481,0.16217413698881863
1726940540567396600,12.471396728515625,-2.0401181731283664,-0.5240155446670949,0.618560937410593
1726940540577382700,12.481382568359376,-1.8964128820270298,-0.6146172412861138,0.46653936112374067
1726940540587368400,12.491368408203124,-2.5788357584953308,-0.10312646634504198,0.36577772421389815
1726940540597354800,12.501354736328125,-2.808479211384058,-0.004889379476755857,0.45079497176408767
1726940540607340500,12.511340576171875,-2.6442642162173984,-0.014399696752429008,0.6357303911373019
