time,seconds_elapsed,z,y,x
1726940528115065300,0.0190654296875,-1.1765899658203125,-0.2365570068359375,-0.0391693115234375
1726940528125050400,0.02905029296875,-1.2281494140625,-0.2355194091796875,-0.0742034912109375
1726940528135036200,0.0390361328125,-1.257659912109375,-0.242767333984375,-0.1239471435546875
1726940528145022500,0.0490224609375,-1.19439697265625,-0.2367706298828125,-0.1290130615234375
1726940528155008300,0.05900830078125,-1.06939697265625,-0.2519073486328125,-0.1257171630859375
1726940528164994300,0.068994384765625,-0.9475860595703125,-0.28662109375,-0.1367034912109375
1726940528174980400,0.07898046875,-0.833465576171875,-0.3216400146484375,-0.1346282958984375
1726940528184965400,0.08896533203125,-0.7623138427734375,-0.3655548095703125,-0.131439208984375
1726940528194951200,0.098951171875,-0.766510009765625,-0.3919830322265625,-0.12982177734375
1726940528204937500,0.1089375,-0.7708740234375,-0.406402587890625,-0.1012420654296875
1726940528214923300,0.11892333984375,-0.784088134765625,-0.42950439453125,-0.02703857421875
1726940528224909300,0.128909423828125,-0.8368988037109375,-0.4939727783203125,0.0991668701171875
1726940528234894300,0.138894287109375,-0.861114501953125,-0.479736328125,0.2098388671875
1726940528244880400,0.14888037109375,-0.8006591796875,-0.356781005859375,0.22894287109375
1726940528254866400,0.158866455078125,-0.805755615234375,-0.2525787353515625,0.204803466796875
1726940528264852200,0.168852294921875,-0.837890625,-0.2453155517578125,0.151519775390625
1726940528274838500,0.178838623046875,-0.8060760498046875,-0.2486572265625,0.0523223876953125
1726940528284823300,0.1888232421875,-0.7013702392578125,-0.2263031005859375,-0.1243743896484375
1726940528294809300,0.198809326171875,-0.55413818359375,-0.150054931640625,-0.1817626953125
1726940528304795400,0.20879541015625,-0.454681396484375,-0.19677734375,-0.1207733154296875
1726940528314781400,0.218781494140625,-0.339752197265625,-0.1830902099609375,0.0089874267578125
1726940528324767200,0.228767333984375,-0.17681884765625,-0.1569061279296875,0.0830230712890625
1726940528334753300,0.238753173828125,-0.061004638671875,-0.1285552978515625,0.0700836181640625
1726940528344738300,0.24873828125,-0.0110321044921875,-0.17193603515625,0.014129638671875
1726940528354724400,0.258724365234375,0.071319580078125,-0.248809814453125,-0.028594970703125
1726940528364710400,0.26871044921875,0.1854400634765625,-0.1813201904296875,-0.180206298828125
1726940528374696200,0.2786962890625,0.248687744140625,-0.1764373779296875,-0.3153839111328125
1726940528384682500,0.2886826171875,0.3056640625,-0.231719970703125,-0.485443115234375
1726940528394667300,0.298667236328125,0.3220977783203125,-0.252197265625,-0.657257080078125
1726940528404653300,0.3086533203125,0.3635406494140625,-0.29925537109375,-0.8301544189453125
1726940528414639400,0.318639404296875,0.371978759765625,-0.3675537109375,-0.997833251953125
1726940528424625400,0.32862548828125,-0.795989990234375,-1.497222900390625,-6.843353271484375
1726940528434611200,0.338611083984375,0.3702850341796875,-1.220489501953125,-0.5283050537109375
1726940528444596200,0.34859619140625,0.2350921630859375,-0.6255035400390625,0.678985595703125
1726940528454582500,0.35858251953125,-0.173797607421875,-0.773773193359375,-2.14764404296875
1726940528464568300,0.368568359375,0.041015625,-0.7526702880859375,-0.2825775146484375
1726940528474554400,0.378554443359375,0.0201568603515625,-0.516326904296875,-0.444488525390625
1726940528484540200,0.3885400390625,0.0702667236328125,-0.625030517578125,-0.7419281005859375
1726940528494526500,0.3985263671875,0.10821533203125,-0.7780303955078125,-1.022735595703125
1726940528504511200,0.40851123046875,0.0882568359375,-0.7755279541015625,-1.3582611083984375
1726940528514497300,0.418497314453125,0.1953277587890625,-0.6226654052734375,-0.531280517578125
1726940528524483300,0.4284833984375,0.1022186279296875,-0.442047119140625,-0.765228271484375
1726940528534469400,0.438469482421875,0.2124481201171875,-0.3620758056640625,-0.471282958984375
1726940528544455200,0.448455078125,0.2041473388671875,-0.3168182373046875,-0.494964599609375
1726940528554440200,0.458440185546875,0.1119232177734375,-0.3044586181640625,-0.67333984375
1726940528564426500,0.468426513671875,0.15386962890625,-0.2798614501953125,-0.433563232421875
1726940528574412300,0.478412353515625,0.1158294677734375,-0.2609100341796875,-0.432342529296875
1726940528584398300,0.4883984375,0.2122955322265625,-0.3743438720703125,-0.514312744140625
1726940528594384400,0.49838427734375,0.3952484130859375,-0.3826751708984375,-0.6582183837890625
1726940528604370400,0.508370361328125,0.4120025634765625,-0.18792724609375,-0.9061279296875
1726940528614355200,0.518355224609375,0.3177947998046875,-0.190582275390625,-1.254425048828125
1726940528624341200,0.52834130859375,0.22576904296875,-0.23187255859375,-1.5401458740234375
1726940528634327300,0.538327392578125,-0.725799560546875,-0.39794921875,-2.3884735107421875
1726940528644313300,0.548313232421875,-1.3251190185546875,-0.5377349853515625,-3.2272186279296875
1726940528654299100,0.558299072265625,-0.1833953857421875,-0.513671875,-1.8291473388671875
1726940528664284200,0.5682841796875,0.2784881591796875,-0.3301239013671875,-1.0406951904296875
1726940528674270500,0.5782705078125,0.467620849609375,0.0935516357421875,-0.638702392578125
1726940528684256300,0.58825634765625,0.3343353271484375,0.20697021484375,-0.5723419189453125
1726940528694242300,0.5982421875,0.4089508056640625,0.1811370849609375,-0.2858123779296875
1726940528704228400,0.608228271484375,0.7180023193359375,0.0809783935546875,-0.027374267578125
1726940528714214400,0.61821435546875,0.7543792724609375,0.16400146484375,-0.33038330078125
1726940528724199200,0.62819921875,0.59527587890625,0.3410186767578125,-0.7581939697265625
1726940528734185500,0.638185546875,0.5833587646484375,0.3796844482421875,-0.92950439453125
1726940528744171300,0.648171142578125,0.656494140625,0.256866455078125,-0.9693756103515625
1726940528754157300,0.6581572265625,0.6645660400390625,0.1218109130859375,-0.964813232421875
1726940528764143000,0.66814306640625,0.5794219970703125,0.0394744873046875,-0.937042236328125
1726940528774128400,0.67812841796875,0.448974609375,0.0172119140625,-1.005340576171875
1726940528784114400,0.688114501953125,0.307525634765625,-0.010772705078125,-1.163787841796875
1726940528794100200,0.698100341796875,0.1708831787109375,-0.0194091796875,-1.3379669189453125
1726940528804086500,0.70808642578125,0.046142578125,0.03375244140625,-1.4543609619140625
1726940528814072300,0.718072265625,-0.0706634521484375,0.0551300048828125,-1.539276123046875
1726940528824058400,0.728058349609375,-0.1613311767578125,0.018646240234375,-1.5578460693359375
1726940528834043400,0.73804345703125,-0.2207489013671875,-0.0794830322265625,-1.45599365234375
1726940528844029400,0.748029541015625,-0.3752288818359375,-0.1720428466796875,-1.3523712158203125
1726940528854015200,0.75801513671875,-0.510467529296875,-0.2917022705078125,-1.2473602294921875
1726940528864001300,0.768001220703125,-0.4001617431640625,-0.226470947265625,-1.10699462890625
1726940528873987300,0.7779873046875,-0.249725341796875,-0.1521148681640625,-1.0088348388671875
1726940528883972400,0.787972412109375,-0.11419677734375,-0.12310791015625,-0.921875
1726940528893958400,0.79795849609375,-0.050506591796875,-0.0330810546875,-0.7756195068359375
1726940528903944200,0.807944091796875,-0.0758819580078125,-0.023529052734375,-0.5996551513671875
1726940528913930500,0.817930419921875,-0.060150146484375,-0.062774658203125,-0.490936279296875
1726940528923916300,0.827916259765625,-0.012054443359375,-0.110992431640625,-0.5800323486328125
1726940528933902300,0.83790234375,0.0229034423828125,-0.1986083984375,-0.717437744140625
1726940528943887400,0.847887451171875,0.0646514892578125,-0.223419189453125,-0.862274169921875
1726940528953873400,0.857873291015625,0.148468017578125,-0.0691680908203125,-1.015106201171875
1726940528963859200,0.867859130859375,0.240447998046875,0.07965087890625,-1.101654052734375
1726940528973845200,0.87784521484375,0.343780517578125,0.1407928466796875,-1.078369140625
1726940528983831300,0.887831298828125,0.4314727783203125,0.162506103515625,-0.9649810791015625
1726940528993816300,0.89781640625,0.4880218505859375,0.1983795166015625,-0.846221923828125
1726940529003802400,0.90780224609375,0.4986572265625,0.2949371337890625,-0.7741851806640625
1726940529013788200,0.9177880859375,0.4013671875,0.4754638671875,-0.7726593017578125
1726940529023774500,0.9277744140625,0.337799072265625,0.733123779296875,-0.835693359375
1726940529033760300,0.93776025390625,0.34234619140625,1.0055084228515625,-0.9272613525390625
1726940529043746300,0.947746337890625,0.3713836669921875,1.213165283203125,-1.0944061279296875
1726940529053731300,0.9577314453125,0.0175018310546875,1.73345947265625,-1.4247283935546875
1726940529063717400,0.96771728515625,-0.1824188232421875,1.7585296630859375,-1.279693603515625
1726940529073703200,0.977703125,0.1837615966796875,1.3788604736328125,-0.984283447265625
1726940529083689500,0.987689453125,0.3401641845703125,0.945556640625,-0.624664306640625
1726940529093675300,0.99767529296875,0.450469970703125,0.800018310546875,-0.84326171875
1726940529103661300,1.007661376953125,0.4623565673828125,0.7317657470703125,-0.93096923828125
1726940529113646300,1.017646240234375,0.3801116943359375,0.66961669921875,-0.78741455078125
1726940529123632400,1.02763232421875,0.228668212890625,0.514495849609375,-0.623016357421875
1726940529133618400,1.037618408203125,0.222015380859375,0.2795257568359375,-0.4022674560546875
1726940529143604200,1.047604248046875,0.3175201416015625,0.2799224853515625,-0.4411468505859375
1726940529153590500,1.057590576171875,0.409759521484375,0.4220733642578125,-0.518646240234375
1726940529163575300,1.0675751953125,0.45111083984375,0.46612548828125,-0.6327667236328125
1726940529173561300,1.077561279296875,0.452606201171875,0.411834716796875,-0.769439697265625
1726940529183547100,1.087547119140625,0.40997314453125,0.3591461181640625,-0.7458648681640625
1726940529193533400,1.097533447265625,0.380706787109375,0.362396240234375,-0.7881011962890625
1726940529203519200,1.107519287109375,0.3854217529296875,0.433807373046875,-0.7142486572265625
1726940529213505300,1.11750537109375,0.40576171875,0.4293670654296875,-0.638580322265625
1726940529223490300,1.127490234375,0.350006103515625,0.25823974609375,-0.6446075439453125
1726940529233476400,1.137476318359375,0.275238037109375,0.2045440673828125,-0.6290435791015625
1726940529243462400,1.14746240234375,0.27679443359375,0.276611328125,-0.64630126953125
1726940529253448200,1.1574482421875,0.2293853759765625,0.241912841796875,-0.819122314453125
1726940529263434500,1.1674345703125,0.248992919921875,0.21588134765625,-0.954681396484375
1726940529273419300,1.177419189453125,0.32635498046875,0.175506591796875,-1.2099456787109375
1726940529283405300,1.1874052734375,0.332000732421875,0.10357666015625,-1.3822174072265625
1726940529293391000,1.19739111328125,0.2661285400390625,0.02484130859375,-1.4538726806640625
1726940529303377400,1.20737744140625,0.2135009765625,-0.079193115234375,-1.580810546875
1726940529313363200,1.21736328125,0.355499267578125,-0.3433837890625,-1.1724395751953125
1726940529323349200,1.227349365234375,0.7225494384765625,-0.499359130859375,-1.0557098388671875
1726940529333334500,1.23733447265625,0.9615020751953125,-0.60858154296875,-0.8865814208984375
1726940529343320300,1.2473203125,0.9629974365234375,-0.540771484375,-0.7561187744140625
1726940529353306400,1.257306396484375,0.8902587890625,-0.482635498046875,-0.589111328125
1726940529363292400,1.26729248046875,0.828369140625,-0.4553680419921875,-0.5523681640625
1726940529373278500,1.277278564453125,0.72625732421875,-0.400604248046875,-0.623809814453125
1726940529383264300,1.28726416015625,0.5607452392578125,-0.381988525390625,-0.727203369140625
1726940529393249300,1.297249267578125,0.4861602783203125,-0.3615875244140625,-0.76776123046875
1726940529403235300,1.3072353515625,0.462432861328125,-0.3713226318359375,-0.8471221923828125
1726940529413221400,1.317221435546875,0.4734954833984375,-0.3619232177734375,-0.922393798828125
1726940529423207200,1.327207275390625,0.4992828369140625,-0.383209228515625,-0.9516754150390625
1726940529433193500,1.337193359375,0.484100341796875,-0.394805908203125,-0.936187744140625
1726940529443178500,1.347178466796875,0.465545654296875,-0.4048614501953125,-0.897674560546875
1726940529453164300,1.357164306640625,0.467041015625,-0.406158447265625,-0.863037109375
1726940529463150300,1.367150390625,0.4771881103515625,-0.383392333984375,-0.7962493896484375
1726940529473136400,1.377136474609375,0.495361328125,-0.3652801513671875,-0.724456787109375
1726940529483122400,1.387122314453125,0.533966064453125,-0.3764190673828125,-0.6778411865234375
1726940529493108200,1.397108154296875,0.5773468017578125,-0.402496337890625,-0.66033935546875
1726940529503093200,1.40709326171875,0.629486083984375,-0.428314208984375,-0.6715240478515625
1726940529513079300,1.417079345703125,0.667205810546875,-0.4400482177734375,-0.70135498046875
1726940529523065300,1.4270654296875,0.6830902099609375,-0.4518585205078125,-0.719818115234375
1726940529533051100,1.437051025390625,0.6757354736328125,-0.4413299560546875,-0.7425384521484375
1726940529543037400,1.447037353515625,0.65179443359375,-0.4235992431640625,-0.7548370361328125
1726940529553023200,1.457023193359375,0.611419677734375,-0.402313232421875,-0.753204345703125
1726940529563008300,1.46700830078125,0.55560302734375,-0.3826904296875,-0.7479248046875
1726940529572994300,1.476994384765625,0.5075225830078125,-0.361114501953125,-0.7494964599609375
1726940529582980400,1.48698046875,0.4803009033203125,-0.3318939208984375,-0.753753662109375
1726940529592966400,1.49696630859375,0.47796630859375,-0.317474365234375,-0.7668304443359375
1726940529602952200,1.5069521484375,0.493560791015625,-0.3115081787109375,-0.768463134765625
1726940529612937500,1.5169375,0.4942474365234375,-0.2939453125,-0.753143310546875
1726940529622923300,1.52692333984375,0.5076141357421875,-0.2891845703125,-0.7520751953125
1726940529632909000,1.536908935546875,0.5272369384765625,-0.2762451171875,-0.7796478271484375
1726940529642895000,1.54689501953125,0.5476226806640625,-0.251220703125,-0.804046630859375
1726940529652881000,1.556880859375,0.5721435546875,-0.2145233154296875,-0.81396484375
1726940529662867000,1.566866943359375,0.600128173828125,-0.1847381591796875,-0.819488525390625
1726940529672852000,1.57685205078125,0.612823486328125,-0.1580963134765625,-0.8061676025390625
1726940529682838000,1.586838134765625,0.6225128173828125,-0.14129638671875,-0.7960968017578125
1726940529692823800,1.59682373046875,0.631988525390625,-0.138397216796875,-0.8034820556640625
1726940529702810000,1.60681005859375,0.6381378173828125,-0.153076171875,-0.816253662109375
1726940529712796000,1.6167958984375,0.6363067626953125,-0.17626953125,-0.8284149169921875
1726940529722781000,1.626781005859375,0.6275787353515625,-0.2031097412109375,-0.8436431884765625
1726940529732767000,1.63676708984375,0.6041259765625,-0.2351837158203125,-0.887939453125
1726940529742753000,1.6467529296875,0.5576324462890625,-0.251220703125,-0.8974609375
1726940529752739000,1.656739013671875,0.4959869384765625,-0.25665283203125,-0.85028076171875
1726940529762724900,1.666724853515625,0.4446258544921875,-0.2623443603515625,-0.813720703125
1726940529772711000,1.6767109375,0.415985107421875,-0.270782470703125,-0.8205718994140625
1726940529782696000,1.686696044921875,0.4083709716796875,-0.2967681884765625,-0.8311767578125
1726940529792682000,1.696681884765625,0.4056854248046875,-0.3216400146484375,-0.858978271484375
1726940529802667800,1.706667724609375,0.4071807861328125,-0.345947265625,-0.893402099609375
1726940529812654000,1.716654052734375,0.4132232666015625,-0.362152099609375,-0.926666259765625
1726940529822639900,1.726639892578125,0.407012939453125,-0.37713623046875,-0.9424896240234375
1726940529832626000,1.7366259765625,0.381927490234375,-0.3765106201171875,-0.9317474365234375
1726940529842611200,1.746611083984375,0.3512115478515625,-0.374755859375,-0.89013671875
1726940529852597000,1.756596923828125,0.329986572265625,-0.366790771484375,-0.833709716796875
1726940529862583000,1.7665830078125,0.32098388671875,-0.3511962890625,-0.77508544921875
1726940529872568800,1.77656884765625,0.3333740234375,-0.33050537109375,-0.7183990478515625
1726940529882555000,1.786554931640625,0.3607177734375,-0.301361083984375,-0.720306396484375
1726940529892540000,1.796539794921875,0.4060821533203125,-0.282806396484375,-0.7678375244140625
1726940529902526000,1.80652587890625,0.4438323974609375,-0.2792816162109375,-0.8394927978515625
1726940529912512000,1.816511962890625,0.466552734375,-0.2786407470703125,-0.8663482666015625
1726940529922498000,1.826498046875,0.479278564453125,-0.275115966796875,-0.8394317626953125
1726940529932483800,1.83648388671875,0.4807586669921875,-0.273193359375,-0.8348236083984375
1726940529942470100,1.84647021484375,0.483551025390625,-0.2721710205078125,-0.858917236328125
1726940529952455200,1.856455078125,0.4855194091796875,-0.269744873046875,-0.888916015625
1726940529962441000,1.86644091796875,0.482391357421875,-0.2559967041015625,-0.9403533935546875
1726940529972427000,1.876427001953125,0.504425048828125,-0.231536865234375,-1.0452423095703125
1726940529982413000,1.8864130859375,0.5328216552734375,-0.205902099609375,-1.1763153076171875
1726940529992399000,1.896399169921875,0.5427703857421875,-0.14453125,-1.2558441162109375
1726940530002385000,1.906385009765625,0.50787353515625,-0.0630340576171875,-1.2177734375
1726940530012370000,1.916369873046875,0.4561614990234375,-0.000152587890625,-1.1044769287109375
1726940530022356000,1.92635595703125,0.4389190673828125,0.03753662109375,-1.041717529296875
1726940530032342000,1.936342041015625,0.458953857421875,0.0612945556640625,-1.02496337890625
1726940530042327800,1.946327880859375,0.4724884033203125,0.0992431640625,-1.0545501708984375
1726940530052314000,1.956314208984375,0.510589599609375,0.1465911865234375,-1.08990478515625
1726940530062299100,1.966299072265625,0.5314178466796875,0.18414306640625,-1.065765380859375
1726940530072285000,1.976284912109375,0.5083465576171875,0.2077484130859375,-0.96221923828125
1726940530082271000,1.98627099609375,0.490447998046875,0.199920654296875,-0.88519287109375
1726940530092257000,1.996257080078125,0.4833221435546875,0.191558837890625,-0.8336181640625
1726940530102243000,2.0062431640625,0.4565277099609375,0.17803955078125,-0.7790069580078125
1726940530112228900,2.016228759765625,0.4556732177734375,0.1434326171875,-0.7644805908203125
1726940530122214100,2.026214111328125,0.456634521484375,0.0935516357421875,-0.7570953369140625
1726940530132200000,2.036199951171875,0.4319305419921875,0.051361083984375,-0.7349700927734375
1726940530142186000,2.04618603515625,0.40960693359375,0.0107574462890625,-0.7152252197265625
1726940530152171800,2.056171875,0.3961029052734375,-0.0329437255859375,-0.703643798828125
1726940530162158000,2.066157958984375,0.3942718505859375,-0.0745086669921875,-0.6729888916015625
1726940530172143900,2.076143798828125,0.3927001953125,-0.1007232666015625,-0.6229705810546875
1726940530182129000,2.08612890625,0.4008026123046875,-0.1389617919921875,-0.60369873046875
1726940530192115000,2.096114990234375,0.4182891845703125,-0.18902587890625,-0.635040283203125
1726940530202101000,2.10610107421875,0.436309814453125,-0.2716064453125,-0.6907806396484375
1726940530212087000,2.116087158203125,0.4380340576171875,-0.3611602783203125,-0.7667999267578125
1726940530222073000,2.126072998046875,0.462677001953125,-0.4466400146484375,-0.8109893798828125
1726940530232059000,2.136058837890625,0.5130767822265625,-0.5203857421875,-0.84716796875
1726940530242044000,2.1460439453125,0.558685302734375,-0.5887298583984375,-0.8639068603515625
1726940530252030000,2.156030029296875,0.5476531982421875,-0.5287322998046875,-0.84124755859375
1726940530262016000,2.16601611328125,0.5215911865234375,-0.3350830078125,-0.864166259765625
1726940530272002000,2.176001953125,0.50152587890625,-0.1512908935546875,-0.9002685546875
1726940530281987800,2.18598779296875,0.485809326171875,-0.03082275390625,-0.94805908203125
1726940530291972900,2.195972900390625,0.489501953125,0.037628173828125,-0.988861083984375
1726940530301959000,2.205958984375,0.4840545654296875,0.1110992431640625,-0.9987945556640625
1726940530311945000,2.215945068359375,0.51849365234375,0.181488037109375,-1.056884765625
1726940530321931000,2.225930908203125,0.543609619140625,0.2545166015625,-1.1299591064453125
1726940530331917000,2.2359169921875,0.5853118896484375,0.29486083984375,-1.1741790771484375
1726940530341902800,2.24590283203125,0.6197052001953125,0.2469635009765625,-1.16949462890625
1726940530351888000,2.255887939453125,0.60504150390625,0.17919921875,-1.0897064208984375
1726940530361874000,2.2658740234375,0.57867431640625,0.13006591796875,-1.021759033203125
1726940530371860000,2.27585986328125,0.55926513671875,0.1030120849609375,-0.9602813720703125
1726940530381846000,2.285845947265625,0.556182861328125,0.092681884765625,-0.955596923828125
1726940530391831800,2.295831787109375,0.5629425048828125,0.0821533203125,-0.9560699462890625
1726940530401818000,2.305818115234375,0.5413360595703125,0.0739593505859375,-0.895294189453125
1726940530411803000,2.315802978515625,0.50323486328125,0.0648040771484375,-0.7812652587890625
1726940530421789000,2.325788818359375,0.4683837890625,0.0404510498046875,-0.6919708251953125
1726940530431775000,2.33577490234375,0.456024169921875,-0.0013275146484375,-0.658172607421875
1726940530441761000,2.345760986328125,0.4416961669921875,-0.0489501953125,-0.658721923828125
1726940530451746800,2.355746826171875,0.426849365234375,-0.10797119140625,-0.682708740234375
1726940530461732900,2.36573291015625,0.415679931640625,-0.169677734375,-0.698638916015625
1726940530471718100,2.37571826171875,0.3847808837890625,-0.215576171875,-0.688720703125
1726940530481704000,2.385703857421875,0.3509521484375,-0.25823974609375,-0.657073974609375
1726940530491690000,2.39568994140625,0.331024169921875,-0.298980712890625,-0.6607666015625
1726940530501676000,2.405676025390625,0.3745574951171875,-0.3345794677734375,-0.752716064453125
1726940530511662000,2.415662109375,0.447296142578125,-0.3453521728515625,-0.8764495849609375
1726940530521647000,2.425647216796875,0.4881439208984375,-0.3041839599609375,-0.943267822265625
1726940530531633000,2.4356328125,0.52508544921875,-0.2443695068359375,-0.957550048828125
1726940530541619000,2.445618896484375,0.55194091796875,-0.228485107421875,-0.9656219482421875
1726940530551605000,2.45560498046875,0.5558013916015625,-0.233734130859375,-0.976318359375
1726940530561590800,2.4655908203125,0.5254058837890625,-0.2566070556640625,-0.9440460205078125
1726940530571577000,2.4755771484375,0.469390869140625,-0.2724456787109375,-0.90020751953125
1726940530581562000,2.48556201171875,0.42022705078125,-0.245849609375,-0.8940887451171875
1726940530591548000,2.4955478515625,0.41204833984375,-0.2172698974609375,-0.9372100830078125
1726940530601534000,2.505533935546875,0.43939208984375,-0.2279205322265625,-0.9655914306640625
1726940530611520000,2.51552001953125,0.4720306396484375,-0.2595977783203125,-0.981292724609375
1726940530621506000,2.525506103515625,0.49322509765625,-0.27227783203125,-0.945648193359375
1726940530631491600,2.53549169921875,0.5096893310546875,-0.2063140869140625,-0.9113616943359375
1726940530641476600,2.5454765625,0.5246429443359375,-0.1172332763671875,-0.90985107421875
1726940530651463000,2.555462890625,0.503326416015625,-0.047271728515625,-0.9317474365234375
1726940530661448700,2.56544873046875,0.445648193359375,0.0184478759765625,-0.903594970703125
1726940530671434800,2.575434814453125,0.37152099609375,0.05230712890625,-0.8092193603515625
1726940530681420800,2.5854208984375,0.335357666015625,0.0385894775390625,-0.6850433349609375
1726940530691406800,2.59540673828125,0.3417205810546875,-0.0407562255859375,-0.5790863037109375
1726940530701391600,2.6053916015625,0.40216064453125,-0.1249847412109375,-0.55023193359375
1726940530711377700,2.615377685546875,0.4834442138671875,-0.1813507080078125,-0.610748291015625
1726940530721363700,2.62536376953125,0.549224853515625,-0.229034423828125,-0.732635498046875
1726940530731349800,2.635349853515625,0.5899810791015625,-0.2349090576171875,-0.848907470703125
1726940530741335600,2.64533544921875,0.5898895263671875,-0.2076263427734375,-0.9195404052734375
1726940530751321900,2.65532177734375,0.5592041015625,-0.1965789794921875,-0.9344940185546875
1726940530761307000,2.665306884765625,0.540863037109375,-0.20098876953125,-0.962890625
1726940530771292700,2.675292724609375,0.53680419921875,-0.18377685546875,-1.03314208984375
1726940530781278700,2.68527880859375,0.5398712158203125,-0.1284332275390625,-1.0589141845703125
1726940530791264800,2.6952646484375,0.51861572265625,-0.0635223388671875,-1.0772247314453125
1726940530801250800,2.705250732421875,0.481414794921875,0.0080108642578125,-1.108734130859375
1726940530811235600,2.715235595703125,0.440155029296875,0.0368194580078125,-1.1066131591796875
1726940530821222000,2.725221923828125,0.3902130126953125,0.0385894775390625,-1.0165252685546875
1726940530831207700,2.735207763671875,0.3587799072265625,0.0406951904296875,-0.8764495849609375
1726940530841193700,2.74519384765625,0.3561248779296875,0.0114898681640625,-0.7658233642578125
1726940530851179500,2.755179443359375,0.449920654296875,-0.0422210693359375,-0.686767578125
1726940530861165800,2.765165771484375,0.4216461181640625,-0.0722503662109375,-0.6769561767578125
1726940530871150800,2.77515087890625,0.358612060546875,-0.08258056640625,-0.75006103515625
1726940530881136600,2.78513671875,0.3936920166015625,-0.1073455810546875,-0.7882080078125
1726940530891123000,2.795123046875,0.4517364501953125,-0.146270751953125,-0.794036865234375
1726940530901108700,2.805108642578125,0.5048828125,-0.1777191162109375,-0.82769775390625
1726940530911094800,2.8150947265625,0.5383453369140625,-0.194061279296875,-0.8858489990234375
1726940530921080800,2.825080810546875,0.575469970703125,-0.2154693603515625,-0.945220947265625
1726940530931065900,2.83506591796875,0.59173583984375,-0.242584228515625,-0.9738006591796875
1726940530941051600,2.8450517578125,0.5777130126953125,-0.28533935546875,-0.9459686279296875
1726940530951037700,2.85503759765625,0.5322113037109375,-0.3097686767578125,-0.87347412109375
1726940530961023700,2.865023681640625,0.489837646484375,-0.3267974853515625,-0.8029022216796875
1726940530971009800,2.875009765625,0.4645843505859375,-0.3224334716796875,-0.7294158935546875
1726940530980995600,2.88499560546875,0.4436492919921875,-0.3022003173828125,-0.653472900390625
1726940530990980600,2.894980712890625,0.46368408203125,-0.2918548583984375,-0.5865631103515625
1726940531000967000,2.904966796875,0.5540924072265625,-0.283203125,-0.579620361328125
1726940531010952700,2.91495263671875,0.6870880126953125,-0.2863616943359375,-0.69183349609375
1726940531020938800,2.924938720703125,0.80743408203125,-0.2868499755859375,-0.8275146484375
1726940531030924800,2.9349248046875,0.887451171875,-0.3069610595703125,-0.9022674560546875
1726940531040909800,2.944909912109375,0.91705322265625,-0.3401031494140625,-0.9636993408203125
1726940531050895600,2.9548955078125,0.89410400390625,-0.3580780029296875,-1.047882080078125
1726940531060881700,2.964881591796875,0.828887939453125,-0.3405609130859375,-1.168487548828125
1726940531070867700,2.97486767578125,0.7569580078125,-0.32952880859375,-1.348876953125
1726940531080853800,2.984853759765625,0.7057647705078125,-0.3414154052734375,-1.420196533203125
1726940531090839600,2.994839599609375,0.6245574951171875,-0.323638916015625,-1.3267822265625
1726940531100824800,3.004824951171875,0.551300048828125,-0.303436279296875,-1.157958984375
1726940531110811000,3.014810791015625,0.509246826171875,-0.2750244140625,-1.0089569091796875
1726940531120796700,3.024796630859375,0.50189208984375,-0.2230377197265625,-0.942230224609375
1726940531130782700,3.03478271484375,0.522705078125,-0.17626953125,-0.9615478515625
1726940531140768800,3.044768798828125,0.525238037109375,-0.125823974609375,-0.990631103515625
1726940531150754800,3.0547548828125,0.492767333984375,-0.07659912109375,-1.0084075927734375
1726940531160739600,3.064739501953125,0.4418487548828125,-0.030059814453125,-0.99273681640625
1726940531170726000,3.074725830078125,0.358642578125,0.0347442626953125,-0.91278076171875
1726940531180711700,3.084711669921875,0.287811279296875,0.0924072265625,-0.8186492919921875
1726940531190697700,3.09469775390625,0.249908447265625,0.139678955078125,-0.76025390625
1726940531200683800,3.104683837890625,0.231292724609375,0.178436279296875,-0.70745849609375
1726940531210669800,3.114669921875,0.2333984375,0.2209320068359375,-0.670867919921875
1726940531220654800,3.12465478515625,0.272003173828125,0.2413330078125,-0.6582183837890625
1726940531230640600,3.134640625,0.346954345703125,0.230926513671875,-0.6683197021484375
1726940531240626700,3.144626708984375,0.4452972412109375,0.1942901611328125,-0.7123260498046875
1726940531250612700,3.15461279296875,0.50909423828125,0.16552734375,-0.7353973388671875
1726940531260598800,3.164598876953125,0.523162841796875,0.128570556640625,-0.7144775390625
1726940531270583600,3.17458349609375,0.5457000732421875,0.099029541015625,-0.6917572021484375
1726940531280569900,3.18456982421875,0.57623291015625,0.0649261474609375,-0.7117767333984375
1726940531290555600,3.1945556640625,0.617645263671875,0.0324859619140625,-0.762451171875
1726940531300541700,3.204541748046875,0.660491943359375,-0.0096282958984375,-0.8295135498046875
1726940531310527700,3.21452783203125,0.6744232177734375,-0.0656585693359375,-0.899200439453125
1726940531320513800,3.224513671875,0.6461334228515625,-0.1140594482421875,-0.9193572998046875
1726940531330498800,3.234498779296875,0.58251953125,-0.126678466796875,-0.89495849609375
1726940531340484600,3.244484619140625,0.508209228515625,-0.1259613037109375,-0.8209686279296875
1726940531350470700,3.254470703125,0.4448699951171875,-0.1276702880859375,-0.7368316650390625
1726940531360456700,3.264456787109375,0.3953857421875,-0.12713623046875,-0.6730194091796875
1726940531370442800,3.27444287109375,0.358642578125,-0.1310882568359375,-0.6291046142578125
1726940531380428800,3.2844287109375,0.3260345458984375,-0.127960205078125,-0.611968994140625
1726940531390413800,3.294413818359375,0.3189849853515625,-0.1309356689453125,-0.6337738037109375
1726940531400399600,3.304399658203125,0.3515472412109375,-0.1455841064453125,-0.75531005859375
1726940531410385700,3.3143857421875,0.4013519287109375,-0.167572021484375,-0.92681884765625
1726940531420371700,3.324371826171875,0.436126708984375,-0.1984100341796875,-1.101531982421875
1726940531430357800,3.334357666015625,0.449676513671875,-0.2367706298828125,-1.2288970947265625
1726940531440342800,3.3443427734375,0.43023681640625,-0.2698211669921875,-1.24395751953125
1726940531450328800,3.354328857421875,0.393218994140625,-0.2918701171875,-1.185333251953125
1726940531460314600,3.364314697265625,0.3838043212890625,-0.322235107421875,-1.1349029541015625
1726940531470300700,3.37430078125,0.4069976806640625,-0.3487091064453125,-1.085357666015625
1726940531480286700,3.38428662109375,0.4024200439453125,-0.368560791015625,-1.01239013671875
1726940531490272800,3.394272705078125,0.4123687744140625,-0.3947906494140625,-0.9422760009765625
1726940531500257800,3.4042578125,0.4457244873046875,-0.4170074462890625,-0.9082183837890625
1726940531510243600,3.41424365234375,0.4669342041015625,-0.4438323974609375,-0.8851165771484375
1726940531520230000,3.42422998046875,0.4782867431640625,-0.457763671875,-0.844635009765625
1726940531530215700,3.434215576171875,0.4701995849609375,-0.4437408447265625,-0.77203369140625
1726940531540201700,3.44420166015625,0.4460906982421875,-0.4257354736328125,-0.688262939453125
1726940531550187800,3.454187744140625,0.42681884765625,-0.4077301025390625,-0.615936279296875
1726940531560172800,3.4641728515625,0.44281005859375,-0.4009246826171875,-0.601043701171875
1726940531570158800,3.474158935546875,0.4635162353515625,-0.40435791015625,-0.6281585693359375
1726940531580144600,3.48414453125,0.464874267578125,-0.40191650390625,-0.6472625732421875
1726940531590130700,3.494130615234375,0.4566192626953125,-0.4012298583984375,-0.651458740234375
1726940531600116700,3.50411669921875,0.4561004638671875,-0.401885986328125,-0.6649322509765625
1726940531610102500,3.5141025390625,0.4815521240234375,-0.4111480712890625,-0.7170562744140625
1726940531620087600,3.524087646484375,0.489959716796875,-0.422454833984375,-0.7301788330078125
1726940531630073900,3.534073974609375,0.5028533935546875,-0.4100494384765625,-0.730133056640625
1726940531640060000,3.544059814453125,0.5113983154296875,-0.3746490478515625,-0.711334228515625
1726940531650046000,3.5540458984375,0.5158233642578125,-0.3105621337890625,-0.732452392578125
1726940531660031700,3.56403173828125,0.5603485107421875,-0.28466796875,-0.74951171875
1726940531670018000,3.57401806640625,0.624725341796875,-0.2943267822265625,-0.7769012451171875
1726940531680002800,3.5840029296875,0.6905364990234375,-0.3146209716796875,-0.876312255859375
1726940531689988900,3.59398876953125,0.7603302001953125,-0.316864013671875,-0.902801513671875
1726940531699974700,3.603974609375,0.789337158203125,-0.3017425537109375,-0.9041748046875
1726940531709961000,3.6139609375,0.782958984375,-0.2934417724609375,-0.8932952880859375
1726940531719946800,3.62394677734375,0.7513275146484375,-0.3049163818359375,-0.8751220703125
1726940531729931800,3.633931884765625,0.793792724609375,-0.32904052734375,-0.858001708984375
1726940531739918000,3.64391796875,0.86187744140625,-0.328521728515625,-0.9120941162109375
1726940531749904000,3.65390380859375,0.879669189453125,-0.27734375,-1.03070068359375
1726940531759890000,3.663889892578125,0.764373779296875,-0.1741485595703125,-1.12164306640625
1726940531769875700,3.673875732421875,0.6390838623046875,-0.099609375,-1.1140289306640625
1726940531779862000,3.683862060546875,0.53167724609375,-0.08026123046875,-1.0104827880859375
1726940531789846800,3.6938466796875,0.4632720947265625,-0.1372222900390625,-0.8765411376953125
1726940531799832800,3.703832763671875,0.48577880859375,-0.241180419921875,-0.754974365234375
1726940531809819000,3.71381884765625,0.484527587890625,-0.32513427734375,-0.6544342041015625
1726940531819805000,3.723804931640625,0.4718780517578125,-0.3907623291015625,-0.5392303466796875
1726940531829790700,3.733790771484375,0.4472808837890625,-0.42529296875,-0.419708251953125
1726940531839777000,3.743777099609375,0.393951416015625,-0.4662628173828125,-0.30322265625
1726940531849762000,3.753761962890625,0.343017578125,-0.494354248046875,-0.2491302490234375
1726940531859747800,3.763747802734375,0.325531005859375,-0.5147247314453125,-0.2741241455078125
1726940531869734000,3.77373388671875,0.3047637939453125,-0.5423431396484375,-0.3618316650390625
1726940531879720000,3.783719970703125,0.2585601806640625,-0.5341033935546875,-0.489959716796875
1726940531889706000,3.7937060546875,0.2634124755859375,-0.514862060546875,-0.6199188232421875
1726940531899690800,3.803690673828125,0.3042755126953125,-0.517669677734375,-0.732269287109375
1726940531909676800,3.8136767578125,0.3511962890625,-0.5195770263671875,-0.85736083984375
1726940531919662800,3.823662841796875,0.4253997802734375,-0.5353851318359375,-0.92333984375
1726940531929649000,3.83364892578125,0.401031494140625,-0.5609588623046875,-0.926116943359375
1726940531939634700,3.843634765625,0.383056640625,-0.5696258544921875,-0.8929901123046875
1726940531949621000,3.85362109375,0.390167236328125,-0.556060791015625,-0.8730010986328125
1726940531959606000,3.86360595703125,0.3731842041015625,-0.5285491943359375,-0.8881988525390625
1726940531969591800,3.873591796875,0.3682861328125,-0.5,-0.9015350341796875
1726940531979577900,3.883577880859375,0.390228271484375,-0.475128173828125,-0.882659912109375
1726940531989564000,3.89356396484375,0.394134521484375,-0.42755126953125,-0.842071533203125
1726940531999550000,3.903550048828125,0.3574981689453125,-0.37628173828125,-0.8246002197265625
1726940532009535700,3.91353564453125,0.4071044921875,-0.3624114990234375,-0.82244873046875
1726940532019521000,3.92352099609375,0.4198760986328125,-0.326812744140625,-0.814056396484375
1726940532029506800,3.9335068359375,0.3845977783203125,-0.2715911865234375,-0.8239593505859375
1726940532039492900,3.943492919921875,0.3723297119140625,-0.226654052734375,-0.8461151123046875
1726940532049478700,3.953478759765625,0.4193267822265625,-0.2078399658203125,-0.8744964599609375
1726940532059465000,3.96346484375,0.461181640625,-0.229034423828125,-0.8938140869140625
1726940532069450800,3.97345068359375,0.4987335205078125,-0.306640625,-0.8880157470703125
1726940532079435800,3.983435791015625,0.525909423828125,-0.3951873779296875,-0.9007720947265625
1726940532089422000,3.993422119140625,0.4762115478515625,-0.430572509765625,-0.91082763671875
1726940532099408000,4.003407958984375,0.4031524658203125,-0.4477386474609375,-0.9182891845703125
1726940532109394000,4.013393798828125,0.361663818359375,-0.4701995849609375,-0.9183197021484375
1726940532119380000,4.0233798828125,0.3561248779296875,-0.5094757080078125,-0.904754638671875
1726940532129365000,4.033364990234375,0.3601226806640625,-0.5316314697265625,-0.87493896484375
1726940532139350800,4.043350830078125,0.3752288818359375,-0.5363311767578125,-0.8883514404296875
1726940532149336800,4.0533369140625,0.39404296875,-0.5053253173828125,-0.901123046875
1726940532159323000,4.063322998046875,0.4012908935546875,-0.433441162109375,-0.8784942626953125
1726940532169309000,4.073308837890625,0.43865966796875,-0.3896026611328125,-0.8242034912109375
1726940532179294700,4.083294677734375,0.44232177734375,-0.3649749755859375,-0.7467193603515625
1726940532189279700,4.09327978515625,0.4463348388671875,-0.3316802978515625,-0.7263031005859375
1726940532199266000,4.10326611328125,0.459442138671875,-0.321075439453125,-0.7129058837890625
1726940532209251800,4.113251953125,0.4225311279296875,-0.3372955322265625,-0.6923370361328125
1726940532219238000,4.12323779296875,0.38409423828125,-0.3341522216796875,-0.6634674072265625
1726940532229224000,4.133223876953125,0.3973236083984375,-0.3706512451171875,-0.63037109375
1726940532239210000,4.1432099609375,0.38531494140625,-0.390167236328125,-0.5590972900390625
1726940532249194800,4.15319482421875,0.3857574462890625,-0.394378662109375,-0.5372467041015625
1726940532259180800,4.163180908203125,0.37420654296875,-0.4173431396484375,-0.5767822265625
1726940532269166800,4.173166748046875,0.4053497314453125,-0.438751220703125,-0.65234375
1726940532279153000,4.18315283203125,0.406494140625,-0.478302001953125,-0.7616424560546875
1726940532289138700,4.193138671875,0.410186767578125,-0.5274810791015625,-0.879119873046875
1726940532299123700,4.203123779296875,0.449493408203125,-0.5680694580078125,-0.9988250732421875
1726940532309110000,4.213110107421875,0.47137451171875,-0.5657196044921875,-1.03564453125
1726940532319095800,4.223095703125,0.4476318359375,-0.5290679931640625,-0.9692840576171875
1726940532329081900,4.233081787109375,0.4105377197265625,-0.4782257080078125,-0.88397216796875
1726940532339068000,4.24306787109375,0.380218505859375,-0.42559814453125,-0.8130645751953125
1726940532349054000,4.253053955078125,0.359283447265625,-0.3659210205078125,-0.741546630859375
1726940532359038700,4.263038818359375,0.376922607421875,-0.33209228515625,-0.71563720703125
1726940532369025000,4.27302490234375,0.4177703857421875,-0.3164825439453125,-0.72174072265625
1726940532379010800,4.2830107421875,0.449432373046875,-0.30364990234375,-0.7366790771484375
1726940532388996900,4.292996826171875,0.4639129638671875,-0.291168212890625,-0.743408203125
1726940532398982700,4.302982666015625,0.480926513671875,-0.2872772216796875,-0.752471923828125
1726940532408969000,4.312968994140625,0.48773193359375,-0.296783447265625,-0.7677764892578125
1726940532418954000,4.3229541015625,0.478729248046875,-0.3045654296875,-0.77838134765625
1726940532428939800,4.332939697265625,0.4835205078125,-0.3000946044921875,-0.783172607421875
1726940532438926000,4.342926025390625,0.5104522705078125,-0.2865753173828125,-0.7943572998046875
1726940532448912000,4.352911865234375,0.5315704345703125,-0.2683258056640625,-0.79547119140625
1726940532458898000,4.36289794921875,0.53985595703125,-0.258148193359375,-0.78924560546875
1726940532468884000,4.372884033203125,0.554931640625,-0.278106689453125,-0.7950592041015625
1726940532478869000,4.382868896484375,0.5704345703125,-0.3003082275390625,-0.7955474853515625
1726940532488854800,4.392854736328125,0.58087158203125,-0.3286590576171875,-0.7906951904296875
1726940532498840800,4.4028408203125,0.575531005859375,-0.3558502197265625,-0.78900146484375
1726940532508827000,4.412826904296875,0.577484130859375,-0.3792724609375,-0.793212890625
1726940532518813000,4.42281298828125,0.55096435546875,-0.379852294921875,-0.787750244140625
1726940532528798000,4.4327978515625,0.54638671875,-0.38037109375,-0.782012939453125
1726940532538783700,4.44278369140625,0.5460205078125,-0.360321044921875,-0.7662506103515625
1726940532548770000,4.45277001953125,0.5446929931640625,-0.3541107177734375,-0.7786865234375
1726940532558755800,4.462755859375,0.555694580078125,-0.3516998291015625,-0.8083343505859375
1726940532568742000,4.472741943359375,0.5619964599609375,-0.3729248046875,-0.8385467529296875
1726940532578728000,4.48272802734375,0.5503082275390625,-0.3991546630859375,-0.846343994140625
1726940532588713000,4.492712890625,0.535400390625,-0.408111572265625,-0.8211212158203125
1726940532598698800,4.50269873046875,0.5088653564453125,-0.40692138671875,-0.7791290283203125
1726940532608684800,4.512684814453125,0.4957427978515625,-0.40362548828125,-0.748382568359375
1726940532618670800,4.5226708984375,0.4901275634765625,-0.38214111328125,-0.7510833740234375
1726940532628657000,4.532656982421875,0.4892578125,-0.33941650390625,-0.773162841796875
1726940532638642700,4.542642578125,0.50946044921875,-0.2900543212890625,-0.842926025390625
1726940532648627700,4.552627685546875,0.5348052978515625,-0.2286529541015625,-0.9059600830078125
1726940532658613800,4.56261376953125,0.51495361328125,-0.155364990234375,-0.941650390625
1726940532668599600,4.572599609375,0.47412109375,-0.0869598388671875,-0.94561767578125
1726940532678585900,4.5825859375,0.4253692626953125,-0.045013427734375,-0.9357452392578125
1726940532688571600,4.592571533203125,0.4122467041015625,-0.025146484375,-0.9296875
1726940532698556700,4.602556640625,0.4154510498046875,-0.0358123779296875,-0.9315032958984375
1726940532708542700,4.612542724609375,0.413482666015625,-0.059967041015625,-0.9191131591796875
1726940532718528800,4.62252880859375,0.4333648681640625,-0.077239990234375,-0.907012939453125
1726940532728514600,4.6325146484375,0.486114501953125,-0.0854034423828125,-0.9030609130859375
1726940532738500600,4.64250048828125,0.5619659423828125,-0.0925140380859375,-0.8996734619140625
1726940532748486700,4.652486572265625,0.6140899658203125,-0.1075439453125,-0.8918914794921875
1726940532758471700,4.6624716796875,0.6523284912109375,-0.1148223876953125,-0.8288421630859375
1726940532768457700,4.672457763671875,0.669952392578125,-0.1370697021484375,-0.7601318359375
1726940532778443800,4.68244384765625,0.67999267578125,-0.1804656982421875,-0.716278076171875
1726940532788429800,4.692429931640625,0.6805419921875,-0.2376251220703125,-0.6755523681640625
1726940532798415600,4.70241552734375,0.6842041015625,-0.3098602294921875,-0.6576385498046875
1726940532808402000,4.71240185546875,0.6876220703125,-0.3956298828125,-0.6775970458984375
1726940532818386700,4.72238671875,0.6884002685546875,-0.46942138671875,-0.7149505615234375
1726940532828372700,4.732372802734375,0.6637115478515625,-0.5005645751953125,-0.762725830078125
1726940532838358500,4.742358642578125,0.6179046630859375,-0.4485626220703125,-0.8026123046875
1726940532848344800,4.7523447265625,0.566558837890625,-0.355377197265625,-0.815399169921875
1726940532858330600,4.76233056640625,0.533660888671875,-0.2703399658203125,-0.78399658203125
1726940532868316700,4.772316650390625,0.5225982666015625,-0.2261962890625,-0.7505035400390625
1726940532878301700,4.7823017578125,0.5147705078125,-0.22235107421875,-0.740142822265625
1726940532888287700,4.792287841796875,0.5237579345703125,-0.2496185302734375,-0.737152099609375
1726940532898273800,4.802273681640625,0.5253448486328125,-0.278900146484375,-0.7605743408203125
1726940532908259600,4.812259521484375,0.5200347900390625,-0.2787017822265625,-0.7939453125
1726940532918246000,4.822245849609375,0.5053253173828125,-0.2663726806640625,-0.8146209716796875
1726940532928231700,4.832231689453125,0.5106353759765625,-0.2411041259765625,-0.836395263671875
1726940532938216700,4.842216796875,0.5448760986328125,-0.2115478515625,-0.8387298583984375
1726940532948202500,4.852202392578125,0.58294677734375,-0.2017669677734375,-0.83282470703125
1726940532958188800,4.862188720703125,0.617431640625,-0.2075958251953125,-0.830322265625
1726940532968174600,4.872174560546875,0.6336212158203125,-0.2342987060546875,-0.82000732421875
1726940532978160600,4.88216064453125,0.629730224609375,-0.2747955322265625,-0.790130615234375
1726940532988146700,4.892146728515625,0.6248321533203125,-0.3276519775390625,-0.7476806640625
1726940532998131700,4.902131591796875,0.6293792724609375,-0.389495849609375,-0.71148681640625
1726940533008117800,4.91211767578125,0.61676025390625,-0.430816650390625,-0.665771484375
1726940533018103600,4.922103515625,0.5832977294921875,-0.435943603515625,-0.62103271484375
1726940533028089900,4.93208984375,0.553314208984375,-0.4112548828125,-0.610107421875
1726940533038075600,4.94207568359375,0.515289306640625,-0.3430023193359375,-0.625396728515625
1726940533048060700,4.952060791015625,0.4974365234375,-0.23980712890625,-0.63494873046875
1726940533058046700,4.962046630859375,0.4976806640625,-0.1627044677734375,-0.634368896484375
1726940533068032800,4.97203271484375,0.516143798828125,-0.132598876953125,-0.630767822265625
1726940533078018600,4.9820185546875,0.5531005859375,-0.1389617919921875,-0.6655731201171875
1726940533088004900,4.9920048828125,0.6069793701171875,-0.1656341552734375,-0.727874755859375
1726940533097990700,5.00199072265625,0.6703643798828125,-0.2162322998046875,-0.8255462646484375
1726940533107975700,5.0119755859375,0.7654571533203125,-0.2576751708984375,-0.970245361328125
1726940533117961700,5.021961669921875,0.7991485595703125,-0.263885498046875,-1.03887939453125
1726940533127947800,5.03194775390625,0.773406982421875,-0.2450408935546875,-1.0305938720703125
1726940533137933800,5.041933837890625,0.7069091796875,-0.214447021484375,-0.94696044921875
1726940533147919600,5.051919677734375,0.6531982421875,-0.1815948486328125,-0.886138916015625
1726940533157906000,5.061906005859375,0.662384033203125,-0.1620635986328125,-0.8545684814453125
1726940533167890700,5.071890625,0.6529693603515625,-0.1574859619140625,-0.8488616943359375
1726940533177876700,5.081876708984375,0.6620025634765625,-0.16534423828125,-0.8296661376953125
1726940533187862500,5.091862548828125,0.657379150390625,-0.183746337890625,-0.798675537109375
1726940533197848800,5.101848876953125,0.6586151123046875,-0.19366455078125,-0.7644195556640625
1726940533207834600,5.111834716796875,0.66461181640625,-0.2018890380859375,-0.7271728515625
1726940533217820700,5.121820556640625,0.665252685546875,-0.225067138671875,-0.6857147216796875
1726940533227805700,5.1318056640625,0.657012939453125,-0.246673583984375,-0.6537628173828125
1726940533237791700,5.141791748046875,0.6292724609375,-0.2823028564453125,-0.6069183349609375
1726940533247777800,5.15177783203125,0.5822296142578125,-0.3043212890625,-0.54779052734375
1726940533257763600,5.161763671875,0.557708740234375,-0.3023681640625,-0.5116424560546875
1726940533267750000,5.17175,0.5419464111328125,-0.292755126953125,-0.5047760009765625
1726940533277735700,5.181735595703125,0.5460205078125,-0.278045654296875,-0.53326416015625
1726940533287720700,5.191720703125,0.5631561279296875,-0.2557525634765625,-0.58831787109375
1726940533297706500,5.20170654296875,0.6005706787109375,-0.2316131591796875,-0.671661376953125
1726940533307692800,5.21169287109375,0.6421966552734375,-0.222930908203125,-0.7467193603515625
1726940533317678600,5.2216787109375,0.6480560302734375,-0.2357940673828125,-0.793914794921875
1726940533327664600,5.23166455078125,0.6426544189453125,-0.262939453125,-0.7905731201171875
1726940533337650000,5.24164990234375,0.6577301025390625,-0.3021392822265625,-0.7761688232421875
1726940533347635700,5.2516357421875,0.6716156005859375,-0.35430908203125,-0.758056640625
1726940533357621800,5.261621826171875,0.670166015625,-0.403778076171875,-0.7422943115234375
1726940533367607800,5.27160791015625,0.6844024658203125,-0.4585418701171875,-0.7270355224609375
1726940533377593900,5.28159375,0.6899871826171875,-0.4775238037109375,-0.6975555419921875
1726940533387579600,5.29157958984375,0.682708740234375,-0.4455718994140625,-0.6912994384765625
1726940533397564700,5.301564697265625,0.67401123046875,-0.3864288330078125,-0.7062835693359375
1726940533407550700,5.31155078125,0.6697845458984375,-0.307373046875,-0.753143310546875
1726940533417536800,5.321536865234375,0.689208984375,-0.2477569580078125,-0.816436767578125
1726940533427522600,5.3315224609375,0.6904144287109375,-0.2018890380859375,-0.90838623046875
1726940533437508900,5.3415087890625,0.684844970703125,-0.1590576171875,-0.9476776123046875
1726940533447494700,5.35149462890625,0.66632080078125,-0.1159210205078125,-0.954193115234375
1726940533457479700,5.361479736328125,0.6417694091796875,-0.0677032470703125,-0.91571044921875
1726940533467465700,5.3714658203125,0.6546173095703125,-0.0445404052734375,-0.9007110595703125
1726940533477451800,5.38145166015625,0.6449127197265625,-0.0472259521484375,-0.8674163818359375
1726940533487437800,5.391437744140625,0.61865234375,-0.0775146484375,-0.79327392578125
1726940533497423600,5.401423583984375,0.568572998046875,-0.1042938232421875,-0.731658935546875
1726940533507410000,5.411409912109375,0.5280914306640625,-0.114654541015625,-0.7239532470703125
1726940533517394700,5.421394775390625,0.5045166015625,-0.1262359619140625,-0.7284698486328125
1726940533527380700,5.431380615234375,0.5109710693359375,-0.114532470703125,-0.73382568359375
1726940533537366500,5.441366455078125,0.5161895751953125,-0.0877685546875,-0.7589569091796875
1726940533547352800,5.451352783203125,0.479766845703125,-0.0539703369140625,-0.7834625244140625
1726940533557338600,5.461338623046875,0.4815673828125,-0.0251007080078125,-0.81365966796875
1726940533567323600,5.47132373046875,0.4929656982421875,0.008941650390625,-0.822021484375
1726940533577309700,5.481309814453125,0.48687744140625,0.017822265625,-0.82171630859375
1726940533587295700,5.491295654296875,0.52099609375,-0.0014801025390625,-0.838409423828125
1726940533597281800,5.50128173828125,0.5478973388671875,-0.033111572265625,-0.861236572265625
1726940533607267600,5.511267578125,0.553192138671875,-0.048980712890625,-0.85223388671875
1726940533617254000,5.52125390625,0.5359039306640625,-0.061981201171875,-0.84503173828125
1726940533627239700,5.53123974609375,0.49688720703125,-0.076995849609375,-0.7966156005859375
1726940533637225700,5.541225830078125,0.4827880859375,-0.103729248046875,-0.7563629150390625
1726940533647211500,5.55121142578125,0.49609375,-0.128265380859375,-0.72662353515625
1726940533657197600,5.561197509765625,0.5280914306640625,-0.1394195556640625,-0.6961822509765625
1726940533667183600,5.57118359375,0.53741455078125,-0.1291961669921875,-0.6888885498046875
1726940533677169700,5.581169677734375,0.5484771728515625,-0.08673095703125,-0.6920318603515625
1726940533687154400,5.591154541015625,0.577301025390625,-0.059112548828125,-0.7525482177734375
1726940533697140700,5.601140625,0.608184814453125,-0.046234130859375,-0.85723876953125
1726940533707126500,5.61112646484375,0.592926025390625,-0.0184326171875,-0.91802978515625
1726940533717112600,5.621112548828125,0.4985198974609375,-0.025115966796875,-0.9109649658203125
1726940533727098600,5.6310986328125,0.4997100830078125,-0.02069091796875,-0.910888671875
1726940533737084700,5.641084716796875,0.4972381591796875,-0.0423431396484375,-0.894256591796875
1726940533747069700,5.651069580078125,0.504547119140625,-0.10272216796875,-0.8964080810546875
1726940533757055500,5.661055419921875,0.523284912109375,-0.162933349609375,-0.9461517333984375
1726940533767041800,5.671041748046875,0.4875640869140625,-0.1873931884765625,-0.9303741455078125
1726940533777027600,5.681027587890625,0.4901275634765625,-0.1495819091796875,-0.9254302978515625
1726940533787013600,5.691013671875,0.5090179443359375,-0.0852203369140625,-0.9389495849609375
1726940533796999700,5.700999755859375,0.5050811767578125,-0.024932861328125,-0.91387939453125
1726940533806984700,5.710984619140625,0.497650146484375,-0.003936767578125,-0.8460540771484375
1726940533816970500,5.720970458984375,0.49273681640625,-0.00408935546875,-0.80841064453125
1726940533826956500,5.73095654296875,0.512847900390625,0.0110321044921875,-0.784637451171875
1726940533836942600,5.740942626953125,0.5649871826171875,0.0204010009765625,-0.7779693603515625
1726940533846928600,5.7509287109375,0.604095458984375,-0.00146484375,-0.79766845703125
1726940533856914400,5.76091455078125,0.602203369140625,-0.073822021484375,-0.8239288330078125
1726940533866899500,5.7708994140625,0.580657958984375,-0.14794921875,-0.80523681640625
1726940533876885800,5.7808857421875,0.5620880126953125,-0.1631011962890625,-0.7958221435546875
1726940533886871600,5.79087158203125,0.553802490234375,-0.14422607421875,-0.7999420166015625
1726940533896857600,5.800857666015625,0.5572052001953125,-0.1244659423828125,-0.810699462890625
1726940533906843600,5.81084375,0.555145263671875,-0.1103363037109375,-0.80084228515625
1726940533916829700,5.82082958984375,0.5590362548828125,-0.1082763671875,-0.7978668212890625
1726940533926814500,5.830814453125,0.5694427490234375,-0.0937957763671875,-0.797943115234375
1726940533936800500,5.840800537109375,0.578887939453125,-0.076904296875,-0.7904205322265625
1726940533946786600,5.85078662109375,0.5903167724609375,-0.0620574951171875,-0.7661285400390625
1726940533956772600,5.860772705078125,0.60321044921875,-0.0475311279296875,-0.768707275390625
1726940533966758400,5.87075830078125,0.614471435546875,-0.0366363525390625,-0.7947845458984375
1726940533976744700,5.88074462890625,0.621673583984375,-0.0438385009765625,-0.8057403564453125
1726940533986729700,5.890729736328125,0.6194305419921875,-0.060150146484375,-0.8052825927734375
1726940533996715500,5.900715576171875,0.6055908203125,-0.07037353515625,-0.7980499267578125
1726940534006701800,5.910701904296875,0.5962066650390625,-0.06591796875,-0.793792724609375
1726940534016687600,5.9206875,0.596343994140625,-0.0672149658203125,-0.8025970458984375
1726940534026673700,5.930673583984375,0.5996551513671875,-0.068145751953125,-0.802642822265625
1726940534036658400,5.940658447265625,0.618682861328125,-0.0984039306640625,-0.8255615234375
1726940534046644700,5.950644775390625,0.64208984375,-0.1311798095703125,-0.828155517578125
1726940534056630500,5.960630615234375,0.6683349609375,-0.1768646240234375,-0.834625244140625
1726940534066616600,5.970616455078125,0.702667236328125,-0.2192535400390625,-0.86004638671875
1726940534076602600,5.9806025390625,0.717437744140625,-0.26422119140625,-0.84967041015625
1726940534086588700,5.990588623046875,0.7003936767578125,-0.2982635498046875,-0.7895660400390625
1726940534096574500,6.000574462890625,0.659210205078125,-0.3233489990234375,-0.714385986328125
1726940534106559500,6.0105595703125,0.6179046630859375,-0.3314056396484375,-0.6239013671875
1726940534116545800,6.0205458984375,0.61944580078125,-0.335845947265625,-0.58709716796875
1726940534126531600,6.030531494140625,0.6322784423828125,-0.3362579345703125,-0.5789794921875
1726940534136517600,6.040517578125,0.6728057861328125,-0.3307952880859375,-0.5920867919921875
1726940534146503700,6.050503662109375,0.707763671875,-0.3073577880859375,-0.632659912109375
1726940534156488700,6.06048876953125,0.718017578125,-0.2554473876953125,-0.66888427734375
1726940534166474500,6.070474609375,0.7042083740234375,-0.19842529296875,-0.670257568359375
1726940534176460500,6.08046044921875,0.7128753662109375,-0.147003173828125,-0.687591552734375
1726940534186446600,6.090446533203125,0.7544403076171875,-0.1135406494140625,-0.716583251953125
1726940534196432600,6.1004326171875,0.7930908203125,-0.09423828125,-0.73529052734375
1726940534206418400,6.11041845703125,0.7915496826171875,-0.0765838623046875,-0.7223358154296875
1726940534216403500,6.120403564453125,0.795654296875,-0.061187744140625,-0.705535888671875
1726940534226389800,6.1303896484375,0.8183441162109375,-0.05078125,-0.720611572265625
1726940534236375600,6.14037548828125,0.8203277587890625,-0.0293426513671875,-0.725311279296875
1726940534246361600,6.150361572265625,0.794769287109375,0.001220703125,-0.7152099609375
1726940534256347600,6.16034765625,0.74261474609375,0.0294647216796875,-0.6847381591796875
1726940534266333700,6.170333740234375,0.6934967041015625,0.0462493896484375,-0.6306610107421875
1726940534276318500,6.180318359375,0.6858978271484375,0.034912109375,-0.6060638427734375
1726940534286304500,6.190304443359375,0.69183349609375,0.0109710693359375,-0.60101318359375
1726940534296290600,6.20029052734375,0.6851959228515625,-0.0159454345703125,-0.590911865234375
1726940534306276600,6.210276611328125,0.687347412109375,-0.0452117919921875,-0.60577392578125
1726940534316262400,6.220262451171875,0.6742401123046875,-0.0786590576171875,-0.625640869140625
1726940534326248700,6.230248779296875,0.63433837890625,-0.0952301025390625,-0.6386566162109375
1726940534336233700,6.240233642578125,0.6055145263671875,-0.124298095703125,-0.6463623046875
1726940534346219500,6.250219482421875,0.5838165283203125,-0.1562652587890625,-0.660064697265625
1726940534356205800,6.260205810546875,0.5571441650390625,-0.174835205078125,-0.6797637939453125
1726940534366191600,6.270191650390625,0.5423431396484375,-0.197723388671875,-0.69744873046875
1726940534376177700,6.280177734375,0.569000244140625,-0.2266693115234375,-0.771636962890625
1726940534386163500,6.29016357421875,0.6161651611328125,-0.2557373046875,-0.85321044921875
1726940534396148700,6.300148681640625,0.6264801025390625,-0.2737274169921875,-0.9256744384765625
1726940534406134500,6.310134521484375,0.618499755859375,-0.2771453857421875,-0.9798583984375
1726940534416120600,6.32012060546875,0.5777435302734375,-0.2787322998046875,-0.974639892578125
1726940534426106600,6.330106689453125,0.530487060546875,-0.287109375,-0.93310546875
1726940534436092700,6.3400927734375,0.4931488037109375,-0.2982177734375,-0.87884521484375
1726940534446078500,6.350078369140625,0.46954345703125,-0.29656982421875,-0.8248138427734375
1726940534456063500,6.3600634765625,0.4603118896484375,-0.2886810302734375,-0.799957275390625
1726940534466049800,6.3700498046875,0.467803955078125,-0.28289794921875,-0.8045501708984375
1726940534476035600,6.38003564453125,0.501495361328125,-0.2771759033203125,-0.8239898681640625
1726940534486021600,6.390021728515625,0.523468017578125,-0.2869720458984375,-0.8260345458984375
1726940534496007700,6.400007568359375,0.5245819091796875,-0.3043060302734375,-0.7894287109375
1726940534505992700,6.40999267578125,0.5437164306640625,-0.3104705810546875,-0.7723541259765625
1726940534515978500,6.419978515625,0.5675506591796875,-0.3148956298828125,-0.77197265625
1726940534525964500,6.429964599609375,0.6071319580078125,-0.314453125,-0.7851409912109375
1726940534535950600,6.43995068359375,0.667083740234375,-0.3211822509765625,-0.8043060302734375
1726940534545936600,6.4499365234375,0.7268829345703125,-0.3208770751953125,-0.812896728515625
1726940534555922400,6.45992236328125,0.7690277099609375,-0.3135833740234375,-0.8114166259765625
1726940534565907500,6.469907470703125,0.8228912353515625,-0.2975921630859375,-0.7988739013671875
1726940534575893800,6.479893798828125,0.8797454833984375,-0.28497314453125,-0.78631591796875
1726940534585879600,6.489879638671875,0.8841400146484375,-0.2841339111328125,-0.808013916015625
1726940534595865600,6.499865478515625,0.87518310546875,-0.2900543212890625,-0.878631591796875
1726940534605851600,6.5098515625,0.8179931640625,-0.2695770263671875,-0.9710693359375
1726940534615837700,6.519837646484375,0.80950927734375,-0.247589111328125,-1.038177490234375
1726940534625822500,6.529822509765625,0.792327880859375,-0.2142791748046875,-1.0198211669921875
1726940534635808300,6.539808349609375,0.7606048583984375,-0.189422607421875,-0.9966888427734375
1726940534645794300,6.549794189453125,0.73529052734375,-0.169158935546875,-0.9784088134765625
1726940534655780400,6.5597802734375,0.6862640380859375,-0.130523681640625,-0.9349365234375
1726940534665766100,6.56976611328125,0.586761474609375,-0.10052490234375,-0.846221923828125
1726940534675752400,6.57975244140625,0.5171051025390625,-0.0933380126953125,-0.7134552001953125
1726940534685737500,6.589737548828125,0.4914398193359375,-0.097015380859375,-0.601959228515625
1726940534695723300,6.59972314453125,0.4890899658203125,-0.117218017578125,-0.4820709228515625
1726940534705709600,6.60970947265625,0.471710205078125,-0.14556884765625,-0.357147216796875
1726940534715695400,6.6196953125,0.48565673828125,-0.1743621826171875,-0.2922821044921875
1726940534725681400,6.629681396484375,0.5138702392578125,-0.195281982421875,-0.320770263671875
1726940534735667200,6.639667236328125,0.4947662353515625,-0.2046051025390625,-0.3693695068359375
1726940534745652500,6.649652587890625,0.442901611328125,-0.209136962890625,-0.400665283203125
1726940534755638300,6.65963818359375,0.44891357421875,-0.2265472412109375,-0.432647705078125
1726940534765624300,6.669624267578125,0.5114593505859375,-0.239227294921875,-0.4738922119140625
1726940534775610400,6.6796103515625,0.5768585205078125,-0.255157470703125,-0.5398712158203125
1726940534785596400,6.689596435546875,0.6314849853515625,-0.2895355224609375,-0.5634002685546875
1726940534795582200,6.699582275390625,0.6804351806640625,-0.31695556640625,-0.5680694580078125
1726940534805567200,6.709567138671875,0.717437744140625,-0.35784912109375,-0.595672607421875
1726940534815553500,6.719553466796875,0.73455810546875,-0.3962860107421875,-0.653900146484375
1726940534825539300,6.729539306640625,0.7396392822265625,-0.4318695068359375,-0.71893310546875
1726940534835525400,6.739525390625,0.7500762939453125,-0.4830322265625,-0.7624359130859375
1726940534845511400,6.749511474609375,0.7471466064453125,-0.4979095458984375,-0.763397216796875
1726940534855497500,6.75949755859375,0.7704925537109375,-0.515289306640625,-0.759002685546875
1726940534865482200,6.769482177734375,0.776214599609375,-0.4994354248046875,-0.7054595947265625
1726940534875468300,6.77946826171875,0.778533935546875,-0.430511474609375,-0.608856201171875
1726940534885454300,6.789454345703125,0.7589263916015625,-0.3535003662109375,-0.5553131103515625
1726940534895440400,6.7994404296875,0.726165771484375,-0.31024169921875,-0.563934326171875
1726940534905426200,6.80942626953125,0.7052459716796875,-0.275115966796875,-0.5632476806640625
1726940534915412500,6.81941259765625,0.694305419921875,-0.2451019287109375,-0.551971435546875
1726940534925397500,6.8293974609375,0.7022857666015625,-0.22357177734375,-0.5454254150390625
1726940534935383300,6.83938330078125,0.7421417236328125,-0.2089385986328125,-0.5259857177734375
1726940534945369300,6.849369384765625,0.7789764404296875,-0.2227630615234375,-0.5565643310546875
1726940534955355400,6.85935546875,0.801666259765625,-0.26336669921875,-0.605682373046875
1726940534965341400,6.869341552734375,0.79571533203125,-0.285797119140625,-0.6204681396484375
1726940534975327200,6.8793271484375,0.81817626953125,-0.306243896484375,-0.6517791748046875
1726940534985312300,6.889312255859375,0.8003997802734375,-0.30291748046875,-0.6638031005859375
1726940534995298300,6.89929833984375,0.7884063720703125,-0.2817230224609375,-0.631805419921875
1726940535005284400,6.909284423828125,0.7812957763671875,-0.2742462158203125,-0.6078948974609375
1726940535015270100,6.919270263671875,0.730194091796875,-0.2757720947265625,-0.6448516845703125
1726940535025256400,6.92925634765625,0.72314453125,-0.2759552001953125,-0.6909637451171875
1726940535035242200,6.9392421875,0.7977447509765625,-0.2942962646484375,-0.6661376953125
1726940535045227300,6.949227294921875,0.7566680908203125,-0.323394775390625,-0.6965179443359375
1726940535055213600,6.959213623046875,0.71734619140625,-0.311676025390625,-0.712860107421875
1726940535065199400,6.969199462890625,0.7104644775390625,-0.2770538330078125,-0.66448974609375
1726940535075185400,6.979185302734375,0.6791839599609375,-0.2439422607421875,-0.624267578125
1726940535085171200,6.989171142578125,0.6802978515625,-0.2016448974609375,-0.5622406005859375
1726940535095157500,6.999157470703125,0.7274017333984375,-0.1753082275390625,-0.53131103515625
1726940535105142300,7.009142333984375,0.7898101806640625,-0.1794281005859375,-0.540435791015625
1726940535115128300,7.01912841796875,0.855743408203125,-0.1934661865234375,-0.5797271728515625
1726940535125114400,7.0291142578125,0.917694091796875,-0.2093353271484375,-0.6125335693359375
1726940535135100400,7.039100341796875,0.9848785400390625,-0.252471923828125,-0.5778350830078125
1726940535145086200,7.049086181640625,1.019805908203125,-0.2757568359375,-0.566253662109375
1726940535155071200,7.0590712890625,0.985198974609375,-0.27984619140625,-0.57733154296875
1726940535165057500,7.0690576171875,0.9146270751953125,-0.2552642822265625,-0.5797271728515625
1726940535175043300,7.079043212890625,0.88409423828125,-0.2485809326171875,-0.6095733642578125
1726940535185029400,7.089029296875,0.9291534423828125,-0.2629852294921875,-0.6543121337890625
1726940535195015400,7.099015380859375,1.0140838623046875,-0.2824859619140625,-0.714508056640625
1726940535205001500,7.10900146484375,1.1183929443359375,-0.286376953125,-0.7754364013671875
1726940535214986200,7.118986328125,1.160003662109375,-0.2517547607421875,-0.8002166748046875
1726940535224972300,7.12897216796875,1.0732269287109375,-0.191619873046875,-0.7569580078125
1726940535234958300,7.138958251953125,0.9256591796875,-0.132110595703125,-0.6714935302734375
1726940535244944400,7.1489443359375,0.8299713134765625,-0.1025543212890625,-0.603424072265625
1726940535254930200,7.15893017578125,0.77166748046875,-0.102325439453125,-0.5730743408203125
1726940535264916500,7.16891650390625,0.7433013916015625,-0.1290283203125,-0.577362060546875
1726940535274901500,7.178901611328125,0.7262420654296875,-0.1474761962890625,-0.6013336181640625
1726940535284887300,7.18888720703125,0.7083587646484375,-0.1480712890625,-0.63250732421875
1726940535294873300,7.198873291015625,0.702880859375,-0.1487579345703125,-0.654388427734375
1726940535304859400,7.208859375,0.6807403564453125,-0.1444854736328125,-0.649810791015625
1726940535314845400,7.218845458984375,0.641754150390625,-0.10113525390625,-0.6091461181640625
1726940535324831200,7.228831298828125,0.599151611328125,-0.048431396484375,-0.538665771484375
1726940535334816500,7.23881640625,0.571380615234375,-0.03216552734375,-0.5101470947265625
1726940535344802300,7.24880224609375,0.5635833740234375,-0.039154052734375,-0.509613037109375
1726940535354788400,7.258788330078125,0.5809783935546875,-0.0709075927734375,-0.51605224609375
1726940535364774100,7.268774169921875,0.6155242919921875,-0.0977783203125,-0.5324554443359375
1726940535374760400,7.278760498046875,0.63177490234375,-0.087982177734375,-0.533721923828125
1726940535384746200,7.288746337890625,0.64013671875,-0.0544891357421875,-0.55242919921875
1726940535394731300,7.298731201171875,0.6344451904296875,0.0001678466796875,-0.586944580078125
1726940535404717600,7.308717529296875,0.63507080078125,0.09228515625,-0.612030029296875
1726940535414703400,7.318703369140625,0.6092681884765625,0.1881256103515625,-0.594146728515625
1726940535424689400,7.328689453125,0.621734619140625,0.29473876953125,-0.5471954345703125
1726940535434675500,7.338675537109375,0.6908721923828125,0.3572845458984375,-0.5472564697265625
1726940535444661500,7.34866162109375,0.7779083251953125,0.3783111572265625,-0.582275390625
1726940535454646300,7.358646240234375,0.9038238525390625,0.382110595703125,-0.6153106689453125
1726940535464632300,7.36863232421875,0.9812164306640625,0.36981201171875,-0.628387451171875
1726940535474618400,7.378618408203125,0.9644622802734375,0.3426513671875,-0.6341400146484375
1726940535484604400,7.3886044921875,0.895782470703125,0.3183135986328125,-0.6144256591796875
1726940535494590200,7.398590087890625,0.828216552734375,0.3057861328125,-0.6255645751953125
1726940535504576500,7.408576416015625,0.79217529296875,0.3234100341796875,-0.623931884765625
1726940535514561500,7.4185615234375,0.8213653564453125,0.3222198486328125,-0.5123138427734375
1726940535524547300,7.42854736328125,0.8521270751953125,0.27752685546875,-0.4443359375
1726940535534533400,7.438533447265625,0.8255767822265625,0.254791259765625,-0.4546966552734375
1726940535544519400,7.44851953125,0.7791748046875,0.2435150146484375,-0.451324462890625
1726940535554505500,7.45850537109375,0.7547760009765625,0.27197265625,-0.439788818359375
1726940535564491300,7.4684912109375,0.749847412109375,0.28570556640625,-0.42498779296875
1726940535574476300,7.478476318359375,0.7488861083984375,0.2598876953125,-0.4109344482421875
1726940535584462300,7.48846240234375,0.738861083984375,0.2422332763671875,-0.394439697265625
1726940535594448400,7.498448486328125,0.7194976806640625,0.2302093505859375,-0.3885040283203125
1726940535604434200,7.50843408203125,0.714599609375,0.2142791748046875,-0.409942626953125
1726940535614420500,7.51842041015625,0.7202301025390625,0.210205078125,-0.4347991943359375
1726940535624406300,7.52840625,0.7389984130859375,0.2148895263671875,-0.4581756591796875
1726940535634391300,7.538391357421875,0.745025634765625,0.2219390869140625,-0.484161376953125
1726940535644377000,7.548377197265625,0.7537994384765625,0.218902587890625,-0.5186767578125
1726940535654363100,7.558363037109375,0.7769927978515625,0.220550537109375,-0.5512542724609375
1726940535664349200,7.56834912109375,0.7987213134765625,0.210540771484375,-0.5703887939453125
1726940535674335000,7.5783349609375,0.827239990234375,0.19189453125,-0.5943145751953125
1726940535684321300,7.5883212890625,0.8452606201171875,0.1697845458984375,-0.6155548095703125
1726940535694306000,7.59830615234375,0.8447113037109375,0.14453125,-0.6261138916015625
1726940535704292000,7.6082919921875,0.8322601318359375,0.11724853515625,-0.6312713623046875
1726940535714278000,7.61827783203125,0.83282470703125,0.0868682861328125,-0.643707275390625
1726940535724264200,7.62826416015625,0.8511199951171875,0.0540618896484375,-0.657928466796875
1726940535734250000,7.63825,0.8800506591796875,0.0120086669921875,-0.6629180908203125
1726940535744236000,7.648236083984375,0.88629150390625,-0.041656494140625,-0.657012939453125
1726940535754222000,7.65822216796875,0.9085845947265625,-0.10504150390625,-0.65435791015625
1726940535764207000,7.66820703125,0.947052001953125,-0.14849853515625,-0.6533050537109375
1726940535774193200,7.678193115234375,0.961273193359375,-0.184173583984375,-0.650970458984375
1726940535784179000,7.688178955078125,0.948822021484375,-0.197906494140625,-0.6515960693359375
1726940535794165200,7.698165283203125,0.96844482421875,-0.1926116943359375,-0.6623687744140625
1726940535804151000,7.708151123046875,0.9749908447265625,-0.185150146484375,-0.6724853515625
1726940535814137000,7.71813720703125,0.920562744140625,-0.181488037109375,-0.662506103515625
1726940535824122000,7.7281220703125,0.8295745849609375,-0.1706390380859375,-0.6395416259765625
1726940535834108200,7.738108154296875,0.7473907470703125,-0.162353515625,-0.6077728271484375
1726940535844094000,7.748093994140625,0.700775146484375,-0.15216064453125,-0.587738037109375
1726940535854080300,7.758080322265625,0.6783294677734375,-0.130889892578125,-0.5555267333984375
1726940535864066000,7.768066162109375,0.7109527587890625,-0.106109619140625,-0.5196075439453125
1726940535874052000,7.778052001953125,0.770263671875,-0.1083984375,-0.5067138671875
1726940535884037000,7.788037109375,0.808837890625,-0.1126556396484375,-0.50299072265625
1726940535894023200,7.798023193359375,0.851287841796875,-0.1334381103515625,-0.5036163330078125
1726940535904009200,7.80800927734375,0.8511199951171875,-0.1547088623046875,-0.5210418701171875
1726940535913995000,7.8179951171875,0.8506927490234375,-0.1673583984375,-0.5180511474609375
1726940535923981300,7.827981201171875,0.826385498046875,-0.1634521484375,-0.4895782470703125
1726940535933967000,7.837967041015625,0.8679962158203125,-0.1514892578125,-0.4935455322265625
1726940535943952100,7.8479521484375,0.937652587890625,-0.140045166015625,-0.5160675048828125
1726940535953938000,7.85793798828125,0.9426116943359375,-0.10302734375,-0.5427703857421875
1726940535963924200,7.86792431640625,0.8854522705078125,-0.0700225830078125,-0.5456085205078125
1726940535973910000,7.877909912109375,0.8208160400390625,-0.04803466796875,-0.5384674072265625
1726940535983896000,7.88789599609375,0.781982421875,-0.0324859619140625,-0.535430908203125
1726940535993882000,7.897882080078125,0.75640869140625,-0.0220794677734375,-0.5532073974609375
1726940536003867100,7.9078671875,0.7856292724609375,-0.0050811767578125,-0.537384033203125
1726940536013853200,7.917853271484375,0.8444671630859375,0.001861572265625,-0.50115966796875
1726940536023839000,7.9278388671875,0.910247802734375,-0.01263427734375,-0.510528564453125
1726940536033825300,7.9378251953125,0.9254913330078125,-0.00390625,-0.574615478515625
1726940536043811000,7.94781103515625,0.852874755859375,0.0439605712890625,-0.6480865478515625
1726940536053797000,7.957797119140625,0.8046722412109375,0.069854736328125,-0.787872314453125
1726940536063782000,7.967781982421875,0.74615478515625,0.1208343505859375,-0.848541259765625
1726940536073768200,7.977768310546875,0.7410888671875,0.156951904296875,-0.7938232421875
1726940536083754000,7.98775390625,0.83380126953125,0.1488037109375,-0.660125732421875
1726940536093740000,7.997739990234375,0.985107421875,0.069183349609375,-0.5838775634765625
1726940536103726000,8.00772607421875,0.9862518310546875,0.0213623046875,-0.530914306640625
1726940536113712000,8.017712158203125,0.842071533203125,-0.015045166015625,-0.5172576904296875
1726940536123697200,8.027697265625,0.686431884765625,-0.0895538330078125,-0.505859375
1726940536133683200,8.03768310546875,0.57733154296875,-0.1090087890625,-0.43487548828125
1726940536143669200,8.047669189453124,0.5270843505859375,-0.108245849609375,-0.3458709716796875
1726940536153655000,8.057655029296875,0.611419677734375,-0.1693572998046875,-0.2583160400390625
1726940536163641000,8.06764111328125,0.736419677734375,-0.2188568115234375,-0.2333984375
1726940536173627100,8.077627197265626,0.8198394775390625,-0.2445831298828125,-0.302764892578125
1726940536183612200,8.087612060546874,0.7913818359375,-0.2639923095703125,-0.4666900634765625
1726940536193598000,8.097597900390625,0.68035888671875,-0.2791290283203125,-0.630218505859375
1726940536203584300,8.107584228515625,0.6226959228515625,-0.295623779296875,-0.657562255859375
1726940536213570000,8.117570068359376,0.7037506103515625,-0.3362884521484375,-0.57427978515625
1726940536223556000,8.12755615234375,0.839263916015625,-0.3868255615234375,-0.4881134033203125
1726940536233542100,8.137542236328125,0.93243408203125,-0.41595458984375,-0.43310546875
1726940536243527200,8.147527099609375,0.975616455078125,-0.4379119873046875,-0.4263458251953125
1726940536253513200,8.15751318359375,0.891204833984375,-0.3995208740234375,-0.44842529296875
1726940536263499000,8.1674990234375,0.7273406982421875,-0.3261260986328125,-0.445770263671875
1726940536273485000,8.177485107421875,0.702117919921875,-0.2822418212890625,-0.4107666015625
1726940536283471000,8.18747119140625,0.8152008056640625,-0.3062591552734375,-0.4013214111328125
1726940536293457200,8.19745703125,0.9009246826171875,-0.330352783203125,-0.400146484375
1726940536303442000,8.20744189453125,0.9481353759765625,-0.3438262939453125,-0.4404144287109375
1726940536313428200,8.21742822265625,0.9611358642578125,-0.33941650390625,-0.4801483154296875
1726940536323414000,8.2274140625,0.87615966796875,-0.2916717529296875,-0.498870849609375
1726940536333400000,8.237400146484376,0.793609619140625,-0.2274322509765625,-0.496734619140625
1726940536343386000,8.24738623046875,0.762603759765625,-0.170867919921875,-0.482513427734375
1726940536353372200,8.2573720703125,0.7850189208984375,-0.130340576171875,-0.501495361328125
1726940536363357200,8.267357177734375,0.85760498046875,-0.113067626953125,-0.554962158203125
1726940536373343000,8.277343017578126,0.9380340576171875,-0.118499755859375,-0.6283111572265625
1726940536383329300,8.287329345703125,1.0227508544921875,-0.10888671875,-0.5073394775390625
1726940536393315000,8.297315185546875,0.931976318359375,-0.1421661376953125,-0.532440185546875
1726940536403301000,8.307301025390625,0.858123779296875,-0.1634063720703125,-0.611236572265625
1726940536413287200,8.317287109375,0.859405517578125,-0.1599578857421875,-0.544830322265625
1726940536423272200,8.327272216796874,0.859130859375,-0.1229705810546875,-0.4940185546875
1726940536433258000,8.337258056640625,0.9293060302734375,-0.1006622314453125,-0.4578857421875
1726940536443244000,8.347244140625,0.9985809326171875,-0.103515625,-0.452117919921875
1726940536453230000,8.35722998046875,1.0066680908203125,-0.1247100830078125,-0.46307373046875
1726940536463216000,8.367216064453125,0.964019775390625,-0.16522216796875,-0.4815673828125
1726940536473202000,8.377201904296875,0.920928955078125,-0.17840576171875,-0.435638427734375
1726940536483187200,8.387187255859375,0.90911865234375,-0.175750732421875,-0.3608856201171875
1726940536493173200,8.39717333984375,0.9023895263671875,-0.1753387451171875,-0.32525634765625
1726940536503159000,8.407158935546875,0.8926544189453125,-0.1692047119140625,-0.36895751953125
1726940536513145000,8.41714501953125,0.9005584716796875,-0.1800384521484375,-0.4575958251953125
1726940536523131100,8.427131103515626,0.9263763427734375,-0.2042694091796875,-0.500335693359375
1726940536533117000,8.437116943359374,0.891326904296875,-0.232757568359375,-0.5121612548828125
1726940536543102000,8.44710205078125,0.8251190185546875,-0.238311767578125,-0.5078887939453125
1726940536553088300,8.457088134765625,0.7833709716796875,-0.2386932373046875,-0.480865478515625
1726940536563074000,8.467073974609375,0.774383544921875,-0.2266082763671875,-0.4540863037109375
1726940536573060000,8.47706005859375,0.7873077392578125,-0.21063232421875,-0.42999267578125
1726940536583046100,8.487046142578125,0.8377227783203125,-0.2015838623046875,-0.4549102783203125
1726940536593032200,8.4970322265625,0.865753173828125,-0.1887359619140625,-0.48321533203125
1726940536603017200,8.507017333984376,0.8887481689453125,-0.169097900390625,-0.50103759765625
1726940536613003000,8.5170029296875,0.89886474609375,-0.161468505859375,-0.516082763671875
1726940536622989000,8.526989013671875,0.8850860595703125,-0.1329803466796875,-0.52972412109375
1726940536632975000,8.53697509765625,0.9251708984375,-0.082275390625,-0.540557861328125
1726940536642961200,8.546961181640626,0.9871826171875,-0.0211944580078125,-0.536346435546875
1726940536652947200,8.556947265625,1.0248565673828125,0.02154541015625,-0.5200958251953125
1726940536662932200,8.56693212890625,1.0028533935546875,0.028656005859375,-0.50811767578125
1726940536672918300,8.576918212890625,0.9536590576171875,0.0242462158203125,-0.4878082275390625
1726940536682904300,8.586904296875,0.91693115234375,0.047393798828125,-0.454132080078125
1726940536692890000,8.59689013671875,0.918426513671875,0.0797119140625,-0.4375457763671875
1726940536702876400,8.60687646484375,0.9088897705078125,0.131103515625,-0.3862152099609375
1726940536712862200,8.6168623046875,0.8890380859375,0.1691131591796875,-0.3544158935546875
1726940536722847200,8.62684716796875,0.8446807861328125,0.16864013671875,-0.3437652587890625
1726940536732833000,8.6368330078125,0.7888336181640625,0.1558074951171875,-0.333953857421875
1726940536742819300,8.6468193359375,0.7615509033203125,0.1597747802734375,-0.3384857177734375
1726940536752805000,8.65680517578125,0.779876708984375,0.1948394775390625,-0.3534393310546875
1726940536762791200,8.666791259765626,0.79351806640625,0.2335662841796875,-0.3668975830078125
1726940536772777200,8.676777099609374,0.816436767578125,0.2398681640625,-0.3591156005859375
1726940536782763300,8.68676318359375,0.833343505859375,0.221893310546875,-0.375213623046875
1726940536792748300,8.696748291015625,0.845672607421875,0.20977783203125,-0.4120025634765625
1726940536802734300,8.706734375,0.8834991455078125,0.2187652587890625,-0.437744140625
1726940536812720400,8.716720458984375,0.907379150390625,0.2611083984375,-0.4566650390625
1726940536822706200,8.7267060546875,0.87738037109375,0.3028411865234375,-0.4633636474609375
1726940536832692200,8.736692138671875,0.8383941650390625,0.3053131103515625,-0.4601593017578125
1726940536842678300,8.74667822265625,0.782135009765625,0.2447662353515625,-0.44024658203125
1726940536852663300,8.756663330078124,0.6860504150390625,0.1928863525390625,-0.4083709716796875
1726940536862649000,8.766649169921875,0.6635589599609375,0.1690521240234375,-0.35760498046875
1726940536872635400,8.776635498046875,0.71868896484375,0.1691741943359375,-0.2957611083984375
1726940536882621200,8.78662109375,0.80279541015625,0.1742706298828125,-0.294647216796875
1726940536892607200,8.796607177734375,0.8871612548828125,0.1503143310546875,-0.331207275390625
1726940536902593300,8.80659326171875,0.9438629150390625,0.1096038818359375,-0.3856201171875
1726940536912578300,8.816578369140625,0.951446533203125,0.028564453125,-0.44921875
1726940536922564400,8.826564453125,0.907257080078125,0.0002593994140625,-0.4575958251953125
1726940536932550100,8.836550048828125,0.851593017578125,0.038299560546875,-0.440185546875
1726940536942536400,8.846536376953125,0.82879638671875,0.073455810546875,-0.4222259521484375
1726940536952522200,8.856522216796876,0.8553009033203125,0.08837890625,-0.410858154296875
1726940536962508300,8.86650830078125,0.888214111328125,0.0796966552734375,-0.4173431396484375
1726940536972493000,8.8764931640625,0.90447998046875,0.0521240234375,-0.423553466796875
1726940536982479400,8.886479248046875,0.912353515625,0.031982421875,-0.4289093017578125
1726940536992465200,8.896465087890626,0.9187774658203125,0.0081939697265625,-0.4282073974609375
1726940537002451200,8.906451171875,0.9570159912109375,-0.015411376953125,-0.4272613525390625
1726940537012437200,8.916437255859375,1.0139617919921875,0.0063323974609375,-0.43145751953125
1726940537022423300,8.92642333984375,1.055877685546875,0.0443878173828125,-0.4396209716796875
1726940537032408300,8.936408203125,1.056304931640625,0.0548095703125,-0.4777069091796875
1726940537042394000,8.94639404296875,1.010406494140625,0.0439453125,-0.4847412109375
1726940537052380400,8.95638037109375,0.956634521484375,0.02191162109375,-0.46636962890625
1726940537062366200,8.9663662109375,0.8912200927734375,-0.0047149658203125,-0.4203948974609375
1726940537072352300,8.976352294921876,0.868682861328125,-0.020294189453125,-0.38555908203125
1726940537082338300,8.98633837890625,0.891693115234375,-0.017181396484375,-0.3644256591796875
1726940537092324400,8.996324462890625,0.8945465087890625,-0.004669189453125,-0.33734130859375
1726940537102309000,9.00630908203125,0.9110565185546875,0.0147705078125,-0.3397369384765625
1726940537112295200,9.016295166015626,0.94244384765625,0.02685546875,-0.3591766357421875
1726940537122281200,9.02628125,0.973419189453125,0.026519775390625,-0.3726043701171875
1726940537132267300,9.036267333984375,1.001251220703125,0.0105743408203125,-0.3726043701171875
1726940537142253000,9.046253173828125,1.024871826171875,-0.0114898681640625,-0.3651580810546875
1726940537152239400,9.0562392578125,1.0358123779296875,-0.0211334228515625,-0.3788299560546875
1726940537162224400,9.066224365234374,1.0013580322265625,-0.0225982666015625,-0.419586181640625
1726940537172210200,9.076210205078125,0.9616546630859375,-0.02899169921875,-0.4520721435546875
1726940537182196200,9.0861962890625,0.93426513671875,-0.036376953125,-0.451171875
1726940537192182300,9.096182373046876,0.9378509521484375,-0.049713134765625,-0.430084228515625
1726940537202168300,9.106168212890625,0.9488067626953125,-0.0479278564453125,-0.3923797607421875
1726940537212154000,9.116154052734375,0.930694580078125,-0.04290771484375,-0.355224609375
1726940537222139400,9.126139404296875,0.89013671875,-0.0419158935546875,-0.3234405517578125
1726940537232125200,9.136125244140626,0.9041290283203125,-0.0303955078125,-0.3347625732421875
1726940537242111200,9.146111328125,0.9483489990234375,-0.01763916015625,-0.370574951171875
1726940537252097300,9.15609716796875,1.0233612060546875,-0.0124664306640625,-0.4243316650390625
1726940537262083300,9.166083251953125,1.081268310546875,-0.0331878662109375,-0.5274505615234375
1726940537272069000,9.176069091796874,1.0543670654296875,-0.0269775390625,-0.6038665771484375
1726940537282054100,9.18605419921875,0.9132232666015625,0.0118255615234375,-0.5551300048828125
1726940537292040400,9.19604052734375,0.79791259765625,0.04345703125,-0.4603424072265625
1726940537302026200,9.206026123046875,0.778076171875,0.06005859375,-0.403900146484375
1726940537312012300,9.21601220703125,0.845428466796875,0.0562896728515625,-0.4421844482421875
1726940537321998300,9.225998291015625,0.927215576171875,0.0865631103515625,-0.6810302734375
1726940537331984400,9.235984375,0.977752685546875,0.1006011962890625,-0.746002197265625
1726940537341969200,9.24596923828125,0.8411712646484375,0.079620361328125,-0.73370361328125
1726940537351955200,9.255955078125,0.715118408203125,0.084991455078125,-0.61468505859375
1726940537361941200,9.265941162109375,0.6695556640625,0.08013916015625,-0.4945831298828125
1726940537371927300,9.27592724609375,0.707489013671875,0.06585693359375,-0.3944854736328125
1726940537381913000,9.2859130859375,0.84381103515625,-0.0048980712890625,-0.378143310546875
1726940537391899400,9.2958994140625,0.9028778076171875,-0.0834503173828125,-0.4517059326171875
1726940537401884400,9.305884521484375,0.798980712890625,-0.080841064453125,-0.5098419189453125
1726940537411870200,9.3158701171875,0.626922607421875,-0.0732421875,-0.52197265625
1726940537421856300,9.325856201171876,0.6156463623046875,-0.09844970703125,-0.4183807373046875
1726940537431842300,9.33584228515625,0.7191619873046875,-0.1658782958984375,-0.276458740234375
1726940537441828400,9.345828369140625,0.8069305419921875,-0.2127227783203125,-0.2487335205078125
1726940537451814100,9.355814208984375,0.88873291015625,-0.264251708984375,-0.2731475830078125
1726940537461800400,9.365800537109376,0.8864593505859375,-0.2887420654296875,-0.3729095458984375
1726940537471785200,9.37578515625,0.77545166015625,-0.2620849609375,-0.4598236083984375
1726940537481771300,9.385771240234375,0.6843719482421875,-0.2324981689453125,-0.4871826171875
1726940537491757000,9.395757080078125,0.726959228515625,-0.2332763671875,-0.4634552001953125
1726940537501743400,9.405743408203126,0.817718505859375,-0.2441558837890625,-0.403900146484375
1726940537511729200,9.415729248046874,0.8856658935546875,-0.247344970703125,-0.380096435546875
1726940537521715200,9.425715087890625,0.9341583251953125,-0.232269287109375,-0.411956787109375
1726940537531700500,9.435700439453125,0.916351318359375,-0.185333251953125,-0.4374542236328125
1726940537541686300,9.445686279296876,0.8847503662109375,-0.13079833984375,-0.43414306640625
1726940537551672300,9.45567236328125,0.883056640625,-0.109039306640625,-0.5149993896484375
1726940537561658000,9.465658203125,0.900390625,-0.0907745361328125,-0.4786224365234375
1726940537571644400,9.47564453125,0.8978424072265625,-0.0974578857421875,-0.4322357177734375
1726940537581630200,9.485630126953126,0.8578643798828125,-0.1063079833984375,-0.5050506591796875
1726940537591615200,9.495615234375,0.888824462890625,-0.0871124267578125,-0.424896240234375
1726940537601601300,9.505601318359375,0.9154510498046875,-0.0754852294921875,-0.4123992919921875
1726940537611587300,9.51558740234375,0.9840240478515625,-0.0720977783203125,-0.418487548828125
1726940537621573000,9.525572998046876,1.0361785888671875,-0.07781982421875,-0.4285888671875
1726940537631559400,9.535559326171875,1.02587890625,-0.0823822021484375,-0.45849609375
1726940537641545500,9.54554541015625,0.9796142578125,-0.08587646484375,-0.4889678955078125
1726940537651530500,9.555530517578125,0.9692535400390625,-0.0980224609375,-0.453948974609375
1726940537661516500,9.5655166015625,0.9845733642578125,-0.102783203125,-0.3673248291015625
1726940537671502300,9.57550244140625,0.9568328857421875,-0.109527587890625,-0.34832763671875
1726940537681488600,9.585488525390625,0.9322509765625,-0.1157379150390625,-0.3619384765625
1726940537691474400,9.595474365234375,0.919921875,-0.105377197265625,-0.3527679443359375
1726940537701460500,9.60546044921875,0.92401123046875,-0.10186767578125,-0.3470916748046875
1726940537711445500,9.615445556640625,0.9718170166015625,-0.1019134521484375,-0.394500732421875
1726940537721431600,9.625431640625,1.02325439453125,-0.1006317138671875,-0.4474029541015625
1726940537731417300,9.635417236328125,1.045501708984375,-0.1059417724609375,-0.483978271484375
1726940537741403600,9.645403564453124,1.044708251953125,-0.10797119140625,-0.5009613037109375
1726940537751389400,9.655389404296875,1.00244140625,-0.109344482421875,-0.5029449462890625
1726940537761375500,9.66537548828125,0.935638427734375,-0.1154327392578125,-0.4862060546875
1726940537771361300,9.675361328125,0.9005889892578125,-0.1365814208984375,-0.4669036865234375
1726940537781346600,9.6853466796875,0.8843536376953125,-0.1555328369140625,-0.4529876708984375
1726940537791332600,9.69533251953125,0.90301513671875,-0.1455841064453125,-0.4383697509765625
1726940537801318400,9.705318359375,0.9288330078125,-0.1192169189453125,-0.41552734375
1726940537811304400,9.715304443359376,0.9232177734375,-0.1171112060546875,-0.4075927734375
1726940537821290500,9.72529052734375,0.900482177734375,-0.1419525146484375,-0.4241943359375
1726940537831276500,9.735276611328125,0.85546875,-0.1275177001953125,-0.434234619140625
1726940537841261300,9.74526123046875,0.8722686767578125,-0.1221160888671875,-0.4100494384765625
1726940537851247600,9.75524755859375,0.914703369140625,-0.1231231689453125,-0.4203033447265625
1726940537861233400,9.7652333984375,0.9700927734375,-0.09124755859375,-0.425018310546875
1726940537871219500,9.775219482421875,1.001495361328125,-0.04388427734375,-0.4332275390625
1726940537881205500,9.78520556640625,0.9368133544921875,-0.005126953125,-0.4322967529296875
1726940537891191600,9.795191650390626,0.8095550537109375,0.0123291015625,-0.391082763671875
1726940537901176600,9.805176513671874,0.7246246337890625,0.0073699951171875,-0.3905487060546875
1726940537911162400,9.815162353515625,0.727294921875,0.037384033203125,-0.4251708984375
1726940537921148400,9.8251484375,0.7803497314453125,0.127105712890625,-0.447967529296875
1726940537931134500,9.835134521484376,0.8316497802734375,0.21453857421875,-0.446441650390625
1726940537941120500,9.84512060546875,0.8132476806640625,0.2332611083984375,-0.428466796875
1726940537951106600,9.8551064453125,0.755462646484375,0.219696044921875,-0.390106201171875
1726940537961091600,9.865091552734375,0.726806640625,0.20947265625,-0.3660888671875
1726940537971077400,9.875077392578126,0.7262725830078125,0.276885986328125,-0.329925537109375
1726940537981063400,9.8850634765625,0.823516845703125,0.3839263916015625,-0.298736572265625
1726940537991049500,9.895049560546875,0.9288787841796875,0.4373626708984375,-0.3062286376953125
1726940538001035500,9.905035400390625,0.94903564453125,0.4243621826171875,-0.3253021240234375
1726940538011021300,9.915021240234376,0.8375244140625,0.3006591796875,-0.3116912841796875
1726940538021007600,9.925007568359375,0.7523345947265625,0.19866943359375,-0.2190399169921875
1726940538030992400,9.934992431640625,0.776031494140625,0.23065185546875,-0.1669921875
1726940538040978400,9.944978515625,0.92999267578125,0.315093994140625,-0.139404296875
1726940538050964500,9.954964599609376,1.060699462890625,0.3231658935546875,-0.1978302001953125
1726940538060950500,9.964950439453125,1.0806427001953125,0.2281646728515625,-0.3128509521484375
1726940538070936300,9.974936279296875,0.9398956298828125,0.147491455078125,-0.3565673828125
1726940538080922400,9.98492236328125,0.8221435546875,0.1773223876953125,-0.331024169921875
1726940538090907600,9.99490771484375,0.848846435546875,0.2542572021484375,-0.3242034912109375
1726940538100893400,10.0048935546875,0.9369354248046875,0.333740234375,-0.3619842529296875
1726940538110879500,10.01487939453125,0.9683685302734375,0.37152099609375,-0.4221038818359375
1726940538120865500,10.024865478515625,0.9646453857421875,0.3659515380859375,-0.4791412353515625
1726940538130851600,10.0348515625,0.951080322265625,0.301666259765625,-0.484710693359375
1726940538140837400,10.04483740234375,0.9085845947265625,0.2420196533203125,-0.4373626708984375
1726940538150822400,10.054822509765625,0.9172821044921875,0.21875,-0.3885650634765625
1726940538160808400,10.064808349609375,0.9902191162109375,0.2199554443359375,-0.38885498046875
1726940538170794500,10.07479443359375,1.038665771484375,0.2150115966796875,-0.395233154296875
1726940538180780300,10.0847802734375,0.99212646484375,0.209136962890625,-0.4184417724609375
1726940538190766600,10.0947666015625,0.8966827392578125,0.182891845703125,-0.4043121337890625
1726940538200752400,10.10475244140625,0.8475799560546875,0.126129150390625,-0.3836212158203125
1726940538210737400,10.1147373046875,0.8933868408203125,0.1042938232421875,-0.37066650390625
1726940538220723500,10.124723388671875,1.010772705078125,0.13031005859375,-0.405853271484375
1726940538230709500,10.13470947265625,1.0734100341796875,0.1840057373046875,-0.4616851806640625
1726940538240695600,10.144695556640626,0.982208251953125,0.22418212890625,-0.46405029296875
1726940538250681300,10.154681396484374,0.847137451171875,0.182647705078125,-0.4376678466796875
1726940538260667600,10.164667724609375,0.782745361328125,0.1271209716796875,-0.3851165771484375
1726940538270653400,10.1746533203125,0.7888336181640625,0.086212158203125,-0.378387451171875
1726940538280638500,10.184638427734376,0.84564208984375,0.060150146484375,-0.3944091796875
1726940538290624300,10.194624267578124,0.8884429931640625,0.05389404296875,-0.42706298828125
1726940538300610600,10.204610595703125,0.8689727783203125,0.0605621337890625,-0.446746826171875
1726940538310596400,10.214596435546875,0.8220367431640625,0.0580291748046875,-0.4412689208984375
1726940538320582400,10.22458251953125,0.806427001953125,0.0273284912109375,-0.421661376953125
1726940538330568400,10.234568359375,0.840972900390625,-0.018646240234375,-0.4014739990234375
1726940538340553500,10.244553466796875,0.93170166015625,-0.05352783203125,-0.39959716796875
1726940538350539500,10.25453955078125,1.0128936767578125,-0.0745086669921875,-0.4365234375
1726940538360525300,10.264525390625,1.0530242919921875,-0.0810699462890625,-0.495147705078125
1726940538370511600,10.27451171875,1.0008087158203125,-0.0774993896484375,-0.5315399169921875
1726940538380497400,10.284497314453125,0.937286376953125,-0.0881500244140625,-0.50164794921875
1726940538390483500,10.2944833984375,0.9391326904296875,-0.10345458984375,-0.4517822265625
1726940538400468200,10.30446826171875,0.9759063720703125,-0.1210479736328125,-0.40728759765625
1726940538410454500,10.31445458984375,0.9436187744140625,-0.1302337646484375,-0.4402618408203125
1726940538420440300,10.3244404296875,0.8983917236328125,-0.07275390625,-0.5047149658203125
1726940538430426400,10.33442626953125,0.87786865234375,-0.0019989013671875,-0.5277252197265625
1726940538440412400,10.344412353515626,0.855072021484375,0.032257080078125,-0.555816650390625
1726940538450398500,10.3543984375,0.8878936767578125,0.029998779296875,-0.5391998291015625
1726940538460383500,10.364383544921875,0.9329376220703125,0.0340423583984375,-0.5605926513671875
1726940538470369500,10.37436962890625,0.9525909423828125,0.0521697998046875,-0.5479736328125
1726940538480355600,10.38435546875,0.9651947021484375,0.068817138671875,-0.5480194091796875
1726940538490341400,10.39434130859375,0.9972076416015625,0.0800628662109375,-0.549346923828125
1726940538500327400,10.404327392578125,0.9918670654296875,0.0601348876953125,-0.496551513671875
1726940538510313500,10.4143134765625,0.922943115234375,0.030731201171875,-0.4676055908203125
1726940538520299500,10.424299560546874,0.822601318359375,0.00286865234375,-0.47216796875
1726940538530284300,10.4342841796875,0.72613525390625,-0.01275634765625,-0.44873046875
1726940538540270600,10.4442705078125,0.6804962158203125,-0.02587890625,-0.476654052734375
1726940538550256400,10.45425634765625,0.750640869140625,-0.0947418212890625,-0.47296142578125
1726940538560242400,10.464242431640624,0.7634429931640625,-0.162445068359375,-0.3902435302734375
1726940538570228500,10.474228515625,0.6672515869140625,-0.1939239501953125,-0.3119964599609375
1726940538580214500,10.484214599609375,0.563934326171875,-0.2015228271484375,-0.2743072509765625
1726940538590199600,10.494199462890625,0.5323638916015625,-0.185455322265625,-0.28204345703125
1726940538600185300,10.504185302734374,0.6626434326171875,-0.1943817138671875,-0.3209228515625
1726940538610171600,10.514171630859375,0.8553009033203125,-0.2358856201171875,-0.335052490234375
1726940538620157400,10.524157470703125,0.9989776611328125,-0.255615234375,-0.3407440185546875
1726940538630143500,10.5341435546875,0.99029541015625,-0.238067626953125,-0.3473358154296875
1726940538640130000,10.544130126953124,0.849578857421875,-0.182098388671875,-0.3852081298828125
1726940538650115000,10.554114990234375,0.725433349609375,-0.1113128662109375,-0.4133148193359375
1726940538660101000,10.56410107421875,0.7436370849609375,-0.1119842529296875,-0.4480438232421875
1726940538670087200,10.574087158203126,0.8414306640625,-0.1365814208984375,-0.5125274658203125
1726940538680073000,10.584072998046874,0.900115966796875,-0.1374359130859375,-0.5287628173828125
1726940538690059300,10.594059326171875,0.893218994140625,-0.1221771240234375,-0.467529296875
1726940538700045000,10.604045166015625,0.8487701416015625,-0.0981597900390625,-0.4040679931640625
1726940538710030000,10.614030029296876,0.881683349609375,-0.0642852783203125,-0.389862060546875
1726940538720016100,10.62401611328125,0.9783172607421875,-0.024322509765625,-0.4093170166015625
1726940538730002200,10.634002197265625,1.1292724609375,-0.0003814697265625,-0.4284515380859375
1726940538739988000,10.643988037109375,1.22857666015625,0.011016845703125,-0.43096923828125
1726940538749974000,10.65397412109375,1.1995086669921875,-0.0003509521484375,-0.410858154296875
1726940538759960000,10.6639599609375,1.108306884765625,-0.03851318359375,-0.3805389404296875
1726940538769946000,10.673946044921875,1.034942626953125,-0.0708465576171875,-0.3531341552734375
1726940538779931100,10.68393115234375,1.0052337646484375,-0.101318359375,-0.3524627685546875
1726940538789917000,10.6939169921875,1.037078857421875,-0.1031951904296875,-0.349273681640625
1726940538799903200,10.7039033203125,1.010467529296875,-0.1005096435546875,-0.3506317138671875
1726940538809889000,10.713888916015625,0.91790771484375,-0.11578369140625,-0.3455352783203125
1726940538819875000,10.723875,0.845855712890625,-0.129638671875,-0.334686279296875
1726940538829861000,10.733861083984374,0.8154296875,-0.1392059326171875,-0.3396453857421875
1726940538839846100,10.74384619140625,0.798919677734375,-0.1398773193359375,-0.3627471923828125
1726940538849832000,10.75383203125,0.784942626953125,-0.132415771484375,-0.3682708740234375
1726940538859818000,10.76381787109375,0.8176727294921875,-0.1397857666015625,-0.37701416015625
1726940538869804000,10.773803955078124,0.8549041748046875,-0.1608734130859375,-0.3768768310546875
1726940538879790000,10.7837900390625,0.8663787841796875,-0.15020751953125,-0.38726806640625
1726940538889775900,10.79377587890625,0.8797454833984375,-0.1274871826171875,-0.401214599609375
1726940538899762200,10.80376220703125,0.92755126953125,-0.1331634521484375,-0.4028167724609375
1726940538909747200,10.813747314453124,0.9864654541015625,-0.1164703369140625,-0.4064178466796875
1726940538919733000,10.82373291015625,1.0658111572265625,-0.10247802734375,-0.4319610595703125
1726940538929719000,10.833718994140625,1.1644134521484375,-0.06707763671875,-0.4537506103515625
1726940538939705000,10.843705078125,1.2464447021484375,-0.01715087890625,-0.4619293212890625
1726940538949691100,10.853691162109374,1.301055908203125,0.02032470703125,-0.474395751953125
1726940538959677000,10.863677001953125,1.2816162109375,0.05914306640625,-0.5042572021484375
1726940538969662200,10.873662109375,1.2072296142578125,0.11016845703125,-0.5194091796875
1726940538979648000,10.88364794921875,1.072906494140625,0.1383056640625,-0.5355682373046875
1726940538989634000,10.893634033203124,0.910491943359375,0.15948486328125,-0.5092620849609375
1726940538999620000,10.9036201171875,0.806671142578125,0.1885833740234375,-0.457977294921875
1726940539009606100,10.913606201171875,0.74578857421875,0.2114715576171875,-0.43011474609375
1726940539019592000,10.923592041015626,0.7080230712890625,0.2278289794921875,-0.3996124267578125
1726940539029577000,10.933576904296874,0.681915283203125,0.253631591796875,-0.34991455078125
1726940539039563300,10.943563232421875,0.64111328125,0.2707977294921875,-0.28851318359375
1726940539049549000,10.953549072265625,0.58612060546875,0.2748565673828125,-0.230499267578125
1726940539059535000,10.96353515625,0.5517730712890625,0.2910308837890625,-0.19158935546875
1726940539069521200,10.973521240234374,0.54766845703125,0.3170623779296875,-0.1552276611328125
1726940539079507200,10.983507080078125,0.5630340576171875,0.3349456787109375,-0.1462860107421875
1726940539089493000,10.993492919921875,0.6029510498046875,0.3348236083984375,-0.1423187255859375
1726940539099478000,11.00347802734375,0.651641845703125,0.3198394775390625,-0.1275177001953125
1726940539109464000,11.013464111328124,0.66961669921875,0.3413848876953125,-0.133209228515625
1726940539119450000,11.0234501953125,0.737640380859375,0.3713226318359375,-0.130279541015625
1726940539129436000,11.033435791015625,0.818115234375,0.346832275390625,-0.1355743408203125
1726940539139422200,11.043422119140626,0.8592987060546875,0.3019256591796875,-0.1523895263671875
1726940539149408000,11.053407958984375,0.8613433837890625,0.25018310546875,-0.202911376953125
1726940539159393000,11.06339306640625,0.8778839111328125,0.2390594482421875,-0.2458343505859375
1726940539169379000,11.073379150390625,0.9903106689453125,0.2293548583984375,-0.292266845703125
1726940539179365000,11.083365234375,1.1309814453125,0.23748779296875,-0.308807373046875
1726940539189351200,11.09335107421875,1.1942291259765625,0.2596588134765625,-0.3243255615234375
1726940539199337000,11.1033369140625,1.17108154296875,0.26318359375,-0.3927459716796875
1726940539209323300,11.1133232421875,1.13067626953125,0.236236572265625,-0.46820068359375
1726940539219308000,11.12330810546875,1.087615966796875,0.1944732666015625,-0.4912109375
1726940539229294000,11.133294189453125,1.07476806640625,0.171966552734375,-0.472320556640625
1726940539239279900,11.14327978515625,1.068756103515625,0.1728973388671875,-0.428985595703125
1726940539249266200,11.15326611328125,1.0229644775390625,0.1644744873046875,-0.3680877685546875
1726940539259252000,11.163251953125,1.003631591796875,0.1045989990234375,-0.3599700927734375
1726940539269238000,11.173238037109375,0.99139404296875,0.051422119140625,-0.345703125
1726940539279224000,11.18322412109375,0.951934814453125,0.0637054443359375,-0.3585968017578125
1726940539289209000,11.193208984375,0.8934173583984375,0.0913543701171875,-0.377105712890625
1726940539299195100,11.203195068359374,0.847808837890625,0.105804443359375,-0.3775482177734375
1726940539309181000,11.213180908203125,0.78717041015625,0.095550537109375,-0.36737060546875
1726940539319167200,11.223167236328125,0.7281036376953125,0.077972412109375,-0.3381195068359375
1726940539329153000,11.233153076171876,0.7261962890625,0.051544189453125,-0.306610107421875
1726940539339139000,11.24313916015625,0.80133056640625,0.013275146484375,-0.267242431640625
1726940539349124000,11.2531240234375,0.93011474609375,-0.0166168212890625,-0.2468109130859375
1726940539359110100,11.263110107421875,1.0102386474609375,-0.0216064453125,-0.2393646240234375
1726940539369096000,11.273095947265626,1.006103515625,-0.0181732177734375,-0.2746124267578125
1726940539379082200,11.283082275390624,0.9921875,-0.0161590576171875,-0.3058624267578125
1726940539389068000,11.293068115234375,1.0297088623046875,-0.016021728515625,-0.3264007568359375
1726940539399054000,11.30305419921875,1.141693115234375,-0.031768798828125,-0.3700103759765625
1726940539409039000,11.3130390625,1.2251434326171875,-0.0333404541015625,-0.426055908203125
1726940539419025200,11.323025146484374,1.2205963134765625,-0.0064697265625,-0.4929962158203125
1726940539429011200,11.33301123046875,1.1639862060546875,0.007659912109375,-0.5660552978515625
1726940539438997000,11.3429970703125,1.0818634033203125,-0.00604248046875,-0.578460693359375
1726940539448983300,11.3529833984375,1.0390777587890625,0.01214599609375,-0.5370330810546875
1726940539458969000,11.362968994140624,1.0760498046875,0.0323333740234375,-0.474456787109375
1726940539468955100,11.372955078125,1.08892822265625,0.0494384765625,-0.438934326171875
1726940539478940000,11.38293994140625,1.0495147705078125,0.0773773193359375,-0.449371337890625
1726940539488926200,11.39292626953125,0.9606475830078125,0.0927734375,-0.4474029541015625
1726940539498912000,11.402912109375,0.88140869140625,0.080718994140625,-0.39166259765625
1726940539508898000,11.41289794921875,0.868133544921875,0.0794525146484375,-0.3323974609375
1726940539518884000,11.422884033203125,0.8991546630859375,0.071502685546875,-0.3301849365234375
1726940539528870100,11.4328701171875,0.8880615234375,0.047393798828125,-0.378997802734375
1726940539538855200,11.442855224609374,0.83868408203125,0.0289459228515625,-0.437835693359375
1726940539548841000,11.452841064453125,0.771728515625,0.0029144287109375,-0.448944091796875
1726940539558827300,11.4628271484375,0.6692657470703125,-0.03167724609375,-0.4164581298828125
1726940539568813000,11.47281298828125,0.573760986328125,-0.059722900390625,-0.36151123046875
1726940539578799000,11.482799072265625,0.5432891845703125,-0.098236083984375,-0.2959442138671875
1726940539588785200,11.49278515625,0.5938262939453125,-0.1472625732421875,-0.2574462890625
1726940539598771200,11.502771240234376,0.6005859375,-0.1578826904296875,-0.2465057373046875
1726940539608756000,11.512755859375,0.6596221923828125,-0.18206787109375,-0.25067138671875
1726940539618742000,11.522741943359375,0.76837158203125,-0.223114013671875,-0.2795867919921875
1726940539628728000,11.53272802734375,0.894866943359375,-0.25445556640625,-0.3440399169921875
1726940539638714000,11.542714111328126,0.9256134033203125,-0.236328125,-0.402801513671875
1726940539648699600,11.55269970703125,0.84210205078125,-0.228118896484375,-0.46978759765625
1726940539658685700,11.562685791015625,0.791015625,-0.2064361572265625,-0.4654998779296875
1726940539668670700,11.572670654296875,0.7619781494140625,-0.2068634033203125,-0.4606475830078125
1726940539678656500,11.582656494140625,0.8326416015625,-0.2198638916015625,-0.4374542236328125
1726940539688642600,11.592642578125,0.8845062255859375,-0.2216949462890625,-0.3961944580078125
1726940539698628600,11.602628662109375,0.8996734619140625,-0.2212677001953125,-0.369598388671875
1726940539708614700,11.61261474609375,0.91571044921875,-0.20806884765625,-0.3707275390625
1726940539718600400,11.622600341796876,0.9371490478515625,-0.183319091796875,-0.3963623046875
1726940539728585500,11.63258544921875,0.96063232421875,-0.143096923828125,-0.390228271484375
1726940539738571500,11.642571533203125,1.005889892578125,-0.1119384765625,-0.388946533203125
1726940539748557600,11.6525576171875,1.0100555419921875,-0.101654052734375,-0.4092559814453125
1726940539758543600,11.662543701171876,0.990325927734375,-0.0864410400390625,-0.417572021484375
1726940539768529700,11.67252978515625,1.002655029296875,-0.0652618408203125,-0.41558837890625
1726940539778515500,11.682515380859375,1.035797119140625,-0.0592041015625,-0.4193115234375
1726940539788501500,11.69250146484375,1.0609283447265625,-0.0426025390625,-0.3936767578125
1726940539798486500,11.702486572265625,1.0452880859375,-0.0227813720703125,-0.3707122802734375
1726940539808472600,11.71247265625,1.0274810791015625,-0.0172576904296875,-0.3530120849609375
1726940539818458600,11.722458740234375,1.019317626953125,-0.02471923828125,-0.313323974609375
1726940539828444400,11.7324443359375,0.9772491455078125,-0.0221099853515625,-0.2935638427734375
1726940539838430700,11.7424306640625,0.937530517578125,-0.030303955078125,-0.2457275390625
1726940539848416500,11.75241650390625,0.9346466064453125,-0.0259246826171875,-0.2443389892578125
1726940539858401500,11.762401611328125,0.9632110595703125,-0.0208587646484375,-0.274261474609375
1726940539868387600,11.7723876953125,0.971588134765625,-0.04693603515625,-0.2838592529296875
1726940539878373600,11.78237353515625,0.948822021484375,-0.0860748291015625,-0.279296875
1726940539888359400,11.792359375,0.8542938232421875,-0.134185791015625,-0.286712646484375
1726940539898345500,11.802345458984375,0.8068695068359375,-0.1939544677734375,-0.2615203857421875
1726940539908331500,11.81233154296875,0.8570098876953125,-0.2303619384765625,-0.271484375
1726940539918317600,11.822317626953126,0.9395751953125,-0.2597503662109375,-0.32891845703125
1726940539928302600,11.832302490234374,1.0138092041015625,-0.2738494873046875,-0.3559112548828125
1726940539938288600,11.84228857421875,1.07513427734375,-0.248626708984375,-0.3661041259765625
1726940539948274700,11.852274658203125,1.1009979248046875,-0.195404052734375,-0.386077880859375
1726940539958260500,11.862260498046876,1.028839111328125,-0.1545867919921875,-0.390899658203125
1726940539968246800,11.872246826171875,0.9847869873046875,-0.1587066650390625,-0.4117889404296875
1726940539978232600,11.882232666015625,0.95404052734375,-0.144256591796875,-0.42022705078125
1726940539988217600,11.892217529296875,0.992431640625,-0.1018524169921875,-0.4102325439453125
1726940539998203400,11.902203369140626,1.0621185302734375,-0.0316925048828125,-0.398162841796875
1726940540008189700,11.912189697265624,1.1214447021484375,0.0758056640625,-0.406768798828125
1726940540018175500,11.922175537109375,1.120147705078125,0.181671142578125,-0.4519195556640625
1726940540028161500,11.93216162109375,1.0162506103515625,0.242218017578125,-0.4850311279296875
1726940540038147600,11.942147705078124,0.9331817626953125,0.26214599609375,-0.490478515625
1726940540048133600,11.952133544921875,0.876190185546875,0.2920989990234375,-0.464813232421875
1726940540058118700,11.96211865234375,0.826416015625,0.3356170654296875,-0.4212799072265625
1726940540068104400,11.9721044921875,0.77459716796875,0.3994293212890625,-0.3302764892578125
1726940540078090800,11.9820908203125,0.715728759765625,0.4189453125,-0.2524566650390625
1726940540088076500,11.99207666015625,0.6677703857421875,0.4033203125,-0.207305908203125
1726940540098062600,12.0020625,0.6473541259765625,0.4044189453125,-0.129852294921875
1726940540108048600,12.012048583984376,0.6888275146484375,0.4251556396484375,-0.0569000244140625
1726940540118033700,12.02203369140625,0.7938995361328125,0.449462890625,-0.0526123046875
1726940540128019500,12.03201953125,0.8373565673828125,0.4131317138671875,-0.0588226318359375
1726940540138005500,12.042005615234375,0.73095703125,0.338134765625,-0.06597900390625
1726940540147991600,12.051991455078126,0.655670166015625,0.2740631103515625,-0.115325927734375
1726940540157977600,12.0619775390625,0.6757049560546875,0.249359130859375,-0.1632843017578125
1726940540167963400,12.07196337890625,0.70550537109375,0.2516937255859375,-0.1728057861328125
1726940540177949700,12.08194970703125,0.7441558837890625,0.2729034423828125,-0.177459716796875
1726940540187934700,12.091934814453126,0.793243408203125,0.2720794677734375,-0.181671142578125
1726940540197920500,12.10192041015625,0.818267822265625,0.260040283203125,-0.205322265625
1726940540207906600,12.111906494140625,0.8531646728515625,0.242431640625,-0.250213623046875
1726940540217892600,12.121892578125,0.97821044921875,0.2198944091796875,-0.322723388671875
1726940540227878700,12.131878662109376,1.115203857421875,0.21356201171875,-0.36932373046875
1726940540237864400,12.141864501953124,1.1720733642578125,0.21441650390625,-0.370697021484375
1726940540247849700,12.151849609375,1.1667022705078125,0.1987762451171875,-0.3577880859375
1726940540257835500,12.16183544921875,1.121978759765625,0.1200714111328125,-0.378173828125
1726940540267821600,12.171821533203126,1.1232147216796875,0.0023956298828125,-0.3746795654296875
1726940540277807400,12.181807373046874,1.1932830810546875,-0.075897216796875,-0.3448333740234375
1726940540287793700,12.191793701171875,1.22161865234375,-0.088104248046875,-0.3138885498046875
1726940540297779500,12.201779541015625,1.179534912109375,-0.0478973388671875,-0.379425048828125
1726940540307764500,12.211764404296876,1.0570831298828125,0.0017852783203125,-0.4918212890625
1726940540317750800,12.221750732421874,0.9474334716796875,0.0208282470703125,-0.5344696044921875
1726940540327736600,12.231736572265625,0.8449859619140625,0.0176544189453125,-0.505615234375
1726940540337722600,12.24172265625,0.828277587890625,0.00537109375,-0.465423583984375
1726940540347708700,12.251708740234376,0.8214874267578125,0.0022430419921875,-0.4043426513671875
1726940540357694700,12.26169482421875,0.8049468994140625,0.0197296142578125,-0.3667755126953125
1726940540367680500,12.271680419921875,0.7890472412109375,0.0434112548828125,-0.337005615234375
1726940540377665500,12.28166552734375,0.8399658203125,0.055938720703125,-0.312591552734375
1726940540387651600,12.291651611328126,0.926544189453125,0.0599517822265625,-0.292266845703125
1726940540397637600,12.3016376953125,1.0345458984375,0.0796356201171875,-0.270233154296875
1726940540407623400,12.31162353515625,1.141937255859375,0.104827880859375,-0.263885498046875
1726940540417609700,12.321609619140625,1.0954132080078125,0.0825347900390625,-0.3365325927734375
1726940540427595500,12.331595458984374,1.0033416748046875,0.0834503173828125,-0.35003662109375
1726940540437580500,12.34158056640625,0.94464111328125,0.0656585693359375,-0.3604583740234375
1726940540447566600,12.351566650390625,0.9849395751953125,0.0489501953125,-0.3392486572265625
1726940540457552600,12.361552734375,1.0901031494140625,0.0503082275390625,-0.3351287841796875
1726940540467538700,12.37153857421875,1.1462249755859375,0.044158935546875,-0.397003173828125
1726940540477524500,12.3815244140625,1.124420166015625,0.032562255859375,-0.4469757080078125
1726940540487510800,12.3915107421875,1.073516845703125,0.016632080078125,-0.43365478515625
1726940540497496600,12.40149658203125,1.0144500732421875,0.011199951171875,-0.3929443359375
1726940540507481600,12.411481689453124,1.0147247314453125,0.0004425048828125,-0.3709259033203125
1726940540517467400,12.42146728515625,1.016387939453125,-0.02447509765625,-0.4269256591796875
1726940540527453700,12.43145361328125,0.9631500244140625,-0.0613861083984375,-0.51031494140625
1726940540537439500,12.441439453125,0.8402099609375,-0.0909881591796875,-0.5179595947265625
1726940540547425500,12.451425537109374,0.7197113037109375,-0.1128692626953125,-0.4550933837890625
1726940540557411600,12.46141162109375,0.6698760986328125,-0.1302947998046875,-0.3861846923828125
1726940540567396600,12.471396728515625,0.6999359130859375,-0.167938232421875,-0.3400115966796875
1726940540577382700,12.481382568359376,0.71343994140625,-0.1866455078125,-0.3553009033203125
1726940540587368400,12.491368408203124,0.642730712890625,-0.1428680419921875,-0.3654327392578125
1726940540597354800,12.501354736328125,0.6183319091796875,-0.1395721435546875,-0.3567047119140625
1726940540607340500,12.511340576171875,0.6346435546875,-0.1454010009765625,-0.3371124267578125
1726940540617326600,12.52132666015625,0.68475341796875,-0.11962890625,-0.3013763427734375
1726940540627311600,12.5313115234375,0.7554473876953125,-0.0992889404296875,-0.30633544921875
1726940540637297700,12.541297607421875,0.7423553466796875,-0.0840606689453125,-0.3505401611328125
1726940540647283500,12.551283447265625,0.71044921875,-0.08154296875,-0.409637451171875
1726940540657269500,12.56126953125,0.80267333984375,-0.1078643798828125,-0.418975830078125
1726940540667255300,12.57125537109375,0.9416961669921875,-0.1430206298828125,-0.444244384765625
1726940540677241600,12.58124169921875,1.025360107421875,-0.1589508056640625,-0.4941253662109375
1726940540687227400,12.591227294921875,0.998565673828125,-0.1507720947265625,-0.506439208984375
1726940540697212400,12.60121240234375,0.9135894775390625,-0.1451568603515625,-0.5294036865234375
1726940540707198700,12.61119873046875,0.87225341796875,-0.119964599609375,-0.524169921875
1726940540717184500,12.6211845703125,0.89605712890625,-0.112030029296875,-0.5531158447265625
1726940540727170600,12.631170654296875,0.91595458984375,-0.104888916015625,-0.5341796875
1726940540737156400,12.64115625,0.8975830078125,-0.1068878173828125,-0.486328125
1726940540747142700,12.651142578125,0.8274383544921875,-0.10809326171875,-0.431182861328125
1726940540757128400,12.66112841796875,0.7861175537109375,-0.094757080078125,-0.4039154052734375
1726940540767113500,12.671113525390625,0.8062896728515625,-0.073089599609375,-0.386199951171875
1726940540777099500,12.681099609375,0.8520050048828125,-0.0673675537109375,-0.3329315185546875
1726940540787085600,12.69108544921875,0.89208984375,-0.076995849609375,-0.299652099609375
1726940540797071400,12.7010712890625,0.9063262939453125,-0.0909423828125,-0.2646026611328125
1726940540807057700,12.7110576171875,0.9330291748046875,-0.0902099609375,-0.2222747802734375
1726940540817043500,12.72104345703125,0.9813232421875,-0.074859619140625,-0.1672515869140625
1726940540827028500,12.731028564453124,1.063262939453125,-0.06781005859375,-0.1550445556640625
1726940540837014500,12.7410146484375,1.1449737548828125,-0.07135009765625,-0.1933441162109375
1726940540847000600,12.75100048828125,1.1325531005859375,-0.1011810302734375,-0.283935546875
1726940540856986600,12.760986572265624,1.08258056640625,-0.1102142333984375,-0.389434814453125
1726940540866972400,12.770972412109375,1.0807037353515625,-0.1077728271484375,-0.448211669921875
1726940540876958700,12.780958740234375,1.089874267578125,-0.10223388671875,-0.4622039794921875
1726940540886944500,12.790944580078126,1.076324462890625,-0.0960540771484375,-0.44720458984375
1726940540896929500,12.800929443359376,1.01214599609375,-0.1197509765625,-0.4435577392578125
1726940540906915300,12.810915283203125,0.97515869140625,-0.142303466796875,-0.4473724365234375
1726940540916901600,12.820901611328125,0.962860107421875,-0.1575927734375,-0.4449005126953125
1726940540926887400,12.830887451171876,0.9846954345703125,-0.13836669921875,-0.44244384765625
1726940540936873500,12.84087353515625,0.998687744140625,-0.1160125732421875,-0.449493408203125
1726940540946859500,12.850859619140625,1.024261474609375,-0.1105499267578125,-0.4399261474609375
1726940540956844500,12.860844482421875,1.000518798828125,-0.08331298828125,-0.4103851318359375
1726940540966830600,12.87083056640625,0.97979736328125,-0.06915283203125,-0.397369384765625
1726940540976816400,12.88081640625,0.993377685546875,-0.052520751953125,-0.4066009521484375
1726940540986802700,12.890802734375,0.9915924072265625,-0.0393524169921875,-0.4246673583984375
