time,seconds_elapsed,z,y,x
1726940528115065300,0.0190654296875,-0.22148050367832184,-1.4379812479019165,2.682116985321045
1726940528125050400,0.02905029296875,-0.09759850054979324,-1.402848243713379,2.974403142929077
1726940528135036200,0.0390361328125,-0.09138108789920807,-1.0595146417617798,3.24367618560791
1726940528145022500,0.0490224609375,-0.04012961685657501,-0.7873963117599487,3.3545548915863037
1726940528155008300,0.05900830078125,0.012437347322702408,-0.7054605484008789,3.3179705142974854
1726940528164994300,0.068994384765625,-0.0018382614944130182,-0.6781927347183228,3.146465539932251
1726940528174980400,0.07898046875,-0.05360490456223488,-0.5440444946289062,2.858433961868286
1726940528184965400,0.08896533203125,-0.07881812006235123,-0.3083038628101349,2.514559268951416
1726940528194951200,0.098951171875,-0.06600760668516159,-0.012924980372190475,2.2026052474975586
1726940528204937500,0.1089375,-0.059898052364587784,0.3667200803756714,1.91114342212677
1726940528214923300,0.11892333984375,-0.08586405217647552,0.6741757988929749,1.7054336071014404
1726940528224909300,0.128909423828125,-0.08517242968082428,0.7557297945022583,1.6333476305007935
1726940528234894300,0.138894287109375,-0.04631480947136879,0.6688371896743774,1.6929525136947632
1726940528244880400,0.14888037109375,0.3438984453678131,0.11382084339857101,1.925416111946106
1726940528254866400,0.158866455078125,0.7565479874610901,-0.5293777585029602,2.312349557876587
1726940528264852200,0.168852294921875,1.0301507711410522,-1.085136890411377,2.8187613487243652
1726940528274838500,0.178838623046875,1.1102951765060425,-1.4670605659484863,3.2495315074920654
1726940528284823300,0.1888232421875,1.02547287940979,-1.473629355430603,3.4240777492523193
1726940528294809300,0.198809326171875,0.9325363039970398,-1.37392258644104,3.4593257904052734
1726940528304795400,0.20879541015625,1.0213711261749268,-1.4651174545288086,3.502880334854126
1726940528314781400,0.218781494140625,1.2802181243896484,-1.886274814605713,3.615952968597412
1726940528324767200,0.228767333984375,1.780556321144104,-2.460061550140381,3.616039276123047
1726940528334753300,0.238753173828125,2.3475303649902344,-2.9144017696380615,3.4877519607543945
1726940528344738300,0.24873828125,2.882427215576172,-2.843762159347534,3.421708583831787
1726940528354724400,0.258724365234375,3.426133632659912,-2.937067985534668,3.2762346267700195
1726940528364710400,0.26871044921875,3.8913726806640625,-3.1106364727020264,3.189445972442627
1726940528374696200,0.2786962890625,4.225189685821533,-3.3538734912872314,3.0236258506774902
1726940528384682500,0.2886826171875,4.463664531707764,-3.3141934871673584,2.7502689361572266
1726940528394667300,0.298667236328125,4.617926120758057,-2.959406614303589,2.345538854598999
1726940528404653300,0.3086533203125,4.625894546508789,-2.5109102725982666,1.8528536558151245
1726940528414639400,0.318639404296875,4.062029838562012,-2.062130928039551,1.4991470575332642
1726940528424625400,0.32862548828125,-1.4874184131622314,-1.8531631231307983,1.9910600185394287
1726940528434611200,0.338611083984375,1.2077147960662842,-1.7152291536331177,1.7017326354980469
1726940528444596200,0.34859619140625,1.1490366458892822,-1.5899287462234497,1.6431676149368286
1726940528454582500,0.35858251953125,1.3304859399795532,-1.84923255443573,1.8716940879821777
1726940528464568300,0.368568359375,2.328834056854248,-2.158703088760376,1.863293170928955
1726940528474554400,0.378554443359375,2.8545680046081543,-2.2767951488494873,1.8779191970825195
1726940528484540200,0.3885400390625,3.28201961517334,-2.128950357437134,1.6519681215286255
1726940528494526500,0.3985263671875,2.8303399085998535,-1.6264578104019165,1.4316558837890625
1726940528504511200,0.40851123046875,2.940556764602661,-1.0308722257614136,0.9766377806663513
1726940528514497300,0.418497314453125,2.959939479827881,-0.5537254810333252,0.6241464614868164
1726940528524483300,0.4284833984375,2.9337117671966553,-0.45235970616340637,0.38791584968566895
1726940528534469400,0.438469482421875,3.012000322341919,-0.6936867237091064,0.22363008558750153
1726940528544455200,0.448455078125,2.903862714767456,-0.9556991457939148,0.25332218408584595
1726940528554440200,0.458440185546875,3.0101683139801025,-1.2145007848739624,0.2608851194381714
1726940528564426500,0.468426513671875,3.317296028137207,-1.231564998626709,0.27028658986091614
1726940528574412300,0.478412353515625,3.7972753047943115,-1.1178942918777466,0.31688934564590454
1726940528584398300,0.4883984375,4.2870330810546875,-0.86838698387146,0.14588749408721924
1726940528594384400,0.49838427734375,4.570714473724365,-0.8333126902580261,-0.09935025125741959
1726940528604370400,0.508370361328125,4.5329999923706055,-0.832953691482544,-0.18650485575199127
1726940528614355200,0.518355224609375,4.260714530944824,-0.8548595309257507,-0.17360001802444458
1726940528624341200,0.52834130859375,3.5941805839538574,-0.3390209376811981,-0.17580752074718475
1726940528634327300,0.538327392578125,1.4322608709335327,1.5864771604537964,1.2423802614212036
1726940528644313300,0.548313232421875,0.20280003547668457,0.8083496689796448,1.7594678401947021
1726940528654299100,0.558299072265625,-0.16586937010288239,0.5496482849121094,2.06862473487854
1726940528664284200,0.5682841796875,0.33522409200668335,-0.32242560386657715,1.8671422004699707
1726940528674270500,0.5782705078125,0.9331385493278503,-1.2632098197937012,1.6784346103668213
1726940528684256300,0.58825634765625,1.6544277667999268,-2.1495187282562256,1.5770049095153809
1726940528694242300,0.5982421875,2.6282036304473877,-2.4707489013671875,1.3690521717071533
1726940528704228400,0.608228271484375,3.445552349090576,-2.007091760635376,0.9767823815345764
1726940528714214400,0.61821435546875,3.6699862480163574,-1.0565091371536255,0.6406384706497192
1726940528724199200,0.62819921875,3.3707408905029297,0.13369345664978027,0.4201817214488983
1726940528734185500,0.638185546875,2.8766000270843506,0.7699131369590759,0.11630907654762268
1726940528744171300,0.648171142578125,2.480426549911499,0.7710703015327454,-0.17936570942401886
1726940528754157300,0.6581572265625,2.198512315750122,0.44453516602516174,-0.5920838117599487
1726940528764143000,0.66814306640625,2.063732385635376,0.14720922708511353,-1.0328567028045654
1726940528774128400,0.67812841796875,2.120828866958618,0.12521390616893768,-1.5113534927368164
1726940528784114400,0.688114501953125,2.1494834423065186,0.11689047515392303,-1.9138779640197754
1726940528794100200,0.698100341796875,2.101748466491699,0.02984761632978916,-2.1268410682678223
1726940528804086500,0.70808642578125,2.021937847137451,0.05356359854340553,-2.158534526824951
1726940528814072300,0.718072265625,1.8533815145492554,0.31599581241607666,-2.0915486812591553
1726940528824058400,0.728058349609375,1.6265380382537842,0.5081130862236023,-1.8926743268966675
1726940528834043400,0.73804345703125,1.4201632738113403,0.27933046221733093,-1.4414774179458618
1726940528844029400,0.748029541015625,1.3033723831176758,-0.39761337637901306,-0.62009596824646
1726940528854015200,0.75801513671875,1.2282814979553223,-1.0635372400283813,0.279147207736969
1726940528864001300,0.768001220703125,1.265354037284851,-1.380974292755127,0.8895232081413269
1726940528873987300,0.7779873046875,1.300390362739563,-1.6001253128051758,1.334873080253601
1726940528883972400,0.787972412109375,1.3948640823364258,-2.117816686630249,1.7079681158065796
1726940528893958400,0.79795849609375,1.5519174337387085,-2.638489246368408,2.087597370147705
1726940528903944200,0.807944091796875,1.7987029552459717,-2.7999954223632812,2.427913188934326
1726940528913930500,0.817930419921875,2.189363956451416,-2.9522507190704346,2.710206985473633
1726940528923916300,0.827916259765625,2.362297534942627,-2.878786563873291,2.7706105709075928
1726940528933902300,0.83790234375,2.3021914958953857,-2.688899517059326,2.938188314437866
1726940528943887400,0.847887451171875,2.1097683906555176,-2.425009250640869,3.132420063018799
1726940528953873400,0.857873291015625,1.6860097646713257,-2.2306432723999023,3.5244991779327393
1726940528963859200,0.867859130859375,0.9892778396606445,-2.285583019256592,3.7708399295806885
1726940528973845200,0.87784521484375,0.3146473169326782,-2.1979737281799316,3.821340322494507
1726940528983831300,0.887831298828125,-0.24075999855995178,-2.1645381450653076,3.700585126876831
1726940528993816300,0.89781640625,-0.7057920098304749,-2.315232276916504,3.329421281814575
1726940529003802400,0.90780224609375,-0.9917436242103577,-2.1087348461151123,2.6269783973693848
1726940529013788200,0.9177880859375,-1.0742175579071045,-1.1525702476501465,1.5020067691802979
1726940529023774500,0.9277744140625,-1.047123908996582,0.01917586661875248,0.2655305862426758
1726940529033760300,0.93776025390625,-1.077692985534668,1.1307121515274048,-0.6654177904129028
1726940529043746300,0.947746337890625,-1.5261794328689575,1.051198959350586,-0.8036856651306152
1726940529053731300,0.9577314453125,-2.2757790088653564,2.648399829864502,-0.8821521401405334
1726940529063717400,0.96771728515625,-2.874237537384033,3.8690104484558105,-0.8918218016624451
1726940529073703200,0.977703125,-2.5488293170928955,3.0953595638275146,-0.2919224500656128
1726940529083689500,0.987689453125,-2.1872856616973877,1.2249330282211304,0.22976280748844147
1726940529093675300,0.99767529296875,-2.195892333984375,-0.5576562881469727,0.45617029070854187
1726940529103661300,1.007661376953125,-2.298859119415283,-1.6650519371032715,0.46630576252937317
1726940529113646300,1.017646240234375,-2.4339120388031006,-1.8400194644927979,0.2575578987598419
1726940529123632400,1.02763232421875,-2.6190831661224365,-1.857041358947754,0.14438925683498383
1726940529133618400,1.037618408203125,-2.296468734741211,-1.6685965061187744,0.18436652421951294
1726940529143604200,1.047604248046875,-2.2356173992156982,-0.8704045414924622,-0.13941606879234314
1726940529153590500,1.057590576171875,-2.2438230514526367,0.2886572778224945,-0.57668137550354
1726940529163575300,1.0675751953125,-2.369600296020508,1.1357091665267944,-1.0217784643173218
1726940529173561300,1.077561279296875,-2.601428747177124,1.3919066190719604,-1.308961033821106
1726940529183547100,1.087547119140625,-2.551302671432495,1.120131492614746,-1.5472193956375122
1726940529193533400,1.097533447265625,-2.556776762008667,0.633243978023529,-1.7578154802322388
1726940529203519200,1.107519287109375,-2.25317120552063,-0.14568935334682465,-1.9608203172683716
1726940529213505300,1.11750537109375,-2.0151634216308594,-1.1179139614105225,-2.2088887691497803
1726940529223490300,1.127490234375,-2.271430492401123,-1.8442317247390747,-2.423872232437134
1726940529233476400,1.137476318359375,-2.4760169982910156,-2.454784631729126,-2.5463335514068604
1726940529243462400,1.14746240234375,-2.551647186279297,-2.9009857177734375,-2.604130744934082
1726940529253448200,1.1574482421875,-2.7937843799591064,-3.168527841567993,-2.566425085067749
1726940529263434500,1.1674345703125,-3.220590829849243,-3.5378527641296387,-2.5393195152282715
1726940529273419300,1.177419189453125,-3.8203284740448,-4.121518611907959,-2.4140331745147705
1726940529283405300,1.1874052734375,-4.391848087310791,-4.701364040374756,-2.1181516647338867
1726940529293391000,1.19739111328125,-3.972956418991089,-5.180523872375488,-1.2640767097473145
1726940529303377400,1.20737744140625,-2.5794026851654053,-4.9553728103637695,-0.3686406910419464
1726940529313363200,1.21736328125,-1.438644528388977,-3.9492452144622803,0.1848107874393463
1726940529323349200,1.227349365234375,-0.7331076264381409,-1.8053964376449585,0.2404322326183319
1726940529333334500,1.23733447265625,-0.5646871328353882,0.6009742021560669,0.03770081326365471
1726940529343320300,1.2473203125,-0.5188474655151367,1.5899391174316406,-0.32246747612953186
1726940529353306400,1.257306396484375,-0.16486020386219025,1.291208028793335,-0.4767358601093292
1726940529363292400,1.26729248046875,0.07435716688632965,0.49788302183151245,-0.5603636503219604
1726940529373278500,1.277278564453125,0.2283950299024582,-0.11526596546173096,-0.5874496698379517
1726940529383264300,1.28726416015625,0.35002002120018005,-0.32243406772613525,-0.5636729598045349
1726940529393249300,1.297249267578125,0.5179248452186584,-0.2816924750804901,-0.5212628841400146
1726940529403235300,1.3072353515625,0.5543822050094604,-0.15572521090507507,-0.4986124038696289
1726940529413221400,1.317221435546875,0.5133622884750366,-0.05407669022679329,-0.546428382396698
1726940529423207200,1.327207275390625,0.43265461921691895,-0.009877537377178669,-0.6389697790145874
1726940529433193500,1.337193359375,0.39881429076194763,0.04876821115612984,-0.6874783039093018
1726940529443178500,1.347178466796875,0.3847203254699707,0.16889728605747223,-0.6519832015037537
1726940529453164300,1.357164306640625,0.34981173276901245,0.2801763415336609,-0.5797294974327087
1726940529463150300,1.367150390625,0.28392139077186584,0.3510744869709015,-0.46345213055610657
1726940529473136400,1.377136474609375,0.19989198446273804,0.4121744930744171,-0.3290376663208008
1726940529483122400,1.387122314453125,0.11972551792860031,0.4422929883003235,-0.19865967333316803
1726940529493108200,1.397108154296875,0.03480891138315201,0.4471442401409149,-0.07491718977689743
1726940529503093200,1.40709326171875,-0.06019962951540947,0.43365558981895447,0.01151969376951456
1726940529513079300,1.417079345703125,-0.13614538311958313,0.41175469756126404,0.06176561117172241
1726940529523065300,1.4270654296875,-0.14255908131599426,0.3937522768974304,0.10617142915725708
1726940529533051100,1.437051025390625,-0.10023397207260132,0.3768603503704071,0.1410287469625473
1726940529543037400,1.447037353515625,-0.025110190734267235,0.35932183265686035,0.16726861894130707
1726940529553023200,1.457023193359375,0.07441333681344986,0.3710455298423767,0.19469383358955383
1726940529563008300,1.46700830078125,0.16923199594020844,0.3972363770008087,0.2277146428823471
1726940529572994300,1.476994384765625,0.23548540472984314,0.4229162335395813,0.2735569179058075
1726940529582980400,1.48698046875,0.2490302324295044,0.47847774624824524,0.3196476995944977
1726940529592966400,1.49696630859375,0.2103516012430191,0.5175240635871887,0.33984363079071045
1726940529602952200,1.5069521484375,0.14118692278862,0.5105391144752502,0.34659767150878906
1726940529612937500,1.5169375,0.10267773270606995,0.4631938338279724,0.3660655617713928
1726940529622923300,1.52692333984375,0.11540870368480682,0.4159544110298157,0.39273393154144287
1726940529632909000,1.536908935546875,0.1700219064950943,0.41325643658638,0.3845612704753876
1726940529642895000,1.54689501953125,0.25269681215286255,0.43428635597229004,0.33827313780784607
1726940529652881000,1.556880859375,0.3591725528240204,0.41754868626594543,0.27654245495796204
1726940529662867000,1.566866943359375,0.45903176069259644,0.3600209355354309,0.1927170753479004
1726940529672852000,1.57685205078125,0.5431503057479858,0.2856447398662567,0.11011030524969101
1726940529682838000,1.586838134765625,0.5698594450950623,0.22191663086414337,0.008182079531252384
1726940529692823800,1.59682373046875,0.5344054102897644,0.2124679684638977,-0.10212847590446472
1726940529702810000,1.60681005859375,0.45049405097961426,0.27228203415870667,-0.20780830085277557
1726940529712796000,1.6167958984375,0.36917442083358765,0.3609876036643982,-0.28090912103652954
1726940529722781000,1.626781005859375,0.2983846962451935,0.3796912431716919,-0.3311168849468231
1726940529732767000,1.63676708984375,0.24610862135887146,0.35837578773498535,-0.3430626392364502
1726940529742753000,1.6467529296875,0.25677672028541565,0.328179270029068,-0.29558777809143066
1726940529752739000,1.656739013671875,0.3152366876602173,0.2959420680999756,-0.18959477543830872
1726940529762724900,1.666724853515625,0.3445011079311371,0.2869589626789093,-0.04805602505803108
1726940529772711000,1.6767109375,0.3141832947731018,0.32263079285621643,0.09809932857751846
1726940529782696000,1.686696044921875,0.2734329402446747,0.36724406480789185,0.23290321230888367
1726940529792682000,1.696681884765625,0.2359246164560318,0.39743268489837646,0.3664006292819977
1726940529802667800,1.706667724609375,0.19313134253025055,0.4255487620830536,0.4924752116203308
1726940529812654000,1.716654052734375,0.11963529139757156,0.4381527006626129,0.6191955804824829
1726940529822639900,1.726639892578125,0.021357189863920212,0.4194889962673187,0.7516207695007324
1726940529832626000,1.7366259765625,-0.07493381947278976,0.3974979519844055,0.890125036239624
1726940529842611200,1.746611083984375,-0.15237800776958466,0.4126119315624237,1.0101712942123413
1726940529852597000,1.756596923828125,-0.18701930344104767,0.4799840748310089,1.1160699129104614
1726940529862583000,1.7665830078125,-0.15096169710159302,0.5879438519477844,1.1879240274429321
1726940529872568800,1.77656884765625,-0.028930654749274254,0.7110859751701355,1.2105976343154907
1726940529882555000,1.786554931640625,0.13011065125465393,0.8038004636764526,1.1626253128051758
1726940529892540000,1.796539794921875,0.2582428455352783,0.822126567363739,1.0419578552246094
1726940529902526000,1.80652587890625,0.26365625858306885,0.7339751124382019,0.8638224601745605
1726940529912512000,1.816511962890625,0.20524242520332336,0.5373497605323792,0.6471120715141296
1726940529922498000,1.826498046875,0.1515624076128006,0.27376502752304077,0.406526654958725
1726940529932483800,1.83648388671875,0.11971623450517654,-0.008202390745282173,0.157822385430336
1726940529942470100,1.84647021484375,0.1353343427181244,-0.2649436295032501,-0.09892392158508301
1726940529952455200,1.856455078125,0.23881541192531586,-0.4951604902744293,-0.3439673185348511
1726940529962441000,1.86644091796875,0.4630778133869171,-0.621572732925415,-0.5621116757392883
1726940529972427000,1.876427001953125,0.6466916799545288,-0.6255015730857849,-0.7637804746627808
1726940529982413000,1.8864130859375,0.6916261315345764,-0.5872479677200317,-0.9298690557479858
1726940529992399000,1.896399169921875,0.6299495697021484,-0.5315198302268982,-1.0276376008987427
1726940530002385000,1.906385009765625,0.5476828813552856,-0.4746379256248474,-1.0192543268203735
1726940530012370000,1.916369873046875,0.5163837671279907,-0.4091791808605194,-0.9255113005638123
1726940530022356000,1.92635595703125,0.5009704232215881,-0.3243068754673004,-0.8042589426040649
1726940530032342000,1.936342041015625,0.4857284724712372,-0.23430687189102173,-0.6478698253631592
1726940530042327800,1.946327880859375,0.49198663234710693,-0.12076379358768463,-0.43774348497390747
1726940530052314000,1.956314208984375,0.5066744089126587,0.09284297376871109,-0.22124134004116058
1726940530062299100,1.966299072265625,0.5368956923484802,0.3671397864818573,0.015044694766402245
1726940530072285000,1.976284912109375,0.5182669758796692,0.5650798082351685,0.26089978218078613
1726940530082271000,1.98627099609375,0.4496897757053375,0.6735711097717285,0.4653778374195099
1726940530092257000,1.996257080078125,0.3479093611240387,0.7027445435523987,0.623193085193634
1726940530102243000,2.0062431640625,0.23332980275154114,0.6865307092666626,0.7350160479545593
1726940530112228900,2.016228759765625,0.11018772423267365,0.6848604679107666,0.7538439631462097
1726940530122214100,2.026214111328125,-0.01933031901717186,0.6764829754829407,0.7113798260688782
1726940530132200000,2.036199951171875,-0.1573365181684494,0.6363619565963745,0.6534087657928467
1726940530142186000,2.04618603515625,-0.303682804107666,0.580364465713501,0.5719104409217834
1726940530152171800,2.056171875,-0.4660448431968689,0.5279760360717773,0.4676468074321747
1726940530162158000,2.066157958984375,-0.6369350552558899,0.47088077664375305,0.3202725350856781
1726940530172143900,2.076143798828125,-0.7188803553581238,0.36916613578796387,0.18332511186599731
1726940530182129000,2.08612890625,-0.719833254814148,0.15444347262382507,-0.01155010424554348
1726940530192115000,2.096114990234375,-0.5888882279396057,-0.10327496379613876,-0.13692916929721832
1726940530202101000,2.10610107421875,-0.34728893637657166,-0.3889913856983185,-0.21063774824142456
1726940530212087000,2.116087158203125,-0.015080179087817669,-0.6494929194450378,-0.1604120284318924
1726940530222073000,2.126072998046875,0.4299372434616089,-0.9189385175704956,-0.09353660047054291
1726940530232059000,2.136058837890625,0.8846075534820557,-1.1135985851287842,-0.056947849690914154
1726940530242044000,2.1460439453125,1.2810020446777344,-1.202063798904419,-0.08136371523141861
1726940530252030000,2.156030029296875,1.3859059810638428,-1.0634558200836182,-0.16340920329093933
1726940530262016000,2.16601611328125,1.185337781906128,-0.8010444641113281,-0.24960772693157196
1726940530272002000,2.176001953125,0.7927695512771606,-0.5486025810241699,-0.3298695385456085
1726940530281987800,2.18598779296875,0.3639202415943146,-0.34768328070640564,-0.36348584294319153
1726940530291972900,2.195972900390625,0.003156521823257208,-0.2745687663555145,-0.3804737329483032
1726940530301959000,2.205958984375,-0.24506713449954987,-0.2689303159713745,-0.3019554913043976
1726940530311945000,2.215945068359375,-0.39586660265922546,-0.37501856684684753,-0.2050429880619049
1726940530321931000,2.225930908203125,-0.4307611882686615,-0.3876294195652008,-0.12257740646600723
1726940530331917000,2.2359169921875,-0.36130064725875854,-0.22275932133197784,-0.1251293122768402
1726940530341902800,2.24590283203125,-0.3103719651699066,-0.07440900057554245,-0.17615680396556854
1726940530351888000,2.255887939453125,-0.2816445529460907,-0.0378650464117527,-0.23993602395057678
1726940530361874000,2.2658740234375,-0.21703974902629852,0.001394740305840969,-0.2967633605003357
1726940530371860000,2.27585986328125,-0.08861694484949112,0.07212666422128677,-0.33698299527168274
1726940530381846000,2.285845947265625,-0.047180287539958954,0.16759461164474487,-0.37759140133857727
1726940530391831800,2.295831787109375,-0.10626362264156342,0.24119462072849274,-0.39462506771087646
1726940530401818000,2.305818115234375,-0.2070365697145462,0.2815694808959961,-0.35978081822395325
1726940530411803000,2.315802978515625,-0.25911325216293335,0.27411866188049316,-0.2831263244152069
1726940530421789000,2.325788818359375,-0.26212236285209656,0.23100288212299347,-0.21631906926631927
1726940530431775000,2.33577490234375,-0.29708266258239746,0.18862949311733246,-0.1753341555595398
1726940530441761000,2.345760986328125,-0.3610754907131195,0.16342400014400482,-0.16601122915744781
1726940530451746800,2.355746826171875,-0.4935517907142639,0.12953238189220428,-0.21998552978038788
1726940530461732900,2.36573291015625,-0.6244013905525208,0.10744864493608475,-0.28910306096076965
1726940530471718100,2.37571826171875,-0.681675910949707,0.09480826556682587,-0.352200448513031
1726940530481704000,2.385703857421875,-0.604491114616394,0.04074929282069206,-0.3711642622947693
1726940530491690000,2.39568994140625,-0.4619748890399933,-0.10445279628038406,-0.350183367729187
1726940530501676000,2.405676025390625,-0.37612178921699524,-0.2753651440143585,-0.3431587517261505
1726940530511662000,2.415662109375,-0.28864172101020813,-0.4030425548553467,-0.32907411456108093
1726940530521647000,2.425647216796875,-0.19224673509597778,-0.4800894260406494,-0.3138892948627472
1726940530531633000,2.4356328125,-0.11873684823513031,-0.5069452524185181,-0.3294576406478882
1726940530541619000,2.445618896484375,-0.11690273135900497,-0.49396631121635437,-0.33448514342308044
1726940530551605000,2.45560498046875,-0.2508506178855896,-0.4194861352443695,-0.3537660241127014
1726940530561590800,2.4655908203125,-0.41556447744369507,-0.2637857496738434,-0.4023761749267578
1726940530571577000,2.4755771484375,-0.42067840695381165,-0.0679411068558693,-0.44832953810691833
1726940530581562000,2.48556201171875,-0.22183158993721008,0.03349550440907478,-0.4181404709815979
1726940530591548000,2.4955478515625,0.02473519742488861,0.09540080279111862,-0.3424980938434601
1726940530601534000,2.505533935546875,0.237727090716362,0.110025554895401,-0.3032372295856476
1726940530611520000,2.51552001953125,0.26095178723335266,0.04205701872706413,-0.28408873081207275
1726940530621506000,2.525506103515625,0.19731368124485016,-0.05015067383646965,-0.2569865584373474
1726940530631491600,2.53549169921875,0.16382810473442078,0.029612326994538307,-0.2922908365726471
1726940530641476600,2.5454765625,0.13617517054080963,0.1618068516254425,-0.380202054977417
1726940530651463000,2.555462890625,0.044338978826999664,0.3026029169559479,-0.46779748797416687
1726940530661448700,2.56544873046875,-0.04944556951522827,0.3802409768104553,-0.4927382469177246
1726940530671434800,2.575434814453125,-0.16879256069660187,0.3445033133029938,-0.4410363435745239
1726940530681420800,2.5854208984375,-0.18216750025749207,0.231678768992424,-0.3722780644893646
1726940530691406800,2.59540673828125,-0.05561452358961105,0.136301189661026,-0.3210325837135315
1726940530701391600,2.6053916015625,0.14657771587371826,0.11619272828102112,-0.3626857399940491
1726940530711377700,2.615377685546875,0.32955402135849,0.06550823152065277,-0.4639953672885895
1726940530721363700,2.62536376953125,0.4549063444137573,-0.10837461799383163,-0.5385492444038391
1726940530731349800,2.635349853515625,0.5074501633644104,-0.3227969706058502,-0.5517213940620422
1726940530741335600,2.64533544921875,0.5597373247146606,-0.45075440406799316,-0.4780825674533844
1726940530751321900,2.65532177734375,0.6515251398086548,-0.43621936440467834,-0.3161202371120453
1726940530761307000,2.665306884765625,0.6433015465736389,-0.41621822118759155,-0.08930518478155136
1726940530771292700,2.675292724609375,0.5966402292251587,-0.2959496080875397,0.14380402863025665
1726940530781278700,2.68527880859375,0.5388986468315125,-0.16566859185695648,0.32897627353668213
1726940530791264800,2.6952646484375,0.48662447929382324,-0.009318038821220398,0.5032069683074951
1726940530801250800,2.705250732421875,0.4864415228366852,0.14396844804286957,0.6922005414962769
1726940530811235600,2.715235595703125,0.420249342918396,0.19956277310848236,0.9416472315788269
1726940530821222000,2.725221923828125,0.3080812394618988,0.2339351326227188,1.212662696838379
1726940530831207700,2.735207763671875,0.20628072321414948,0.2930302023887634,1.4570722579956055
1726940530841193700,2.74519384765625,0.09062335640192032,0.41688451170921326,1.618417739868164
1726940530851179500,2.755179443359375,0.009938542731106281,0.5402213335037231,1.6905055046081543
1726940530861165800,2.765165771484375,-0.10829035937786102,0.6659936904907227,1.8199987411499023
1726940530871150800,2.77515087890625,-0.2866264283657074,0.7187076807022095,1.9712532758712769
1726940530881136600,2.78513671875,-0.4300485849380493,0.6899681687355042,2.0698938369750977
1726940530891123000,2.795123046875,-0.4801119565963745,0.6551613211631775,2.1173598766326904
1726940530901108700,2.805108642578125,-0.4364704489707947,0.5950205326080322,2.134965181350708
1726940530911094800,2.8150947265625,-0.3629038631916046,0.4902788996696472,2.134692668914795
1726940530921080800,2.825080810546875,-0.29314130544662476,0.3722776770591736,2.1016647815704346
1726940530931065900,2.83506591796875,-0.3047194480895996,0.30674734711647034,2.036943197250366
1726940530941051600,2.8450517578125,-0.3846243917942047,0.28718218207359314,1.9613714218139648
1726940530951037700,2.85503759765625,-0.46156299114227295,0.3020002245903015,1.8909605741500854
1726940530961023700,2.865023681640625,-0.4875096380710602,0.3680327534675598,1.8131773471832275
1726940530971009800,2.875009765625,-0.4244644045829773,0.4755609631538391,1.7239130735397339
1726940530980995600,2.88499560546875,-0.2541544437408447,0.5602878332138062,1.66352379322052
1726940530990980600,2.894980712890625,-0.024110201746225357,0.5983971953392029,1.5629292726516724
1726940531000967000,2.904966796875,0.12781116366386414,0.5875091552734375,1.361926555633545
1726940531010952700,2.91495263671875,0.08787159621715546,0.5151192545890808,1.043127417564392
1726940531020938800,2.924938720703125,-0.1044754758477211,0.270808607339859,0.6567639708518982
1726940531030924800,2.9349248046875,-0.322087824344635,-0.0959211215376854,0.2439524233341217
1726940531040909800,2.944909912109375,-0.4886581599712372,-0.42090827226638794,-0.1443505734205246
1726940531050895600,2.9548955078125,-0.566178023815155,-0.6070343852043152,-0.46561774611473083
1726940531060881700,2.964881591796875,-0.5550998449325562,-0.6563201546669006,-0.6495912671089172
1726940531070867700,2.97486767578125,-0.5655278563499451,-0.7779237031936646,-0.7476658821105957
1726940531080853800,2.984853759765625,-0.5668343901634216,-0.9747329354286194,-0.8049097061157227
1726940531090839600,2.994839599609375,-0.48378676176071167,-1.0621767044067383,-0.8631991147994995
1726940531100824800,3.004824951171875,-0.3085680902004242,-1.0167155265808105,-0.9633150696754456
1726940531110811000,3.014810791015625,-0.09648524969816208,-0.9083620309829712,-1.130950689315796
1726940531120796700,3.024796630859375,0.054041940718889236,-0.7495760917663574,-1.3541712760925293
1726940531130782700,3.03478271484375,0.10977424681186676,-0.5651815533638,-1.6162493228912354
1726940531140768800,3.044768798828125,0.10426576435565948,-0.40953385829925537,-1.8418188095092773
1726940531150754800,3.0547548828125,0.08001359552145004,-0.31513336300849915,-1.9769811630249023
1726940531160739600,3.064739501953125,0.05273403972387314,-0.24609702825546265,-1.9945480823516846
1726940531170726000,3.074725830078125,0.0829036682844162,-0.17973043024539948,-1.8985111713409424
1726940531180711700,3.084711669921875,0.10031488537788391,-0.07481546700000763,-1.7301520109176636
1726940531190697700,3.09469775390625,0.07648205757141113,0.0775347650051117,-1.5380808115005493
1726940531200683800,3.104683837890625,0.03320568799972534,0.2747120261192322,-1.3106467723846436
1726940531210669800,3.114669921875,-0.08513923734426498,0.45458662509918213,-1.073695421218872
1726940531220654800,3.12465478515625,-0.2991492748260498,0.5335466861724854,-0.8421915769577026
1726940531230640600,3.134640625,-0.5469356775283813,0.42639127373695374,-0.6305102705955505
1726940531240626700,3.144626708984375,-0.7378119230270386,0.14276088774204254,-0.3111138641834259
1726940531250612700,3.15461279296875,-0.81694096326828,-0.0749480202794075,0.0974806398153305
1726940531260598800,3.164598876953125,-0.7684088349342346,-0.17894232273101807,0.5219938158988953
1726940531270583600,3.17458349609375,-0.6564660668373108,-0.21239183843135834,0.8368256092071533
1726940531280569900,3.18456982421875,-0.5665827393531799,-0.12146032601594925,0.9762982726097107
1726940531290555600,3.1945556640625,-0.539419949054718,0.0896647647023201,0.9172459840774536
1726940531300541700,3.204541748046875,-0.5587211847305298,0.2727922201156616,0.727588415145874
1726940531310527700,3.21452783203125,-0.6205098628997803,0.3391990065574646,0.455599308013916
1726940531320513800,3.224513671875,-0.6719480156898499,0.24191078543663025,0.20690132677555084
1726940531330498800,3.234498779296875,-0.6805321574211121,0.020214907824993134,-0.00027477508410811424
1726940531340484600,3.244484619140625,-0.5976614952087402,-0.19553042948246002,-0.15329787135124207
1726940531350470700,3.254470703125,-0.4516441822052002,-0.3822411298751831,-0.2555696666240692
1726940531360456700,3.264456787109375,-0.26315709948539734,-0.531689465045929,-0.3168303668498993
1726940531370442800,3.27444287109375,-0.0831935778260231,-0.6848210692405701,-0.3598311245441437
1726940531380428800,3.2844287109375,0.07407300919294357,-0.8168342113494873,-0.3948777914047241
1726940531390413800,3.294413818359375,0.1784377545118332,-0.9328365921974182,-0.44709470868110657
1726940531400399600,3.304399658203125,0.1835843175649643,-1.0360221862792969,-0.5344525575637817
1726940531410385700,3.3143857421875,0.12831154465675354,-1.178145170211792,-0.619442880153656
1726940531420371700,3.324371826171875,0.006131032481789589,-1.3550994396209717,-0.6869654655456543
1726940531430357800,3.334357666015625,-0.1500413417816162,-1.485299825668335,-0.7044823169708252
1726940531440342800,3.3443427734375,-0.29565396904945374,-1.4941977262496948,-0.6693466901779175
1726940531450328800,3.354328857421875,-0.3985156714916229,-1.3659534454345703,-0.5861057639122009
1726940531460314600,3.364314697265625,-0.49243924021720886,-1.1622426509857178,-0.5189245939254761
1726940531470300700,3.37430078125,-0.5354894995689392,-0.9000442624092102,-0.4890643060207367
1726940531480286700,3.38428662109375,-0.5006178021430969,-0.6228166818618774,-0.41597625613212585
1726940531490272800,3.394272705078125,-0.5028718113899231,-0.3345971405506134,-0.3800741732120514
1726940531500257800,3.4042578125,-0.5262128710746765,-0.049083102494478226,-0.38813236355781555
1726940531510243600,3.41424365234375,-0.5594999194145203,0.18859556317329407,-0.4147239923477173
1726940531520230000,3.42422998046875,-0.558843731880188,0.33683907985687256,-0.44089487195014954
1726940531530215700,3.434215576171875,-0.47596797347068787,0.3874243497848511,-0.44113361835479736
1726940531540201700,3.44420166015625,-0.3553033471107483,0.38674765825271606,-0.4000716805458069
1726940531550187800,3.454187744140625,-0.2507961690425873,0.33105477690696716,-0.34974387288093567
1726940531560172800,3.4641728515625,-0.20926974713802338,0.25057724118232727,-0.32705506682395935
1726940531570158800,3.474158935546875,-0.19930177927017212,0.1661124974489212,-0.3174801170825958
1726940531580144600,3.48414453125,-0.20030632615089417,0.08901344984769821,-0.29453858733177185
1726940531590130700,3.494130615234375,-0.18518400192260742,0.07087695598602295,-0.27172204852104187
1726940531600116700,3.50411669921875,-0.2037787288427353,0.062906913459301,-0.25681740045547485
1726940531610102500,3.5141025390625,-0.20450447499752045,0.0906081348657608,-0.24110212922096252
1726940531620087600,3.524087646484375,-0.16415785253047943,0.19170013070106506,-0.21214504539966583
1726940531630073900,3.534073974609375,-0.09980545192956924,0.36302998661994934,-0.17942620813846588
1726940531640060000,3.544059814453125,-0.05192634463310242,0.5165590643882751,-0.1570519208908081
1726940531650046000,3.5540458984375,-0.04407123103737831,0.5804150104522705,-0.13494211435317993
1726940531660031700,3.56403173828125,-0.056658126413822174,0.5353468656539917,-0.1882849633693695
1726940531670018000,3.57401806640625,-0.1104511171579361,0.4771204888820648,-0.2578314244747162
1726940531680002800,3.5840029296875,-0.1743456870317459,0.31480109691619873,-0.3653131425380707
1726940531689988900,3.59398876953125,-0.1763971745967865,0.08015330880880356,-0.43369072675704956
1726940531699974700,3.603974609375,-0.1617220938205719,-0.14911769330501556,-0.463847815990448
1726940531709961000,3.6139609375,-0.1274138242006302,-0.25477102398872375,-0.4117324948310852
1726940531719946800,3.62394677734375,-0.08733750134706497,-0.29289016127586365,-0.30436956882476807
1726940531729931800,3.633931884765625,-0.08174113184213638,-0.45727723836898804,-0.24720534682273865
1726940531739918000,3.64391796875,-0.19688691198825836,-0.7638925909996033,-0.2872491776943207
1726940531749904000,3.65390380859375,-0.40843066573143005,-0.951409637928009,-0.34099140763282776
1726940531759890000,3.663889892578125,-0.6970452070236206,-0.7860025763511658,-0.29302603006362915
1726940531769875700,3.673875732421875,-0.9653460383415222,-0.32453328371047974,-0.185216024518013
1726940531779862000,3.683862060546875,-1.1548014879226685,0.25670722126960754,-0.03060833364725113
1726940531789846800,3.6938466796875,-1.3251088857650757,0.6699222326278687,0.038248609751462936
1726940531799832800,3.703832763671875,-1.4134695529937744,0.877224862575531,0.023241696879267693
1726940531809819000,3.71381884765625,-1.523991584777832,0.9729175567626953,-0.062135253101587296
1726940531819805000,3.723804931640625,-1.5580720901489258,1.0381766557693481,-0.19079121947288513
1726940531829790700,3.733790771484375,-1.4271548986434937,1.0361664295196533,-0.3410792648792267
1726940531839777000,3.743777099609375,-1.1796200275421143,0.9787558317184448,-0.46466541290283203
1726940531849762000,3.753761962890625,-0.8367602825164795,0.7823106646537781,-0.5536295771598816
1726940531859747800,3.763747802734375,-0.4539170563220978,0.46939799189567566,-0.6188395023345947
1726940531869734000,3.77373388671875,-0.10512688755989075,0.13984954357147217,-0.6256130933761597
1726940531879720000,3.783719970703125,0.17596310377120972,-0.07579726725816727,-0.5020977854728699
1726940531889706000,3.7937060546875,0.39444980025291443,-0.20799756050109863,-0.33730825781822205
1726940531899690800,3.803690673828125,0.5244989395141602,-0.2916458547115326,-0.11445120722055435
1726940531909676800,3.8136767578125,0.5539406538009644,-0.4494549036026001,0.06851433962583542
1726940531919662800,3.823662841796875,0.5477269291877747,-0.48048150539398193,0.16457615792751312
1726940531929649000,3.83364892578125,0.5684728026390076,-0.3319774568080902,0.1830620914697647
1726940531939634700,3.843634765625,0.6125332117080688,-0.228268101811409,0.13575556874275208
1726940531949621000,3.85362109375,0.6510316729545593,-0.18782897293567657,0.05375524237751961
1726940531959606000,3.86360595703125,0.6541593074798584,-0.15170399844646454,-0.041637055575847626
1726940531969591800,3.873591796875,0.616809606552124,-0.17253030836582184,-0.12539243698120117
1726940531979577900,3.883577880859375,0.5780491232872009,-0.23882810771465302,-0.20880663394927979
1726940531989564000,3.89356396484375,0.5997893810272217,-0.21959349513053894,-0.23608921468257904
1726940531999550000,3.903550048828125,0.6402633190155029,-0.19644875824451447,-0.2756773829460144
1726940532009535700,3.91353564453125,0.6952303051948547,-0.28178924322128296,-0.34882646799087524
1726940532019521000,3.92352099609375,0.7386070489883423,-0.38984647393226624,-0.40279915928840637
1726940532029506800,3.9335068359375,0.7312005758285522,-0.4265919327735901,-0.39597848057746887
1726940532039492900,3.943492919921875,0.6448696851730347,-0.45326241850852966,-0.37883463501930237
1726940532049478700,3.953478759765625,0.4741869270801544,-0.4615117013454437,-0.40453240275382996
1726940532059465000,3.96346484375,0.2865152955055237,-0.3529716432094574,-0.4551202058792114
1726940532069450800,3.97345068359375,0.13047024607658386,-0.25786256790161133,-0.5338598489761353
1726940532079435800,3.983435791015625,0.04441019147634506,-0.18237179517745972,-0.6100513339042664
1726940532089422000,3.993422119140625,0.005402459297329187,-0.05217253789305687,-0.6252263188362122
1726940532099408000,4.003407958984375,0.00227324478328228,0.0359748974442482,-0.5823957920074463
1726940532109394000,4.013393798828125,-0.016331147402524948,0.0049226293340325356,-0.5134328007698059
1726940532119380000,4.0233798828125,-0.027439191937446594,-0.07305871695280075,-0.43795937299728394
1726940532129365000,4.033364990234375,-0.048391424119472504,-0.14217352867126465,-0.35791876912117004
1726940532139350800,4.043350830078125,-0.10073532164096832,-0.1287410855293274,-0.2789880037307739
1726940532149336800,4.0533369140625,-0.13580277562141418,-0.05573248118162155,-0.21291235089302063
1726940532159323000,4.063322998046875,-0.16878123581409454,0.035230182111263275,-0.16879229247570038
1726940532169309000,4.073308837890625,-0.13855266571044922,0.058580800890922546,-0.158944234251976
1726940532179294700,4.083294677734375,-0.04997139796614647,0.11088661104440689,-0.11733075231313705
1726940532189279700,4.09327978515625,0.0678464025259018,0.10664863139390945,-0.06518188863992691
1726940532199266000,4.10326611328125,0.1717914491891861,0.04637330025434494,-0.021921226754784584
1726940532209251800,4.113251953125,0.28474751114845276,0.007464122027158737,0.05560034513473511
1726940532219238000,4.12323779296875,0.3543793261051178,-0.14290674030780792,0.11043430119752884
1726940532229224000,4.133223876953125,0.36841145157814026,-0.2858560085296631,0.11661377549171448
1726940532239210000,4.1432099609375,0.3805621266365051,-0.4287886619567871,0.13945384323596954
1726940532249194800,4.15319482421875,0.354710191488266,-0.4421162009239197,0.1849910318851471
1726940532259180800,4.163180908203125,0.315109521150589,-0.33701586723327637,0.2336997091770172
1726940532269166800,4.173166748046875,0.24991054832935333,-0.17949451506137848,0.23466944694519043
1726940532279153000,4.18315283203125,0.20150414109230042,-0.06046879664063454,0.2348015457391739
1726940532289138700,4.193138671875,0.16104811429977417,0.0013249851763248444,0.20804454386234283
1726940532299123700,4.203123779296875,0.15486878156661987,-0.004599216394126415,0.15027153491973877
1726940532309110000,4.213110107421875,0.21261800825595856,-0.06188548728823662,0.1077960878610611
1726940532319095800,4.223095703125,0.32110801339149475,-0.14055660367012024,0.08071200549602509
1726940532329081900,4.233081787109375,0.42011648416519165,-0.1976969838142395,0.038598597049713135
1726940532339068000,4.24306787109375,0.5075153112411499,-0.2631804049015045,-0.010293310508131981
1726940532349054000,4.253053955078125,0.6132586002349854,-0.36093828082084656,-0.03982166573405266
1726940532359038700,4.263038818359375,0.7187412977218628,-0.4699214994907379,-0.06057434901595116
1726940532369025000,4.27302490234375,0.7950040102005005,-0.5473089814186096,-0.111940898001194
1726940532379010800,4.2830107421875,0.8665487766265869,-0.5893229842185974,-0.16320115327835083
1726940532388996900,4.292996826171875,0.9068337678909302,-0.6320351958274841,-0.2241951823234558
1726940532398982700,4.302982666015625,0.9068710207939148,-0.6843780279159546,-0.28219377994537354
1726940532408969000,4.312968994140625,0.8479651808738708,-0.6817004680633545,-0.32020339369773865
1726940532418954000,4.3229541015625,0.7551017999649048,-0.6040744185447693,-0.3359682261943817
1726940532428939800,4.332939697265625,0.6608438491821289,-0.5474613904953003,-0.3165939450263977
1726940532438926000,4.342926025390625,0.5700971484184265,-0.533291757106781,-0.26413366198539734
1726940532448912000,4.352911865234375,0.4975055754184723,-0.4581369459629059,-0.1888081133365631
1726940532458898000,4.36289794921875,0.4425232708454132,-0.2799040973186493,-0.12861773371696472
1726940532468884000,4.372884033203125,0.4147565960884094,-0.11522342264652252,-0.12390004098415375
1726940532478869000,4.382868896484375,0.41298454999923706,-0.07435855269432068,-0.17044755816459656
1726940532488854800,4.392854736328125,0.4502114951610565,-0.08557677268981934,-0.23375387489795685
1726940532498840800,4.4028408203125,0.5060427784919739,-0.10357575118541718,-0.2921820282936096
1726940532508827000,4.412826904296875,0.5688838362693787,-0.1377796232700348,-0.3216390311717987
1726940532518813000,4.42281298828125,0.6215353012084961,-0.10752078145742416,-0.2925349473953247
1726940532528798000,4.4327978515625,0.6850014925003052,-0.10166345536708832,-0.2488170564174652
1726940532538783700,4.44278369140625,0.7644078731536865,-0.12102384120225906,-0.15906347334384918
1726940532548770000,4.45277001953125,0.8056739568710327,-0.1778685450553894,-0.06594738364219666
1726940532558755800,4.462755859375,0.7932460308074951,-0.18992707133293152,-0.023961050435900688
1726940532568742000,4.472741943359375,0.7459005117416382,-0.15427878499031067,-0.05213121324777603
1726940532578728000,4.48272802734375,0.6934258341789246,-0.11307676881551743,-0.13981686532497406
1726940532588713000,4.492712890625,0.6641160845756531,-0.12757699191570282,-0.23329100012779236
1726940532598698800,4.50269873046875,0.7019063234329224,-0.11611739546060562,-0.3136495053768158
1726940532608684800,4.512684814453125,0.7845167517662048,-0.14650146663188934,-0.32240498065948486
1726940532618670800,4.5226708984375,0.8936437964439392,-0.13918337225914001,-0.3025510907173157
1726940532628657000,4.532656982421875,0.9673005938529968,-0.15858161449432373,-0.23717883229255676
1726940532638642700,4.542642578125,0.9378646612167358,-0.2388058751821518,-0.24370384216308594
1726940532648627700,4.552627685546875,0.8219428062438965,-0.34150779247283936,-0.3493024408817291
1726940532658613800,4.56261376953125,0.6652184128761292,-0.4426797032356262,-0.47089624404907227
1726940532668599600,4.572599609375,0.5098334550857544,-0.5120974779129028,-0.5282933115959167
1726940532678585900,4.5825859375,0.3932380974292755,-0.511859118938446,-0.5083950161933899
1726940532688571600,4.592571533203125,0.330809086561203,-0.44791874289512634,-0.47686925530433655
1726940532698556700,4.602556640625,0.31988558173179626,-0.3512555956840515,-0.4291536808013916
1726940532708542700,4.612542724609375,0.3481670618057251,-0.24212341010570526,-0.348542183637619
1726940532718528800,4.62252880859375,0.40340420603752136,-0.2236035168170929,-0.21495400369167328
1726940532728514600,4.6325146484375,0.42146655917167664,-0.3023766279220581,-0.06295301765203476
1726940532738500600,4.64250048828125,0.3287893533706665,-0.3903472423553467,0.06003363057971001
1726940532748486700,4.652486572265625,0.1780404895544052,-0.45332035422325134,0.14748096466064453
1726940532758471700,4.6624716796875,0.04390425980091095,-0.4810486435890198,0.1966349184513092
1726940532768457700,4.672457763671875,-0.06875520199537277,-0.49392083287239075,0.18983902037143707
1726940532778443800,4.68244384765625,-0.12811225652694702,-0.510606050491333,0.12524190545082092
1726940532788429800,4.692429931640625,-0.11611513048410416,-0.49687448143959045,-0.0066338153555989265
1726940532798415600,4.70241552734375,-0.07242970168590546,-0.3955041766166687,-0.1966801881790161
1726940532808402000,4.71240185546875,0.021255843341350555,-0.24588146805763245,-0.43118414282798767
1726940532818386700,4.72238671875,0.13913720846176147,-0.12691272795200348,-0.6615675687789917
1726940532828372700,4.732372802734375,0.2631092369556427,-0.0996534675359726,-0.8187134265899658
1726940532838358500,4.742358642578125,0.3277020752429962,-0.16194908320903778,-0.8744382262229919
1726940532848344800,4.7523447265625,0.33557385206222534,-0.27044326066970825,-0.8086278438568115
1726940532858330600,4.76233056640625,0.3066316843032837,-0.3650379478931427,-0.6851692795753479
1726940532868316700,4.772316650390625,0.2590644061565399,-0.3931786119937897,-0.5785592794418335
1726940532878301700,4.7823017578125,0.25347229838371277,-0.3351896107196808,-0.5306341052055359
1726940532888287700,4.792287841796875,0.31041014194488525,-0.301313579082489,-0.5449667572975159
1726940532898273800,4.802273681640625,0.3863275349140167,-0.26102685928344727,-0.5786275267601013
1726940532908259600,4.812259521484375,0.437387079000473,-0.23364044725894928,-0.6038926839828491
1726940532918246000,4.822245849609375,0.45307472348213196,-0.21823325753211975,-0.5848526358604431
1726940532928231700,4.832231689453125,0.4382514953613281,-0.2420276701450348,-0.5083984732627869
1726940532938216700,4.842216796875,0.3947064280509949,-0.23299342393875122,-0.37893691658973694
1726940532948202500,4.852202392578125,0.3403163552284241,-0.22218120098114014,-0.18506531417369843
1726940532958188800,4.862188720703125,0.29357603192329407,-0.2495984435081482,0.03613845258951187
1726940532968174600,4.872174560546875,0.2528723478317261,-0.28416281938552856,0.2404385209083557
1726940532978160600,4.88216064453125,0.2516177296638489,-0.3201935291290283,0.3829379081726074
1726940532988146700,4.892146728515625,0.2833585739135742,-0.34066450595855713,0.4630550146102905
1726940532998131700,4.902131591796875,0.3123910427093506,-0.30205824971199036,0.4491235017776489
1726940533008117800,4.91211767578125,0.3366592228412628,-0.23344789445400238,0.35069167613983154
1726940533018103600,4.922103515625,0.3494570553302765,-0.1871192753314972,0.16974295675754547
1726940533028089900,4.93208984375,0.31813108921051025,-0.1727398782968521,-0.058583103120326996
1726940533038075600,4.94207568359375,0.28159892559051514,-0.1785500943660736,-0.24760016798973083
1726940533048060700,4.952060791015625,0.2722582519054413,-0.29532453417778015,-0.33722516894340515
1726940533058046700,4.962046630859375,0.28742387890815735,-0.459862619638443,-0.35992249846458435
1726940533068032800,4.97203271484375,0.3584350049495697,-0.5353267192840576,-0.34941965341567993
1726940533078018600,4.9820185546875,0.45681512355804443,-0.5534349083900452,-0.33977022767066956
1726940533088004900,4.9920048828125,0.5507258772850037,-0.6212673783302307,-0.30770614743232727
1726940533097990700,5.00199072265625,0.5195946097373962,-0.6742511987686157,-0.32648220658302307
1726940533107975700,5.0119755859375,0.39440077543258667,-0.6842778325080872,-0.377938836812973
1726940533117961700,5.021961669921875,0.21317905187606812,-0.5736746191978455,-0.42892637848854065
1726940533127947800,5.03194775390625,0.032899729907512665,-0.40538886189460754,-0.4383285939693451
1726940533137933800,5.041933837890625,-0.07809256762266159,-0.2739938199520111,-0.3528171479701996
1726940533147919600,5.051919677734375,-0.15562720596790314,-0.17121587693691254,-0.2376837134361267
1726940533157906000,5.061906005859375,-0.21088247001171112,-0.17453522980213165,-0.11038462817668915
1726940533167890700,5.071890625,-0.23704634606838226,-0.1780634969472885,0.07441256195306778
1726940533177876700,5.081876708984375,-0.20641040802001953,-0.20285645127296448,0.31805747747421265
1726940533187862500,5.091862548828125,-0.17373989522457123,-0.14862747490406036,0.6049864888191223
1726940533197848800,5.101848876953125,-0.14959116280078888,-0.027857381850481033,0.8846844434738159
1726940533207834600,5.111834716796875,-0.12366456538438797,0.12355990707874298,1.1101254224777222
1726940533217820700,5.121820556640625,-0.11195091903209686,0.27807438373565674,1.2432278394699097
1726940533227805700,5.1318056640625,-0.13930939137935638,0.4303036630153656,1.249161958694458
1726940533237791700,5.141791748046875,-0.1788560003042221,0.5043802857398987,1.1602264642715454
1726940533247777800,5.15177783203125,-0.24288760125637054,0.47411292791366577,1.0279631614685059
1726940533257763600,5.161763671875,-0.29783180356025696,0.3956809639930725,0.9083529710769653
1726940533267750000,5.17175,-0.3393697738647461,0.30680206418037415,0.8312592506408691
1726940533277735700,5.181735595703125,-0.3864017128944397,0.22830910980701447,0.8023818135261536
1726940533287720700,5.191720703125,-0.44096699357032776,0.20074906945228577,0.8390370011329651
1726940533297706500,5.20170654296875,-0.5220112800598145,0.20725490152835846,0.9201507568359375
1726940533307692800,5.21169287109375,-0.600331723690033,0.2619151771068573,1.038158893585205
1726940533317678600,5.2216787109375,-0.6750613451004028,0.37567049264907837,1.179476261138916
1726940533327664600,5.23166455078125,-0.7087680101394653,0.5253629088401794,1.314650297164917
1726940533337650000,5.24164990234375,-0.6848714351654053,0.6262761950492859,1.3767062425613403
1726940533347635700,5.2516357421875,-0.5935944318771362,0.6663805842399597,1.363210678100586
1726940533357621800,5.261621826171875,-0.45025962591171265,0.6428416967391968,1.288865327835083
1726940533367607800,5.27160791015625,-0.3201874792575836,0.563968300819397,1.1448482275009155
1726940533377593900,5.28159375,-0.22584526240825653,0.42949971556663513,1.0093343257904053
1726940533387579600,5.29157958984375,-0.1837281435728073,0.30873212218284607,0.9185370802879333
1726940533397564700,5.301564697265625,-0.1451418697834015,0.27798059582710266,0.8813369870185852
1726940533407550700,5.31155078125,-0.12395575642585754,0.35244691371917725,0.8585347533226013
1726940533417536800,5.321536865234375,-0.09161459654569626,0.46128711104393005,0.8839951157569885
1726940533427522600,5.3315224609375,-0.07917296141386032,0.5652797222137451,0.9102433323860168
1726940533437508900,5.3415087890625,-0.11114980280399323,0.7114124298095703,0.9227116703987122
1726940533447494700,5.35149462890625,-0.18521876633167267,0.8039820790290833,0.9388553500175476
1726940533457479700,5.361479736328125,-0.24548663198947906,0.7984246015548706,0.9395089149475098
1726940533467465700,5.3714658203125,-0.3413577675819397,0.793470561504364,0.8791531324386597
1726940533477451800,5.38145166015625,-0.3808647096157074,0.7730140089988708,0.7776337265968323
1726940533487437800,5.391437744140625,-0.31259867548942566,0.7821846604347229,0.6312690377235413
1726940533497423600,5.401423583984375,-0.131248340010643,0.7399405241012573,0.5564459562301636
1726940533507410000,5.411409912109375,0.1006535142660141,0.686062216758728,0.5580559372901917
1726940533517394700,5.421394775390625,0.27797263860702515,0.6179782152175903,0.6134595274925232
1726940533527380700,5.431380615234375,0.3818221390247345,0.5552952289581299,0.6784176230430603
1726940533537366500,5.441366455078125,0.39038020372390747,0.49726998805999756,0.7431089878082275
1726940533547352800,5.451352783203125,0.3608149588108063,0.45505091547966003,0.9204291105270386
1726940533557338600,5.461338623046875,0.2769826650619507,0.5317326188087463,1.0169804096221924
1726940533567323600,5.47132373046875,0.17623116075992584,0.6506162881851196,1.0730533599853516
1726940533577309700,5.481309814453125,0.04421906918287277,0.7051442265510559,1.079535722732544
1726940533587295700,5.491295654296875,-0.11270023137331009,0.6521877646446228,1.0380959510803223
1726940533597281800,5.50128173828125,-0.2558664381504059,0.4387599229812622,0.985596776008606
1726940533607267600,5.511267578125,-0.3448832035064697,0.13276278972625732,0.9449676871299744
1726940533617254000,5.52125390625,-0.3954339921474457,0.013089919462800026,0.9234360456466675
1726940533627239700,5.53123974609375,-0.40323352813720703,0.10100709646940231,0.9316514730453491
1726940533637225700,5.541225830078125,-0.4209968149662018,0.26675477623939514,0.9512068033218384
1726940533647211500,5.55121142578125,-0.4713647961616516,0.3334333002567291,0.9455999732017517
1726940533657197600,5.561197509765625,-0.5436381697654724,0.3709481656551361,0.8781319856643677
1726940533667183600,5.57118359375,-0.6113002896308899,0.3603428304195404,0.8104569315910339
1726940533677169700,5.581169677734375,-0.6797451376914978,0.3113560974597931,0.7401904463768005
1726940533687154400,5.591154541015625,-0.6821107268333435,0.22459125518798828,0.6617794632911682
1726940533697140700,5.601140625,-0.6845149993896484,0.16695725917816162,0.5791841745376587
1726940533707126500,5.61112646484375,-0.6153160929679871,0.08989208191633224,0.519500195980072
1726940533717112600,5.621112548828125,-0.4716472923755646,0.04068697988986969,0.5578494668006897
1726940533727098600,5.6310986328125,-0.3271055221557617,0.02705956995487213,0.5453073978424072
1726940533737084700,5.641084716796875,-0.1836727112531662,-0.004951625596731901,0.510057806968689
1726940533747069700,5.651069580078125,-0.061774179339408875,-0.03128962591290474,0.43616345524787903
1726940533757055500,5.661055419921875,-0.029352059587836266,0.02497444488108158,0.3647846281528473
1726940533767041800,5.671041748046875,-0.05176716670393944,0.09998831152915955,0.35195282101631165
1726940533777027600,5.681027587890625,-0.11226113885641098,0.08936496078968048,0.37662434577941895
1726940533787013600,5.691013671875,-0.20544764399528503,0.08299240469932556,0.41954684257507324
1726940533796999700,5.700999755859375,-0.29593920707702637,0.1288435012102127,0.45698344707489014
1726940533806984700,5.710984619140625,-0.3615480363368988,0.16881729662418365,0.45660340785980225
1726940533816970500,5.720970458984375,-0.4092460572719574,0.15311849117279053,0.45304062962532043
1726940533826956500,5.73095654296875,-0.40557339787483215,0.05961156636476517,0.4469558000564575
1726940533836942600,5.740942626953125,-0.3614829182624817,-0.07697051018476486,0.43110519647598267
1726940533846928600,5.7509287109375,-0.3152727782726288,-0.16505548357963562,0.3885122537612915
1726940533856914400,5.76091455078125,-0.323774129152298,-0.153767928481102,0.3217684030532837
1726940533866899500,5.7708994140625,-0.38911494612693787,-0.13427682220935822,0.2546074390411377
1726940533876885800,5.7808857421875,-0.4544302821159363,-0.174193874001503,0.21361419558525085
1726940533886871600,5.79087158203125,-0.5146942138671875,-0.240004301071167,0.17947059869766235
1726940533896857600,5.800857666015625,-0.5522772669792175,-0.2744027376174927,0.13353265821933746
1726940533906843600,5.81084375,-0.5793530941009521,-0.2756566107273102,0.08509477227926254
1726940533916829700,5.82082958984375,-0.5936827659606934,-0.24632297456264496,0.04231242462992668
1726940533926814500,5.830814453125,-0.5933120846748352,-0.22633329033851624,0.015182267874479294
1726940533936800500,5.840800537109375,-0.5456971526145935,-0.20692098140716553,0.014767613261938095
1726940533946786600,5.85078662109375,-0.4565282166004181,-0.20440076291561127,0.021376265212893486
1726940533956772600,5.860772705078125,-0.382673442363739,-0.2122988998889923,0.038097985088825226
1726940533966758400,5.87075830078125,-0.33830732107162476,-0.24303296208381653,0.04734072461724281
1726940533976744700,5.88074462890625,-0.32074031233787537,-0.2776378095149994,0.03186962381005287
1726940533986729700,5.890729736328125,-0.3473329544067383,-0.3044968247413635,-0.010779104195535183
1726940533996715500,5.900715576171875,-0.403507262468338,-0.3495734632015228,-0.055475734174251556
1726940534006701800,5.910701904296875,-0.46364349126815796,-0.34399810433387756,-0.11537326872348785
1726940534016687600,5.9206875,-0.5169703364372253,-0.3180384039878845,-0.17682118713855743
1726940534026673700,5.930673583984375,-0.5431864857673645,-0.3064483404159546,-0.20994077622890472
1726940534036658400,5.940658447265625,-0.5758134126663208,-0.2976151704788208,-0.23754790425300598
1726940534046644700,5.950644775390625,-0.583659827709198,-0.3138395845890045,-0.23202183842658997
1726940534056630500,5.960630615234375,-0.6314622163772583,-0.3365856409072876,-0.24371445178985596
1726940534066616600,5.970616455078125,-0.7174144983291626,-0.3571679890155792,-0.2538243234157562
1726940534076602600,5.9806025390625,-0.7944262027740479,-0.35209760069847107,-0.27753180265426636
1726940534086588700,5.990588623046875,-0.8608431220054626,-0.284594863653183,-0.30578896403312683
1726940534096574500,6.000574462890625,-0.8659363985061646,-0.17558050155639648,-0.3009406626224518
1726940534106559500,6.0105595703125,-0.8175785541534424,-0.06938284635543823,-0.2822113335132599
1726940534116545800,6.0205458984375,-0.74228835105896,-0.0015518737491220236,-0.25645190477371216
1726940534126531600,6.030531494140625,-0.6494709849357605,0.015430566854774952,-0.252223402261734
1726940534136517600,6.040517578125,-0.5456181168556213,0.0011232660617679358,-0.29975709319114685
1726940534146503700,6.050503662109375,-0.4416995048522949,-0.07610670477151871,-0.3655044734477997
1726940534156488700,6.06048876953125,-0.34210047125816345,-0.23922426998615265,-0.4135891795158386
1726940534166474500,6.070474609375,-0.21601009368896484,-0.4066097140312195,-0.42554864287376404
1726940534176460500,6.08046044921875,-0.07765407860279083,-0.5157322287559509,-0.4377525746822357
1726940534186446600,6.090446533203125,0.0544709749519825,-0.5488626956939697,-0.5113828182220459
1726940534196432600,6.1004326171875,0.17899107933044434,-0.549513041973114,-0.6519840955734253
1726940534206418400,6.11041845703125,0.3191811740398407,-0.5291366577148438,-0.7916941046714783
1726940534216403500,6.120403564453125,0.42051953077316284,-0.42502862215042114,-0.9799963235855103
1726940534226389800,6.1303896484375,0.46653619408607483,-0.2815634310245514,-1.1931190490722656
1726940534236375600,6.14037548828125,0.4746135473251343,-0.17619732022285461,-1.3963086605072021
1726940534246361600,6.150361572265625,0.476261168718338,-0.11653446406126022,-1.5254848003387451
1726940534256347600,6.16034765625,0.47888198494911194,-0.059200067073106766,-1.5519840717315674
1726940534266333700,6.170333740234375,0.46630629897117615,-0.006623103283345699,-1.4973708391189575
1726940534276318500,6.180318359375,0.4297168552875519,0.021949686110019684,-1.4232184886932373
1726940534286304500,6.190304443359375,0.4160485565662384,-0.05105354264378548,-1.3427844047546387
1726940534296290600,6.20029052734375,0.44811806082725525,-0.20437252521514893,-1.2742637395858765
1726940534306276600,6.210276611328125,0.4746536612510681,-0.42643195390701294,-1.2584757804870605
1726940534316262400,6.220262451171875,0.5221457481384277,-0.6197439432144165,-1.260785460472107
1726940534326248700,6.230248779296875,0.5781264305114746,-0.7268067598342896,-1.2643991708755493
1726940534336233700,6.240233642578125,0.6330122947692871,-0.7335104942321777,-1.2761269807815552
1726940534346219500,6.250219482421875,0.7008357644081116,-0.6819424033164978,-1.2508411407470703
1726940534356205800,6.260205810546875,0.7722644209861755,-0.6200169920921326,-1.171811819076538
1726940534366191600,6.270191650390625,0.8267861008644104,-0.5266650319099426,-1.0468121767044067
1726940534376177700,6.280177734375,0.8077199459075928,-0.46825364232063293,-0.9469894766807556
1726940534386163500,6.29016357421875,0.7478519082069397,-0.46605193614959717,-0.874131977558136
1726940534396148700,6.300148681640625,0.6599047183990479,-0.48043009638786316,-0.7738290429115295
1726940534406134500,6.310134521484375,0.521329939365387,-0.5349944233894348,-0.6476609110832214
1726940534416120600,6.32012060546875,0.4360334277153015,-0.5488476753234863,-0.4441591799259186
1726940534426106600,6.330106689453125,0.3648104667663574,-0.5208625197410583,-0.18327386677265167
1726940534436092700,6.3400927734375,0.29045233130455017,-0.43374380469322205,0.1067371815443039
1726940534446078500,6.350078369140625,0.1762927919626236,-0.2918802797794342,0.3820383548736572
1726940534456063500,6.3600634765625,0.028150727972388268,-0.13530105352401733,0.6182069182395935
1726940534466049800,6.3700498046875,-0.14979024231433868,-0.02082454040646553,0.7880670428276062
1726940534476035600,6.38003564453125,-0.312071830034256,0.017475444823503494,0.8911194205284119
1726940534486021600,6.390021728515625,-0.44327396154403687,0.006737722549587488,0.9872735738754272
1726940534496007700,6.400007568359375,-0.5098825097084045,0.0014580059796571732,1.0794072151184082
1726940534505992700,6.40999267578125,-0.546001136302948,0.02614409103989601,1.1604218482971191
1726940534515978500,6.419978515625,-0.5649332404136658,0.07318936288356781,1.2178740501403809
1726940534525964500,6.429964599609375,-0.5652638673782349,0.018899057060480118,1.2288404703140259
1726940534535950600,6.43995068359375,-0.5659909248352051,-0.1122075617313385,1.2045142650604248
1726940534545936600,6.4499365234375,-0.5876269340515137,-0.20495659112930298,1.158063530921936
1726940534555922400,6.45992236328125,-0.5889952778816223,-0.23588280379772186,1.0955034494400024
1726940534565907500,6.469907470703125,-0.574467122554779,-0.3259572684764862,0.9974273443222046
1726940534575893800,6.479893798828125,-0.5613731741905212,-0.4350440800189972,0.8736449480056763
1726940534585879600,6.489879638671875,-0.5730594396591187,-0.4813445210456848,0.7618680000305176
1726940534595865600,6.499865478515625,-0.6140324473381042,-0.4341384172439575,0.688755214214325
1726940534605851600,6.5098515625,-0.7086122035980225,-0.3417699337005615,0.67117840051651
1726940534615837700,6.519837646484375,-0.8273100852966309,-0.36979466676712036,0.646589994430542
1726940534625822500,6.529822509765625,-0.9385939836502075,-0.42505165934562683,0.6136530041694641
1726940534635808300,6.539808349609375,-1.0512598752975464,-0.5032250881195068,0.5650127530097961
1726940534645794300,6.549794189453125,-1.2312978506088257,-0.6663098335266113,0.473317950963974
1726940534655780400,6.5597802734375,-1.4302722215652466,-0.7420107126235962,0.36751508712768555
1726940534665766100,6.56976611328125,-1.5748544931411743,-0.6379640102386475,0.2721448838710785
1726940534675752400,6.57975244140625,-1.604372262954712,-0.41336336731910706,0.1533532440662384
1726940534685737500,6.589737548828125,-1.4890342950820923,-0.1967209130525589,0.02386115863919258
1726940534695723300,6.59972314453125,-1.222791075706482,-0.04528583586215973,-0.09707910567522049
1726940534705709600,6.60970947265625,-0.9014233946800232,0.051315270364284515,-0.18578767776489258
1726940534715695400,6.6196953125,-0.5696393847465515,0.025157170370221138,-0.27654048800468445
1726940534725681400,6.629681396484375,-0.2821366786956787,-0.01694002002477646,-0.36062243580818176
1726940534735667200,6.639667236328125,-0.020063526928424835,0.045408040285110474,-0.3650248944759369
1726940534745652500,6.649652587890625,0.2452496886253357,0.1593247801065445,-0.29847612977027893
1726940534755638300,6.65963818359375,0.4638906717300415,0.15839692950248718,-0.24287013709545135
1726940534765624300,6.669624267578125,0.5686083436012268,0.047694139182567596,-0.27887025475502014
1726940534775610400,6.6796103515625,0.576900064945221,-0.1202157661318779,-0.3638189733028412
1726940534785596400,6.689596435546875,0.5763607621192932,-0.26523101329803467,-0.46996963024139404
1726940534795582200,6.699582275390625,0.6092004776000977,-0.361142098903656,-0.5484822988510132
1726940534805567200,6.709567138671875,0.6359847784042358,-0.417559951543808,-0.5977572202682495
1726940534815553500,6.719553466796875,0.6351642608642578,-0.412589967250824,-0.5618417859077454
1726940534825539300,6.729539306640625,0.5487146377563477,-0.3591270446777344,-0.49225181341171265
1726940534835525400,6.739525390625,0.45614874362945557,-0.3070595860481262,-0.34459736943244934
1726940534845511400,6.749511474609375,0.3594406545162201,-0.2191210836172104,-0.1616012006998062
1726940534855497500,6.75949755859375,0.2682308554649353,-0.09958323836326599,0.018950192257761955
1726940534865482200,6.769482177734375,0.21073320508003235,0.032387733459472656,0.18065118789672852
1726940534875468300,6.77946826171875,0.1902598887681961,0.12746497988700867,0.3196410536766052
1726940534885454300,6.789454345703125,0.1693539321422577,0.21332907676696777,0.4324251115322113
1726940534895440400,6.7994404296875,0.1321120262145996,0.3060441017150879,0.5248967409133911
1726940534905426200,6.80942626953125,0.10407339036464691,0.33494290709495544,0.5999297499656677
1726940534915412500,6.81941259765625,0.08575110882520676,0.29648101329803467,0.6628613471984863
1726940534925397500,6.8293974609375,0.08898838609457016,0.17680715024471283,0.6834128499031067
1726940534935383300,6.83938330078125,0.11459574103355408,0.03299271687865257,0.6336569786071777
1726940534945369300,6.849369384765625,0.1446423977613449,-0.0246160589158535,0.5142407417297363
1726940534955355400,6.85935546875,0.18771956861019135,0.02226143516600132,0.35431525111198425
1726940534965341400,6.869341552734375,0.2427685409784317,0.012294545769691467,0.16790777444839478
1726940534975327200,6.8793271484375,0.268020361661911,-0.124505914747715,-0.04040015861392021
1726940534985312300,6.889312255859375,0.2612047493457794,-0.3189271092414856,-0.22384409606456757
1726940534995298300,6.89929833984375,0.2512490749359131,-0.4563744366168976,-0.3605297803878784
1726940535005284400,6.909284423828125,0.2442520409822464,-0.5006988644599915,-0.4298073649406433
1726940535015270100,6.919270263671875,0.20532168447971344,-0.43608471751213074,-0.3689594566822052
1726940535025256400,6.92925634765625,0.18517115712165833,-0.3948798179626465,-0.3011966049671173
1726940535035242200,6.9392421875,0.20921391248703003,-0.3933381140232086,-0.29920294880867004
1726940535045227300,6.949227294921875,0.2026839703321457,-0.2624779939651489,-0.2523747682571411
1726940535055213600,6.959213623046875,0.2119365930557251,-0.26602718234062195,-0.20386181771755219
1726940535065199400,6.969199462890625,0.20617955923080444,-0.2936982214450836,-0.15260139107704163
1726940535075185400,6.979185302734375,0.17575721442699432,-0.2831081748008728,-0.08882933855056763
1726940535085171200,6.989171142578125,0.14990966022014618,-0.3691987991333008,-0.027414655312895775
1726940535095157500,6.999157470703125,0.13893984258174896,-0.4654286503791809,0.007884212769567966
1726940535105142300,7.009142333984375,0.1634065806865692,-0.5508202314376831,0.02819456160068512
1726940535115128300,7.01912841796875,0.2167544960975647,-0.6581733226776123,0.04354289174079895
1726940535125114400,7.0291142578125,0.3201026916503906,-0.803915798664093,0.06952351331710815
1726940535135100400,7.039100341796875,0.4894073009490967,-0.867267906665802,0.059663694351911545
1726940535145086200,7.049086181640625,0.6274369955062866,-0.866908609867096,0.03582431748509407
1726940535155071200,7.0590712890625,0.7244570255279541,-0.9142958521842957,0.05674930661916733
1726940535165057500,7.0690576171875,0.7911855578422546,-0.9756728410720825,0.17280226945877075
1726940535175043300,7.079043212890625,0.8385288119316101,-0.9775570034980774,0.3650771677494049
1726940535185029400,7.089029296875,0.9092856049537659,-0.9617850184440613,0.6201788783073425
1726940535195015400,7.099015380859375,0.9661795496940613,-0.9927589297294617,0.8960275053977966
1726940535205001500,7.10900146484375,0.9746226072311401,-1.0550475120544434,1.0477303266525269
1726940535214986200,7.118986328125,0.9062901735305786,-1.0337406396865845,1.0383034944534302
1726940535224972300,7.12897216796875,0.8301635980606079,-0.9520872235298157,0.9579222202301025
1726940535234958300,7.138958251953125,0.7787669897079468,-0.771242082118988,0.8478103280067444
1726940535244944400,7.1489443359375,0.7648164629936218,-0.6048749089241028,0.7106581926345825
1726940535254930200,7.15893017578125,0.8004157543182373,-0.4628205895423889,0.5736305713653564
1726940535264916500,7.16891650390625,0.9095352292060852,-0.2675657570362091,0.43956393003463745
1726940535274901500,7.178901611328125,1.0454591512680054,-0.12291590124368668,0.3439452648162842
1726940535284887300,7.18888720703125,1.1996594667434692,-0.09816588461399078,0.33573248982429504
1726940535294873300,7.198873291015625,1.3704253435134888,-0.13849866390228271,0.3809220790863037
1726940535304859400,7.208859375,1.5200022459030151,-0.1918201744556427,0.46922212839126587
1726940535314845400,7.218845458984375,1.6317555904388428,-0.19174693524837494,0.5747666954994202
1726940535324831200,7.228831298828125,1.7503876686096191,-0.08666352182626724,0.6682043671607971
1726940535334816500,7.23881640625,1.8589868545532227,0.08445176482200623,0.7631878852844238
1726940535344802300,7.24880224609375,1.9124550819396973,0.1760437786579132,0.8710423707962036
1726940535354788400,7.258788330078125,1.9878511428833008,0.20573082566261292,0.9937925338745117
1726940535364774100,7.268774169921875,2.0544395446777344,0.22831790149211884,1.0952959060668945
1726940535374760400,7.278760498046875,2.0884087085723877,0.3628735840320587,1.1191043853759766
1726940535384746200,7.288746337890625,2.0685060024261475,0.5790590643882751,1.0438530445098877
1726940535394731300,7.298731201171875,1.95260488986969,0.7518191337585449,0.946322500705719
1726940535404717600,7.308717529296875,1.7575774192810059,0.803965151309967,0.8158984184265137
1726940535414703400,7.318703369140625,1.5389404296875,0.5901601910591125,0.7877805233001709
1726940535424689400,7.328689453125,1.3665249347686768,0.08466974645853043,0.8467985391616821
1726940535434675500,7.338675537109375,1.2174129486083984,-0.388834685087204,0.9257029294967651
1726940535444661500,7.34866162109375,1.0859265327453613,-0.6615239381790161,0.9312021136283875
1726940535454646300,7.358646240234375,0.9826558828353882,-0.7285937666893005,0.8171879649162292
1726940535464632300,7.36863232421875,0.8796983361244202,-0.4877101480960846,0.5780290961265564
1726940535474618400,7.378618408203125,0.7373132109642029,-0.2517135739326477,0.3096168339252472
1726940535484604400,7.3886044921875,0.5062511563301086,-0.15312306582927704,0.09977491945028305
1726940535494590200,7.398590087890625,0.18029990792274475,-0.12130095809698105,-0.002569291042163968
1726940535504576500,7.408576416015625,-0.13136492669582367,-0.01988513208925724,-0.023776089772582054
1726940535514561500,7.4185615234375,-0.22691196203231812,0.07435294985771179,-0.05366235226392746
1726940535524547300,7.42854736328125,-0.23244298994541168,0.18776437640190125,-0.15392830967903137
1726940535534533400,7.438533447265625,-0.26419001817703247,0.304161012172699,-0.28787732124328613
1726940535544519400,7.44851953125,-0.3458350896835327,0.3345579504966736,-0.3872378468513489
1726940535554505500,7.45850537109375,-0.43510186672210693,0.3395577669143677,-0.4478559195995331
1726940535564491300,7.4684912109375,-0.5077056884765625,0.3254280090332031,-0.49618014693260193
1726940535574476300,7.478476318359375,-0.5906665921211243,0.2571714520454407,-0.5431878566741943
1726940535584462300,7.48846240234375,-0.6384877562522888,0.17279137670993805,-0.5872389674186707
1726940535594448400,7.498448486328125,-0.652809739112854,0.1055457592010498,-0.6361939907073975
1726940535604434200,7.50843408203125,-0.6507718563079834,0.0744706392288208,-0.7096702456474304
1726940535614420500,7.51842041015625,-0.6323747634887695,0.00891746487468481,-0.7852329015731812
1726940535624406300,7.52840625,-0.6092187762260437,-0.06301169842481613,-0.8492736220359802
1726940535634391300,7.538391357421875,-0.5794861912727356,-0.1539836823940277,-0.8813167214393616
1726940535644377000,7.548377197265625,-0.5557187795639038,-0.186910942196846,-0.9048896431922913
1726940535654363100,7.558363037109375,-0.5342425107955933,-0.17310458421707153,-0.9182960391044617
1726940535664349200,7.56834912109375,-0.545296847820282,-0.1394759863615036,-0.9464918971061707
1726940535674335000,7.5783349609375,-0.5959917306900024,-0.11659649759531021,-1.0162501335144043
1726940535684321300,7.5883212890625,-0.6747611165046692,-0.10215585678815842,-1.1056818962097168
1726940535694306000,7.59830615234375,-0.761967122554779,-0.1581762582063675,-1.1924614906311035
1726940535704292000,7.6082919921875,-0.836592435836792,-0.3220781981945038,-1.2202495336532593
1726940535714278000,7.61827783203125,-0.9278879761695862,-0.4635237455368042,-1.1938568353652954
1726940535724264200,7.62826416015625,-0.938127338886261,-0.5237497091293335,-1.1335827112197876
1726940535734250000,7.63825,-0.92048579454422,-0.5717529058456421,-1.087453842163086
1726940535744236000,7.648236083984375,-0.7772183418273926,-0.6139524579048157,-1.0121922492980957
1726940535754222000,7.65822216796875,-0.6003139019012451,-0.5130143761634827,-0.9801470041275024
1726940535764207000,7.66820703125,-0.40784499049186707,-0.34334927797317505,-0.9950394630432129
1726940535774193200,7.678193115234375,-0.2782265543937683,-0.1696787178516388,-0.9815777540206909
1726940535784179000,7.688178955078125,-0.21344168484210968,-0.017178935930132866,-0.896327555179596
1726940535794165200,7.698165283203125,-0.2202170342206955,0.10668255388736725,-0.7841863632202148
1726940535804151000,7.708151123046875,-0.2513759732246399,0.1285036951303482,-0.6415281891822815
1726940535814137000,7.71813720703125,-0.24183547496795654,0.11607179790735245,-0.44377779960632324
1726940535824122000,7.7281220703125,-0.23233439028263092,0.16060958802700043,-0.23816262185573578
1726940535834108200,7.738108154296875,-0.29060912132263184,0.22892020642757416,-0.02963683381676674
1726940535844094000,7.748093994140625,-0.4043276011943817,0.29904404282569885,0.16211256384849548
1726940535854080300,7.758080322265625,-0.5344792008399963,0.32314884662628174,0.31966304779052734
1726940535864066000,7.768066162109375,-0.644611120223999,0.2578868567943573,0.3929802179336548
1726940535874052000,7.778052001953125,-0.697884738445282,0.16499368846416473,0.425727516412735
1726940535884037000,7.788037109375,-0.6767738461494446,0.06078902631998062,0.4423571228981018
1726940535894023200,7.798023193359375,-0.5507330894470215,0.02521132305264473,0.43907666206359863
1726940535904009200,7.80800927734375,-0.38916823267936707,0.0854596421122551,0.4193902015686035
1726940535913995000,7.8179951171875,-0.2880762219429016,0.12957943975925446,0.3705858886241913
1726940535923981300,7.827981201171875,-0.21100068092346191,0.14088532328605652,0.28757771849632263
1726940535933967000,7.837967041015625,-0.17790451645851135,0.06514876335859299,0.15244413912296295
1726940535943952100,7.8479521484375,-0.14511726796627045,-0.01659547910094261,0.021370794624090195
1726940535953938000,7.85793798828125,-0.07138019800186157,-0.07407209277153015,-0.01760190539062023
1726940535963924200,7.86792431640625,0.04795561730861664,-0.09143392741680145,0.04217911139130592
1726940535973910000,7.877909912109375,0.1363038569688797,-0.06643829494714737,0.14150623977184296
1726940535983896000,7.88789599609375,0.12667229771614075,-0.0401790477335453,0.1888924241065979
1726940535993882000,7.897882080078125,0.013332689180970192,-0.07979144155979156,0.1660371720790863
1726940536003867100,7.9078671875,-0.09409259259700775,-0.17814390361309052,0.07311197370290756
1726940536013853200,7.917853271484375,-0.16888613998889923,-0.26094290614128113,-0.05545239895582199
1726940536023839000,7.9278388671875,-0.1937146782875061,-0.2998914122581482,-0.19086511433124542
1726940536033825300,7.9378251953125,-0.1925697773694992,-0.26815399527549744,-0.23295477032661438
1726940536043811000,7.94781103515625,-0.25497519969940186,-0.38625195622444153,-0.22573189437389374
1726940536053797000,7.957797119140625,-0.5125084519386292,-0.46658140420913696,-0.21506619453430176
1726940536063782000,7.967781982421875,-0.8530712723731995,-0.5556371212005615,-0.22472801804542542
1726940536073768200,7.977768310546875,-1.103027582168579,-0.694193959236145,-0.2910971939563751
1726940536083754000,7.98775390625,-1.1950271129608154,-0.984495222568512,-0.4845658838748932
1726940536093740000,7.997739990234375,-1.2356501817703247,-1.2326557636260986,-0.7684007883071899
1726940536103726000,8.00772607421875,-1.1479371786117554,-1.1666518449783325,-0.9382343888282776
1726940536113712000,8.017712158203125,-1.0322153568267822,-0.7826173305511475,-0.9090962409973145
1726940536123697200,8.027697265625,-0.9279837012290955,-0.33743929862976074,-0.7888256907463074
1726940536133683200,8.03768310546875,-0.7599941492080688,0.11286769807338715,-0.6377496123313904
1726940536143669200,8.047669189453124,-0.4653635621070862,0.3196452260017395,-0.46739909052848816
1726940536153655000,8.057655029296875,-0.15156887471675873,0.14770649373531342,-0.4364081621170044
1726940536163641000,8.06764111328125,0.11896147578954697,-0.02595067396759987,-0.530982494354248
1726940536173627100,8.077627197265626,0.28059110045433044,-0.0628567636013031,-0.6311567425727844
1726940536183612200,8.087612060546874,0.31224992871284485,0.06758724898099899,-0.5628355741500854
1726940536193598000,8.097597900390625,0.2716076970100403,0.20902134478092194,-0.34603720903396606
1726940536203584300,8.107584228515625,0.23980607092380524,0.19479012489318848,-0.10384857654571533
1726940536213570000,8.117570068359376,0.2845141291618347,-0.014146052300930023,0.01974952220916748
1726940536223556000,8.12755615234375,0.33995479345321655,-0.21052588522434235,0.0718039870262146
1726940536233542100,8.137542236328125,0.3768880367279053,-0.20276384055614471,0.08278819918632507
1726940536243527200,8.147527099609375,0.4165753126144409,0.03231804817914963,0.10983191430568695
1726940536253513200,8.15751318359375,0.41108494997024536,0.24592886865139008,0.20418371260166168
1726940536263499000,8.1674990234375,0.39204591512680054,0.3096509277820587,0.34998518228530884
1726940536273485000,8.177485107421875,0.3474600911140442,0.20984898507595062,0.40443751215934753
1726940536283471000,8.18747119140625,0.30101278424263,0.05748720467090607,0.36535313725471497
1726940536293457200,8.19745703125,0.2679232954978943,-0.06844036281108856,0.32031482458114624
1726940536303442000,8.20744189453125,0.22758659720420837,-0.14362870156764984,0.27665141224861145
1726940536313428200,8.21742822265625,0.200022891163826,-0.1669638454914093,0.27938276529312134
1726940536323414000,8.2274140625,0.1665840595960617,-0.1169307753443718,0.33556899428367615
1726940536333400000,8.237400146484376,0.16812363266944885,-0.11888793110847473,0.3685309588909149
1726940536343386000,8.24738623046875,0.16479714214801788,-0.02929089590907097,0.3871398866176605
1726940536353372200,8.2573720703125,0.15887293219566345,0.021740596741437912,0.3630286753177643
1726940536363357200,8.267357177734375,0.10565158724784851,0.039178285747766495,0.3355162441730499
1726940536373343000,8.277343017578126,0.07487902790307999,-0.07294665277004242,0.2394149899482727
1726940536383329300,8.287329345703125,0.18054097890853882,-0.14190128445625305,0.1219562292098999
1726940536393315000,8.297315185546875,0.17410092055797577,-0.00016199477249756455,0.10047756880521774
1726940536403301000,8.307301025390625,0.14675836265087128,0.0004561978275887668,0.04051674157381058
1726940536413287200,8.317287109375,0.1320401430130005,0.026312297210097313,0.0018804003484547138
1726940536423272200,8.327272216796874,0.1402789205312729,0.08127840608358383,0.0037595818284898996
1726940536433258000,8.337258056640625,0.14664921164512634,0.09559795260429382,-0.009700301103293896
1726940536443244000,8.347244140625,0.15550459921360016,-0.007469870150089264,-0.027958692982792854
1726940536453230000,8.35722998046875,0.1694614291191101,-0.06612838804721832,-0.05965963006019592
1726940536463216000,8.367216064453125,0.19931311905384064,-0.0562603734433651,-0.11376620084047318
1726940536473202000,8.377201904296875,0.3046445846557617,0.04240628331899643,-0.20804236829280853
1726940536483187200,8.387187255859375,0.4419676959514618,0.11085933446884155,-0.28589263558387756
1726940536493173200,8.39717333984375,0.5797743201255798,0.04056412726640701,-0.31610405445098877
1726940536503159000,8.407158935546875,0.585214376449585,-0.1895628422498703,-0.2430010735988617
1726940536513145000,8.41714501953125,0.5109611749649048,-0.4722387492656708,-0.1256914883852005
1726940536523131100,8.427131103515626,0.4448213279247284,-0.7177028059959412,-0.008251943625509739
1726940536533117000,8.437116943359374,0.43859726190567017,-0.8404593467712402,0.12784650921821594
1726940536543102000,8.44710205078125,0.4702439308166504,-0.8233273029327393,0.3186292052268982
1726940536553088300,8.457088134765625,0.5152758955955505,-0.7777105569839478,0.5283136963844299
1726940536563074000,8.467073974609375,0.5824400186538696,-0.7594708800315857,0.7473602890968323
1726940536573060000,8.47706005859375,0.633906900882721,-0.7805740237236023,0.9618321061134338
1726940536583046100,8.487046142578125,0.6817464828491211,-0.8818562030792236,1.1708199977874756
1726940536593032200,8.4970322265625,0.7177553772926331,-0.909938395023346,1.3217343091964722
1726940536603017200,8.507017333984376,0.7361413836479187,-0.8875895738601685,1.3704490661621094
1726940536613003000,8.5170029296875,0.7330694198608398,-0.8630173802375793,1.413130283355713
1726940536622989000,8.526989013671875,0.7403368353843689,-0.8079622387886047,1.5010242462158203
1726940536632975000,8.53697509765625,0.7210025787353516,-0.781714916229248,1.6537448167800903
1726940536642961200,8.546961181640626,0.720512866973877,-0.8367330431938171,1.8301910161972046
1726940536652947200,8.556947265625,0.6822525262832642,-0.7890589833259583,1.8886125087738037
1726940536662932200,8.56693212890625,0.6328837871551514,-0.6815088391304016,1.8347692489624023
1726940536672918300,8.576918212890625,0.6168113350868225,-0.5865489840507507,1.7279293537139893
1726940536682904300,8.586904296875,0.654701828956604,-0.5367834568023682,1.6388633251190186
1726940536692890000,8.59689013671875,0.6346836686134338,-0.5873438119888306,1.595120906829834
1726940536702876400,8.60687646484375,0.5945253968238831,-0.5639587640762329,1.59161376953125
1726940536712862200,8.6168623046875,0.5004724264144897,-0.2892453968524933,1.4627315998077393
1726940536722847200,8.62684716796875,0.38230329751968384,0.10727590322494507,1.1984864473342896
1726940536732833000,8.6368330078125,0.2603584825992584,0.3402037024497986,0.924403965473175
1726940536742819300,8.6468193359375,0.12042734771966934,0.35944586992263794,0.677597165107727
1726940536752805000,8.65680517578125,-0.03326421231031418,0.20910561084747314,0.4904294013977051
1726940536762791200,8.666791259765626,-0.22258688509464264,0.011876057833433151,0.3555178642272949
1726940536772777200,8.676777099609374,-0.32113850116729736,-0.02935713343322277,0.23806340992450714
1726940536782763300,8.68676318359375,-0.31645312905311584,0.09309478104114532,0.1556456834077835
1726940536792748300,8.696748291015625,-0.24526923894882202,0.22747842967510223,0.08170594274997711
1726940536802734300,8.706734375,-0.1614280492067337,0.21407712996006012,0.023701617494225502
1726940536812720400,8.716720458984375,-0.11158139258623123,0.15995849668979645,-0.03938280791044235
1726940536822706200,8.7267060546875,-0.13051559031009674,0.1526118367910385,-0.06844945251941681
1726940536832692200,8.736692138671875,-0.16938894987106323,0.17043903470039368,-0.17402753233909607
1726940536842678300,8.74667822265625,-0.26482295989990234,0.25208228826522827,-0.3420200049877167
1726940536852663300,8.756663330078124,-0.38278526067733765,0.2746104896068573,-0.46765249967575073
1726940536862649000,8.766649169921875,-0.5088317394256592,0.13952338695526123,-0.5082359313964844
1726940536872635400,8.776635498046875,-0.5900129079818726,-0.005663629155606031,-0.46246978640556335
1726940536882621200,8.78662109375,-0.6445037722587585,-0.09434723109006882,-0.3694044053554535
1726940536892607200,8.796607177734375,-0.6583958864212036,-0.16780227422714233,-0.2893007695674896
1726940536902593300,8.80659326171875,-0.658974289894104,-0.07598469406366348,-0.339394748210907
1726940536912578300,8.816578369140625,-0.752818763256073,0.11946017295122147,-0.5489692687988281
1726940536922564400,8.826564453125,-0.8654913306236267,0.21760867536067963,-0.7589714527130127
1726940536932550100,8.836550048828125,-0.9681804180145264,0.1543455421924591,-0.8868215680122375
1726940536942536400,8.846536376953125,-1.034514307975769,0.09128032624721527,-0.9408514499664307
1726940536952522200,8.856522216796876,-1.0550051927566528,0.04365793988108635,-0.9355053901672363
1726940536962508300,8.86650830078125,-1.027869701385498,0.026304999366402626,-0.9084311127662659
1726940536972493000,8.8764931640625,-0.9818350076675415,0.13817188143730164,-0.9012359976768494
1726940536982479400,8.886479248046875,-0.7776715159416199,0.17210417985916138,-0.8432406187057495
1726940536992465200,8.896465087890626,-0.5246312618255615,0.09058110415935516,-0.6969702243804932
1726940537002451200,8.906451171875,-0.28728702664375305,0.08148078620433807,-0.5784772038459778
1726940537012437200,8.916437255859375,-0.10510685294866562,0.11780257523059845,-0.4856380820274353
1726940537022423300,8.92642333984375,-0.0021079997532069683,0.1561485081911087,-0.41683146357536316
1726940537032408300,8.936408203125,0.048626549541950226,0.1788673996925354,-0.3607088029384613
1726940537042394000,8.94639404296875,0.12153607606887817,0.1372310221195221,-0.34984225034713745
1726940537052380400,8.95638037109375,0.1907694786787033,0.11923098564147949,-0.34660598635673523
1726940537062366200,8.9663662109375,0.2040800154209137,0.20519153773784637,-0.36036217212677
1726940537072352300,8.976352294921876,0.13686396181583405,0.30810460448265076,-0.4168376922607422
1726940537082338300,8.98633837890625,0.05008817836642265,0.34558379650115967,-0.48898568749427795
1726940537092324400,8.996324462890625,-0.0007001682533882558,0.30802443623542786,-0.5100083947181702
1726940537102309000,9.00630908203125,0.0013391602551564574,0.2799113392829895,-0.4893539845943451
1726940537112295200,9.016295166015626,0.018150098621845245,0.2592279016971588,-0.4815240204334259
1726940537122281200,9.02628125,0.054619014263153076,0.25480327010154724,-0.47708481550216675
1726940537132267300,9.036267333984375,0.11687493324279785,0.3010818362236023,-0.4970467984676361
1726940537142253000,9.046253173828125,0.1908905804157257,0.3110968768596649,-0.5100555419921875
1726940537152239400,9.0562392578125,0.2515203654766083,0.36826378107070923,-0.4952496886253357
1726940537162224400,9.066224365234374,0.2717716693878174,0.3821526765823364,-0.46461594104766846
1726940537172210200,9.076210205078125,0.2591099143028259,0.2830631136894226,-0.4433223605155945
1726940537182196200,9.0861962890625,0.23131197690963745,0.17197857797145844,-0.4670317471027374
1726940537192182300,9.096182373046876,0.20008908212184906,0.081904336810112,-0.4888363778591156
1726940537202168300,9.106168212890625,0.1546841561794281,0.07583487778902054,-0.5009831190109253
1726940537212154000,9.116154052734375,0.1432860940694809,0.12421172857284546,-0.4547884464263916
1726940537222139400,9.126139404296875,0.15081344544887543,0.15546001493930817,-0.37900856137275696
1726940537232125200,9.136125244140626,0.2052854746580124,0.12197556346654892,-0.34574249386787415
1726940537242111200,9.146111328125,0.25539734959602356,0.012120440602302551,-0.37560778856277466
1726940537252097300,9.15609716796875,0.3379414975643158,-0.1327105164527893,-0.48477503657341003
1726940537262083300,9.166083251953125,0.32705041766166687,-0.2439984232187271,-0.5699211955070496
1726940537272069000,9.176069091796874,0.30041560530662537,-0.3378407657146454,-0.5653302073478699
1726940537282054100,9.18605419921875,0.301445871591568,-0.3580494523048401,-0.44816678762435913
1726940537292040400,9.19604052734375,0.3545732796192169,-0.28039273619651794,-0.31380578875541687
1726940537302026200,9.206026123046875,0.4445638358592987,-0.20780757069587708,-0.27566441893577576
1726940537312012300,9.21601220703125,0.3225524425506592,-0.07973935455083847,-0.34765923023223877
1726940537321998300,9.225998291015625,0.0909910723567009,-0.2274131178855896,-0.4991116523742676
1726940537331984400,9.235984375,-0.15495184063911438,-0.45372268557548523,-0.6185131669044495
1726940537341969200,9.24596923828125,-0.36472415924072266,-0.5111686587333679,-0.619803786277771
1726940537351955200,9.255955078125,-0.4466587007045746,-0.46372953057289124,-0.5618816614151001
1726940537361941200,9.265941162109375,-0.35083627700805664,-0.3913053274154663,-0.5011317133903503
1726940537371927300,9.27592724609375,-0.08201093226671219,-0.3824988007545471,-0.5324832201004028
1726940537381913000,9.2859130859375,0.13246408104896545,-0.38725388050079346,-0.6810399293899536
1726940537391899400,9.2958994140625,0.22273778915405273,-0.3181927800178528,-0.8039022088050842
1726940537401884400,9.305884521484375,0.20415450632572174,-0.15320523083209991,-0.7403805255889893
1726940537411870200,9.3158701171875,0.1575547754764557,-0.035089511424303055,-0.5890911817550659
1726940537421856300,9.325856201171876,0.20624253153800964,-0.11453008651733398,-0.5169860124588013
1726940537431842300,9.33584228515625,0.32701820135116577,-0.133262500166893,-0.534329891204834
1726940537441828400,9.345828369140625,0.4549761712551117,-0.005198032595217228,-0.634975016117096
1726940537451814100,9.355814208984375,0.5496856570243835,0.11214430630207062,-0.7141510248184204
1726940537461800400,9.365800537109376,0.5761706233024597,0.12464402616024017,-0.6805881261825562
1726940537471785200,9.37578515625,0.5344716906547546,0.1236964762210846,-0.4628855884075165
1726940537481771300,9.385771240234375,0.4852621257305145,0.09743305295705795,-0.19545847177505493
1726940537491757000,9.395757080078125,0.4335153102874756,0.07199720293283463,0.02097794972360134
1726940537501743400,9.405743408203126,0.41307333111763,0.132252037525177,0.1558857560157776
1726940537511729200,9.415729248046874,0.37732836604118347,0.11033795028924942,0.22648561000823975
1726940537521715200,9.425715087890625,0.3348563611507416,-0.005797541234642267,0.2926560342311859
1726940537531700500,9.435700439453125,0.30974650382995605,-0.022498758509755135,0.40154364705085754
1726940537541686300,9.445686279296876,0.24431471526622772,0.007953730411827564,0.46468210220336914
1726940537551672300,9.45567236328125,0.07048993557691574,0.03265215456485748,0.4945718050003052
1726940537561658000,9.465658203125,0.03948401287198067,-0.06287633627653122,0.437054842710495
1726940537571644400,9.47564453125,-0.06482268869876862,0.01924729160964489,0.4391670227050781
1726940537581630200,9.485630126953126,-0.12995710968971252,-0.053069982677698135,0.4194273054599762
1726940537591615200,9.495615234375,-0.13488049805164337,-0.061301279813051224,0.4135132133960724
1726940537601601300,9.505601318359375,-0.11810792982578278,0.001796590629965067,0.3966498076915741
1726940537611587300,9.51558740234375,-0.09179936349391937,0.04360608756542206,0.3522666096687317
1726940537621573000,9.525572998046876,-0.08497048169374466,0.05426102131605148,0.29176944494247437
1726940537631559400,9.535559326171875,-0.1168634369969368,0.046024661511182785,0.25717177987098694
1726940537641545500,9.54554541015625,-0.1707175076007843,0.03234604001045227,0.23764513432979584
1726940537651530500,9.555530517578125,-0.15955540537834167,0.07471933215856552,0.1733388602733612
1726940537661516500,9.5655166015625,-0.08579647541046143,0.06997523456811905,0.09900768846273422
1726940537671502300,9.57550244140625,-0.047152139246463776,0.03611394017934799,0.06806282699108124
1726940537681488600,9.585488525390625,-0.026178542524576187,-0.019766416400671005,0.10114407539367676
1726940537691474400,9.595474365234375,-0.014497919008135796,-0.0565129816532135,0.17964474856853485
1726940537701460500,9.60546044921875,0.0037388503551483154,-0.08115135133266449,0.2597278356552124
1726940537711445500,9.615445556640625,-0.004235452972352505,-0.08428749442100525,0.29383575916290283
1726940537721431600,9.625431640625,0.004097019787877798,-0.08870139718055725,0.3428892195224762
1726940537731417300,9.635417236328125,-0.01073865219950676,-0.1666364073753357,0.4326614439487457
1726940537741403600,9.645403564453124,-0.06551309674978256,-0.25875234603881836,0.5659521222114563
1726940537751389400,9.655389404296875,-0.13908691704273224,-0.3200457990169525,0.7017475366592407
1726940537761375500,9.66537548828125,-0.20008762180805206,-0.3801058232784271,0.8065006732940674
1726940537771361300,9.675361328125,-0.19973288476467133,-0.3211900591850281,0.8395113348960876
1726940537781346600,9.6853466796875,-0.15001365542411804,-0.2651512324810028,0.8140760660171509
1726940537791332600,9.69533251953125,-0.11233498156070709,-0.42327964305877686,0.8215068578720093
1726940537801318400,9.705318359375,-0.06435903906822205,-0.6769022941589355,0.9568958878517151
1726940537811304400,9.715304443359376,0.03236617147922516,-0.8381359577178955,1.2068077325820923
1726940537821290500,9.72529052734375,0.1335834115743637,-0.8671655058860779,1.4827587604522705
1726940537831276500,9.735276611328125,0.23036082088947296,-0.7983195781707764,1.6657229661941528
1726940537841261300,9.74526123046875,0.3784804344177246,-0.8223811984062195,1.8456438779830933
1726940537851247600,9.75524755859375,0.5411196947097778,-0.7951242923736572,2.0700411796569824
1726940537861233400,9.7652333984375,0.6979791522026062,-0.6983305215835571,2.27980375289917
1726940537871219500,9.775219482421875,0.7668673992156982,-0.5915417671203613,2.3292388916015625
1726940537881205500,9.78520556640625,0.7876244783401489,-0.45417308807373047,2.1765377521514893
1726940537891191600,9.795191650390626,0.7998891472816467,-0.27066370844841003,1.973457932472229
1726940537901176600,9.805176513671874,0.7571728229522705,-0.1172889918088913,1.768379807472229
1726940537911162400,9.815162353515625,0.6325209140777588,0.026605863124132156,1.5546245574951172
1726940537921148400,9.8251484375,0.4582661986351013,0.04738888517022133,1.3458629846572876
1726940537931134500,9.835134521484376,0.2759688198566437,0.07253018766641617,1.1248397827148438
1726940537941120500,9.84512060546875,0.2320888638496399,0.1578460931777954,0.9429934024810791
1726940537951106600,9.8551064453125,0.291557252407074,0.23769964277744293,0.7793589234352112
1726940537961091600,9.865091552734375,0.3543359935283661,0.34083446860313416,0.6460264921188354
1726940537971077400,9.875077392578126,0.2848876714706421,0.1979404091835022,0.6237192749977112
1726940537981063400,9.8850634765625,0.09150654822587967,-0.004904298111796379,0.6103258728981018
1726940537991049500,9.895049560546875,-0.10394737124443054,-0.04283436760306358,0.5526857376098633
1726940538001035500,9.905035400390625,-0.19616128504276276,0.21787028014659882,0.3958229422569275
1726940538011021300,9.915021240234376,-0.2697223126888275,0.42061275243759155,0.1732596606016159
1726940538021007600,9.925007568359375,-0.320699542760849,0.43709245324134827,-0.013009978458285332
1726940538030992400,9.934992431640625,-0.33957231044769287,0.3084561824798584,-0.08792256563901901
1726940538040978400,9.944978515625,-0.28288528323173523,0.1822299361228943,-0.13119561970233917
1726940538050964500,9.954964599609376,-0.25908300280570984,0.13269540667533875,-0.21369902789592743
1726940538060950500,9.964950439453125,-0.3128117620944977,0.3116381764411926,-0.44915369153022766
1726940538070936300,9.974936279296875,-0.34241920709609985,0.3604523241519928,-0.7024335861206055
1726940538080922400,9.98492236328125,-0.31588655710220337,0.27349817752838135,-0.8736373782157898
1726940538090907600,9.99490771484375,-0.2635948657989502,0.1673719882965088,-0.9445033073425293
1726940538100893400,10.0048935546875,-0.2043588012456894,0.1362292766571045,-0.9520237445831299
1726940538110879500,10.01487939453125,-0.23281840980052948,0.1574927568435669,-0.9291687607765198
1726940538120865500,10.024865478515625,-0.3138205111026764,0.26005199551582336,-0.9681415557861328
1726940538130851600,10.0348515625,-0.35377296805381775,0.3878735899925232,-1.0833815336227417
1726940538140837400,10.04483740234375,-0.3396112024784088,0.4666694402694702,-1.1925314664840698
1726940538150822400,10.054822509765625,-0.30631184577941895,0.4709416627883911,-1.2941710948944092
1726940538160808400,10.064808349609375,-0.3069825768470764,0.3941744863986969,-1.3818689584732056
1726940538170794500,10.07479443359375,-0.3321201801300049,0.3162061870098114,-1.3917748928070068
1726940538180780300,10.0847802734375,-0.2587086260318756,0.21731512248516083,-1.303022861480713
1726940538190766600,10.0947666015625,-0.012544671073555946,0.11486437171697617,-1.1608198881149292
1726940538200752400,10.10475244140625,0.2798328697681427,0.17803402245044708,-1.031348466873169
1726940538210737400,10.1147373046875,0.5070213079452515,0.34709522128105164,-1.0277169942855835
1726940538220723500,10.124723388671875,0.5426213145256042,0.4372223913669586,-1.1061936616897583
1726940538230709500,10.13470947265625,0.4774090349674225,0.38656479120254517,-1.1340668201446533
1726940538240695600,10.144695556640626,0.4684882164001465,0.29206565022468567,-1.010229468345642
1726940538250681300,10.154681396484374,0.5016560554504395,0.29695335030555725,-0.8558433055877686
1726940538260667600,10.164667724609375,0.4908846616744995,0.4183688461780548,-0.7535269260406494
1726940538270653400,10.1746533203125,0.39425960183143616,0.47229066491127014,-0.7424500584602356
1726940538280638500,10.184638427734376,0.2549844980239868,0.3358086943626404,-0.8150391578674316
1726940538290624300,10.194624267578124,0.13541918992996216,0.13826577365398407,-0.8761003613471985
1726940538300610600,10.204610595703125,0.11872637271881104,0.0071471137925982475,-0.8207396268844604
1726940538310596400,10.214596435546875,0.16723506152629852,-0.02813764102756977,-0.686656653881073
1726940538320582400,10.22458251953125,0.21595069766044617,0.07385510206222534,-0.5483618378639221
1726940538330568400,10.234568359375,0.22981564700603485,0.22311994433403015,-0.5033091306686401
1726940538340553500,10.244553466796875,0.24015027284622192,0.2981729209423065,-0.5378389358520508
1726940538350539500,10.25453955078125,0.2383188158273697,0.2716968357563019,-0.6064243912696838
1726940538360525300,10.264525390625,0.2282935231924057,0.16374260187149048,-0.613740861415863
1726940538370511600,10.27451171875,0.21229830384254456,0.09487458318471909,-0.5305072069168091
1726940538380497400,10.284497314453125,0.17869359254837036,0.1486552208662033,-0.4242289960384369
1726940538390483500,10.2944833984375,0.14234358072280884,0.2164076417684555,-0.3703322112560272
1726940538400468200,10.30446826171875,0.11218131333589554,0.23540930449962616,-0.37724626064300537
1726940538410454500,10.31445458984375,0.025627510622143745,0.12782825529575348,-0.34951502084732056
1726940538420440300,10.3244404296875,-0.0731060579419136,-0.14258141815662384,-0.330578476190567
1726940538430426400,10.33442626953125,-0.228740394115448,-0.31778573989868164,-0.25740891695022583
1726940538440412400,10.344412353515626,-0.40505844354629517,-0.3841266632080078,-0.18724660575389862
1726940538450398500,10.3543984375,-0.6637824177742004,-0.4455181360244751,-0.2359962910413742
1726940538460383500,10.364383544921875,-0.87238609790802,-0.4062140882015228,-0.28803694248199463
1726940538470369500,10.37436962890625,-0.9946292042732239,-0.3743427097797394,-0.35020551085472107
1726940538480355600,10.38435546875,-1.0708515644073486,-0.3809218108654022,-0.45716941356658936
1726940538490341400,10.39434130859375,-1.0373612642288208,-0.43443432450294495,-0.5856080651283264
1726940538500327400,10.404327392578125,-0.9236180782318115,-0.40392717719078064,-0.6652452945709229
1726940538510313500,10.4143134765625,-0.8063486814498901,-0.23661355674266815,-0.6572363972663879
1726940538520299500,10.424299560546874,-0.6610774993896484,-0.043097082525491714,-0.5451676249504089
1726940538530284300,10.4342841796875,-0.4732873737812042,0.09068387746810913,-0.366468220949173
1726940538540270600,10.4442705078125,-0.2599388659000397,0.08870495110750198,-0.21648824214935303
1726940538550256400,10.45425634765625,-0.10244590044021606,-0.09640178829431534,-0.2136988490819931
1726940538560242400,10.464242431640624,0.028046714141964912,-0.2218971699476242,-0.18243682384490967
1726940538570228500,10.474228515625,0.1425706297159195,-0.11431929469108582,-0.036856457591056824
1726940538580214500,10.484214599609375,0.1981349140405655,0.13047190010547638,0.20146866142749786
1726940538590199600,10.494199462890625,0.17438404262065887,0.25913533568382263,0.3666647970676422
1726940538600185300,10.504185302734374,0.14539608359336853,0.1792820394039154,0.3387168347835541
1726940538610171600,10.514171630859375,0.141475647687912,-0.012466896325349808,0.1719835102558136
1726940538620157400,10.524157470703125,0.17335271835327148,-0.2893117368221283,0.01723620854318142
1726940538630143500,10.5341435546875,0.26196062564849854,-0.20460616052150726,0.08350497484207153
1726940538640130000,10.544130126953124,0.3086146414279938,0.21055926382541656,0.3361071050167084
1726940538650115000,10.554114990234375,0.29234325885772705,0.44637179374694824,0.5454702377319336
1726940538660101000,10.56410107421875,0.22015221416950226,0.31346002221107483,0.5797441005706787
1726940538670087200,10.574087158203126,0.11955930292606354,0.13371582329273224,0.4725867807865143
1726940538680073000,10.584072998046874,0.037230074405670166,-0.010166512802243233,0.3540510833263397
1726940538690059300,10.594059326171875,0.004454019013792276,-0.07736153155565262,0.33003363013267517
1726940538700045000,10.604045166015625,-0.002207465935498476,-0.0026704813353717327,0.4021720588207245
1726940538710030000,10.614030029296876,-0.01554430928081274,0.06105709820985794,0.47306540608406067
1726940538720016100,10.62401611328125,-0.041550662368535995,0.07685910165309906,0.4432564973831177
1726940538730002200,10.634002197265625,-0.07472778856754303,-0.03666452690958977,0.2670583128929138
1726940538739988000,10.643988037109375,-0.06563054025173187,-0.1697225123643875,0.09964005649089813
1726940538749974000,10.65397412109375,-0.03696480765938759,-0.2625137269496918,0.03129029646515846
1726940538759960000,10.6639599609375,0.029022539034485817,-0.22022545337677002,0.017437756061553955
1726940538769946000,10.673946044921875,0.0833563506603241,-0.14058256149291992,0.010326316580176353
1726940538779931100,10.68393115234375,0.16880466043949127,-0.06235847994685173,-0.04481149837374687
1726940538789917000,10.6939169921875,0.26501134037971497,-0.06682460755109787,-0.11592348664999008
1726940538799903200,10.7039033203125,0.3309808373451233,-0.1431228071451187,-0.10096441954374313
1726940538809889000,10.713888916015625,0.3453019857406616,-0.2498316764831543,0.019014986231923103
1726940538819875000,10.723875,0.3274287283420563,-0.27861377596855164,0.14592604339122772
1726940538829861000,10.733861083984374,0.3049212694168091,-0.2578749358654022,0.24801619350910187
1726940538839846100,10.74384619140625,0.2995736598968506,-0.30992749333381653,0.3627281188964844
1726940538849832000,10.75383203125,0.32813310623168945,-0.5145570635795593,0.5037651658058167
1726940538859818000,10.76381787109375,0.36790549755096436,-0.8051283359527588,0.6562637686729431
1726940538869804000,10.773803955078124,0.4146178960800171,-1.064160704612732,0.845459520816803
1726940538879790000,10.7837900390625,0.4568837583065033,-1.1288964748382568,1.134009838104248
1726940538889775900,10.79377587890625,0.5046424865722656,-1.1059685945510864,1.4563785791397095
1726940538899762200,10.80376220703125,0.5962651371955872,-0.9928234815597534,1.7782113552093506
1726940538909747200,10.813747314453124,0.7063907980918884,-0.9329199194908142,2.1101317405700684
1726940538919733000,10.82373291015625,0.7574248313903809,-0.8029089570045471,2.305823802947998
1726940538929719000,10.833718994140625,0.7335948348045349,-0.6564236283302307,2.3606903553009033
1726940538939705000,10.843705078125,0.679350733757019,-0.46246156096458435,2.263638973236084
1726940538949691100,10.853691162109374,0.65955650806427,-0.395464152097702,2.090872049331665
1726940538959677000,10.863677001953125,0.6683048605918884,-0.4627305269241333,1.8745096921920776
1726940538969662200,10.873662109375,0.7058687806129456,-0.5824379920959473,1.6614171266555786
1726940538979648000,10.88364794921875,0.6724849939346313,-0.5462197065353394,1.4547077417373657
1726940538989634000,10.893634033203124,0.6004587411880493,-0.4856935739517212,1.264246940612793
1726940538999620000,10.9036201171875,0.45310816168785095,-0.43283361196517944,1.0762780904769897
1726940539009606100,10.913606201171875,0.2799361050128937,-0.37016117572784424,0.8976404666900635
1726940539019592000,10.923592041015626,0.11283984780311584,-0.3700052499771118,0.7629860639572144
1726940539029577000,10.933576904296874,-0.0010366539936512709,-0.39533406496047974,0.6665820479393005
1726940539039563300,10.943563232421875,-0.08047151565551758,-0.3667474389076233,0.6039762496948242
1726940539049549000,10.953549072265625,-0.15973196923732758,-0.25489094853401184,0.5505141019821167
1726940539059535000,10.96353515625,-0.26551419496536255,-0.12788361310958862,0.5166663527488708
1726940539069521200,10.973521240234374,-0.40726467967033386,-0.036838654428720474,0.5039204955101013
1726940539079507200,10.983507080078125,-0.5600230693817139,0.005034457426518202,0.4787347614765167
1726940539089493000,10.993492919921875,-0.6223383545875549,-0.004261838737875223,0.3455442190170288
1726940539099478000,11.00347802734375,-0.5867148041725159,0.02011110447347164,0.1712857037782669
1726940539109464000,11.013464111328124,-0.5390982627868652,0.023483730852603912,0.07545317709445953
1726940539119450000,11.0234501953125,-0.5296679735183716,0.06554657965898514,0.005804357118904591
1726940539129436000,11.033435791015625,-0.5454392433166504,0.13751079142093658,-0.09738674759864807
1726940539139422200,11.043422119140626,-0.570346474647522,0.20574937760829926,-0.24889475107192993
1726940539149408000,11.053407958984375,-0.6164883971214294,0.199269101023674,-0.4541168808937073
1726940539159393000,11.06339306640625,-0.6947415471076965,0.048588454723358154,-0.670860230922699
1726940539169379000,11.073379150390625,-0.7977457046508789,-0.12339529395103455,-0.9583761692047119
1726940539179365000,11.083365234375,-0.8667808175086975,-0.11581350862979889,-1.1948637962341309
1726940539189351200,11.09335107421875,-0.924796998500824,0.07575778663158417,-1.2968425750732422
1726940539199337000,11.1033369140625,-0.9818177819252014,0.29695644974708557,-1.3619595766067505
1726940539209323300,11.1133232421875,-1.0084375143051147,0.4225449860095978,-1.4807133674621582
1726940539219308000,11.12330810546875,-0.9677367806434631,0.420807808637619,-1.5801275968551636
1726940539229294000,11.133294189453125,-0.840278148651123,0.4402768611907959,-1.603012204170227
1726940539239279900,11.14327978515625,-0.5940345525741577,0.40569913387298584,-1.486019492149353
1726940539249266200,11.15326611328125,-0.19093206524848938,0.233577698469162,-1.1585474014282227
1726940539259252000,11.163251953125,0.06371185928583145,0.24268028140068054,-0.9381333589553833
1726940539269238000,11.173238037109375,0.21999600529670715,0.30156010389328003,-0.8743274807929993
1726940539279224000,11.18322412109375,0.2333332598209381,0.3451520800590515,-0.8557494878768921
1726940539289209000,11.193208984375,0.1730683296918869,0.3041607141494751,-0.8007674813270569
1726940539299195100,11.203195068359374,0.07700412720441818,0.17259414494037628,-0.7085805535316467
1726940539309181000,11.213180908203125,-0.005964789539575577,0.025550371035933495,-0.5763759016990662
1726940539319167200,11.223167236328125,-0.0475861020386219,-0.016878297552466393,-0.4201508164405823
1726940539329153000,11.233153076171876,-0.05817935988306999,0.10503455251455307,-0.28743618726730347
1726940539339139000,11.24313916015625,-0.08353070169687271,0.2921518087387085,-0.2659991383552551
1726940539349124000,11.2531240234375,-0.11323213577270508,0.48432445526123047,-0.3740939199924469
1726940539359110100,11.263110107421875,-0.08270857483148575,0.6127454042434692,-0.4603686034679413
1726940539369096000,11.273095947265626,-0.03209545835852623,0.610288143157959,-0.48054391145706177
1726940539379082200,11.283082275390624,0.05075899511575699,0.6330593228340149,-0.44745776057243347
1726940539389068000,11.293068115234375,0.1294625848531723,0.7606905102729797,-0.43650737404823303
1726940539399054000,11.30305419921875,0.11017519980669022,0.8982007503509521,-0.534053385257721
1726940539409039000,11.3130390625,0.027780726552009583,0.8903273940086365,-0.6836074590682983
1726940539419025200,11.323025146484374,-0.042340636253356934,0.6163860559463501,-0.7574188709259033
1726940539429011200,11.33301123046875,-0.1029810756444931,0.33051300048828125,-0.740109920501709
1726940539438997000,11.3429970703125,-0.1656719148159027,0.2842676043510437,-0.6429608464241028
1726940539448983300,11.3529833984375,-0.2441643327474594,0.2907651960849762,-0.6139374375343323
1726940539458969000,11.362968994140624,-0.3271087408065796,0.3149460256099701,-0.7107023596763611
1726940539468955100,11.372955078125,-0.40778443217277527,0.14470821619033813,-0.8517217636108398
1726940539478940000,11.38293994140625,-0.5099284052848816,-0.146937295794487,-0.9994028210639954
1726940539488926200,11.39292626953125,-0.6051273345947266,-0.2487315535545349,-1.0660042762756348
1726940539498912000,11.402912109375,-0.6396953463554382,-0.2111988663673401,-1.0811253786087036
1726940539508898000,11.41289794921875,-0.6277555823326111,-0.1480710208415985,-1.1319252252578735
1726940539518884000,11.422884033203125,-0.623306155204773,-0.125105619430542,-1.2468143701553345
1726940539528870100,11.4328701171875,-0.6677460074424744,-0.11468387395143509,-1.382993221282959
1726940539538855200,11.442855224609374,-0.7109779715538025,-0.15511156618595123,-1.4849668741226196
1726940539548841000,11.452841064453125,-0.7084775567054749,-0.235972598195076,-1.487999439239502
1726940539558827300,11.4628271484375,-0.6321403980255127,-0.22803311049938202,-1.3368455171585083
1726940539568813000,11.47281298828125,-0.46144455671310425,-0.14217360317707062,-1.0434015989303589
1726940539578799000,11.482799072265625,-0.2189861536026001,-0.1339476853609085,-0.7456517815589905
1726940539588785200,11.49278515625,0.025510149076581,-0.20732417702674866,-0.510469377040863
1726940539598771200,11.502771240234376,0.2294616848230362,-0.2918238639831543,-0.29630035161972046
1726940539608756000,11.512755859375,0.38316628336906433,-0.4024694263935089,-0.13305658102035522
1726940539618742000,11.522741943359375,0.49294543266296387,-0.4931854009628296,-0.011837361380457878
1726940539628728000,11.53272802734375,0.5836524367332458,-0.5192021131515503,0.06533678621053696
1726940539638714000,11.542714111328126,0.6013843417167664,-0.50872403383255,0.18647503852844238
1726940539648699600,11.55269970703125,0.5597665905952454,-0.29576727747917175,0.36452147364616394
1726940539658685700,11.562685791015625,0.5150737762451172,-0.006331219803541899,0.5443910360336304
1726940539668670700,11.572670654296875,0.39731520414352417,0.06467131525278091,0.6523915529251099
1726940539678656500,11.582656494140625,0.2986431121826172,0.008791002444922924,0.6420388221740723
1726940539688642600,11.592642578125,0.2461748719215393,-0.049410782754421234,0.5743257999420166
1726940539698628600,11.602628662109375,0.27064090967178345,-0.08526094257831573,0.5338985323905945
1726940539708614700,11.61261474609375,0.2808586359024048,-0.11023100465536118,0.5155887603759766
1726940539718600400,11.622600341796876,0.2584269642829895,-0.13505063951015472,0.514678418636322
1726940539728585500,11.63258544921875,0.21909953653812408,-0.13224740326404572,0.4731847643852234
1726940539738571500,11.642571533203125,0.19473396241664886,-0.04878191649913788,0.38717254996299744
1726940539748557600,11.6525576171875,0.18197742104530334,0.040831588208675385,0.3183317184448242
1726940539758543600,11.662543701171876,0.18157750368118286,0.0751979872584343,0.28458431363105774
1726940539768529700,11.67252978515625,0.16875705122947693,0.06724658608436584,0.2557401657104492
1726940539778515500,11.682515380859375,0.1078941598534584,0.05668678134679794,0.19675366580486298
1726940539788501500,11.69250146484375,0.044229697436094284,0.030820030719041824,0.1284949779510498
1726940539798486500,11.702486572265625,0.009007014334201813,-0.04394077509641647,0.09380307793617249
1726940539808472600,11.71247265625,0.03300076350569725,-0.16737990081310272,0.04767179861664772
1726940539818458600,11.722458740234375,0.06761480122804642,-0.25607022643089294,0.015639856457710266
1726940539828444400,11.7324443359375,0.10103826969861984,-0.23258619010448456,-0.03259238973259926
1726940539838430700,11.7424306640625,0.13905596733093262,-0.13221058249473572,-0.03434368222951889
1726940539848416500,11.75241650390625,0.1411508023738861,-0.11771367490291595,-0.006882762536406517
1726940539858401500,11.762401611328125,0.1449354588985443,-0.23196588456630707,0.07612322270870209
1726940539868387600,11.7723876953125,0.17328400909900665,-0.4225289225578308,0.19760732352733612
1726940539878373600,11.78237353515625,0.22020846605300903,-0.4943903088569641,0.34598609805107117
1726940539888359400,11.792359375,0.29417455196380615,-0.37564635276794434,0.6008870601654053
1726940539898345500,11.802345458984375,0.47226467728614807,-0.36574146151542664,0.9325252175331116
1726940539908331500,11.81233154296875,0.6528358459472656,-0.40644654631614685,1.2706066370010376
1726940539918317600,11.822317626953126,0.8248341679573059,-0.6261881589889526,1.6075732707977295
1726940539928302600,11.832302490234374,1.0156128406524658,-0.9635654091835022,1.8980456590652466
1726940539938288600,11.84228857421875,1.2126450538635254,-1.2245690822601318,2.102073907852173
1726940539948274700,11.852274658203125,1.331797480583191,-1.2083497047424316,2.1671862602233887
1726940539958260500,11.862260498046876,1.3411338329315186,-0.9722975492477417,2.192077398300171
1726940539968246800,11.872246826171875,1.3001195192337036,-0.805442750453949,2.227743148803711
1726940539978232600,11.882232666015625,1.255911946296692,-0.6460964679718018,2.276358127593994
1726940539988217600,11.892217529296875,1.2684381008148193,-0.6174365878105164,2.3103482723236084
1726940539998203400,11.902203369140626,1.2679176330566406,-0.6428562998771667,2.3037686347961426
1726940540008189700,11.912189697265624,1.1517071723937988,-0.6323568224906921,2.1756815910339355
1726940540018175500,11.922175537109375,0.9785194993019104,-0.5950604677200317,1.9551585912704468
1726940540028161500,11.93216162109375,0.7748159170150757,-0.572097897529602,1.7058910131454468
1726940540038147600,11.942147705078124,0.5566195249557495,-0.5575493574142456,1.429607629776001
1726940540048133600,11.952133544921875,0.30735325813293457,-0.5166338682174683,1.1532708406448364
1726940540058118700,11.96211865234375,0.02049986645579338,-0.36182498931884766,0.8928637504577637
1726940540068104400,11.9721044921875,-0.2910500466823578,-0.13357104361057281,0.6600837707519531
1726940540078090800,11.9820908203125,-0.58157879114151,0.12439287453889847,0.447868674993515
1726940540088076500,11.99207666015625,-0.8019668459892273,0.24069444835186005,0.2645169794559479
1726940540098062600,12.0020625,-0.8554637432098389,0.12270106375217438,0.13824887573719025
1726940540108048600,12.012048583984376,-0.8289697766304016,-0.06124746426939964,0.059561505913734436
1726940540118033700,12.02203369140625,-0.7692365646362305,-0.06294427812099457,-0.04788404703140259
1726940540128019500,12.03201953125,-0.6579729318618774,0.12363731861114502,-0.15756313502788544
1726940540138005500,12.042005615234375,-0.5258994698524475,0.4129732847213745,-0.27988913655281067
1726940540147991600,12.051991455078126,-0.4995959401130676,0.5964091420173645,-0.4969892203807831
1726940540157977600,12.0619775390625,-0.5804108381271362,0.5498589873313904,-0.7630247473716736
1726940540167963400,12.07196337890625,-0.7047365307807922,0.43722110986709595,-1.002663493156433
1726940540177949700,12.08194970703125,-0.8496971726417542,0.380389541387558,-1.1567398309707642
1726940540187934700,12.091934814453126,-1.0108393430709839,0.4313613772392273,-1.2164366245269775
1726940540197920500,12.10192041015625,-1.1611459255218506,0.5095292329788208,-1.199937343597412
1726940540207906600,12.111906494140625,-1.2789061069488525,0.5379001498222351,-1.2300981283187866
1726940540217892600,12.121892578125,-1.3987610340118408,0.4990916848182678,-1.373199224472046
1726940540227878700,12.131878662109376,-1.479284644126892,0.48905661702156067,-1.5078768730163574
1726940540237864400,12.141864501953124,-1.4526406526565552,0.46136486530303955,-1.4844098091125488
1726940540247849700,12.151849609375,-1.2430181503295898,0.5364189147949219,-1.2826359272003174
1726940540257835500,12.16183544921875,-0.8857693672180176,0.6062625646591187,-1.0433769226074219
1726940540267821600,12.171821533203126,-0.44578611850738525,0.450271338224411,-0.847222626209259
1726940540277807400,12.181807373046874,-0.13834936916828156,0.35896897315979004,-0.7987150549888611
1726940540287793700,12.191793701171875,0.09562185406684875,0.3501422107219696,-0.7722070217132568
1726940540297779500,12.201779541015625,0.15125297009944916,0.3569486439228058,-0.6635037660598755
1726940540307764500,12.211764404296876,0.07350224256515503,0.21630683541297913,-0.5257349610328674
1726940540317750800,12.221750732421874,-0.03731067106127739,-0.05175246670842171,-0.38231760263442993
1726940540327736600,12.231736572265625,-0.14730188250541687,-0.28030550479888916,-0.2330295741558075
1726940540337722600,12.24172265625,-0.2436709851026535,-0.35034167766571045,-0.13166290521621704
1726940540347708700,12.251708740234376,-0.33269351720809937,-0.21407254040241241,-0.04376154765486717
1726940540357694700,12.26169482421875,-0.43751853704452515,0.028174325823783875,0.0726136863231659
1726940540367680500,12.271680419921875,-0.5010753870010376,0.20232374966144562,0.1654839813709259
1726940540377665500,12.28166552734375,-0.5049380660057068,0.30175867676734924,0.13712921738624573
1726940540387651600,12.291651611328126,-0.45426878333091736,0.38916149735450745,-0.00810520350933075
1726940540397637600,12.3016376953125,-0.32449743151664734,0.4576781094074249,-0.24193574488162994
1726940540407623400,12.31162353515625,-0.2614540159702301,0.47243204712867737,-0.4994930028915405
1726940540417609700,12.321609619140625,-0.1964801549911499,0.44305333495140076,-0.5999877452850342
1726940540427595500,12.331595458984374,-0.07459074258804321,0.4070700407028198,-0.6027526259422302
1726940540437580500,12.34158056640625,0.08131664246320724,0.468837708234787,-0.55058354139328
1726940540447566600,12.351566650390625,0.25661763548851013,0.5949431657791138,-0.6227387189865112
1726940540457552600,12.361552734375,0.3572680652141571,0.6973438858985901,-0.8270761370658875
1726940540467538700,12.37153857421875,0.3133176565170288,0.6524115204811096,-1.0701087713241577
1726940540477524500,12.3815244140625,0.21061745285987854,0.5017284154891968,-1.2569152116775513
1726940540487510800,12.3915107421875,0.12842324376106262,0.4240304231643677,-1.3921931982040405
