time,seconds_elapsed,z,y,x
1726940528106328300,0.010328369140625,-0.3198680281639099,-1.3591245412826538,2.5246942043304443
1726940528116314400,0.020314453125,-0.20024095475673676,-1.4395549297332764,2.706892251968384
1726940528126299400,0.03029931640625,-0.09644664078950882,-1.3734214305877686,3.0116002559661865
1726940528136285200,0.04028515625,-0.0871141254901886,-1.0114248991012573,3.264392137527466
1726940528146271200,0.050271240234375,-0.03317340090870857,-0.7679957151412964,3.3533222675323486
1726940528156257300,0.06025732421875,0.01392566878348589,-0.699738621711731,3.299567461013794
1726940528166243300,0.070243408203125,-0.00481339730322361,-0.668423593044281,3.112490177154541
1726940528176228400,0.080228271484375,-0.058695271611213684,-0.518753707408905,2.8115031719207764
1726940528186214400,0.09021435546875,-0.07822129875421524,-0.2744685709476471,2.4700710773468018
1726940528196200400,0.100200439453125,-0.06395075470209122,0.031381357461214066,2.1616921424865723
1726940528206186200,0.110186279296875,-0.06059916317462921,0.4144752025604248,1.8721894025802612
1726940528216172500,0.120172607421875,-0.08968301117420197,0.6944107413291931,1.6862430572509766
1726940528226158300,0.130158447265625,-0.08069537580013275,0.7713207006454468,1.6245687007904053
1726940528236143400,0.140143310546875,-0.015985891222953796,0.6078547835350037,1.710889458656311
1726940528246129200,0.150129150390625,0.40339192748069763,0.03900305926799774,1.9620757102966309
1726940528256115500,0.160115478515625,0.7980045080184937,-0.607009768486023,2.368942975997925
1726940528266101200,0.170101318359375,1.0517240762710571,-1.150207281112671,2.878046751022339
1726940528276087300,0.18008740234375,1.107742428779602,-1.4866491556167603,3.2848145961761475
1726940528286072300,0.190072265625,1.011598825454712,-1.4605672359466553,3.4270339012145996
1726940528296058400,0.200058349609375,0.9347442388534546,-1.3621398210525513,3.4595537185668945
1726940528306044400,0.21004443359375,1.0417265892028809,-1.4984142780303955,3.513793706893921
1726940528316030200,0.2200302734375,1.331931233406067,-1.9568190574645996,3.6198015213012695
1726940528326016500,0.2300166015625,1.8517651557922363,-2.52531361579895,3.6037092208862305
1726940528336001300,0.240001220703125,2.4142932891845703,-2.9308149814605713,3.473186492919922
1726940528345987300,0.2499873046875,2.9499099254608154,-2.8299412727355957,3.406900405883789
1726940528355973000,0.25997314453125,3.4909722805023193,-2.9606072902679443,3.258371353149414
1726940528365959400,0.26995947265625,3.9390981197357178,-3.136310338973999,3.1737818717956543
1726940528375945200,0.2799453125,4.259227275848389,-3.3714396953582764,2.99210786819458
1726940528385930200,0.28993017578125,4.488431930541992,-3.2836313247680664,2.7031757831573486
1726940528395916300,0.299916259765625,4.629488945007324,-2.901275157928467,2.283247709274292
1726940528405902300,0.30990234375,4.619078159332275,-2.4573140144348145,1.7890689373016357
1726940528415888400,0.319888427734375,2.9296133518218994,-1.6726428270339966,1.7303332090377808
1726940528425874200,0.329874267578125,-1.0950989723205566,-2.0504603385925293,1.8364242315292358
1726940528435860500,0.339860595703125,1.3711583614349365,-1.6183606386184692,1.6893210411071777
1726940528445845200,0.34984521484375,1.041174292564392,-1.595449447631836,1.689186930656433
1726940528455831300,0.359831298828125,1.4731776714324951,-1.9036962985992432,1.8612345457077026
1726940528465817300,0.3698173828125,2.4181888103485107,-2.1822938919067383,1.8672606945037842
1726940528475803400,0.379803466796875,2.905564546585083,-2.2737679481506348,1.8602802753448486
1726940528485789200,0.3897890625,3.2982656955718994,-2.0846927165985107,1.6131887435913086
1726940528495774200,0.399774169921875,2.7668070793151855,-1.5541038513183594,1.3910894393920898
1726940528505760500,0.409760498046875,2.9967427253723145,-0.9629716277122498,0.9068588018417358
1726940528515746300,0.419746337890625,2.948767900466919,-0.524133563041687,0.5853124856948853
1726940528525732400,0.429732421875,2.9353463649749756,-0.4684132933616638,0.36115846037864685
1726940528535718400,0.439718505859375,3.0219595432281494,-0.7283740043640137,0.21088720858097076
1726940528545704400,0.449704345703125,2.8822758197784424,-0.9957993626594543,0.26288488507270813
1726940528555689200,0.459689208984375,3.041579246520996,-1.2215845584869385,0.25542962551116943
1726940528565675300,0.46967529296875,3.3640432357788086,-1.2248834371566772,0.2792026102542877
1726940528575661300,0.479661376953125,3.860809564590454,-1.071535348892212,0.30159792304039
1726940528585647400,0.4896474609375,4.337764739990234,-0.8638617992401123,0.11490288376808167
1726940528595633200,0.499633056640625,4.578912258148193,-0.8238741755485535,-0.12647351622581482
1726940528605618200,0.5096181640625,4.516872882843018,-0.8543849587440491,-0.1891816407442093
1726940528615604500,0.5196044921875,4.198266983032227,-0.816142201423645,-0.18150295317173004
1726940528625590300,0.52959033203125,3.4518253803253174,-0.1762799620628357,-0.11733594536781311
1726940528635576300,0.539576416015625,1.1831721067428589,1.467378854751587,1.2979134321212769
1726940528645562400,0.549562255859375,0.10275433957576752,0.8546270132064819,1.8674958944320679
1726940528655548400,0.55954833984375,-0.13501374423503876,0.4315735101699829,2.038240432739258
1726940528665533200,0.569533203125,0.4205573499202728,-0.4405355751514435,1.8313477039337158
1726940528675519200,0.579519287109375,1.0056575536727905,-1.3776215314865112,1.6618542671203613
1726940528685505300,0.58950537109375,1.7677751779556274,-2.2314295768737793,1.557103157043457
1726940528695491300,0.5994912109375,2.750035047531128,-2.4562172889709473,1.3179105520248413
1726940528705477000,0.60947705078125,3.5040225982666016,-1.9031481742858887,0.9286006093025208
1726940528715462400,0.61946240234375,3.655667304992676,-0.9193975329399109,0.6004802584648132
1726940528725448400,0.629448486328125,3.313051700592041,0.2643762528896332,0.3848073482513428
1726940528735434200,0.639434326171875,2.820280075073242,0.798054575920105,0.0762721374630928
1726940528745420500,0.649420654296875,2.4495747089385986,0.7438808083534241,-0.23123455047607422
1726940528755406300,0.65940625,2.1591873168945312,0.3937089443206787,-0.6479436159133911
1726940528765392400,0.669392333984375,2.0657131671905518,0.1379176527261734,-1.0948889255523682
1726940528775377200,0.679377197265625,2.1309216022491455,0.12568655610084534,-1.573399543762207
1726940528785363500,0.689363525390625,2.1451714038848877,0.10944180190563202,-1.9544254541397095
1726940528795349200,0.699349365234375,2.0959503650665283,0.00954130757600069,-2.1321516036987305
1726940528805335300,0.709335205078125,2.009089708328247,0.07933876663446426,-2.1622915267944336
1726940528815321300,0.7193212890625,1.826924443244934,0.3507726788520813,-2.0772390365600586
1726940528825306400,0.729306396484375,1.6012274026870728,0.5125479698181152,-1.8598380088806152
1726940528835292400,0.73929248046875,1.3996498584747314,0.212943434715271,-1.360676646232605
1726940528845278200,0.7492783203125,1.2937161922454834,-0.4924080967903137,-0.5037920475006104
1726940528855264500,0.759264404296875,1.2249411344528198,-1.112615704536438,0.36420565843582153
1726940528865250300,0.769250244140625,1.2699182033538818,-1.4142214059829712,0.9524372220039368
1726940528875236400,0.779236328125,1.3099786043167114,-1.6335481405258179,1.3774443864822388
1726940528885221000,0.78922119140625,1.4128953218460083,-2.1991729736328125,1.7527389526367188
1726940528895207400,0.79920751953125,1.5784467458724976,-2.672739028930664,2.1282360553741455
1726940528905193200,0.809193115234375,1.849560022354126,-2.830775737762451,2.4697346687316895
1726940528915179300,0.81917919921875,2.2278666496276855,-2.9513046741485596,2.716371536254883
1726940528925165300,0.829165283203125,2.3661630153656006,-2.8660950660705566,2.787102222442627
1726940528935150300,0.839150390625,2.282468318939209,-2.662144184112549,2.962635040283203
1726940528945136400,0.849136474609375,2.0765342712402344,-2.3844809532165527,3.1627395153045654
1726940528955122200,0.8591220703125,1.6115477085113525,-2.2289376258850098,3.5693933963775635
1726940528965108500,0.8691083984375,0.9000224471092224,-2.2800166606903076,3.7806496620178223
1726940528975094300,0.87909423828125,0.23857076466083527,-2.1986844539642334,3.8205487728118896
1726940528985080300,0.889080322265625,-0.29998859763145447,-2.158881187438965,3.6601693630218506
1726940528995065300,0.8990654296875,-0.7593367099761963,-2.3407928943634033,3.260807514190674
1726940529005051400,0.909051513671875,-1.0099740028381348,-2.015615940093994,2.5036070346832275
1726940529015037200,0.919037109375,-1.0773825645446777,-1.0137170553207397,1.346914529800415
1726940529025023200,0.929023193359375,-1.0361392498016357,0.18252107501029968,0.1142384260892868
1726940529035009300,0.93900927734375,-1.1050797700881958,1.192650318145752,-0.728651762008667
1726940529044995300,0.948995361328125,-1.6018258333206177,1.1247320175170898,-0.7969871759414673
1726940529054980400,0.95898046875,-2.3673558235168457,2.9094834327697754,-0.8985393643379211
1726940529064966400,0.96896630859375,-2.9155285358428955,3.8152267932891846,-0.8652825951576233
1726940529074952400,0.978952392578125,-2.5021584033966064,2.9100310802459717,-0.2127804458141327
1726940529084938200,0.988938232421875,-2.164357900619507,0.9686816930770874,0.27309650182724
1726940529094924500,0.998924560546875,-2.214186668395996,-0.7272445559501648,0.463922381401062
1726940529104909300,1.008909423828125,-2.301652669906616,-1.7712287902832031,0.45316269993782043
1726940529114895400,1.018895263671875,-2.472909688949585,-1.818236231803894,0.2290014922618866
1726940529124881200,1.028881103515625,-2.5722570419311523,-1.8575119972229004,0.15975797176361084
1726940529134867500,1.038867431640625,-2.2796688079833984,-1.6054033041000366,0.1533815711736679
1726940529144853200,1.048853271484375,-2.2355704307556152,-0.733203649520874,-0.19548854231834412
1726940529154839300,1.05883935546875,-2.251875638961792,0.42569297552108765,-0.6330584287643433
1726940529164824300,1.06882421875,-2.392139196395874,1.200647234916687,-1.0697633028030396
1726940529174810400,1.078810302734375,-2.5898773670196533,1.3692823648452759,-1.3498053550720215
1726940529184796400,1.08879638671875,-2.5526065826416016,1.0741859674453735,-1.5767478942871094
1726940529194782200,1.0987822265625,-2.5265939235687256,0.5494601726531982,-1.7839882373809814
1726940529204768500,1.1087685546875,-2.234225273132324,-0.24969825148582458,-1.999131441116333
1726940529214753300,1.118753173828125,-2.013845205307007,-1.2301766872406006,-2.242720127105713
1726940529224739300,1.1287392578125,-2.3134963512420654,-1.9212286472320557,-2.439058542251587
1726940529234725000,1.13872509765625,-2.48506498336792,-2.5217032432556152,-2.563328742980957
1726940529244711400,1.14871142578125,-2.5702953338623047,-2.938673973083496,-2.608189344406128
1726940529254697200,1.158697265625,-2.8368306159973145,-3.2053444385528564,-2.565765380859375
1726940529264683300,1.168683349609375,-3.2906343936920166,-3.599426507949829,-2.535715341567993
1726940529274668500,1.17866845703125,-3.8992702960968018,-4.201849937438965,-2.3917489051818848
1726940529284654300,1.188654296875,-4.45229434967041,-4.768174648284912,-2.0588085651397705
1726940529294640400,1.198640380859375,-3.818519115447998,-5.20228910446167,-1.1460351943969727
1726940529304626200,1.208626220703125,-2.408212900161743,-4.857725143432617,-0.27918797731399536
1726940529314612500,1.218612548828125,-1.3247255086898804,-3.7599544525146484,0.21779730916023254
1726940529324598300,1.228598388671875,-0.6877189874649048,-1.4730169773101807,0.22204238176345825
1726940529334583300,1.238583251953125,-0.5738507509231567,0.8170029520988464,-0.0019531622529029846
1726940529344569300,1.2485693359375,-0.47476544976234436,1.6109706163406372,-0.35731151700019836
1726940529354555400,1.258555419921875,-0.12601812183856964,1.205257773399353,-0.4930208921432495
1726940529364541200,1.268541259765625,0.09753640741109848,0.3971489667892456,-0.5749378800392151
1726940529374527500,1.278527587890625,0.2431170493364334,-0.15920403599739075,-0.5899407863616943
1726940529384512500,1.288512451171875,0.37523379921913147,-0.32613736391067505,-0.5612068772315979
1726940529394498300,1.298498291015625,0.5293788909912109,-0.26755422353744507,-0.5187086462974548
1726940529404484400,1.308484375,0.5572134852409363,-0.13989292085170746,-0.5038503408432007
1726940529414470400,1.318470458984375,0.503529965877533,-0.05548642948269844,-0.5701343417167664
1726940529424456400,1.32845654296875,0.42257601022720337,-0.004972121678292751,-0.6515695452690125
1726940529434442200,1.338442138671875,0.3975987732410431,0.06149904802441597,-0.689784824848175
1726940529444427300,1.34842724609375,0.3806424140930176,0.18689318001270294,-0.6485580205917358
1726940529454413300,1.358413330078125,0.34195494651794434,0.2901971936225891,-0.5702882409095764
1726940529464399400,1.3683994140625,0.2756875157356262,0.358827143907547,-0.4504968523979187
1726940529474385200,1.37838525390625,0.1878090500831604,0.41860124468803406,-0.316875696182251
1726940529484371500,1.388371337890625,0.1104479506611824,0.4451338052749634,-0.1864905208349228
1726940529494356500,1.3983564453125,0.02281183935701847,0.44705820083618164,-0.06649061292409897
1726940529504342300,1.40834228515625,-0.07615255564451218,0.432130366563797,0.017298029735684395
1726940529514328300,1.418328369140625,-0.13946281373500824,0.41084080934524536,0.06534891575574875
1726940529524314400,1.428314453125,-0.13933153450489044,0.3912484645843506,0.10808918625116348
1726940529534300400,1.438300537109375,-0.09339359402656555,0.37610384821891785,0.14102104306221008
1726940529544286200,1.4482861328125,-0.014054300263524055,0.35935842990875244,0.16684012115001678
1726940529554271200,1.458271240234375,0.08598228543996811,0.37416428327560425,0.1933814436197281
1726940529564257300,1.46825732421875,0.1807711124420166,0.40047764778137207,0.22961348295211792
1726940529574243300,1.478243408203125,0.2411058247089386,0.4290813207626343,0.2761852443218231
1726940529584229000,1.48822900390625,0.24770806729793549,0.48655766248703003,0.32056522369384766
1726940529594215400,1.49821533203125,0.20319652557373047,0.5206261277198792,0.33701691031455994
1726940529604200400,1.508200439453125,0.13361318409442902,0.5081308484077454,0.34467747807502747
1726940529614186200,1.518186279296875,0.10117455571889877,0.4564676582813263,0.3671950399875641
1726940529624172500,1.528172607421875,0.1191042885184288,0.41395536065101624,0.3912798762321472
1726940529634157800,1.53815771484375,0.17829464375972748,0.41699403524398804,0.37778350710868835
1726940529644144000,1.54814404296875,0.26532140374183655,0.4340835511684418,0.3286719024181366
1726940529654130000,1.5581298828125,0.37381860613822937,0.4134024977684021,0.2631365656852722
1726940529664115000,1.568114990234375,0.4706982672214508,0.351136714220047,0.17898333072662354
1726940529674101000,1.57810107421875,0.5509329438209534,0.2761450409889221,0.09485433995723724
1726940529684087000,1.588087158203125,0.5686858296394348,0.21697998046875,-0.008204666897654533
1726940529694073000,1.598072998046875,0.5244483351707458,0.21595492959022522,-0.11972320824861526
1726940529704059000,1.608058837890625,0.4400908350944519,0.2845403850078583,-0.22180430591106415
1726940529714045000,1.618044921875,0.3616218566894531,0.36806243658065796,-0.29230988025665283
1726940529724030000,1.628030029296875,0.29031383991241455,0.3791411817073822,-0.3369884192943573
1726940529734016000,1.63801611328125,0.24332930147647858,0.35771578550338745,-0.3439166247844696
1726940529744001800,1.648001708984375,0.26162442564964294,0.32611578702926636,-0.2877689301967621
1726940529753988000,1.657988037109375,0.321580171585083,0.29347556829452515,-0.1773553490638733
1726940529763974000,1.667973876953125,0.3435744047164917,0.2898446023464203,-0.03363146260380745
1726940529773959000,1.677958984375,0.3070278465747833,0.32856324315071106,0.11346184462308884
1726940529783945000,1.687945068359375,0.26872333884239197,0.3722742199897766,0.24567660689353943
1726940529793931000,1.697930908203125,0.23134107887744904,0.40244197845458984,0.37997210025787354
1726940529803917000,1.7079169921875,0.1859581470489502,0.4292387068271637,0.5058115124702454
1726940529813902800,1.71790283203125,0.10710728168487549,0.4376452565193176,0.6308067440986633
1726940529823889000,1.727888916015625,0.00933065079152584,0.4174206554889679,0.7651722431182861
1726940529833874000,1.7378740234375,-0.08602596074342728,0.3985609710216522,0.9036803245544434
1726940529843860000,1.74785986328125,-0.1597108393907547,0.4190734326839447,1.0215036869049072
1726940529853846000,1.757845947265625,-0.18798641860485077,0.49135908484458923,1.1218816041946411
1726940529863832000,1.76783203125,-0.14023379981517792,0.6040992140769958,1.189878225326538
1726940529873817900,1.77781787109375,-0.011293401010334492,0.72684246301651,1.2072782516479492
1726940529883804200,1.78780419921875,0.1498265117406845,0.8123365640640259,1.1465739011764526
1726940529893789000,1.797788818359375,0.2666916251182556,0.8152902722358704,1.0173749923706055
1726940529903775000,1.80777490234375,0.25783872604370117,0.7165458798408508,0.8362706303596497
1726940529913761000,1.817760986328125,0.1963340938091278,0.5055630207061768,0.6144815683364868
1726940529923747000,1.8277470703125,0.1466461718082428,0.2395678460597992,0.37229153513908386
1726940529933732900,1.83773291015625,0.1198909804224968,-0.04145210236310959,0.12336241453886032
1726940529943718000,1.8477177734375,0.14346449077129364,-0.2951626777648926,-0.1355210691690445
1726940529953704000,1.857703857421875,0.2594486176967621,-0.5188338160514832,-0.37744608521461487
1726940529963690000,1.86768994140625,0.49287548661231995,-0.6294732689857483,-0.5931690335273743
1726940529973676000,1.877676025390625,0.6597259640693665,-0.6185727119445801,-0.7937343716621399
1726940529983661800,1.887661865234375,0.6895840167999268,-0.5810588598251343,-0.9502020478248596
1726940529993648000,1.897648193359375,0.617611825466156,-0.5236368775367737,-1.0352615118026733
1726940530003633000,1.9076328125,0.5419580936431885,-0.46546489000320435,-1.0150047540664673
1726940530013619000,1.917618896484375,0.5127367973327637,-0.3994198441505432,-0.9144602417945862
1726940530023605000,1.92760498046875,0.4995110034942627,-0.31309932470321655,-0.7923346161842346
1726940530033591000,1.937591064453125,0.48332324624061584,-0.22317050397396088,-0.6266838908195496
1726940530043576800,1.947576904296875,0.4943349063396454,-0.09971913695335388,-0.41381314396858215
1726940530053563000,1.95756298828125,0.5075814723968506,0.1281995177268982,-0.19641825556755066
1726940530063548000,1.9675478515625,0.5407769680023193,0.39737826585769653,0.04426919296383858
1726940530073534000,1.977533935546875,0.5132023096084595,0.5828884840011597,0.2867843508720398
1726940530083520000,1.98752001953125,0.4393467307090759,0.6830896139144897,0.4815075099468231
1726940530093505800,1.997505859375,0.33471113443374634,0.7034620046615601,0.635765552520752
1726940530103492000,2.0074921875,0.21906709671020508,0.6861552000045776,0.7403090000152588
1726940530113476900,2.017476806640625,0.09442370384931564,0.6856686472892761,0.7456981539726257
1726940530123463000,2.027462890625,-0.036259204149246216,0.6748932003974915,0.7010875344276428
1726940530133449000,2.037448974609375,-0.17569459974765778,0.629647970199585,0.6417906880378723
1726940530143435000,2.04743505859375,-0.3225221335887909,0.5757799744606018,0.5570741891860962
1726940530153420800,2.0574208984375,-0.4882514476776123,0.5221604108810425,0.4475814998149872
1726940530163406800,2.06740673828125,-0.6545037627220154,0.4640864431858063,0.29736536741256714
1726940530173392100,2.07739208984375,-0.7244136333465576,0.3541809916496277,0.16148076951503754
1726940530183378000,2.0873779296875,-0.7095990180969238,0.1265781819820404,-0.029770145192742348
1726940530193364000,2.097364013671875,-0.5654277205467224,-0.1403062492609024,-0.15766659379005432
1726940530203350000,2.10735009765625,-0.3114268481731415,-0.42386311292648315,-0.21303504705429077
1726940530213336000,2.117336181640625,0.03918148949742317,-0.6895347237586975,-0.16190075874328613
1726940530223321900,2.12732177734375,0.48891481757164,-0.946735680103302,-0.09059115499258041
1726940530233307000,2.137306884765625,0.9372097849845886,-1.136976957321167,-0.059793293476104736
1726940530243293000,2.14729296875,1.3166968822479248,-1.196581482887268,-0.09318853169679642
1726940530253279000,2.157279052734375,1.373594880104065,-1.031854271888733,-0.17725041508674622
1726940530263264800,2.1672646484375,1.1434623003005981,-0.7658851742744446,-0.2644425630569458
1726940530273251000,2.1772509765625,0.7398868799209595,-0.5218075513839722,-0.3392068147659302
1726940530283236900,2.18723681640625,0.3104785084724426,-0.3423805236816406,-0.39269959926605225
1726940530293222000,2.197221923828125,-0.032108668237924576,-0.2676317095756531,-0.37086328864097595
1726940530303208000,2.2072080078125,-0.26785486936569214,-0.2800958454608917,-0.29791292548179626
1726940530313194000,2.217194091796875,-0.40699997544288635,-0.3845447599887848,-0.19418865442276
1726940530323180000,2.227179931640625,-0.42232540249824524,-0.37573421001434326,-0.1219024658203125
1726940530333165800,2.237165771484375,-0.35454609990119934,-0.2001514732837677,-0.13530802726745605
1726940530343150800,2.24715087890625,-0.3058973252773285,-0.06290119886398315,-0.18792249262332916
1726940530353137000,2.257136962890625,-0.27836665511131287,-0.03564321622252464,-0.24958772957324982
1726940530363123000,2.267123046875,-0.2013421654701233,0.009033176116645336,-0.3058515191078186
1726940530373108700,2.277108642578125,-0.07565614581108093,0.08520916849374771,-0.3428042232990265
1726940530383095000,2.287094970703125,-0.04872652515769005,0.17944325506687164,-0.38467124104499817
1726940530393080800,2.297080810546875,-0.11786884814500809,0.24816346168518066,-0.39467620849609375
1726940530403065900,2.30706591796875,-0.21848253905773163,0.28520750999450684,-0.3578718602657318
1726940530413052200,2.31705224609375,-0.25949522852897644,0.2703910171985626,-0.2745961546897888
1726940530423038000,2.327037841796875,-0.2637038230895996,0.22571754455566406,-0.2117234319448471
1726940530433024000,2.33702392578125,-0.30491968989372253,0.1872393935918808,-0.17626424133777618
1726940530443009800,2.347009765625,-0.37442126870155334,0.15873025357723236,-0.17398697137832642
1726940530452996000,2.35699609375,-0.511300265789032,0.12818406522274017,-0.23123908042907715
1726940530462980900,2.36698095703125,-0.6399144530296326,0.10587157309055328,-0.30175983905792236
1726940530472967000,2.376966796875,-0.6797361969947815,0.09454887360334396,-0.36046549677848816
1726940530482953000,2.386952880859375,-0.586683988571167,0.028249481692910194,-0.3742412328720093
1726940530492939000,2.39693896484375,-0.4480036199092865,-0.12565885484218597,-0.3512224853038788
1726940530502924800,2.4069248046875,-0.36765632033348083,-0.29165953397750854,-0.34542423486709595
1726940530512911000,2.4169111328125,-0.27505233883857727,-0.4159684479236603,-0.3293464779853821
1726940530522896100,2.426896240234375,-0.17781154811382294,-0.4866119921207428,-0.3166338801383972
1726940530532882000,2.4368818359375,-0.11226102709770203,-0.5052961707115173,-0.3323843479156494
1726940530542868000,2.446867919921875,-0.12604369223117828,-0.4888748824596405,-0.33743688464164734
1726940530552854000,2.45685400390625,-0.2735191583633423,-0.4033842086791992,-0.36320456862449646
1726940530562840000,2.466840087890625,-0.428842157125473,-0.23813506960868835,-0.414013147354126
1726940530572825900,2.476825927734375,-0.4030159115791321,-0.04544737562537193,-0.4537770748138428
1726940530582811000,2.486810791015625,-0.19277584552764893,0.04125715792179108,-0.4133037030696869
1726940530592797000,2.496796875,0.05469946563243866,0.1021503359079361,-0.33761319518089294
1726940530602783000,2.506782958984375,0.25158774852752686,0.10533574223518372,-0.3059665858745575
1726940530612768800,2.516768798828125,0.253630667924881,0.030704915523529053,-0.28185510635375977
1726940530622755000,2.526755126953125,0.19050869345664978,-0.048218660056591034,-0.2568475008010864
1726940530632739800,2.53673974609375,0.16117477416992188,0.048762477934360504,-0.3052395284175873
1726940530642725600,2.5467255859375,0.12843121588230133,0.1791662871837616,-0.3945814073085785
1726940530652711700,2.556711669921875,0.033484723418951035,0.3188285827636719,-0.4804244041442871
1726940530662697700,2.56669775390625,-0.06624586880207062,0.38410478830337524,-0.4922959804534912
1726940530672683800,2.576683837890625,-0.1775854378938675,0.33350926637649536,-0.4365924894809723
1726940530682669600,2.586669677734375,-0.17320001125335693,0.21645347774028778,-0.3657207190990448
1726940530692654600,2.596654541015625,-0.032578714191913605,0.13083285093307495,-0.32352107763290405
1726940530702641000,2.606640869140625,0.17212995886802673,0.11586401611566544,-0.3761427402496338
1726940530712626700,2.616626708984375,0.3479022979736328,0.050150785595178604,-0.4800800681114197
1726940530722612700,2.62661279296875,0.4629886746406555,-0.1349642127752304,-0.5489739179611206
1726940530732598800,2.636598876953125,0.5126758217811584,-0.3428519070148468,-0.5521595478057861
1726940530742584800,2.646584716796875,0.5715822577476501,-0.45372673869132996,-0.4669432044029236
1726940530752569600,2.656569580078125,0.6635947823524475,-0.4310014545917511,-0.2923080325126648
1726940530762555600,2.6665556640625,0.6375207901000977,-0.40092185139656067,-0.06244313716888428
1726940530772541700,2.676541748046875,0.5914393663406372,-0.2758976221084595,0.16774559020996094
1726940530782527700,2.68652783203125,0.5307584404945374,-0.1464562863111496,0.34839072823524475
1726940530792513500,2.696513427734375,0.48641437292099,0.013125655241310596,0.5221585631370544
1726940530802499800,2.706499755859375,0.4843277931213379,0.15889456868171692,0.7201773524284363
1726940530812484900,2.71648486328125,0.4083821773529053,0.20619072020053864,0.9710407257080078
1726940530822470700,2.726470703125,0.29246994853019714,0.2403116673231125,1.2413936853408813
1726940530832456700,2.736456787109375,0.1966097354888916,0.30793890357017517,1.4851882457733154
1726940530842442800,2.74644287109375,0.07927325367927551,0.4318917691707611,1.624065637588501
1726940530852428800,2.7564287109375,-0.0018106831703335047,0.5583101511001587,1.698496699333191
1726940530862414600,2.76641455078125,-0.12840963900089264,0.6783119440078735,1.8353410959243774
1726940530872400000,2.77639990234375,-0.3074619472026825,0.7173778414726257,1.9838954210281372
1726940530882385700,2.7863857421875,-0.4406333267688751,0.6854044198989868,2.075002908706665
1726940530892371700,2.796371826171875,-0.4807104170322418,0.6509511470794678,2.1186928749084473
1726940530902357800,2.806357666015625,-0.42770421504974365,0.5868525505065918,2.1358280181884766
1726940530912343800,2.81634375,-0.3518959879875183,0.47492629289627075,2.128278970718384
1726940530922328800,2.826328857421875,-0.2909817695617676,0.3620293140411377,2.0901615619659424
1726940530932314600,2.836314697265625,-0.31026411056518555,0.302309513092041,2.0244741439819336
1726940530942300700,2.84630078125,-0.39533692598342896,0.28810662031173706,1.9490998983383179
1726940530952286700,2.85628662109375,-0.46972090005874634,0.30931711196899414,1.8776252269744873
1726940530962272800,2.866272705078125,-0.4841722846031189,0.3795875310897827,1.7974646091461182
1726940530972258800,2.8762587890625,-0.4070287346839905,0.4870242476463318,1.7106159925460815
1726940530982243800,2.886243896484375,-0.22680331766605377,0.5694379210472107,1.652907371520996
1726940530992229600,2.896229736328125,0.004001932218670845,0.5982080101966858,1.5405076742172241
1726940531002215700,2.906215576171875,0.13243500888347626,0.5865119695663452,1.324572205543518
1726940531012201700,2.91620166015625,0.07026617228984833,0.49645477533340454,0.9947149157524109
1726940531022187800,2.926187744140625,-0.13123126327991486,0.22774581611156464,0.6020413637161255
1726940531032173600,2.936173583984375,-0.34697234630584717,-0.1389152705669403,0.18974409997463226
1726940531042158600,2.94615869140625,-0.5040881633758545,-0.4514896869659424,-0.19264641404151917
1726940531052144600,2.95614453125,-0.5675326585769653,-0.6157073974609375,-0.5002513527870178
1726940531062130700,2.966130615234375,-0.5546842813491821,-0.6627151370048523,-0.6669775247573853
1726940531072116700,2.97611669921875,-0.567923367023468,-0.8017619252204895,-0.7595822811126709
1726940531082102800,2.986102783203125,-0.559558093547821,-0.9940903782844543,-0.8147467374801636
1726940531092088600,2.996088623046875,-0.4679373800754547,-1.0614715814590454,-0.875547468662262
1726940531102073600,3.006073486328125,-0.28614360094070435,-1.0049201250076294,-0.983283281326294
1726940531112060000,3.016059814453125,-0.07285530120134354,-0.8933541774749756,-1.1619230508804321
1726940531122045700,3.026045654296875,0.06628474593162537,-0.726102352142334,-1.3886592388153076
1726940531132031700,3.03603173828125,0.11060986667871475,-0.5401202440261841,-1.6490846872329712
1726940531142017500,3.046017578125,0.10176204890012741,-0.3951318860054016,-1.867637038230896
1726940531152003800,3.05600390625,0.076716348528862,-0.3040906488895416,-1.989507794380188
1726940531161988600,3.065988525390625,0.05487043783068657,-0.23861336708068848,-1.992781162261963
1726940531171974700,3.075974609375,0.08664434403181076,-0.1674792766571045,-1.8833057880401611
1726940531181960700,3.085960693359375,0.09719259291887283,-0.05792801454663277,-1.71086585521698
1726940531191946800,3.09594677734375,0.07412083446979523,0.10222623497247696,-1.5140427350997925
1726940531201932500,3.1059326171875,0.02436526119709015,0.2996327877044678,-1.284478783607483
1726940531211917600,3.11591748046875,-0.1068609356880188,0.47420060634613037,-1.0469655990600586
1726940531221904000,3.12590380859375,-0.32932916283607483,0.5294766426086426,-0.821811318397522
1726940531231889700,3.1358896484375,-0.5745149254798889,0.40014952421188354,-0.6001033782958984
1726940531241875700,3.145875732421875,-0.7552141547203064,0.10626944899559021,-0.26875823736190796
1726940531251861800,3.15586181640625,-0.8148830533027649,-0.08959699422121048,0.14793246984481812
1726940531261847800,3.165847900390625,-0.7566536068916321,-0.18676109611988068,0.5656290650367737
1726940531271832800,3.175832763671875,-0.642411470413208,-0.20958039164543152,0.862156331539154
1726940531281818600,3.185818603515625,-0.5584960579872131,-0.09838142991065979,0.9772847890853882
1726940531291804700,3.1958046875,-0.5397439002990723,0.117296002805233,0.8961659669876099
1726940531301790700,3.205790771484375,-0.5652676820755005,0.2900499403476715,0.6927385330200195
1726940531311776500,3.215776611328125,-0.6295089721679688,0.33695724606513977,0.41854506731033325
1726940531321762800,3.2257626953125,-0.6778274774551392,0.21983382105827332,0.17423412203788757
1726940531331747800,3.235747802734375,-0.6748013496398926,-0.007426491007208824,-0.0258137546479702
1726940531341733600,3.245733642578125,-0.5812522172927856,-0.22000719606876373,-0.1721789538860321
1726940531351719700,3.2557197265625,-0.4286133944988251,-0.4008025527000427,-0.2686423659324646
1726940531361705700,3.265705810546875,-0.2393079251050949,-0.5506000518798828,-0.32785242795944214
1726940531371691800,3.27569189453125,-0.0620572455227375,-0.7023946046829224,-0.3668072819709778
1726940531381677600,3.285677490234375,0.09135201573371887,-0.8316609859466553,-0.402804434299469
1726940531391662600,3.29566259765625,0.18335570394992828,-0.9456474781036377,-0.4585987329483032
1726940531401648600,3.305648681640625,0.1806587278842926,-1.0486183166503906,-0.548803985118866
1726940531411634700,3.315634765625,0.1161431148648262,-1.1987940073013306,-0.6329934597015381
1726940531421620500,3.325620361328125,-0.012132829055190086,-1.3751131296157837,-0.6940929889678955
1726940531431606800,3.335606689453125,-0.1691376268863678,-1.4947774410247803,-0.7070117592811584
1726940531441591800,3.345591796875,-0.3081623613834381,-1.4842534065246582,-0.6636855602264404
1726940531451577600,3.35557763671875,-0.41086262464523315,-1.3436832427978516,-0.5786782503128052
1726940531461564000,3.36556396484375,-0.5013898611068726,-1.1310527324676514,-0.5195361375808716
1726940531471549700,3.3755498046875,-0.5313988924026489,-0.8651728630065918,-0.4829544126987457
1726940531481535700,3.38553564453125,-0.4966009855270386,-0.586161732673645,-0.4107297360897064
1726940531491521500,3.395521484375,-0.5061798095703125,-0.29779279232025146,-0.382698655128479
1726940531501506800,3.4055068359375,-0.5315962433815002,-0.014595454558730125,-0.39255446195602417
1726940531511492600,3.41549267578125,-0.5625101923942566,0.21173807978630066,-0.4238082766532898
1726940531521478700,3.425478759765625,-0.5536850094795227,0.3496916890144348,-0.4457274079322815
1726940531531464700,3.435464599609375,-0.4626038670539856,0.39063724875450134,-0.4411134719848633
1726940531541450800,3.44545068359375,-0.3409583866596222,0.3824664056301117,-0.3966831564903259
1726940531551436500,3.4554365234375,-0.23956970870494843,0.3211972117424011,-0.34816649556159973
1726940531561421600,3.465421630859375,-0.20800140500068665,0.24074231088161469,-0.32861968874931335
1726940531571408000,3.475407958984375,-0.19863027334213257,0.15809190273284912,-0.3170226812362671
1726940531581393700,3.4853935546875,-0.1988542377948761,0.08309195935726166,-0.2964276671409607
1726940531591379700,3.495379638671875,-0.18393787741661072,0.07443801313638687,-0.2701878249645233
1726940531601365800,3.50536572265625,-0.20627300441265106,0.06362052261829376,-0.25905394554138184
1726940531611350800,3.515350830078125,-0.20024654269218445,0.09906160086393356,-0.24066907167434692
1726940531621336600,3.525336669921875,-0.15685592591762543,0.20970715582370758,-0.2102310061454773
1726940531631323000,3.535322998046875,-0.09188411384820938,0.387184202671051,-0.1789303421974182
1726940531641308700,3.54530859375,-0.04944717884063721,0.5316766500473022,-0.15880057215690613
1726940531651295000,3.555294921875,-0.04785513877868652,0.5812264084815979,-0.1406114399433136
1726940531661280800,3.56528076171875,-0.0578228197991848,0.5307704210281372,-0.1976262629032135
1726940531671265800,3.575265869140625,-0.12054825574159622,0.4667719602584839,-0.27191779017448425
1726940531681251800,3.585251953125,-0.17732524871826172,0.2838892340660095,-0.3801279067993164
1726940531691238000,3.59523779296875,-0.1748999059200287,0.0536871962249279,-0.44268369674682617
1726940531701224000,3.605223876953125,-0.15599359571933746,-0.16964522004127502,-0.46526968479156494
1726940531711209700,3.615209716796875,-0.12414804846048355,-0.2570400536060333,-0.4010739326477051
1726940531721196000,3.625196044921875,-0.0830639973282814,-0.30299609899520874,-0.2971824109554291
1726940531731180800,3.635180908203125,-0.08822093904018402,-0.4882972538471222,-0.24753469228744507
1726940531741166800,3.645166748046875,-0.22245357930660248,-0.8009619116783142,-0.3000626266002655
1726940531751153000,3.65515283203125,-0.4403528869152069,-0.9497039914131165,-0.3452780246734619
1726940531761139000,3.665138916015625,-0.7321445345878601,-0.739996612071991,-0.28432998061180115
1726940531771124700,3.675124755859375,-0.9969825744628906,-0.24914191663265228,-0.1675780713558197
1726940531781110800,3.68511083984375,-1.1774530410766602,0.3231349289417267,-0.018134262412786484
1726940531791096000,3.695095947265625,-1.3420307636260986,0.7024500370025635,0.03561152517795563
1726940531801081900,3.705081787109375,-1.4270011186599731,0.899903416633606,0.012298477813601494
1726940531811068000,3.71506787109375,-1.53463613986969,0.978873610496521,-0.07791024446487427
1726940531821054000,3.725053955078125,-1.551735520362854,1.0413614511489868,-0.21279242634773254
1726940531831040000,3.7350400390625,-1.4013159275054932,1.0352290868759155,-0.363277792930603
1726940531841024800,3.745024658203125,-1.1406619548797607,0.961686909198761,-0.4794459640979767
1726940531851010800,3.7550107421875,-0.7906951904296875,0.7477016448974609,-0.5678168535232544
1726940531860996900,3.764996826171875,-0.40651822090148926,0.4264650344848633,-0.6293105483055115
1726940531870983000,3.77498291015625,-0.06505516916513443,0.10427127778530121,-0.6164842247962952
1726940531880968700,3.78496875,0.2064402550458908,-0.09116266667842865,-0.48681333661079407
1726940531890955000,3.794955078125,0.41747498512268066,-0.21952968835830688,-0.316946804523468
1726940531900940000,3.80493994140625,0.5336647033691406,-0.305148184299469,-0.08855889737606049
1726940531910925800,3.81492578125,0.554474949836731,-0.4654853940010071,0.08227676153182983
1726940531920912000,3.824911865234375,0.5480404496192932,-0.46721431612968445,0.16759991645812988
1726940531930898000,3.83489794921875,0.5739791393280029,-0.3122236728668213,0.17684482038021088
1726940531940884000,3.844884033203125,0.6174267530441284,-0.2215489000082016,0.12319676578044891
1726940531950868700,3.85486865234375,0.6560987830162048,-0.18146273493766785,0.03978443145751953
1726940531960854800,3.864854736328125,0.6511910557746887,-0.15069709718227386,-0.056234776973724365
1726940531970840800,3.8748408203125,0.6092162132263184,-0.1781654804944992,-0.1396026313304901
1726940531980827000,3.884826904296875,0.5775892734527588,-0.24261291325092316,-0.22070707380771637
1726940531990812700,3.894812744140625,0.6039367318153381,-0.212272047996521,-0.2409369796514511
1726940532000799000,3.904799072265625,0.6472304463386536,-0.20123431086540222,-0.287998765707016
1726940532010784000,3.914783935546875,0.7029426693916321,-0.29715391993522644,-0.3618021607398987
1726940532020769800,3.924769775390625,0.7395350337028503,-0.39594653248786926,-0.40851664543151855
1726940532030756000,3.934756103515625,0.7262866497039795,-0.42900756001472473,-0.39593109488487244
1726940532040742000,3.944741943359375,0.6269336938858032,-0.4564109444618225,-0.3823798596858978
1726940532050728000,3.95472802734375,0.45052775740623474,-0.4528135359287262,-0.412142276763916
1726940532060713700,3.964713623046875,0.26569610834121704,-0.33660200238227844,-0.4663969874382019
1726940532070699000,3.974698974609375,0.1146560087800026,-0.25001728534698486,-0.5481352806091309
1726940532080684800,3.984684814453125,0.03762407600879669,-0.166190043091774,-0.6197381019592285
1726940532090670800,3.9946708984375,0.002983539365231991,-0.03461230546236038,-0.6260577440261841
1726940532100657000,4.004656982421875,0.0034328147303313017,0.03845897689461708,-0.576674222946167
1726940532110643000,4.014642822265625,-0.01792120933532715,-0.00264824740588665,-0.5078445672988892
1726940532120628700,4.024628662109375,-0.027111778035759926,-0.0837460309267044,-0.43148350715637207
1726940532130613800,4.03461376953125,-0.05450691655278206,-0.1441715508699417,-0.35089942812919617
1726940532140600000,4.04460009765625,-0.10536077618598938,-0.12097196280956268,-0.27475911378860474
1726940532150585900,4.0545859375,-0.13936881721019745,-0.0412244014441967,-0.20779846608638763
1726940532160572000,4.064572021484375,-0.1687093824148178,0.04416107013821602,-0.17101915180683136
1726940532170558000,4.074557861328125,-0.1306871771812439,0.06355447322130203,-0.15748043358325958
1726940532180543000,4.08454296875,-0.0362863689661026,0.11392071098089218,-0.11358461529016495
1726940532190528800,4.09452880859375,0.08311112970113754,0.10323318094015121,-0.06253182142972946
1726940532200514800,4.104514892578125,0.18459168076515198,0.040280576795339584,-0.01907568983733654
1726940532210500900,4.1145009765625,0.2961594760417938,-0.004577973857522011,0.06390921026468277
1726940532220487000,4.12448681640625,0.35855230689048767,-0.16276174783706665,0.11213985085487366
1726940532230472700,4.13447265625,0.3731552064418793,-0.3034416437149048,0.1142117902636528
1726940532240457700,4.144457763671875,0.3789558410644531,-0.4407651424407959,0.14052808284759521
1726940532250444000,4.154444091796875,0.35068851709365845,-0.42949917912483215,0.1911792755126953
1726940532260429800,4.164429931640625,0.30820924043655396,-0.3191140592098236,0.2319762408733368
1726940532270416000,4.174415771484375,0.2428259551525116,-0.1596362590789795,0.23252885043621063
1726940532280402000,4.18440185546875,0.19446562230587006,-0.04941175878047943,0.22895914316177368
1726940532290388000,4.194387939453125,0.15866874158382416,0.007419300265610218,0.19982656836509705
1726940532300372700,4.204372802734375,0.15983520448207855,-0.007905061356723309,0.14151638746261597
1726940532310358800,4.21435888671875,0.2251172661781311,-0.06886401772499084,0.10208722203969955
1726940532320344800,4.2243447265625,0.33469730615615845,-0.14857669174671173,0.07247207313776016
1726940532330331000,4.234330810546875,0.4314233064651489,-0.2032572478055954,0.029397303238511086
1726940532340316700,4.244316650390625,0.5219926238059998,-0.27279025316238403,-0.019464511424303055
1726940532350303000,4.254302978515625,0.625907301902771,-0.3744175434112549,-0.04578053951263428
1726940532360288000,4.2642880859375,0.7300880551338196,-0.48045262694358826,-0.06979559361934662
1726940532370273800,4.274273681640625,0.8050163388252258,-0.5527031421661377,-0.12063533812761307
1726940532380260000,4.284260009765625,0.8743109703063965,-0.5932345986366272,-0.1729065328836441
1726940532390246000,4.294245849609375,0.909529983997345,-0.6359327435493469,-0.23556458950042725
1726940532400232000,4.30423193359375,0.9016366004943848,-0.6896377801895142,-0.2912169396877289
1726940532410216700,4.314216796875,0.8376224637031555,-0.6721874475479126,-0.32591766119003296
1726940532420203000,4.324203125,0.7432123422622681,-0.5946077108383179,-0.33962494134902954
1726940532430188800,4.334188720703125,0.6480288505554199,-0.5440462827682495,-0.3165813982486725
1726940532440174800,4.3441748046875,0.5620801448822021,-0.5277122855186462,-0.2599506080150604
1726940532450161000,4.354160888671875,0.4894930124282837,-0.4381536543369293,-0.18324625492095947
1726940532460147000,4.36414697265625,0.43885910511016846,-0.2545766234397888,-0.12750016152858734
1726940532470132000,4.374132080078125,0.4133361876010895,-0.10241691768169403,-0.1297803670167923
1726940532480117800,4.38411767578125,0.4144829511642456,-0.07262387126684189,-0.1814422309398651
1726940532490104000,4.39410400390625,0.45828527212142944,-0.08515830338001251,-0.2447141408920288
1726940532500089900,4.40408984375,0.5121676921844482,-0.1044883280992508,-0.29977819323539734
1726940532510076000,4.414075927734375,0.5770883560180664,-0.1375216394662857,-0.3240683674812317
1726940532520062000,4.42406201171875,0.6296612620353699,-0.10617836564779282,-0.291772723197937
1726940532530047000,4.434046875,0.6956126093864441,-0.09978864341974258,-0.24309493601322174
1726940532540032800,4.44403271484375,0.7742698788642883,-0.1264583319425583,-0.15110643208026886
1726940532550018800,4.454018798828125,0.8074499368667603,-0.17998015880584717,-0.05952164903283119
1726940532560004900,4.4640048828125,0.7885332107543945,-0.1852811723947525,-0.0280942190438509
1726940532569991000,4.473990966796875,0.7392876744270325,-0.14609435200691223,-0.06342610716819763
1726940532579976700,4.483976806640625,0.6857019066810608,-0.11593353003263474,-0.15326544642448425
1726940532589961700,4.493961669921875,0.6666414141654968,-0.12317465990781784,-0.24930542707443237
1726940532599948000,4.503947998046875,0.7088786363601685,-0.12083454430103302,-0.32126298546791077
1726940532609933800,4.513933837890625,0.7986790537834167,-0.14486956596374512,-0.32579007744789124
1726940532619920000,4.523919921875,0.9078574776649475,-0.1396537721157074,-0.29656854271888733
1726940532629905700,4.53390576171875,0.9682294726371765,-0.16420066356658936,-0.2340143620967865
1726940532639890700,4.543890625,0.9273683428764343,-0.25157630443573,-0.25641393661499023
1726940532649876700,4.553876708984375,0.8036836981773376,-0.3526081144809723,-0.36963823437690735
1726940532659862800,4.56386279296875,0.6444016098976135,-0.4532545804977417,-0.48562341928482056
1726940532669848600,4.5738486328125,0.4937838912010193,-0.5156415104866028,-0.5333858728408813
1726940532679834600,4.583834716796875,0.38152259588241577,-0.5070858597755432,-0.5080952048301697
1726940532689820700,4.593820556640625,0.3291368782520294,-0.43562525510787964,-0.474534809589386
1726940532699805700,4.6038056640625,0.3215591311454773,-0.3360624313354492,-0.42596328258514404
1726940532709791700,4.613791748046875,0.3546068072319031,-0.23274429142475128,-0.3377135992050171
1726940532719777800,4.62377783203125,0.4084593951702118,-0.22640277445316315,-0.19844411313533783
1726940532729763800,4.633763916015625,0.41736260056495667,-0.3153795301914215,-0.04878591373562813
1726940532739749600,4.64374951171875,0.3101629316806793,-0.39911091327667236,0.07043448835611343
1726940532749736000,4.65373583984375,0.15896408259868622,-0.4582969844341278,0.15183666348457336
1726940532759720700,4.663720703125,0.029272934421896935,-0.482006311416626,0.1966688483953476
1726940532769706800,4.673706787109375,-0.07877790182828903,-0.4945996105670929,0.18145261704921722
1726940532779692500,4.683692626953125,-0.12771907448768616,-0.5106369256973267,0.10900238156318665
1726940532789678800,4.693678955078125,-0.11367383599281311,-0.4877052307128906,-0.031008515506982803
1726940532799664600,4.70366455078125,-0.060975201427936554,-0.3769108057022095,-0.22827550768852234
1726940532809650700,4.713650634765625,0.03543948382139206,-0.226767897605896,-0.4646068215370178
1726940532819635700,4.7236357421875,0.154887855052948,-0.11698947101831436,-0.6888870596885681
1726940532829621800,4.733621826171875,0.2744091749191284,-0.10193648189306259,-0.8364554643630981
1726940532839607800,4.74360791015625,0.33161336183547974,-0.1728130578994751,-0.8753471970558167
1726940532849593600,4.753593505859375,0.33406639099121094,-0.28541576862335205,-0.7981578707695007
1726940532859580000,4.763579833984375,0.30036622285842896,-0.3725682497024536,-0.6738162636756897
1726940532869564700,4.773564697265625,0.25329750776290894,-0.38635942339897156,-0.5719234347343445
1726940532879550700,4.78355078125,0.25785765051841736,-0.3280218243598938,-0.533638596534729
1726940532889536500,4.79353662109375,0.31970104575157166,-0.29353147745132446,-0.5515190958976746
1726940532899522800,4.803522705078125,0.3940759301185608,-0.2567407190799713,-0.5873748064041138
1726940532909508600,4.813508544921875,0.4422983229160309,-0.23003612458705902,-0.6072403788566589
1726940532919494700,4.82349462890625,0.4537448585033417,-0.22131720185279846,-0.5776242017745972
1726940532929479700,4.833479736328125,0.4341945946216583,-0.24275831878185272,-0.4988638758659363
1726940532939465700,4.8434658203125,0.3884603977203369,-0.22861187160015106,-0.36156192421913147
1726940532949451800,4.85345166015625,0.33583739399909973,-0.22348235547542572,-0.16055825352668762
1726940532959437600,4.8634375,0.2861960828304291,-0.25399553775787354,0.05962764471769333
1726940532969424000,4.873423828125,0.2496175616979599,-0.2863073945045471,0.2578347325325012
1726940532979409700,4.88340966796875,0.2526370584964752,-0.3248223066329956,0.39340296387672424
1726940532989394700,4.893394775390625,0.2883889079093933,-0.3365204930305481,0.46197375655174255
1726940532999380700,4.903380615234375,0.3158349096775055,-0.2950127422809601,0.43823328614234924
1726940533009366800,4.91336669921875,0.338729590177536,-0.22413510084152222,0.32935020327568054
1726940533019352600,4.9233525390625,0.34907516837120056,-0.1842755675315857,0.14006362855434418
1726940533029338600,4.933338623046875,0.3122745454311371,-0.1672300100326538,-0.09107930958271027
1726940533039324700,4.94332470703125,0.27729952335357666,-0.1871160864830017,-0.26797446608543396
1726940533049309700,4.953309814453125,0.27289730310440063,-0.31682083010673523,-0.3451480567455292
1726940533059295700,4.963295654296875,0.29539117217063904,-0.4740709066390991,-0.36359739303588867
1726940533069281800,4.97328173828125,0.3714105784893036,-0.5398144721984863,-0.3514035642147064
1726940533079267800,4.983267822265625,0.46869024634361267,-0.5561828017234802,-0.34120285511016846
1726940533089253600,4.993253662109375,0.5529904961585999,-0.6274189352989197,-0.309366375207901
1726940533099240000,5.003239990234375,0.5075726509094238,-0.6783108711242676,-0.3372877538204193
1726940533109224700,5.013224609375,0.37301191687583923,-0.6768375635147095,-0.3880923390388489
1726940533119210800,5.023210693359375,0.19012093544006348,-0.5518943071365356,-0.4366436302661896
1726940533129196500,5.033196533203125,0.015313975512981415,-0.386700838804245,-0.43759119510650635
1726940533139182800,5.043182861328125,-0.0898718312382698,-0.25728240609169006,-0.3403162956237793
1726940533149168600,5.053168701171875,-0.16475166380405426,-0.1682063192129135,-0.2265593707561493
1726940533159153700,5.063153564453125,-0.2162148505449295,-0.1717320829629898,-0.09360025823116302
1726940533169139700,5.0731396484375,-0.237879678606987,-0.18214157223701477,0.09723920375108719
1726940533179125800,5.083125732421875,-0.20157359540462494,-0.19958049058914185,0.3496999442577362
1726940533189111800,5.09311181640625,-0.17082181572914124,-0.1350845843553543,0.6390039324760437
1726940533199097600,5.10309765625,-0.14382241666316986,-0.008206530474126339,0.9130187034606934
1726940533209084000,5.113083984375,-0.12065983563661575,0.14507995545864105,1.1281899213790894
1726940533219068700,5.123068603515625,-0.11383415758609772,0.29912224411964417,1.2484654188156128
1726940533229054700,5.1330546875,-0.14427009224891663,0.4451202154159546,1.2379275560379028
1726940533239040500,5.14304052734375,-0.18561220169067383,0.5073079466819763,1.1425368785858154
1726940533249026800,5.15302685546875,-0.2510306239128113,0.4658907353878021,1.008225917816162
1726940533259012600,5.1630126953125,-0.3032546937465668,0.38458096981048584,0.8924193978309631
1726940533268998700,5.17299853515625,-0.3453323543071747,0.29651662707328796,0.822406530380249
1726940533278984000,5.18298388671875,-0.391589879989624,0.2222575694322586,0.8015262484550476
1726940533288969700,5.1929697265625,-0.450100839138031,0.20059780776500702,0.8421618342399597
1726940533298955800,5.202955810546875,-0.5321584343910217,0.21116816997528076,0.9286320209503174
1726940533308941600,5.212941650390625,-0.6099967956542969,0.27304431796073914,1.0531033277511597
1726940533318928000,5.222927978515625,-0.6839961409568787,0.3928721845149994,1.1934140920639038
1726940533328913700,5.23291357421875,-0.709069013595581,0.5433186888694763,1.3234179019927979
1726940533338898700,5.242898681640625,-0.6758815050125122,0.6363778114318848,1.3749178647994995
1726940533348884700,5.252884765625,-0.5767919421195984,0.6657550930976868,1.3538671731948853
1726940533358870800,5.262870849609375,-0.4321095943450928,0.6383956670761108,1.2702229022979736
1726940533368856600,5.272856689453125,-0.30545151233673096,0.549543559551239,1.1222283840179443
1726940533378843000,5.2828427734375,-0.2196205109357834,0.4148009121417999,0.9921228289604187
1726940533388828000,5.292827880859375,-0.1788158267736435,0.2999805808067322,0.9076665639877319
1726940533398813700,5.302813720703125,-0.1447760909795761,0.2825680375099182,0.8753567934036255
1726940533408799700,5.3127998046875,-0.11801958084106445,0.3691125214099884,0.8541591167449951
1726940533418785800,5.322785888671875,-0.0891951248049736,0.4729164242744446,0.8853372931480408
1726940533428771800,5.332771728515625,-0.07780904322862625,0.5851031541824341,0.9099637866020203
1726940533438757600,5.342757568359375,-0.11986435204744339,0.7289702892303467,0.9173705577850342
1726940533448744000,5.352743896484375,-0.1920519918203354,0.8092007040977478,0.940028727054596
1726940533458728700,5.362728759765625,-0.2595530152320862,0.7964673042297363,0.929404616355896
1726940533468714800,5.37271484375,-0.3510589599609375,0.7916134595870972,0.8672685027122498
1726940533478700500,5.382700439453125,-0.37789589166641235,0.7735630869865417,0.7577286958694458
1726940533488686800,5.392686767578125,-0.2936753034591675,0.7825254201889038,0.6115179657936096
1726940533498672600,5.402672607421875,-0.1043703481554985,0.7336963415145874,0.5517100095748901
1726940533508657700,5.41265771484375,0.12541890144348145,0.676861584186554,0.559637188911438
1726940533518643700,5.422643798828125,0.2974577844142914,0.6180334091186523,0.6139081716537476
1726940533528629800,5.432629638671875,0.39138826727867126,0.5487105250358582,0.6839215755462646
1726940533538615800,5.44261572265625,0.39199599623680115,0.48759523034095764,0.7602624297142029
1726940533548601600,5.4526015625,0.35195937752723694,0.465417742729187,0.9330770969390869
1726940533558588000,5.462587890625,0.26639625430107117,0.5435042977333069,1.021766185760498
1726940533568572700,5.47257275390625,0.15997235476970673,0.6629742383956909,1.0744483470916748
1726940533578558700,5.482558837890625,0.02696503885090351,0.707796573638916,1.0721694231033325
1726940533588544500,5.49254443359375,-0.1347476989030838,0.6318961977958679,1.0289298295974731
1726940533598530800,5.50253076171875,-0.2697683572769165,0.40045446157455444,0.9768586754798889
1726940533608516600,5.5125166015625,-0.3523133099079132,0.10836242884397507,0.9365589022636414
1726940533618502700,5.522502685546875,-0.39744243025779724,0.015812784433364868,0.9205865859985352
1726940533628488000,5.532488037109375,-0.40353015065193176,0.1238071620464325,0.9301268458366394
1726940533638474800,5.542474853515625,-0.4250069558620453,0.2814655005931854,0.9506587386131287
1726940533648460500,5.55246044921875,-0.4821661114692688,0.3412896692752838,0.935309112071991
1726940533658446600,5.562446533203125,-0.5502434372901917,0.3723304271697998,0.8683716058731079
1726940533668432400,5.572432373046875,-0.6240620017051697,0.3610631227493286,0.7888720035552979
1726940533678418700,5.582418701171875,-0.680448591709137,0.299428254365921,0.7314398288726807
1726940533688403700,5.59240380859375,-0.6822584271430969,0.21624575555324554,0.6463569402694702
1726940533698389500,5.602389404296875,-0.6817953586578369,0.16062776744365692,0.5644588470458984
1726940533708375800,5.612375732421875,-0.5979813933372498,0.08014144003391266,0.513674259185791
1726940533718361600,5.622361572265625,-0.453570157289505,0.0446992926299572,0.5513326525688171
1726940533728347600,5.63234765625,-0.3112252652645111,0.026795394718647003,0.539599597454071
1726940533738333700,5.642333740234375,-0.16129328310489655,-0.00866059958934784,0.501733660697937
1726940533748318700,5.652318603515625,-0.0528206042945385,-0.031074563041329384,0.4207246005535126
1726940533758304500,5.662304443359375,-0.027939489111304283,0.032698292285203934,0.35677915811538696
1726940533768290600,5.67229052734375,-0.061407700181007385,0.10806361585855484,0.350909560918808
1726940533778276600,5.682276611328125,-0.11974317580461502,0.08705633878707886,0.37751534581184387
1726940533788262700,5.6922626953125,-0.21813739836215973,0.08859618008136749,0.42050114274024963
1726940533798247700,5.70224755859375,-0.30432555079460144,0.1366366744041443,0.45625489950180054
1726940533808233500,5.7122333984375,-0.3689466118812561,0.1728127896785736,0.45258957147598267
1726940533818219800,5.7222197265625,-0.41177529096603394,0.14648105204105377,0.4491402506828308
1726940533828205600,5.73220556640625,-0.4032350778579712,0.04591822251677513,0.4429342746734619
1726940533838191600,5.742191650390625,-0.35336047410964966,-0.09402130544185638,0.42511454224586487
1726940533848177700,5.752177734375,-0.3127690851688385,-0.16511358320713043,0.37736406922340393
1726940533858162700,5.76216259765625,-0.33003994822502136,-0.14978443086147308,0.3091229498386383
1726940533868148500,5.7721484375,-0.39731860160827637,-0.13481107354164124,0.2462121695280075
1726940533878134500,5.782134521484375,-0.4613324701786041,-0.1808033436536789,0.20607061684131622
1726940533888120600,5.79212060546875,-0.521298885345459,-0.2464795559644699,0.17245139181613922
1726940533898106600,5.802106689453125,-0.5556126236915588,-0.2762499749660492,0.1250481903553009
1726940533908092400,5.812092529296875,-0.5827009677886963,-0.27235108613967896,0.07480686157941818
1726940533918077700,5.82207763671875,-0.5946292877197266,-0.24303582310676575,0.034695129841566086
1726940533928063700,5.832063720703125,-0.590187132358551,-0.22237874567508698,0.010606572031974792
1726940533938049500,5.842049560546875,-0.5370176434516907,-0.20635662972927094,0.011668640188872814
1726940533948035600,5.85203564453125,-0.4451066255569458,-0.2042495459318161,0.020618192851543427
1726940533958021600,5.862021728515625,-0.37443724274635315,-0.21552243828773499,0.03611166402697563
1726940533968007700,5.872007568359375,-0.33452844619750977,-0.24845029413700104,0.04361751675605774
1726940533977992400,5.881992431640625,-0.3209860026836395,-0.2799195349216461,0.022611569613218307
1726940533987978800,5.891978759765625,-0.35241425037384033,-0.3094515800476074,-0.019292471930384636
1726940533997964500,5.901964599609375,-0.41125625371932983,-0.35313674807548523,-0.06417286396026611
1726940534007950600,5.91195068359375,-0.4722173511981964,-0.3393535614013672,-0.12693823873996735
1726940534017936600,5.9219365234375,-0.5217457413673401,-0.31576886773109436,-0.18516425788402557
1726940534027922700,5.931922607421875,-0.546113133430481,-0.3053063750267029,-0.21797972917556763
1726940534037907700,5.94190771484375,-0.5775802731513977,-0.29647162556648254,-0.24102619290351868
1726940534047893500,5.9518935546875,-0.5875159502029419,-0.3149137496948242,-0.23552730679512024
1726940534057879800,5.9618798828125,-0.6402750611305237,-0.33761903643608093,-0.2486923784017563
1726940534067865600,5.971865478515625,-0.7299756407737732,-0.35794907808303833,-0.2590091824531555
1726940534077851600,5.9818515625,-0.8041628003120422,-0.3459603488445282,-0.28357231616973877
1726940534087837700,5.991837646484375,-0.8651699423789978,-0.2726863920688629,-0.31041884422302246
1726940534097822700,6.00182275390625,-0.861932635307312,-0.16062510013580322,-0.30117422342300415
1726940534107808500,6.01180859375,-0.8116835355758667,-0.05529255047440529,-0.28423836827278137
1726940534117794600,6.021794677734375,-0.7318286895751953,0.0021632856223732233,-0.2562517523765564
1726940534127780600,6.031780517578125,-0.6369077563285828,0.015968313440680504,-0.25856417417526245
1726940534137766700,6.0417666015625,-0.5321965217590332,-0.0023393207229673862,-0.311084121465683
1726940534147752400,6.05175244140625,-0.42817237973213196,-0.08961084485054016,-0.375901997089386
1726940534157737500,6.061737548828125,-0.3283179700374603,-0.261510968208313,-0.42161062359809875
1726940534167723800,6.071723876953125,-0.19818845391273499,-0.42169851064682007,-0.428131639957428
1726940534177709600,6.08170947265625,-0.06106601655483246,-0.5230442881584167,-0.4458983838558197
1726940534187695600,6.091695556640625,0.07231228053569794,-0.5480045080184937,-0.5315895676612854
1726940534197681700,6.101681640625,0.19512449204921722,-0.5491800308227539,-0.6710761189460754
1726940534207667700,6.111667724609375,0.33663421869277954,-0.521457314491272,-0.8144934773445129
1726940534217652500,6.121652587890625,0.428879976272583,-0.40620502829551697,-1.008674144744873
1726940534227638500,6.131638427734375,0.4699520468711853,-0.2624249756336212,-1.2236706018447876
1726940534237624600,6.14162451171875,0.47658491134643555,-0.16650988161563873,-1.420003890991211
1726940534247610600,6.151610595703125,0.4756637513637543,-0.10875497758388519,-1.5388208627700806
1726940534257596400,6.161596435546875,0.479236900806427,-0.05174309015274048,-1.5526080131530762
1726940534267582700,6.171582763671875,0.4625098407268524,-0.00006897587445564568,-1.4923601150512695
1726940534277567700,6.181567626953125,0.4246242642402649,0.018808575347065926,-1.4182770252227783
1726940534287553500,6.191553466796875,0.41654449701309204,-0.06555423885583878,-1.3367582559585571
1726940534297539600,6.20153955078125,0.4529823958873749,-0.2305687665939331,-1.2733049392700195
1726940534307525600,6.211525634765625,0.4795532822608948,-0.4530649483203888,-1.2628246545791626
1726940534317511700,6.22151171875,0.5294933915138245,-0.6375077366828918,-1.2634270191192627
1726940534327497500,6.23149755859375,0.5855095386505127,-0.7329397201538086,-1.2686790227890015
1726940534337482800,6.241482666015625,0.6411291360855103,-0.729534387588501,-1.2809280157089233
1726940534347468500,6.251468505859375,0.7107308506965637,-0.67380690574646,-1.2464752197265625
1726940534357454600,6.26145458984375,0.7841891050338745,-0.6115691065788269,-1.1597392559051514
1726940534367440600,6.271440673828125,0.830713152885437,-0.5149754285812378,-1.0342698097229004
1726940534377426700,6.2814267578125,0.8022242784500122,-0.4667096436023712,-0.9409656524658203
1726940534387411700,6.29141162109375,0.7374218702316284,-0.46506860852241516,-0.8675673007965088
1726940534397397500,6.3013974609375,0.6410638689994812,-0.4869062602519989,-0.7626608610153198
1726940534407383800,6.3113837890625,0.5077835917472839,-0.5387595891952515,-0.626961886882782
1726940534417369600,6.32136962890625,0.4264724850654602,-0.5456204414367676,-0.41855862736701965
1726940534427355600,6.331355712890625,0.3563985824584961,-0.5148801207542419,-0.15275199711322784
1726940534437341700,6.341341796875,0.27812883257865906,-0.41860097646713257,0.13834376633167267
1726940534447326700,6.35132666015625,0.15965916216373444,-0.2718661427497864,0.4103427827358246
1726940534457312500,6.3613125,0.0076003954745829105,-0.11752369999885559,0.6406502723693848
1726940534467298600,6.371298583984375,-0.17121808230876923,-0.010941597633063793,0.7998460531234741
1726940534477284600,6.38128466796875,-0.3304263949394226,0.0148074422031641,0.8999795913696289
1726940534487270700,6.391270751953125,-0.45511478185653687,0.0062826634384691715,0.9963617920875549
1726940534497256400,6.40125634765625,-0.5155962109565735,0.003855724586173892,1.0871764421463013
1726940534507241500,6.411241455078125,-0.5494396686553955,0.03267272561788559,1.1652560234069824
1726940534517227800,6.421227783203125,-0.5642558932304382,0.07262226939201355,1.2183111906051636
1726940534527213600,6.431213623046875,-0.5654748678207397,0.006911169271916151,1.2238199710845947
1726940534537199600,6.44119970703125,-0.5681284070014954,-0.1294754296541214,1.1961958408355713
1726940534547185700,6.451185546875,-0.5890797972679138,-0.20922911167144775,1.1482245922088623
1726940534557171500,6.46117138671875,-0.5870427489280701,-0.24087785184383392,1.0828218460083008
1726940534567156500,6.471156494140625,-0.5725271701812744,-0.340709924697876,0.979175865650177
1726940534577142500,6.481142578125,-0.5617075562477112,-0.4458696246147156,0.8526405692100525
1726940534587128600,6.491128662109375,-0.5765749216079712,-0.48215997219085693,0.7461008429527283
1726940534597114600,6.501114501953125,-0.6199066638946533,-0.41848406195640564,0.6847551465034485
1726940534607100400,6.511100341796875,-0.7236237525939941,-0.3410784900188446,0.6659466028213501
1726940534617086700,6.521086669921875,-0.8415279984474182,-0.3749499022960663,0.6383546590805054
1726940534627071700,6.53107177734375,-0.9520640969276428,-0.4326012134552002,0.6065852642059326
1726940534637057300,6.541057373046875,-1.0694479942321777,-0.5193830132484436,0.5520234704017639
1726940534647043300,6.551043212890625,-1.2570024728775024,-0.6850299835205078,0.4564961791038513
1726940534657029400,6.561029296875,-1.452788233757019,-0.7372484803199768,0.3509233891963959
1726940534667015400,6.571015380859375,-1.5867116451263428,-0.6139425039291382,0.2565215229988098
1726940534677001200,6.581001220703125,-1.5975552797317505,-0.3800802230834961,0.13318762183189392
1726940534686986500,6.590986572265625,-1.4606472253799438,-0.17743736505508423,0.0017052220646291971
1726940534696972300,6.60097216796875,-1.1848102807998657,-0.028974926099181175,-0.11241256445646286
1726940534706958300,6.610958251953125,-0.8575197458267212,0.05771389603614807,-0.2002771645784378
1726940534716944400,6.6209443359375,-0.5319379568099976,0.016107862815260887,-0.2943384349346161
1726940534726930400,6.630930419921875,-0.2493152916431427,-0.012454538606107235,-0.3692600727081299
1726940534736915500,6.64091552734375,0.011214304715394974,0.06259813159704208,-0.3615100085735321
1726940534746901200,6.6509013671875,0.2746312916278839,0.1633809357881546,-0.29423028230667114
1726940534756887600,6.660887451171875,0.48535284399986267,0.1494067907333374,-0.2463751584291458
1726940534766873300,6.670873291015625,0.5698269605636597,0.02965483069419861,-0.28773245215415955
1726940534776859400,6.680859375,0.5768182873725891,-0.13710539042949677,-0.3799590468406677
1726940534786845400,6.690845458984375,0.579880952835083,-0.2810327410697937,-0.4857374131679535
1726940534796831500,6.70083154296875,0.6129960417747498,-0.3662160634994507,-0.5606715679168701
1726940534806816300,6.710816162109375,0.6394832730293274,-0.4196750223636627,-0.6018943786621094
1726940534816802300,6.72080224609375,0.6290796399116516,-0.40953293442726135,-0.5554725527763367
1726940534826788400,6.730788330078125,0.5345022678375244,-0.3500400185585022,-0.4838681221008301
1726940534836774400,6.7407744140625,0.4468936026096344,-0.2957749366760254,-0.3258734345436096
1726940534846760200,6.75076025390625,0.34939873218536377,-0.2057800590991974,-0.14367567002773285
1726940534856745200,6.7607451171875,0.2600877583026886,-0.08246584981679916,0.03626159951090813
1726940534866731500,6.7707314453125,0.20796385407447815,0.04589958116412163,0.19673064351081848
1726940534876717300,6.78071728515625,0.18839600682258606,0.13870461285114288,0.3310737907886505
1726940534886703400,6.790703369140625,0.1657721847295761,0.2254360467195511,0.4413238763809204
1726940534896689400,6.800689453125,0.1277928501367569,0.31635209918022156,0.5324966311454773
1726940534906675500,6.810675537109375,0.10394077748060226,0.3367929458618164,0.606843888759613
1726940534916660200,6.82066015625,0.08540225028991699,0.28587862849235535,0.6661356687545776
1726940534926646300,6.830646240234375,0.09022869914770126,0.15822584927082062,0.6767598390579224
1726940534936632300,6.84063232421875,0.11859562247991562,0.020553212612867355,0.6195995807647705
1726940534946618400,6.850618408203125,0.14795590937137604,-0.021146297454833984,0.49197107553482056
1726940534956604200,6.860604248046875,0.19693756103515625,0.030916903167963028,0.33181867003440857
1726940534966590500,6.870590576171875,0.24694374203681946,0.002098038326948881,0.1377307027578354
1726940534976575500,6.880575439453125,0.2676982879638672,-0.14314916729927063,-0.06878199428319931
1726940534986561300,6.890561279296875,0.26057007908821106,-0.34132882952690125,-0.24635066092014313
1726940534996547300,6.90054736328125,0.2507898807525635,-0.4662878215312958,-0.3771161139011383
1726940535006533400,6.910533447265625,0.241225928068161,-0.49369919300079346,-0.4335935115814209
1726940535016519400,6.92051953125,0.2010239213705063,-0.4269358813762665,-0.3628178834915161
1726940535026505200,6.930505126953125,0.1880420744419098,-0.3991870582103729,-0.3011382818222046
1726940535036490500,6.940490478515625,0.20767302811145782,-0.37381860613822937,-0.29600635170936584
1726940535046476300,6.950476318359375,0.20274539291858673,-0.25228577852249146,-0.2491224706172943
1726940535056462300,6.96046240234375,0.21237458288669586,-0.2710416316986084,-0.2014785259962082
1726940535066448400,6.970448486328125,0.20198026299476624,-0.2909977436065674,-0.14862781763076782
1726940535076434400,6.980434326171875,0.1738591492176056,-0.2891356647014618,-0.0834277793765068
1726940535086420200,6.990420166015625,0.14590713381767273,-0.3821103572845459,-0.02479935623705387
1726940535096405200,7.0004052734375,0.14077043533325195,-0.4737244248390198,0.004809402395039797
1726940535106391600,7.0103916015625,0.1684475988149643,-0.5624236464500427,0.026704847812652588
1726940535116377300,7.02037744140625,0.22562061250209808,-0.674026608467102,0.04508012533187866
1726940535126363400,7.03036328125,0.33953598141670227,-0.8171464800834656,0.06734468787908554
1726940535136349400,7.040349365234375,0.5085758566856384,-0.8668498992919922,0.05211247131228447
1726940535146335500,7.05033544921875,0.6411964893341064,-0.8711658120155334,0.03092649020254612
1726940535156320300,7.0603203125,0.7346510887145996,-0.919777512550354,0.06235445290803909
1726940535166306300,7.070306396484375,0.795141339302063,-0.9774610996246338,0.18819573521614075
1726940535176292400,7.080292236328125,0.8473811149597168,-0.9751175045967102,0.3915611207485199
1726940535186278400,7.0902783203125,0.9168598055839539,-0.9584301114082336,0.6531605124473572
1726940535196264200,7.10026416015625,0.9721712470054626,-1.0050716400146484,0.9211367964744568
1726940535206250500,7.11025048828125,0.9712181091308594,-1.0572093725204468,1.050520658493042
1726940535216235500,7.120235595703125,0.8966599702835083,-1.0279793739318848,1.0271655321121216
1726940535226221300,7.13022119140625,0.8243032097816467,-0.9353412985801697,0.9445356130599976
1726940535236207400,7.140207275390625,0.773023247718811,-0.7445048093795776,0.8278902173042297
1726940535246193400,7.150193359375,0.7665339112281799,-0.5881865620613098,0.6916780471801758
1726940535256179500,7.160179443359375,0.8112241625785828,-0.43942689895629883,0.552605152130127
1726940535266165200,7.170165283203125,0.9258726835250854,-0.2462254911661148,0.4228183627128601
1726940535276150300,7.180150390625,1.064711332321167,-0.11166287958621979,0.33460116386413574
1726940535286136300,7.19013623046875,1.2212295532226562,-0.10221478343009949,0.33578652143478394
1726940535296122400,7.200122314453125,1.3915746212005615,-0.14626319706439972,0.3866076171398163
1726940535306108200,7.210108154296875,1.5349235534667969,-0.19378864765167236,0.47810107469558716
1726940535316094500,7.220094482421875,1.6456409692764282,-0.18625323474407196,0.5869929194450378
1726940535326080300,7.230080322265625,1.76775062084198,-0.06360933929681778,0.6760881543159485
1726940535336065300,7.240065185546875,1.8669546842575073,0.10290880501270294,0.7730181813240051
1726940535346051300,7.25005126953125,1.9207983016967773,0.18360045552253723,0.8819550275802612
1726940535356037400,7.260037353515625,1.9970645904541016,0.20479735732078552,1.006362795829773
1726940535366023400,7.2700234375,2.061511993408203,0.23770257830619812,1.100053310394287
1726940535376009200,7.28000927734375,2.0890798568725586,0.39101943373680115,1.1107821464538574
1726940535385995300,7.289995361328125,2.0576393604278564,0.6066246628761292,1.0286643505096436
1726940535395980300,7.299980224609375,1.931509256362915,0.7657618522644043,0.9283177852630615
1726940535405966300,7.30996630859375,1.728569746017456,0.8031073808670044,0.8010727167129517
1726940535415952400,7.319952392578125,1.5157746076583862,0.5394131541252136,0.7887470722198486
1726940535425938400,7.3299384765625,1.3470114469528198,0.017974739894270897,0.8548787236213684
1726940535435924200,7.33992431640625,1.2012922763824463,-0.43510857224464417,0.9287619590759277
1726940535445910500,7.34991064453125,1.071169137954712,-0.6793798208236694,0.9208734035491943
1726940535455895300,7.359895263671875,0.971169114112854,-0.7147846817970276,0.7897375226020813
1726940535465881300,7.36988134765625,0.8677377700805664,-0.4523903727531433,0.541170060634613
1726940535475867400,7.379867431640625,0.7134411334991455,-0.2293354570865631,0.2757490277290344
1726940535485853400,7.389853515625,0.47090521454811096,-0.14887602627277374,0.07691369205713272
1726940535495839200,7.399839111328125,0.13457804918289185,-0.11343947798013687,-0.012510199099779129
1726940535505825300,7.4098251953125,-0.15369822084903717,-0.005788380745798349,-0.027891019359230995
1726940535515810300,7.419810302734375,-0.22903451323509216,0.08613568544387817,-0.06471215188503265
1726940535525796400,7.42979638671875,-0.23289236426353455,0.20471133291721344,-0.17392519116401672
1726940535535782400,7.439782470703125,-0.2725590765476227,0.3143286406993866,-0.306262731552124
1726940535545768200,7.449768310546875,-0.35585930943489075,0.33666858077049255,-0.4002304971218109
1726940535555754500,7.45975439453125,-0.44529810547828674,0.33886992931365967,-0.45720669627189636
1726940535565740300,7.469740234375,-0.5173166394233704,0.3187231123447418,-0.5047041773796082
1726940535575725300,7.479725341796875,-0.5980743169784546,0.25011929869651794,-0.5529100298881531
1726940535585711400,7.48971142578125,-0.6406915783882141,0.16260063648223877,-0.5958966612815857
1726940535595697400,7.499697509765625,-0.6533027291297913,0.1029527485370636,-0.6476056575775146
1726940535605683200,7.50968310546875,-0.6481090188026428,0.07017002999782562,-0.7220999002456665
1726940535615669200,7.519669189453125,-0.6286996006965637,0.00006125270738266408,-0.7975655794143677
1726940535625655300,7.5296552734375,-0.6039026379585266,-0.07046031951904297,-0.8578915596008301
1726940535635640000,7.53964013671875,-0.5751940608024597,-0.1562654972076416,-0.8884909749031067
1726940535645626000,7.549626220703125,-0.5532416105270386,-0.18684950470924377,-0.9106964468955994
1726940535655612000,7.55961181640625,-0.5348138809204102,-0.1659277230501175,-0.9237637519836426
1726940535665598200,7.56959814453125,-0.5510064363479614,-0.1369011253118515,-0.956308126449585
1726940535675584000,7.579583984375,-0.6050835251808167,-0.11234252154827118,-1.0278962850570679
1726940535685570000,7.589570068359375,-0.6854827404022217,-0.10335248708724976,-1.1218323707580566
1726940535695555000,7.59955517578125,-0.7717539668083191,-0.17149639129638672,-1.2022267580032349
1726940535705541000,7.609541015625,-0.8472314476966858,-0.3461395800113678,-1.2217270135879517
1726940535715527200,7.619527099609375,-0.9349902868270874,-0.475462943315506,-1.1877799034118652
1726940535725513000,7.629512939453125,-0.9357506632804871,-0.5269412994384766,-1.1309603452682495
1726940535735499300,7.639499267578125,-0.9078023433685303,-0.5795669555664062,-1.0815632343292236
1726940535745485000,7.649485107421875,-0.7563545107841492,-0.610518753528595,-1.0082263946533203
1726940535755470000,7.659469970703125,-0.5755112171173096,-0.49019473791122437,-0.9850428104400635
1726940535765456100,7.6694560546875,-0.388380229473114,-0.3231423795223236,-0.9982598423957825
1726940535775442200,7.679442138671875,-0.26685193181037903,-0.150706946849823,-0.9766280651092529
1726940535785428000,7.689427978515625,-0.20967093110084534,0.004554804414510727,-0.8852792382240295
1726940535795414000,7.6994140625,-0.22432631254196167,0.11485973745584488,-0.7707246541976929
1726940535805400000,7.709400146484375,-0.2524127960205078,0.1280817985534668,-0.621502697467804
1726940535815385000,7.719385009765625,-0.23912709951400757,0.11989551037549973,-0.4231773614883423
1726940535825371100,7.72937109375,-0.2382594347000122,0.16807103157043457,-0.21714110672473907
1726940535835357200,7.739357177734375,-0.3025446832180023,0.23768073320388794,-0.010355701670050621
1726940535845343200,7.74934326171875,-0.42176109552383423,0.30606403946876526,0.18245981633663177
1726940535855329000,7.7593291015625,-0.549331545829773,0.31921181082725525,0.331001877784729
1726940535865315000,7.769315185546875,-0.6547871232032776,0.25069934129714966,0.39506983757019043
1726940535875300000,7.779300048828125,-0.6997186541557312,0.1529136449098587,0.4283369779586792
1726940535885286100,7.7892861328125,-0.6654831767082214,0.05228211358189583,0.4386551082134247
1726940535895272000,7.79927197265625,-0.529074490070343,0.032047681510448456,0.4368114173412323
1726940535905258200,7.80925830078125,-0.37359437346458435,0.09211021661758423,0.40547558665275574
1726940535915244000,7.819244140625,-0.27721190452575684,0.13440707325935364,0.3561898171901703
1726940535925230000,7.82922998046875,-0.20363222062587738,0.13702043890953064,0.27251940965652466
1726940535935215000,7.839215087890625,-0.17561310529708862,0.05402142181992531,0.1315750777721405
1726940535945201200,7.849201171875,-0.13914217054843903,-0.025478994473814964,0.008380968123674393
1726940535955187200,7.859187255859375,-0.05788114294409752,-0.07794992625713348,-0.01775422878563404
1726940535965173000,7.869173095703125,0.06257043778896332,-0.08870217204093933,0.050750263035297394
1726940535975159300,7.8791591796875,0.13946494460105896,-0.06108199432492256,0.14799638092517853
1726940535985145000,7.88914501953125,0.11759081482887268,-0.03652339056134224,0.18853315711021423
1726940535995130000,7.899130126953125,0.0005222458858042955,-0.08983055502176285,0.15536881983280182
1726940536005116000,7.909115966796875,-0.10400522500276566,-0.19041867554187775,0.05754345282912254
1726940536015102200,7.919102294921875,-0.1766221672296524,-0.26571929454803467,-0.07716269791126251
1726940536025088000,7.929087890625,-0.19504405558109283,-0.2989155948162079,-0.20667780935764313
1726940536035074000,7.939073974609375,-0.19364696741104126,-0.2790082097053528,-0.23810523748397827
1726940536045060000,7.94906005859375,-0.28078293800354004,-0.3996608555316925,-0.22722569108009338
1726940536055045000,7.959045166015625,-0.5523023009300232,-0.4761905074119568,-0.217108353972435
1726940536065031200,7.96903125,-0.8922716379165649,-0.5658373236656189,-0.2318502813577652
1726940536075017000,7.979016845703125,-1.119653344154358,-0.720944881439209,-0.3088656961917877
1726940536085003300,7.989003173828125,-1.2042955160140991,-1.0231561660766602,-0.521083652973175
1726940536094989000,7.998989013671875,-1.2302874326705933,-1.2436224222183228,-0.8017387986183167
1726940536104975000,8.00897509765625,-1.1334224939346313,-1.1319233179092407,-0.9477857351303101
1726940536114960100,8.018960205078125,-1.016882300376892,-0.72617506980896,-0.8984352350234985
1726940536124946200,8.0289462890625,-0.9124900698661804,-0.2786412239074707,-0.7755085229873657
1726940536134932000,8.038931884765624,-0.7287343740463257,0.1604147106409073,-0.6200550198554993
1726940536144918300,8.048918212890625,-0.429174542427063,0.310639888048172,-0.45860564708709717
1726940536154904000,8.058904052734375,-0.11156221479177475,0.12209128588438034,-0.4443089962005615
1726940536164890000,8.06889013671875,0.14485572278499603,-0.03605041280388832,-0.5517619848251343
1726940536174875100,8.078875244140624,0.2929045855998993,-0.05590774118900299,-0.6394487023353577
1726940536184861200,8.088861083984375,0.30853092670440674,0.0900513306260109,-0.5456225872039795
1726940536194847200,8.09884716796875,0.2650284767150879,0.2212114781141281,-0.3156093657016754
1726940536204833000,8.1088330078125,0.2445029467344284,0.17563201487064362,-0.08205865323543549
1726940536214819000,8.118819091796874,0.2918965816497803,-0.0426742248237133,0.023812122642993927
1726940536224805000,8.12880517578125,0.3452135920524597,-0.22404295206069946,0.07336529344320297
1726940536234790100,8.1387900390625,0.38039153814315796,-0.18092690408229828,0.0777677670121193
1726940536244776000,8.14877587890625,0.4188111126422882,0.06960863620042801,0.11307462304830551
1726940536254762200,8.15876220703125,0.4090120196342468,0.264611154794693,0.21958935260772705
1726940536264748000,8.168748046875,0.3894907832145691,0.3050405979156494,0.36219337582588196
1726940536274734000,8.178734130859375,0.34006011486053467,0.19158513844013214,0.3976733386516571
1726940536284720000,8.18872021484375,0.29726284742355347,0.036732446402311325,0.35501959919929504
1726940536294705200,8.198705078125,0.26453232765197754,-0.07909508794546127,0.3133688271045685
1726940536304691200,8.208691162109375,0.22243893146514893,-0.15473978221416473,0.2685534358024597
1726940536314677000,8.218677001953125,0.1964358240365982,-0.15966662764549255,0.28275206685066223
1726940536324663000,8.2286630859375,0.16421636939048767,-0.11633379757404327,0.33776259422302246
1726940536334649000,8.238649169921874,0.17019329965114594,-0.11203145980834961,0.3682861328125
1726940536344635100,8.24863525390625,0.16439320147037506,-0.018143316730856895,0.38352397084236145
1726940536354620000,8.258619873046875,0.15609532594680786,0.02684865891933441,0.35482174158096313
1726940536364606200,8.268606201171876,0.09411371499300003,0.0376560315489769,0.3270612061023712
1726940536374592000,8.278592041015624,0.08524272590875626,-0.0981350913643837,0.21723884344100952
1726940536384578000,8.288578125,0.1882340908050537,-0.13223899900913239,0.11224771291017532
1726940536394564000,8.298564208984375,0.16946598887443542,0.006449110805988312,0.09368441253900528
1726940536404550100,8.308550048828126,0.1432490348815918,0.001234641415067017,0.029681462794542313
1726940536414536000,8.318535888671875,0.13283129036426544,0.03482828661799431,-0.0011883024126291275
1726940536424521200,8.328521240234375,0.14204634726047516,0.0885799303650856,-0.0013022858183830976
1726940536434507000,8.338507080078125,0.14713245630264282,0.08884811401367188,-0.014200241304934025
1726940536444493000,8.3484931640625,0.1579989492893219,-0.017123593017458916,-0.03266606852412224
1726940536454479000,8.35847900390625,0.17116695642471313,-0.06938759982585907,-0.06943526864051819
1726940536464465200,8.368465087890625,0.2076466679573059,-0.04487799108028412,-0.12864479422569275
1726940536474451000,8.378450927734375,0.3205907940864563,0.053947653621435165,-0.2223433256149292
1726940536484436000,8.38843603515625,0.46197509765625,0.11350898444652557,-0.29539915919303894
1726940536494422300,8.39842236328125,0.5894550085067749,0.018689798191189766,-0.31541892886161804
1726940536504408000,8.408407958984375,0.5776215195655823,-0.2259013056755066,-0.2325538843870163
1726940536514394000,8.41839404296875,0.5010966658592224,-0.5008154511451721,-0.11582087725400925
1726940536524380200,8.428380126953124,0.4420727491378784,-0.7433614730834961,0.003811782458797097
1726940536534366200,8.4383662109375,0.4425712823867798,-0.8412845730781555,0.1469641476869583
1726940536544351000,8.44835107421875,0.47445785999298096,-0.8171318769454956,0.3407685160636902
1726940536554337000,8.4583369140625,0.5219609141349792,-0.769582986831665,0.5533284544944763
1726940536564323000,8.468322998046874,0.5912070870399475,-0.7599298357963562,0.7717776894569397
1726940536574309000,8.47830908203125,0.6390752792358398,-0.7890315055847168,0.9845190048217773
1726940536584295000,8.488294921875,0.6892023682594299,-0.8868467211723328,1.1925238370895386
1726940536594281200,8.49828125,0.7202854752540588,-0.9084492325782776,1.329366683959961
1726940536604266200,8.508266357421874,0.7371283769607544,-0.8819044828414917,1.3674674034118652
1726940536614252000,8.518251953125,0.7341496348381042,-0.8568675518035889,1.418733835220337
1726940536624238000,8.528238037109375,0.7419342994689941,-0.7984963655471802,1.511826515197754
1726940536634224000,8.53822412109375,0.7183586955070496,-0.7844367623329163,1.6720976829528809
1726940536644210400,8.54821044921875,0.7183211445808411,-0.8383990526199341,1.8424190282821655
1726940536654196200,8.5581962890625,0.6760607361793518,-0.7734299302101135,1.8830578327178955
1726940536664181200,8.56818115234375,0.6276649832725525,-0.6671202778816223,1.8205739259719849
1726940536674167000,8.5781669921875,0.6212038993835449,-0.575839102268219,1.7092313766479492
1726940536684153300,8.5881533203125,0.6524845957756042,-0.5397007465362549,1.628912329673767
1726940536694139100,8.59813916015625,0.6319491863250732,-0.5903500914573669,1.5912400484085083
1726940536704125200,8.608125244140625,0.5867804288864136,-0.5463511943817139,1.583111047744751
1726940536714111200,8.618111328125,0.48493099212646484,-0.23746314644813538,1.4315593242645264
1726940536724096300,8.62809619140625,0.36776018142700195,0.1510414481163025,1.1609760522842407
1726940536734082300,8.638082275390625,0.2430613785982132,0.3554004430770874,0.8888864517211914
1726940536744068000,8.648068115234375,0.10043579339981079,0.3493124544620514,0.6463862061500549
1726940536754054400,8.658054443359376,-0.05830511823296547,0.18490992486476898,0.47142452001571655
1726940536764040200,8.668040283203124,-0.23858807981014252,0.001219461439177394,0.3347095549106598
1726940536774026200,8.678026123046875,-0.3264915645122528,-0.022963372990489006,0.22230257093906403
1726940536784011300,8.68801123046875,-0.3108329772949219,0.11846592277288437,0.1416788399219513
1726940536793997300,8.697997314453126,-0.23592118918895721,0.2328348457813263,0.0692102313041687
1726940536803983000,8.707983154296874,-0.15545296669006348,0.20512545108795166,0.011559717357158661
1726940536813969400,8.717969482421875,-0.10963328927755356,0.15988340973854065,-0.047021571546792984
1726940536823955200,8.727955078125,-0.13392291963100433,0.15353895723819733,-0.07713446766138077
1726940536833941200,8.737941162109376,-0.17907707393169403,0.1772560030221939,-0.19781427085399628
1726940536843926300,8.74792626953125,-0.27883508801460266,0.2642502784729004,-0.3638192415237427
1726940536853912300,8.757912353515625,-0.3980909287929535,0.2616705000400543,-0.4813186824321747
1726940536863898400,8.7678984375,-0.5207244157791138,0.12075890600681305,-0.5106827020645142
1726940536873884200,8.77788427734375,-0.5977725982666016,-0.0190820824354887,-0.4544964134693146
1726940536883870500,8.787870361328125,-0.6482770442962646,-0.10609341412782669,-0.3586612045764923
1726940536893856300,8.797856201171875,-0.6554468274116516,-0.16949155926704407,-0.28849226236343384
1726940536903842300,8.80784228515625,-0.665876030921936,-0.050158776342868805,-0.36170920729637146
1726940536913827000,8.8178271484375,-0.7654595971107483,0.14011768996715546,-0.5818809866905212
1726940536923813400,8.8278134765625,-0.8795675039291382,0.2153802216053009,-0.7792843580245972
1726940536933799200,8.837799072265625,-0.977374792098999,0.14629383385181427,-0.9010714888572693
1726940536943785200,8.84778515625,-1.038631796836853,0.08657776564359665,-0.9473822712898254
1726940536953771300,8.857771240234374,-1.0537906885147095,0.041318412870168686,-0.9354025721549988
1726940536963757300,8.86775732421875,-1.0207158327102661,0.031016239896416664,-0.9071400165557861
1726940536973742300,8.877742431640625,-0.972672700881958,0.15903332829475403,-0.9057496190071106
1726940536983728000,8.88772802734375,-0.7471138834953308,0.16256147623062134,-0.8318567276000977
1726940536993714400,8.89771435546875,-0.49055907130241394,0.08287011831998825,-0.6819886565208435
1726940537003700200,8.9077001953125,-0.261960506439209,0.09018821269273758,-0.568901777267456
1726940537013686300,8.917686279296875,-0.08580198884010315,0.12556138634681702,-0.4793063998222351
1726940537023672300,8.92767236328125,0.004546282347291708,0.16080273687839508,-0.4127931594848633
1726940537033657300,8.9376572265625,0.057371415197849274,0.1777673363685608,-0.35924550890922546
1726940537043643100,8.94764306640625,0.13163472712039948,0.1315321922302246,-0.35303181409835815
1726940537053629200,8.957629150390625,0.19629760086536407,0.1258372962474823,-0.3480501174926758
1726940537063615200,8.967615234375,0.20019088685512543,0.22108657658100128,-0.36835777759552
1726940537073601300,8.977601318359374,0.12572863698005676,0.32203662395477295,-0.42876946926116943
1726940537083587000,8.987587158203125,0.042092859745025635,0.34686368703842163,-0.49568963050842285
1726940537093572000,8.997572021484375,-0.0021965752821415663,0.303499698638916,-0.5136672854423523
1726940537103558400,9.007558349609376,0.0018706043483689427,0.2768089473247528,-0.490817129611969
1726940537113544200,9.017544189453124,0.020213657990098,0.2581375539302826,-0.48378902673721313
1726940537123530200,9.0275302734375,0.059430304914712906,0.26412805914878845,-0.48441648483276367
1726940537133516300,9.037516357421875,0.12500877678394318,0.2999688684940338,-0.5026143789291382
1726940537143502300,9.04750244140625,0.1995788812637329,0.31792816519737244,-0.5140681266784668
1726940537153487000,9.057487060546874,0.2581689655780792,0.38001471757888794,-0.4946635365486145
1726940537163473400,9.067473388671875,0.2710341513156891,0.3750218152999878,-0.46474742889404297
1726940537173459200,9.077459228515625,0.2542503774166107,0.2690461277961731,-0.44688376784324646
1726940537183445200,9.0874453125,0.22662515938282013,0.1583603471517563,-0.4746488034725189
1726940537193431000,9.09743115234375,0.19568002223968506,0.07572032511234283,-0.49468135833740234
1726940537203417300,9.107417236328125,0.15127314627170563,0.080255426466465,-0.5003243684768677
1726940537213402400,9.11740234375,0.1450008600950241,0.13029435276985168,-0.45020151138305664
1726940537223388200,9.12738818359375,0.15465907752513885,0.15876194834709167,-0.374406635761261
1726940537233374500,9.13737451171875,0.21168161928653717,0.1151694655418396,-0.3482666313648224
1726940537243360300,9.1473603515625,0.2647842466831207,-0.005052549298852682,-0.3915986716747284
1726940537253346300,9.15734619140625,0.34115225076675415,-0.14724457263946533,-0.5009555220603943
1726940537263332400,9.167332275390624,0.3231218755245209,-0.25891730189323425,-0.5814327597618103
1726940537273318400,9.177318359375,0.2988293170928955,-0.3419632017612457,-0.5578976273536682
1726940537283303200,9.18730322265625,0.30762094259262085,-0.35441693663597107,-0.43278631567955017
1726940537293289200,9.197289306640625,0.36074674129486084,-0.2613559663295746,-0.3058627247810364
1726940537303275300,9.207275146484376,0.45262500643730164,-0.19873572885990143,-0.2832021415233612
1726940537313261300,9.21726123046875,0.2957189977169037,-0.0779896080493927,-0.3636722266674042
1726940537323247000,9.2272470703125,0.060860421508550644,-0.26100867986679077,-0.5264307856559753
1726940537333233400,9.2372333984375,-0.18565800786018372,-0.4684521555900574,-0.6267107725143433
1726940537343218400,9.247218505859376,-0.38332101702690125,-0.5108504891395569,-0.6181029081344604
1726940537353204200,9.257204345703125,-0.44447970390319824,-0.4535006582736969,-0.5575575232505798
1726940537363190300,9.267190185546875,-0.3227783143520355,-0.3837814927101135,-0.4995421767234802
1726940537373176300,9.27717626953125,-0.046490270644426346,-0.3855130672454834,-0.5483850836753845
1726940537383162400,9.287162353515624,0.1501500904560089,-0.3831857442855835,-0.703914225101471
1726940537393148200,9.297148193359375,0.22661636769771576,-0.3032589554786682,-0.810232937335968
1726940537403133200,9.30713330078125,0.19624461233615875,-0.12850630283355713,-0.7285053133964539
1726940537413119200,9.317119140625,0.1568404734134674,-0.03678464516997337,-0.5760116577148438
1726940537423105300,9.327105224609374,0.2221292108297348,-0.12409025430679321,-0.5180415511131287
1726940537433091000,9.337091064453125,0.34086889028549194,-0.12388652563095093,-0.546629786491394
1726940537443077400,9.347077392578125,0.4728333353996277,0.014735003933310509,-0.6508256793022156
1726940537453063200,9.357063232421876,0.5589051246643066,0.11751464754343033,-0.7218348979949951
1726940537463048200,9.367048095703124,0.5733849406242371,0.12375736236572266,-0.6663367748260498
1726940537473034200,9.3770341796875,0.5275418758392334,0.1253770887851715,-0.4331192076206207
1726940537483020300,9.387020263671875,0.4776637852191925,0.09464608132839203,-0.1658286452293396
1726940537493006300,9.39700634765625,0.43025150895118713,0.07700423896312714,0.039619315415620804
1726940537502992100,9.4069921875,0.40947672724723816,0.13845907151699066,0.16515593230724335
1726940537512978400,9.416978515625,0.37293389439582825,0.0941280946135521,0.2276581972837448
1726940537522963200,9.426963134765625,0.3280694782733917,-0.012867328710854053,0.3019220232963562
1726940537532949200,9.43694921875,0.30722731351852417,-0.02089010179042816,0.4094223976135254
1726940537542935300,9.446935302734374,0.22818496823310852,0.010895790532231331,0.4647895097732544
1726940537552921300,9.45692138671875,0.05377507954835892,0.022236330434679985,0.48963043093681335
1726940537562907100,9.4669072265625,0.03370603173971176,-0.05229116603732109,0.42791005969047546
1726940537572893200,9.47689306640625,-0.07857204228639603,0.015921441838145256,0.43481963872909546
1726940537582878500,9.48687841796875,-0.13182620704174042,-0.05974961817264557,0.41453513503074646
1726940537592864300,9.4968642578125,-0.1350792646408081,-0.0550728403031826,0.4103579819202423
1726940537602850300,9.506850341796875,-0.11396384984254837,0.01077035628259182,0.3890758454799652
1726940537612836400,9.51683642578125,-0.08840496093034744,0.04572141543030739,0.3396041691303253
1726940537622822400,9.526822509765625,-0.08492128551006317,0.05615967512130737,0.2816751003265381
1726940537632808200,9.53680810546875,-0.12451077252626419,0.04477066546678543,0.25218698382377625
1726940537642793500,9.54679345703125,-0.17267456650733948,0.03280561789870262,0.22981056571006775
1726940537652779500,9.556779541015626,-0.15287023782730103,0.07809879630804062,0.15785807371139526
1726940537662765600,9.566765625,-0.07616028189659119,0.06762325018644333,0.08999833464622498
1726940537672751400,9.57675146484375,-0.04343775659799576,0.029198631644248962,0.06503839045763016
1726940537682737400,9.5867373046875,-0.026617228984832764,-0.02449788525700569,0.10492055863142014
1726940537692723500,9.596723388671874,-0.01293310895562172,-0.06160051375627518,0.1868971884250641
1726940537702709500,9.60670947265625,0.003757720347493887,-0.08050389587879181,0.26354455947875977
1726940537712694500,9.616694580078125,-0.0033545177429914474,-0.08431141823530197,0.29338499903678894
1726940537722680600,9.6266806640625,0.0030868700705468655,-0.09211474657058716,0.3470727503299713
1726940537732666400,9.636666259765626,-0.01689828932285309,-0.17901583015918732,0.443114310503006
1726940537742652400,9.64665234375,-0.07411471009254456,-0.26685085892677307,0.5815473198890686
1726940537752638500,9.656638427734375,-0.14677533507347107,-0.32914113998413086,0.7144744396209717
1726940537762624500,9.66662451171875,-0.20233605802059174,-0.3814685344696045,0.8097133636474609
1726940537772609500,9.676609619140624,-0.19819112122058868,-0.30677032470703125,0.8348237872123718
1726940537782595300,9.68659521484375,-0.14433321356773376,-0.27084189653396606,0.8092947006225586
1726940537792581600,9.69658154296875,-0.10718876868486404,-0.4517594575881958,0.8261410593986511
1726940537802567400,9.7065673828125,-0.05341741815209389,-0.7028745412826538,0.9787692427635193
1726940537812553500,9.716553466796874,0.044553887099027634,-0.85051429271698,1.239184856414795
1726940537822539500,9.72653955078125,0.14643338322639465,-0.8594745397567749,1.5144296884536743
1726940537832524500,9.736524658203125,0.24739408493041992,-0.8000069260597229,1.6843476295471191
1726940537842510300,9.74651025390625,0.39716121554374695,-0.8218741416931152,1.8689566850662231
1726940537852496400,9.756496337890624,0.5611618757247925,-0.7822649478912354,2.0966522693634033
1726940537862482400,9.766482421875,0.7133393883705139,-0.6878633499145508,2.2954583168029785
1726940537872468500,9.776468505859375,0.7703592777252197,-0.5763634443283081,2.315622091293335
1726940537882454300,9.786454345703126,0.7887329459190369,-0.43167656660079956,2.149197816848755
1726940537892440600,9.796440673828124,0.7989693880081177,-0.24885162711143494,1.9457744359970093
1726940537902425600,9.806425537109375,0.7459564805030823,-0.09536593407392502,1.738282561302185
1726940537912411400,9.816411376953125,0.611484944820404,0.036065325140953064,1.5264469385147095
1726940537922397400,9.8263974609375,0.43511152267456055,0.049555301666259766,1.3165427446365356
1726940537932383500,9.836383544921874,0.2603423595428467,0.08120803534984589,1.0959118604660034
1726940537942369500,9.84636962890625,0.2395305633544922,0.16686168313026428,0.9198750257492065
1726940537952355300,9.856355224609375,0.30176225304603577,0.25303971767425537,0.755171537399292
1726940537962340400,9.86634033203125,0.3561490476131439,0.3429237902164459,0.6334496140480042
1726940537972326400,9.876326416015624,0.26681065559387207,0.1692284345626831,0.6205700635910034
1726940537982312400,9.8863125,0.06411799788475037,-0.01840430684387684,0.6015598773956299
1726940537992298200,9.89629833984375,-0.12004038691520691,-0.02792058140039444,0.5366663932800293
1726940538002284500,9.906284423828126,-0.20348840951919556,0.2541177570819855,0.36627280712127686
1726940538012270300,9.916270263671874,-0.27723079919815063,0.43375861644744873,0.1418716460466385
1726940538022255400,9.92625537109375,-0.327971488237381,0.42531266808509827,-0.030314229428768158
1726940538032241700,9.93624169921875,-0.33312684297561646,0.2928646206855774,-0.09826318919658661
1726940538042227500,9.9462275390625,-0.2769125699996948,0.1697157919406891,-0.13973605632781982
1726940538052213500,9.956213623046875,-0.2635861039161682,0.15110856294631958,-0.23885652422904968
1726940538062199300,9.96619921875,-0.3201013207435608,0.3274950385093689,-0.4874626100063324
1726940538072185600,9.976185546875,-0.3417898118495941,0.35503584146499634,-0.7318449020385742
1726940538082170400,9.98617041015625,-0.31062471866607666,0.2578965127468109,-0.8913996815681458
1726940538092156400,9.996156494140624,-0.25543922185897827,0.1614259034395218,-0.9521836638450623
1726940538102142500,10.006142578125,-0.20323887467384338,0.13289573788642883,-0.9522848725318909
1726940538112128500,10.01612841796875,-0.24118572473526,0.16813068091869354,-0.931717038154602
1726940538122114300,10.0261142578125,-0.32230961322784424,0.2766267955303192,-0.9843027591705322
1726940538132100600,10.0361005859375,-0.35367605090141296,0.40193066000938416,-1.0997058153152466
1726940538142085600,10.046085693359375,-0.335926353931427,0.47500166296958923,-1.2086527347564697
1726940538152071400,10.056071533203125,-0.3040325939655304,0.46162062883377075,-1.3090797662734985
1726940538162057500,10.066057373046876,-0.3103666603565216,0.3867431879043579,-1.3938316106796265
1726940538172043500,10.07604345703125,-0.33213427662849426,0.3066052198410034,-1.3888760805130005
1726940538182029600,10.086029541015625,-0.23597285151481628,0.2044503390789032,-1.291471242904663
1726940538192015400,10.096015380859376,0.02437404915690422,0.10867268592119217,-1.1417655944824219
1726940538202001700,10.106001708984374,0.3143827021121979,0.2048649936914444,-1.0274664163589478
1726940538211986400,10.115986328125,0.5235713124275208,0.36321282386779785,-1.0387142896652222
1726940538221972500,10.125972412109375,0.5367244482040405,0.44260433316230774,-1.1180988550186157
1726940538231958300,10.135958251953125,0.4709901511669159,0.3767089247703552,-1.1286474466323853
1726940538241944600,10.145944580078124,0.47364717721939087,0.2866211235523224,-0.99299556016922
1726940538251930400,10.155930419921875,0.5033118724822998,0.3018288314342499,-0.8446995615959167
1726940538261916400,10.16591650390625,0.48450809717178345,0.43850037455558777,-0.747245192527771
1726940538271901400,10.1759013671875,0.37776193022727966,0.4661000669002533,-0.7537046670913696
1726940538281887500,10.185887451171874,0.23899021744728088,0.31210142374038696,-0.8267892599105835
1726940538291873500,10.19587353515625,0.12786102294921875,0.1205168291926384,-0.8801031112670898
1726940538301859300,10.205859375,0.12271419912576675,-0.004466920159757137,-0.8086220026016235
1726940538311845600,10.215845703125,0.1763196438550949,-0.0229194313287735,-0.6718457341194153
1726940538321831400,10.22583154296875,0.21603962779045105,0.09279518574476242,-0.5405519008636475
1726940538331816400,10.23581640625,0.2331288605928421,0.2397846281528473,-0.5060301423072815
1726940538341802200,10.24580224609375,0.23974041640758514,0.3016679584980011,-0.5486399531364441
1726940538351788500,10.25578857421875,0.2378956526517868,0.2613961696624756,-0.6169812083244324
1726940538361774300,10.2657744140625,0.22719134390354156,0.15128938853740692,-0.6098212599754333
1726940538371760400,10.275760498046875,0.20864775776863098,0.09683386981487274,-0.5200463533401489
1726940538381746400,10.285746337890625,0.17418751120567322,0.15824450552463531,-0.4159335494041443
1726940538391731500,10.2957314453125,0.1387469619512558,0.2228969931602478,-0.3719565272331238
1726940538401717500,10.305717529296874,0.10717971622943878,0.23095092177391052,-0.37985438108444214
1726940538411703300,10.315703369140625,0.014373878948390484,0.1009383350610733,-0.3476352095603943
1726940538421689600,10.325689697265625,-0.08868806064128876,-0.16945880651474,-0.32910093665122986
1726940538431675400,10.33567529296875,-0.2509869635105133,-0.33342882990837097,-0.2527907192707062
1726940538441661400,10.345661376953124,-0.4310153126716614,-0.3866473138332367,-0.18782448768615723
1726940538451647500,10.3556474609375,-0.6938732862472534,-0.4447803795337677,-0.24347417056560516
1726940538461632500,10.365632568359375,-0.8922905325889587,-0.40087419748306274,-0.2957565486431122
1726940538471618300,10.375618408203126,-1.0061653852462769,-0.36845579743385315,-0.3652117848396301
1726940538481604600,10.3856044921875,-1.0732048749923706,-0.3869841992855072,-0.4763505756855011
1726940538491590400,10.39559033203125,-1.0255920886993408,-0.44048765301704407,-0.6012552380561829
1726940538501576400,10.405576416015625,-0.9081003665924072,-0.3897147476673126,-0.6722915768623352
1726940538511562200,10.415562255859374,-0.7905335426330566,-0.20954124629497528,-0.6523072123527527
1726940538521547500,10.425547607421874,-0.6395778656005859,-0.019754528999328613,-0.5286028385162354
1726940538531533600,10.435533447265625,-0.4495181441307068,0.10673310607671738,-0.3472144305706024
1726940538541519400,10.445519287109375,-0.235884428024292,0.07062969356775284,-0.21452561020851135
1726940538551505700,10.455505615234374,-0.08459477871656418,-0.11844994872808456,-0.21713924407958984
1726940538561491500,10.465491455078125,0.042217228561639786,-0.22483257949352264,-0.17553028464317322
1726940538571477500,10.4754775390625,0.15352511405944824,-0.08579133450984955,-0.013195430859923363
1726940538581463600,10.485463623046876,0.2002691775560379,0.1585395783185959,0.22753062844276428
1726940538591448600,10.495448486328126,0.1689693182706833,0.2593468725681305,0.3701764643192291
1726940538601434400,10.505434326171875,0.14341787993907928,0.1628376543521881,0.3172008693218231
1726940538611420400,10.51542041015625,0.1393190175294876,-0.05367467924952507,0.1406676322221756
1726940538621406500,10.525406494140626,0.18310031294822693,-0.30100217461586,0.01041455753147602
1726940538631392500,10.535392578125,0.2734115719795227,-0.16547125577926636,0.10483293980360031
1726940538641379000,10.545379150390625,0.30995920300483704,0.2631823718547821,0.36516493558883667
1726940538651364000,10.555364013671875,0.28589221835136414,0.4453340470790863,0.55745929479599
1726940538661350000,10.565349853515626,0.20670843124389648,0.29029202461242676,0.5686125755310059
1726940538671336200,10.575336181640624,0.10789584368467331,0.11565309762954712,0.4515751898288727
1726940538681322000,10.585322021484375,0.030722226947546005,-0.025424933061003685,0.3410761058330536
1726940538691308000,10.59530810546875,0.003537476761266589,-0.07136499136686325,0.3333912789821625
1726940538701294000,10.605294189453126,-0.004150802735239267,0.0021699436474591494,0.4063887894153595
1726940538711279000,10.615279052734374,-0.017657024785876274,0.06984566152095795,0.47348687052726746
1726940538721265200,10.62526513671875,-0.04669533297419548,0.06817319244146347,0.42308759689331055
1726940538731251000,10.6352509765625,-0.0746484026312828,-0.054119694977998734,0.23914094269275665
1726940538741237200,10.6452373046875,-0.06601922959089279,-0.18500633537769318,0.08298702538013458
1726940538751223000,10.65522314453125,-0.032286833971738815,-0.2627224326133728,0.02255857177078724
1726940538761209000,10.665208984375,0.03976072743535042,-0.2082999348640442,0.015481754206120968
1726940538771193900,10.67519384765625,0.09148464351892471,-0.12854918837547302,0.004430967383086681
1726940538781180200,10.68518017578125,0.18100440502166748,-0.05667872726917267,-0.06061301380395889
1726940538791166000,10.695166015625,0.2772723436355591,-0.07075699418783188,-0.12389051914215088
1726940538801152000,10.705152099609375,0.33501607179641724,-0.15701092779636383,-0.0942644476890564
1726940538811138000,10.715137939453125,0.34333500266075134,-0.2590118646621704,0.034201644361019135
1726940538821124000,10.7251240234375,0.32451629638671875,-0.2732946574687958,0.15744848549365997
1726940538831110000,10.73510986328125,0.3026607930660248,-0.2587127685546875,0.25785496830940247
1726940538841095000,10.745094970703125,0.3020991384983063,-0.32903993129730225,0.37737977504730225
1726940538851081200,10.755081298828125,0.33244532346725464,-0.5470199584960938,0.5184197425842285
1726940538861067000,10.76506689453125,0.37233760952949524,-0.842738687992096,0.6737446188926697
1726940538871053000,10.775052978515625,0.4202420115470886,-1.0833840370178223,0.8696845173835754
1726940538881039000,10.7850390625,0.462018758058548,-1.1344845294952393,1.1696478128433228
1726940538891025200,10.795025146484376,0.5125359892845154,-1.090119481086731,1.4927268028259277
1726940538901010000,10.805010009765626,0.6117312908172607,-0.983200192451477,1.8187494277954102
1726940538910996200,10.814996337890625,0.7168960571289062,-0.9189061522483826,2.140202045440674
1726940538920982000,10.82498193359375,0.7594387531280518,-0.7855163812637329,2.3153114318847656
1726940538930968000,10.834968017578126,0.7244024276733398,-0.6339915990829468,2.352717161178589
1726940538940954000,10.8449541015625,0.6764610409736633,-0.4431209862232208,2.242884397506714
1726940538950940200,10.854940185546875,0.6570169925689697,-0.39592844247817993,2.0607688426971436
1726940538960925200,10.86492529296875,0.6765955090522766,-0.4750557243824005,1.8436331748962402
1726940538970911000,10.874910888671875,0.7053014636039734,-0.5880507230758667,1.6325198411941528
1726940538980897300,10.884897216796874,0.6683700680732727,-0.534231424331665,1.426427960395813
1726940538990883000,10.894883056640625,0.5859771966934204,-0.47948962450027466,1.2366750240325928
1726940539000869000,10.904869140625,0.4314637780189514,-0.4224913418292999,1.0501874685287476
1726940539010855200,10.914855224609376,0.2602662146091461,-0.36581552028656006,0.8740635514259338
1726940539020841200,10.92484130859375,0.09484821557998657,-0.3733261823654175,0.7457394003868103
1726940539030826000,10.934825927734375,-0.012627111747860909,-0.39664188027381897,0.6554510593414307
1726940539040812000,10.94481201171875,-0.0879860445857048,-0.3552049696445465,0.5941616296768188
1726940539050798000,10.954798095703126,-0.17023006081581116,-0.2371036261320114,0.5420981645584106
1726940539060784000,10.9647841796875,-0.2785930037498474,-0.11450979858636856,0.5110605955123901
1726940539070770000,10.97477001953125,-0.42627114057540894,-0.024980716407299042,0.5004766583442688
1726940539080756200,10.984756103515625,-0.5767333507537842,0.005085572600364685,0.4666619896888733
1726940539090741200,10.9947412109375,-0.6201359629631042,-0.002281530061736703,0.31908637285232544
1726940539100727000,11.00472705078125,-0.579652726650238,0.020673586055636406,0.15280605852603912
1726940539110713000,11.014713134765625,-0.5337483286857605,0.026312297210097313,0.06379175931215286
1726940539120699100,11.02469921875,-0.5291474461555481,0.07344119250774384,-0.00760998297482729
1726940539130685200,11.034685302734376,-0.5482370257377625,0.14738093316555023,-0.1173282265663147
1726940539140671000,11.0446708984375,-0.5747786164283752,0.2128014862537384,-0.2735458016395569
1726940539150656000,11.054656005859375,-0.6237695813179016,0.18698719143867493,-0.48154932260513306
1726940539160642000,11.06464208984375,-0.7089326977729797,0.026683809235692024,-0.7076966762542725
1726940539170628000,11.074628173828126,-0.8069646954536438,-0.1331157088279724,-0.9969950914382935
1726940539180614000,11.08461376953125,-0.8739091157913208,-0.09894122928380966,-1.217366099357605
1726940539190600200,11.09460009765625,-0.9309580326080322,0.10784763842821121,-1.308361291885376
1726940539200586000,11.1045859375,-0.987307071685791,0.32010477781295776,-1.3768254518508911
1726940539210572000,11.114572021484374,-1.0067963600158691,0.4293212592601776,-1.4990864992141724
1726940539220557000,11.12455712890625,-0.9567288756370544,0.42025133967399597,-1.5921164751052856
1726940539230543000,11.134543212890625,-0.816288411617279,0.44533005356788635,-1.6019742488861084
1726940539240529200,11.144529052734375,-0.5476838946342468,0.391075074672699,-1.4561078548431396
1726940539250515000,11.154514892578124,-0.14743366837501526,0.22213560342788696,-1.1206997632980347
1726940539260501200,11.164501220703125,0.08835542947053909,0.2528413236141205,-0.9274442195892334
1726940539270487000,11.174487060546875,0.2291700690984726,0.30845797061920166,-0.8756553530693054
1726940539280472000,11.18447216796875,0.2277977466583252,0.3490605354309082,-0.8551420569419861
1726940539290458000,11.1944580078125,0.16154974699020386,0.29255783557891846,-0.7949807643890381
1726940539300444200,11.204444091796875,0.06372411549091339,0.15315546095371246,-0.6986861824989319
1726940539310430000,11.214429931640625,-0.011935489252209663,0.013589845038950443,-0.5602758526802063
1726940539320416000,11.224416015625,-0.05043201521039009,-0.008581237867474556,-0.40133729577064514
1726940539330402000,11.234402099609374,-0.05935253947973251,0.12889060378074646,-0.28081753849983215
1726940539340388000,11.24438818359375,-0.09089235216379166,0.32106325030326843,-0.27891018986701965
1726940539350373000,11.254373046875,-0.11171481013298035,0.5052242875099182,-0.39131051301956177
1726940539360359200,11.264359130859376,-0.07370351254940033,0.6175830364227295,-0.47041091322898865
1726940539370345200,11.27434521484375,-0.025558089837431908,0.6106947660446167,-0.4825056493282318
1726940539380331000,11.2843310546875,0.06562694907188416,0.643534779548645,-0.448792427778244
1726940539390317300,11.2943173828125,0.1321527063846588,0.7798824906349182,-0.44695326685905457
1726940539400303000,11.30430322265625,0.100943922996521,0.9136378765106201,-0.5576454401016235
1726940539410288000,11.3142880859375,0.01962243765592575,0.866649866104126,-0.7005634307861328
1726940539420274000,11.32427392578125,-0.05137477442622185,0.5764782428741455,-0.7638528943061829
1726940539430260200,11.33426025390625,-0.1092202290892601,0.3131991922855377,-0.732309103012085
1726940539440246000,11.34424609375,-0.17323756217956543,0.2921125590801239,-0.6342632174491882
1726940539450232000,11.354232177734374,-0.2557079493999481,0.29763221740722656,-0.6223799586296082
1726940539460218000,11.364218017578125,-0.3372637927532196,0.31042683124542236,-0.7313695549964905
1726940539470203100,11.374203125,-0.42043644189834595,0.10469844937324524,-0.8762814402580261
1726940539480189200,11.384189208984376,-0.5231532454490662,-0.16968277096748352,-1.016379952430725
1726940539490175000,11.394175048828124,-0.6128168106079102,-0.2489275336265564,-1.0717910528182983
1726940539500161300,11.404161376953125,-0.6420026421546936,-0.20165082812309265,-1.0855973958969116
1726940539510147000,11.41414697265625,-0.6245155334472656,-0.14168283343315125,-1.1475504636764526
1726940539520133000,11.424133056640626,-0.6255706548690796,-0.12331447750329971,-1.2687214612960815
1726940539530119200,11.434119140625,-0.6747496724128723,-0.11583206057548523,-1.4029830694198608
1726940539540104200,11.444104248046875,-0.7140251994132996,-0.16369464993476868,-1.4965969324111938
1726940539550090000,11.454090087890625,-0.7034742832183838,-0.24349868297576904,-1.479274868965149
1726940539560076000,11.464075927734376,-0.6171207427978516,-0.21950359642505646,-1.3095455169677734
1726940539570062000,11.47406201171875,-0.4325684607028961,-0.12957529723644257,-1.0041526556015015
1726940539580048100,11.484048095703125,-0.18939709663391113,-0.14183463156223297,-0.7180606722831726
1726940539590034000,11.494033935546875,0.05320223420858383,-0.21716266870498657,-0.48672357201576233
1726940539600019000,11.50401904296875,0.24971821904182434,-0.3039891719818115,-0.278057724237442
1726940539610005200,11.514005126953125,0.4006131887435913,-0.41668376326560974,-0.11903291195631027
1726940539619991000,11.523990966796875,0.5034279823303223,-0.4999578893184662,-0.004750546533614397
1726940539629977000,11.53397705078125,0.5921387076377869,-0.5217081904411316,0.07428967952728271
1726940539639962600,11.543962646484376,0.5977627635002136,-0.4957572817802429,0.2020511031150818
1726940539649948700,11.55394873046875,0.5532093644142151,-0.24259427189826965,0.377883642911911
1726940539659933400,11.563933349609375,0.5016385912895203,0.012475311756134033,0.5634841322898865
1726940539669919500,11.57391943359375,0.3825630843639374,0.06588128209114075,0.6518430113792419
1726940539679905500,11.583905517578126,0.2872197926044464,-0.000037017940485384315,0.6333804130554199
1726940539689891600,11.5938916015625,0.24794243276119232,-0.054541803896427155,0.56352698802948
1726940539699877400,11.60387744140625,0.27331170439720154,-0.08588747680187225,0.528098464012146
1726940539709863700,11.61386376953125,0.27836132049560547,-0.11571807414293289,0.511659562587738
1726940539719849500,11.623849365234374,0.2546924650669098,-0.13742417097091675,0.5100358128547668
1726940539729834500,11.63383447265625,0.21520258486270905,-0.1257704496383667,0.4600847661495209
1726940539739820500,11.643820556640625,0.19026847183704376,-0.03662858530879021,0.3716078996658325
1726940539749806600,11.653806640625,0.18215195834636688,0.05029512941837311,0.3085581064224243
1726940539759792600,11.663792724609374,0.18196527659893036,0.0765717402100563,0.27975520491600037
1726940539769778400,11.6737783203125,0.1626483052968979,0.06649939715862274,0.24757251143455505
1726940539779764700,11.6837646484375,0.10043046623468399,0.05590134859085083,0.18264757096767426
1726940539789749500,11.69374951171875,0.037273336201906204,0.0246622022241354,0.11782730370759964
1726940539799735600,11.703735595703124,0.009394832886755466,-0.05602065846323967,0.08580758422613144
1726940539809721600,11.7137216796875,0.03982091695070267,-0.18209150433540344,0.03831010311841965
1726940539819707600,11.723707763671875,0.07136419415473938,-0.2606542408466339,0.0073077138513326645
1726940539829693400,11.733693359375,0.10540631413459778,-0.22077950835227966,-0.039677638560533524
1726940539839679500,11.743679443359374,0.1398705542087555,-0.12284016609191895,-0.03676387295126915
1726940539849664800,11.753664794921875,0.14195340871810913,-0.1243688240647316,-0.002569684060290456
1726940539859650600,11.763650634765625,0.14766216278076172,-0.25471803545951843,0.08783052116632462
1726940539869636600,11.77363671875,0.17951622605323792,-0.4406445026397705,0.20942752063274384
1726940539879622700,11.78362255859375,0.22625604271888733,-0.47099068760871887,0.36848321557044983
1726940539889608700,11.793608642578125,0.31439682841300964,-0.37242841720581055,0.6364217400550842
1726940539899594500,11.803594482421875,0.4948052167892456,-0.3651582598686218,0.9710705280303955
1726940539909580800,11.813580810546876,0.6733909249305725,-0.4196731746196747,1.3099337816238403
1726940539919565600,11.823565673828124,0.8440031409263611,-0.6607577204704285,1.6423338651657104
1726940539929551600,11.833551513671875,1.0423485040664673,-1.0045331716537476,1.9252475500106812
1726940539939537400,11.843537353515625,1.2319713830947876,-1.2429358959197998,2.1143383979797363
1726940539949523700,11.853523681640626,1.339292287826538,-1.171940565109253,2.167877674102783
1726940539959509500,11.863509521484374,1.3372647762298584,-0.9481218457221985,2.19325590133667
1726940539969495600,11.87349560546875,1.294248342514038,-0.7827408313751221,2.2305893898010254
1726940539979481600,11.883481689453125,1.2548338174819946,-0.6333244442939758,2.278186798095703
1726940539989466600,11.893466552734376,1.272424578666687,-0.6205974817276001,2.3098490238189697
1726940539999452700,11.90345263671875,1.2611042261123657,-0.6435294151306152,2.292116641998291
1726940540009438500,11.9134384765625,1.1300767660140991,-0.6271712183952332,2.148545742034912
1726940540019424800,11.9234248046875,0.9566186666488647,-0.594001829624176,1.9240020513534546
1726940540029410600,11.93341064453125,0.7485594749450684,-0.5678818225860596,1.6677262783050537
1726940540039396600,11.943396728515625,0.5290492177009583,-0.5572147965431213,1.39289391040802
1726940540049381400,11.95338134765625,0.2715710699558258,-0.5011999607086182,1.1143685579299927
1726940540059367700,11.96336767578125,-0.016581639647483826,-0.33736470341682434,0.8591187000274658
1726940540069353500,11.973353515625,-0.32902103662490845,-0.09813002496957779,0.6303334832191467
1726940540079339500,11.983339599609375,-0.6132980585098267,0.15056820213794708,0.41937968134880066
1726940540089325600,11.99332568359375,-0.8179917931556702,0.23597311973571777,0.24394048750400543
1726940540099311600,12.0033115234375,-0.855218231678009,0.1002320647239685,0.12323644757270813
1726940540109296600,12.013296630859376,-0.8255175948143005,-0.07388461381196976,0.045038849115371704
1726940540119282400,12.023282470703125,-0.7588461637496948,-0.04575124382972717,-0.06600324809551239
1726940540129268700,12.033268798828125,-0.6400460004806519,0.15588440001010895,-0.17278295755386353
1726940540139254500,12.043254638671876,-0.5148841142654419,0.44808536767959595,-0.305972695350647
1726940540149240600,12.053240478515624,-0.5061507821083069,0.6010722517967224,-0.5328300595283508
1726940540159226600,12.0632265625,-0.5927075147628784,0.5390182137489319,-0.800071656703949
1726940540169212700,12.073212646484375,-0.722591757774353,0.42584532499313354,-1.0310728549957275
1726940540179197400,12.083197509765625,-0.8686184883117676,0.38475993275642395,-1.1727218627929688
1726940540189183500,12.09318359375,-1.0309897661209106,0.44260698556900024,-1.2203525304794312
1726940540199169500,12.10316943359375,-1.1776325702667236,0.5140287280082703,-1.2026002407073975
1726940540209155600,12.113155517578125,-1.2924067974090576,0.5373750329017639,-1.2452696561813354
1726940540219141400,12.123141357421876,-1.411769151687622,0.4963330626487732,-1.3990123271942139
1726940540229127700,12.133127685546874,-1.4834682941436768,0.4877137541770935,-1.5183405876159668
1726940540239112700,12.14311279296875,-1.4383139610290527,0.4626486003398895,-1.4699463844299316
1726940540249098500,12.153098388671875,-1.201685905456543,0.5462127327919006,-1.2538065910339355
1726940540259084800,12.163084716796876,-0.8326982855796814,0.6031865477561951,-1.017419695854187
1726940540269070600,12.173070556640624,-0.40405187010765076,0.42609378695487976,-0.8385926485061646
1726940540279056600,12.183056640625,-0.1027602031826973,0.35840341448783875,-0.8021707534790039
1726940540289042400,12.19304248046875,0.11372070759534836,0.35083603858947754,-0.7663312554359436
1726940540299028700,12.20302880859375,0.1484142392873764,0.34919473528862,-0.6477838158607483
1726940540309013500,12.213013427734374,0.0580233559012413,0.1847330927848816,-0.5116251707077026
1726940540318999600,12.22299951171875,-0.0484362430870533,-0.081638403236866,-0.3613869547843933
1726940540328985600,12.232985595703125,-0.16195695102214813,-0.3025960922241211,-0.22421099245548248
1726940540338971600,12.2429716796875,-0.25265035033226013,-0.34311342239379883,-0.1230929046869278
1726940540348957400,12.25295751953125,-0.3451978862285614,-0.1844521313905716,-0.03452788293361664
1726940540358943700,12.26294384765625,-0.4497887194156647,0.05778313800692558,0.08470689505338669
1726940540368928800,12.2729287109375,-0.503885805606842,0.21822714805603027,0.16695064306259155
1726940540378914600,12.28291455078125,-0.5014239549636841,0.31580910086631775,0.12340129911899567
1726940540388900600,12.292900634765624,-0.44219791889190674,0.40249738097190857,-0.035942286252975464
1726940540398886700,12.30288671875,-0.303951621055603,0.45919156074523926,-0.27866092324256897
1726940540408872700,12.312872802734375,-0.2573404610157013,0.47338566184043884,-0.5234525799751282
1726940540418858500,12.3228583984375,-0.18214237689971924,0.43282145261764526,-0.608043372631073
1726940540428844800,12.3328447265625,-0.058043863624334335,0.40985676646232605,-0.5983867049217224
1726940540438829600,12.34282958984375,0.10231625288724899,0.47544294595718384,-0.5575079917907715
1726940540448815600,12.352815673828125,0.2763972282409668,0.6166743636131287,-0.6447433233261108
1726940540458801400,12.362801513671876,0.3592950403690338,0.7015578746795654,-0.8601272702217102
1726940540468787700,12.37278759765625,0.3002631664276123,0.6397703886032104,-1.098719835281372
