time,seconds_elapsed,z,y,x
1726225566562128400,0.01912841796875,-0.489776611328125,-0.823577880859375,0.10723876953125
1726225566572164400,0.029164306640625,-0.63238525390625,-0.70928955078125,0.0842437744140625
1726225566582201300,0.039201416015625,-0.6202392578125,-0.6472320556640625,0.0549163818359375
1726225566592237300,0.0492373046875,-0.468536376953125,-0.89776611328125,0.09234619140625
1726225566602273300,0.059273193359375,-0.2914276123046875,-0.9912109375,0.031982421875
1726225566612310300,0.069310302734375,-0.467132568359375,-0.7827301025390625,0.09710693359375
1726225566622346200,0.07934619140625,-0.6804656982421875,-0.649932861328125,0.0630950927734375
1726225566632382200,0.08938232421875,-0.7577056884765625,-0.7066192626953125,0.0210723876953125
1726225566642418200,0.099418212890625,-0.64752197265625,-0.8438568115234375,0.0643157958984375
1726225566652455400,0.109455322265625,-0.705291748046875,-0.9418792724609375,0.0358734130859375
1726225566662491400,0.119491455078125,-0.7291412353515625,-0.7833404541015625,0.055694580078125
1726225566672527400,0.12952734375,-0.66717529296875,-0.798675537109375,0.075653076171875
1726225566682564400,0.139564453125,-0.5408477783203125,-0.8437652587890625,0.055419921875
1726225566692600300,0.149600341796875,-0.5384521484375,-0.744384765625,0.09576416015625
1726225566702636300,0.15963623046875,-0.5679168701171875,-0.683441162109375,0.1443023681640625
1726225566712673300,0.16967333984375,-0.3849029541015625,-0.8056640625,0.0994720458984375
1726225566722709200,0.179709228515625,-0.3216094970703125,-1.06561279296875,0.180084228515625
1726225566732745200,0.1897451171875,-0.3973388671875,-1.009033203125,0.235931396484375
1726225566742781200,0.19978125,-0.7965850830078125,-0.790802001953125,0.26385498046875
1726225566752818200,0.209818115234375,-0.8708953857421875,-0.68798828125,0.212066650390625
1726225566762854400,0.2198544921875,-0.681549072265625,-0.918121337890625,0.0604095458984375
1726225566772890400,0.229890380859375,-0.6362457275390625,-1.084716796875,0.05059814453125
1726225566782927400,0.23992724609375,-0.6602020263671875,-0.8768157958984375,0.0232696533203125
1726225566792963300,0.24996337890625,-0.6267242431640625,-0.787200927734375,-0.002899169921875
1726225566802999300,0.259999267578125,-0.4743804931640625,-0.894805908203125,0.050018310546875
1726225566813035300,0.27003515625,-0.459625244140625,-0.8960113525390625,0.0777130126953125
1726225566823072300,0.280072265625,-0.578857421875,-0.77764892578125,0.1336822509765625
1726225566833108200,0.290108154296875,-0.6503143310546875,-0.7731781005859375,0.1645050048828125
1726225566843144200,0.300144287109375,-0.563018798828125,-0.8030853271484375,0.0559234619140625
1726225566853181200,0.31018115234375,-0.3523406982421875,-0.907745361328125,0.1558990478515625
1726225566863217200,0.320217041015625,-0.1684112548828125,-0.993621826171875,0.2144775390625
1726225566873253000,0.330253173828125,-0.297332763671875,-0.7309112548828125,0.1453857421875
1726225566883289300,0.340289306640625,-0.499908447265625,-0.5397186279296875,0.1604156494140625
1726225566893326300,0.350326416015625,-0.469970703125,-0.7526702880859375,0.142822265625
1726225566903362300,0.3603623046875,-0.475555419921875,-0.998748779296875,0.1721038818359375
1726225566913398300,0.370398193359375,-0.96234130859375,-0.815399169921875,0.0815277099609375
1726225566923435300,0.380435302734375,-1.2074432373046875,-0.765045166015625,0.1360015869140625
1726225566933471200,0.39047119140625,-0.8087005615234375,-0.9899139404296875,0.1269378662109375
1726225566943507200,0.400507080078125,-0.45147705078125,-1.052215576171875,0.17352294921875
1726225566953543200,0.410543212890625,-0.257232666015625,-0.724212646484375,0.2018280029296875
1726225566963580200,0.420580078125,-0.4034271240234375,-0.6341400146484375,0.2044525146484375
1726225566973616000,0.4306162109375,-0.4371185302734375,-0.7440643310546875,0.099456787109375
1726225566983652000,0.440652099609375,-0.329986572265625,-1.07086181640625,0.1450347900390625
1726225566993689300,0.450689453125,-0.2138214111328125,-0.823272705078125,0.14471435546875
1726225567003725300,0.460725341796875,-0.5064849853515625,-0.55169677734375,0.05633544921875
1726225567013761300,0.47076123046875,-0.541290283203125,-0.738067626953125,0.0808258056640625
1726225567023797200,0.48079736328125,-0.3891143798828125,-1.0789642333984375,0.0355682373046875
1726225567033834200,0.490834228515625,-0.6423492431640625,-0.9894561767578125,0.135986328125
1726225567043870200,0.5008701171875,-0.831451416015625,-0.5752716064453125,0.1287994384765625
1726225567053906200,0.51090625,-0.737579345703125,-0.8824462890625,0.1361083984375
1726225567063943200,0.520943115234375,-0.5640411376953125,-1.055389404296875,0.131439208984375
1726225567073979100,0.530979248046875,-0.5038299560546875,-0.8542938232421875,0.1265716552734375
1726225567084015000,0.54101513671875,-0.605255126953125,-0.6548614501953125,0.1706695556640625
1726225567094052400,0.55105224609375,-0.6011199951171875,-0.6182098388671875,0.087738037109375
1726225567104088300,0.56108837890625,-0.3050994873046875,-0.8007354736328125,0.078948974609375
1726225567114124300,0.571124267578125,-0.081939697265625,-1.118072509765625,0.16937255859375
1726225567124160300,0.58116015625,-0.101043701171875,-0.895751953125,0.1466522216796875
1726225567134197200,0.591197265625,-0.5777130126953125,-0.5659942626953125,0.122283935546875
1726225567144233200,0.601233154296875,-0.7340545654296875,-0.6578369140625,0.116241455078125
1726225567154269200,0.611269287109375,-0.68701171875,-0.99072265625,0.09527587890625
1726225567164306200,0.62130615234375,-0.8294525146484375,-1.019927978515625,0.0125579833984375
1726225567174342100,0.631342041015625,-0.912384033203125,-0.780731201171875,0.0535430908203125
1726225567184378000,0.641378173828125,-0.8531036376953125,-0.79644775390625,0.0672760009765625
1726225567194414000,0.6514140625,-0.6033935546875,-0.9387359619140625,-0.024810791015625
1726225567204451800,0.661451904296875,-0.4269866943359375,-0.878143310546875,0.0457000732421875
1726225567214487800,0.67148779296875,-0.3977203369140625,-0.722564697265625,0.031036376953125
1726225567224523800,0.681523681640625,-0.463348388671875,-0.771484375,0.0223236083984375
1726225567234560800,0.691560791015625,-0.67730712890625,-0.97296142578125,0.108917236328125
1726225567244597000,0.701596923828125,-0.918304443359375,-0.907318115234375,0.141143798828125
1726225567254633000,0.711633056640625,-0.918670654296875,-0.799072265625,0.192657470703125
1726225567264669000,0.7216689453125,-0.61944580078125,-0.982666015625,0.2026519775390625
1726225567274706000,0.731705810546875,-0.572479248046875,-1.1196136474609375,0.1794281005859375
1726225567284742000,0.741741943359375,-0.5925445556640625,-0.806427001953125,0.1479644775390625
1726225567294777900,0.75177783203125,-0.490386962890625,-0.7007293701171875,0.1123504638671875
1726225567304814800,0.76181494140625,-0.3344879150390625,-0.8493194580078125,0.07470703125
1726225567314850800,0.771850830078125,-0.385589599609375,-0.812347412109375,0.0999298095703125
1726225567324886800,0.78188671875,-0.5281219482421875,-0.7442169189453125,0.1449432373046875
1726225567334922800,0.7919228515625,-0.676361083984375,-0.81488037109375,0.12738037109375
1726225567344959700,0.801959716796875,-0.7533416748046875,-0.70880126953125,0.08172607421875
1726225567354995700,0.81199560546875,-0.5977935791015625,-0.637969970703125,0.0001220703125
1726225567365032000,0.822031982421875,-0.3517913818359375,-0.8717041015625,0.016143798828125
1726225567375069000,0.83206884765625,-0.3713531494140625,-0.9413604736328125,0.0088653564453125
1726225567385105000,0.84210498046875,-0.4676055908203125,-0.6821441650390625,-0.0392608642578125
1726225567395140900,0.852140869140625,-0.59515380859375,-0.706146240234375,0.0523223876953125
1726225567405176800,0.8621767578125,-0.6405029296875,-0.93060302734375,0.113525390625
1726225567415213800,0.8722138671875,-0.609130859375,-1.027435302734375,0.0484161376953125
1726225567425249800,0.882249755859375,-0.731689453125,-0.8076629638671875,0.0151214599609375
1726225567435285800,0.89228564453125,-0.763580322265625,-0.6759185791015625,0.0108795166015625
1726225567445322800,0.90232275390625,-0.7054595947265625,-0.858428955078125,0.041259765625
1726225567455358700,0.912358642578125,-0.6349639892578125,-0.8414459228515625,-0.0100860595703125
1726225567465394700,0.922394775390625,-0.6830596923828125,-0.50469970703125,-0.044586181640625
1726225567475430700,0.9324306640625,-0.43121337890625,-0.676849365234375,-0.039154052734375
1726225567485468000,0.942468017578125,-0.196624755859375,-1.11669921875,0.0734100341796875
1726225567495504000,0.95250390625,-0.0690765380859375,-0.954010009765625,0.007049560546875
1726225567505539800,0.962539794921875,-0.3476715087890625,-0.6777801513671875,-0.0184326171875
1726225567515576800,0.972576904296875,-0.619232177734375,-0.6118011474609375,0.0030517578125
1726225567525612800,0.98261279296875,-0.5850830078125,-0.946563720703125,0.047454833984375
1726225567535648800,0.992648681640625,-0.6613006591796875,-1.125244140625,0.009552001953125
1726225567545684700,1.002684814453125,-0.720001220703125,-0.8608856201171875,-0.0604400634765625
1726225567555721700,1.0127216796875,-0.63427734375,-0.9630279541015625,0.0321502685546875
1726225567565757700,1.0227578125,-0.5471343994140625,-1.040069580078125,0.08203125
1726225567575793700,1.032793701171875,-0.43939208984375,-0.8210296630859375,0.082733154296875
1726225567585831000,1.042830810546875,-0.43963623046875,-0.8099517822265625,0.14874267578125
1726225567595867000,1.052866943359375,-0.431640625,-0.7755889892578125,0.201263427734375
1726225567605902800,1.06290283203125,-0.3126220703125,-0.82025146484375,0.2194976806640625
1726225567615938800,1.072938720703125,-0.108428955078125,-1.0579376220703125,0.2463531494140625
1726225567625975800,1.082975830078125,-0.295989990234375,-0.994354248046875,0.2401580810546875
1726225567636011800,1.09301171875,-0.5099029541015625,-0.8494110107421875,0.18548583984375
1726225567646047700,1.1030478515625,-0.5808258056640625,-0.9101715087890625,0.191741943359375
1726225567656084700,1.113084716796875,-0.536834716796875,-0.9892730712890625,0.11590576171875
1726225567666120700,1.12312060546875,-0.522613525390625,-1.036285400390625,0.0737152099609375
1726225567676156700,1.13315673828125,-0.5286712646484375,-0.987518310546875,0.0336456298828125
1726225567686194000,1.14319384765625,-0.515899658203125,-0.8183441162109375,-0.01483154296875
1726225567696230000,1.15322998046875,-0.405364990234375,-0.8022003173828125,-0.0335540771484375
1726225567706265900,1.163265869140625,-0.2485809326171875,-1.025787353515625,-0.037506103515625
1726225567716301800,1.1733017578125,-0.2845458984375,-1.1094512939453125,-0.0207977294921875
1726225567726338800,1.1833388671875,-0.4060211181640625,-0.8736572265625,-0.009063720703125
1726225567736374800,1.193374755859375,-0.60546875,-0.7547607421875,-0.0323944091796875
1726225567746410800,1.20341064453125,-0.4590606689453125,-0.946197509765625,-0.047119140625
1726225567756447700,1.21344775390625,-0.48162841796875,-1.1739654541015625,0.0213623046875
1726225567766483700,1.223483642578125,-0.6705780029296875,-0.8751220703125,-0.0289459228515625
1726225567776519700,1.233519775390625,-0.6334075927734375,-0.766204833984375,0.0286102294921875
1726225567786555600,1.2435556640625,-0.481048583984375,-0.873382568359375,0.05364990234375
1726225567796593000,1.253593017578125,-0.361846923828125,-0.8960113525390625,0.03912353515625
1726225567806628900,1.26362890625,-0.4094085693359375,-0.8243408203125,0.0207672119140625
1726225567816664800,1.273664794921875,-0.4324188232421875,-0.768951416015625,0.0050048828125
1726225567826701800,1.283701904296875,-0.390869140625,-0.8824005126953125,0.042205810546875
1726225567836737800,1.29373779296875,-0.3921966552734375,-1.0229034423828125,0.0832672119140625
1726225567846773800,1.303773681640625,-0.5749969482421875,-0.8786773681640625,0.100860595703125
1726225567856809700,1.313809814453125,-0.5501708984375,-0.8131256103515625,0.0947723388671875
1726225567866846700,1.3238466796875,-0.507049560546875,-0.9396820068359375,0.0260162353515625
1726225567876882700,1.333882568359375,-0.5442657470703125,-0.8448944091796875,0.001617431640625
1726225567886918700,1.343918701171875,-0.5766448974609375,-0.728118896484375,0.002655029296875
1726225567896955600,1.35395556640625,-0.5179443359375,-0.740509033203125,-0.0960845947265625
1726225567906991900,1.363991943359375,-0.4566192626953125,-0.763702392578125,0.0036163330078125
1726225567917027800,1.37402783203125,-0.53900146484375,-0.7758331298828125,0.030792236328125
1726225567927064800,1.38406494140625,-0.6259613037109375,-0.65863037109375,-0.0192718505859375
1726225567937100800,1.394100830078125,-0.5762939453125,-0.6960601806640625,0.0348968505859375
1726225567947136800,1.40413671875,-0.2960968017578125,-0.9138336181640625,0.0926971435546875
1726225567957173000,1.414173095703125,-0.3751373291015625,-0.914825439453125,0.034698486328125
1726225567967209700,1.424209716796875,-0.6091766357421875,-0.6413726806640625,0.0384521484375
1726225567977245700,1.43424560546875,-0.7976837158203125,-0.735595703125,0.08258056640625
1726225567987282000,1.444281982421875,-0.9275360107421875,-0.88922119140625,0.0627593994140625
1726225567997318700,1.454318603515625,-0.8757171630859375,-0.829071044921875,0.0255279541015625
1726225568007354600,1.464354736328125,-0.8056793212890625,-0.8781585693359375,0.017425537109375
1726225568017390800,1.474390869140625,-0.652801513671875,-0.8090972900390625,-0.00531005859375
1726225568027427000,1.484427001953125,-0.5906219482421875,-0.7442169189453125,-0.003814697265625
1726225568037463800,1.4944638671875,-0.51947021484375,-0.6723175048828125,-0.0762939453125
1726225568047499800,1.504499755859375,-0.3726654052734375,-0.6763458251953125,0.0319671630859375
1726225568057536000,1.514535888671875,-0.2756805419921875,-0.78558349609375,0.04034423828125
1726225568067572700,1.52457275390625,-0.492645263671875,-0.6958160400390625,-0.011749267578125
1726225568077608700,1.534608642578125,-0.5550384521484375,-0.6870574951171875,0.011077880859375
1726225568087645000,1.54464501953125,-0.6629180908203125,-0.9999542236328125,0.01470947265625
1726225568097681700,1.554681640625,-0.8586578369140625,-0.9662322998046875,0.02581787109375
1726225568107717600,1.564717529296875,-0.9013214111328125,-0.7451171875,0.0146636962890625
1726225568117753900,1.57475390625,-0.77197265625,-0.85577392578125,0.0247039794921875
1726225568127789800,1.584789794921875,-0.6094512939453125,-0.9469451904296875,0.0545806884765625
1726225568137826800,1.594826904296875,-0.5565643310546875,-0.776153564453125,0.0172576904296875
1726225568147862800,1.60486279296875,-0.4613800048828125,-0.68377685546875,0.0741424560546875
1726225568157899000,1.61489892578125,-0.3956146240234375,-0.84075927734375,0.1294403076171875
1726225568167935700,1.624935791015625,-0.1505279541015625,-0.8233489990234375,0.0858154296875
1726225568177971700,1.6349716796875,-0.3756561279296875,-0.6351318359375,0.162200927734375
1726225568188008000,1.645008056640625,-0.5516357421875,-0.6212005615234375,0.14691162109375
1726225568198044000,1.6550439453125,-0.61328125,-1.03375244140625,0.1249847412109375
1726225568208080400,1.665080322265625,-0.9092559814453125,-1.0653228759765625,0.0691070556640625
1726225568218116400,1.675116455078125,-0.985809326171875,-0.8272552490234375,0.0400848388671875
1726225568228152300,1.68515234375,-0.7899322509765625,-0.949462890625,0.0445098876953125
1726225568238189600,1.695189453125,-0.5621185302734375,-1.085845947265625,0.10400390625
1726225568248225500,1.7052255859375,-0.4224395751953125,-0.8836517333984375,0.056884765625
1726225568258261500,1.715261474609375,-0.3432159423828125,-0.70623779296875,0.09405517578125
1726225568268297500,1.72529736328125,-0.231201171875,-0.831024169921875,0.1712188720703125
1726225568278334500,1.73533447265625,-0.355560302734375,-0.855133056640625,0.1936798095703125
1726225568288370400,1.745370361328125,-0.589447021484375,-0.6923370361328125,0.1538848876953125
1726225568298406400,1.755406494140625,-0.6571502685546875,-0.858612060546875,0.1655426025390625
1726225568308443400,1.765443359375,-0.785064697265625,-1.1424560546875,0.13641357421875
1726225568318479400,1.775479248046875,-0.835693359375,-0.9894256591796875,0.064178466796875
1726225568328515300,1.785515380859375,-0.72802734375,-0.849578857421875,0.0936737060546875
1726225568338552300,1.79555224609375,-0.4983978271484375,-0.96917724609375,0.116668701171875
1726225568348588300,1.80558837890625,-0.3387908935546875,-0.92828369140625,0.097015380859375
1726225568358624500,1.81562451171875,-0.380096435546875,-0.6395263671875,0.080718994140625
1726225568368660500,1.825660400390625,-0.16064453125,-0.602142333984375,0.11376953125
1726225568378697500,1.835697509765625,0.0905609130859375,-0.99676513671875,0.1285858154296875
1726225568388733400,1.8457333984375,-0.3931427001953125,-0.983245849609375,0.0832366943359375
1726225568398769400,1.855769287109375,-0.66156005859375,-0.743927001953125,0.121551513671875
1726225568408806400,1.865806396484375,-0.8641357421875,-0.9351043701171875,0.1872711181640625
1726225568418842400,1.87584228515625,-0.9004364013671875,-1.08984375,0.104583740234375
1726225568428878300,1.88587841796875,-0.8170928955078125,-1.0790557861328125,0.1472320556640625
1726225568438914300,1.895914306640625,-0.6085968017578125,-0.8395538330078125,0.1448516845703125
1726225568448951300,1.905951416015625,-0.3912200927734375,-0.836212158203125,0.1304168701171875
1726225568458987300,1.9159873046875,-0.2977447509765625,-0.753753662109375,0.1365203857421875
1726225568469023200,1.926023193359375,-0.1661834716796875,-0.70489501953125,0.1167755126953125
1726225568479060500,1.936060546875,-0.4981842041015625,-0.992279052734375,0.1407318115234375
1726225568489096400,1.946096435546875,-0.649688720703125,-0.8899383544921875,0.1445770263671875
1726225568499132400,1.95613232421875,-0.83258056640625,-0.850311279296875,0.16632080078125
1726225568509169400,1.96616943359375,-0.8479156494140625,-0.981109619140625,0.126220703125
1726225568519205400,1.976205322265625,-0.520416259765625,-1.1038970947265625,0.1338043212890625
1726225568529241300,1.986241455078125,-0.3444366455078125,-0.97344970703125,0.1121063232421875
1726225568539277300,1.99627734375,-0.34344482421875,-0.647308349609375,0.17755126953125
1726225568549314300,2.006314208984375,-0.4077301025390625,-0.6754302978515625,0.122650146484375
1726225568559350300,2.016350341796875,-0.6004486083984375,-0.6751861572265625,0.129669189453125
1726225568569386200,2.02638623046875,-0.3456268310546875,-0.5610504150390625,0.1152191162109375
1726225568579423500,2.036423583984375,-0.1688995361328125,-0.9497222900390625,0.08087158203125
1726225568589459500,2.04645947265625,-0.39801025390625,-0.95770263671875,0.1551361083984375
1726225568599495400,2.056495361328125,-0.413482666015625,-0.790252685546875,0.259368896484375
1726225568609532400,2.066532470703125,-0.5966796875,-0.9484405517578125,0.1851806640625
1726225568619568400,2.076568359375,-0.679443359375,-0.9304962158203125,0.2611846923828125
1726225568629604400,2.086604248046875,-0.7639007568359375,-0.85015869140625,0.2734375
1726225568639640300,2.096640380859375,-0.75640869140625,-0.856414794921875,0.1165924072265625
1726225568649677300,2.10667724609375,-0.7559356689453125,-0.673614501953125,0.0839691162109375
1726225568659713300,2.11671337890625,-0.6346435546875,-0.6497039794921875,0.0440826416015625
1726225568669749200,2.126749267578125,-0.18817138671875,-0.956634521484375,0.0104522705078125
1726225568679786500,2.136786376953125,-0.33978271484375,-0.9300689697265625,-0.0192718505859375
1726225568689822500,2.146822509765625,-0.6355743408203125,-0.572967529296875,0.1179962158203125
1726225568699858400,2.1568583984375,-0.678009033203125,-0.8016357421875,0.0694732666015625
1726225568709894400,2.166894287109375,-0.909881591796875,-1.0220947265625,0.0420379638671875
1726225568719931400,2.176931396484375,-0.984100341796875,-0.7937469482421875,0.0186920166015625
1726225568729967400,2.18696728515625,-0.8167266845703125,-0.7100982666015625,-0.0169525146484375
1726225568740003300,2.19700341796875,-0.5986175537109375,-0.929443359375,-0.0714111328125
1726225568750040300,2.207040283203125,-0.4805145263671875,-0.83544921875,-0.110321044921875
1726225568760076300,2.217076171875,-0.3893280029296875,-0.6472015380859375,-0.0372314453125
1726225568770112300,2.2271123046875,-0.2305908203125,-0.821197509765625,0.00439453125
1726225568780149500,2.2371494140625,-0.470306396484375,-0.9462432861328125,-0.016143798828125
1726225568790185500,2.247185546875,-0.693634033203125,-0.75006103515625,0.0298309326171875
1726225568800221400,2.257221435546875,-0.808746337890625,-0.8702850341796875,-0.0127716064453125
1726225568810257400,2.26725732421875,-0.88739013671875,-1.095062255859375,-0.0371856689453125
1726225568820294400,2.27729443359375,-0.8458251953125,-0.94921875,0.011016845703125
1726225568830330400,2.287330322265625,-0.763580322265625,-0.798614501953125,0.03363037109375
1726225568840366300,2.297366455078125,-0.5645294189453125,-0.7297210693359375,-0.03143310546875
1726225568850403300,2.3074033203125,-0.3104705810546875,-0.836822509765625,0.02203369140625
1726225568860439300,2.317439208984375,-0.2700042724609375,-0.957916259765625,-0.0242767333984375
1726225568870475300,2.327475341796875,-0.53057861328125,-0.7449951171875,-0.0205535888671875
1726225568880512300,2.33751220703125,-0.765106201171875,-0.6246337890625,0.01556396484375
1726225568890548200,2.34754833984375,-0.787353515625,-0.9149169921875,0.09063720703125
1726225568900584400,2.35758447265625,-0.8386383056640625,-1.0440673828125,0.0777740478515625
1726225568910620400,2.367620361328125,-0.7266845703125,-0.8822784423828125,0.0156707763671875
1726225568920657400,2.377657470703125,-0.563995361328125,-0.87396240234375,0.0960235595703125
1726225568930693400,2.387693359375,-0.361236572265625,-0.8186798095703125,0.1072998046875
1726225568940729300,2.397729248046875,-0.2594757080078125,-0.839019775390625,0.075592041015625
1726225568950766300,2.407766357421875,-0.4222869873046875,-0.71240234375,0.1645660400390625
1726225568960802300,2.41780224609375,-0.411163330078125,-0.481292724609375,0.12640380859375
1726225568970838300,2.42783837890625,-0.0381927490234375,-0.836334228515625,0.0849761962890625
1726225568980875300,2.437875244140625,-0.008758544921875,-1.0501251220703125,0.0738372802734375
1726225568990911200,2.4479111328125,-0.38018798828125,-0.716156005859375,0.094024658203125
1726225569000947200,2.457947265625,-0.45086669921875,-0.643463134765625,0.037750244140625
1726225569010983200,2.467983154296875,-0.600250244140625,-1.0207061767578125,0.085357666015625
1726225569021020400,2.4780205078125,-0.7744293212890625,-1.159515380859375,0.0900115966796875
1726225569031056400,2.488056396484375,-0.8925628662109375,-0.91558837890625,0.08978271484375
1726225569041092400,2.49809228515625,-0.8144989013671875,-0.8328399658203125,0.040008544921875
1726225569051129300,2.50812939453125,-0.570068359375,-0.8671722412109375,0.02801513671875
1726225569061165300,2.518165283203125,-0.356292724609375,-0.878631591796875,0.070587158203125
1726225569071201300,2.528201171875,-0.134063720703125,-0.7440338134765625,-0.00030517578125
1726225569081238300,2.53823828125,-0.2418365478515625,-0.6629791259765625,0.0104522705078125
1726225569091274200,2.548274169921875,-0.223876953125,-0.7443084716796875,0.0352783203125
1726225569101310200,2.558310302734375,-0.4048614501953125,-0.9836883544921875,0.00396728515625
1726225569111346200,2.56834619140625,-0.63818359375,-0.8197479248046875,-0.0466766357421875
1726225569121383400,2.578383544921875,-0.79144287109375,-0.8500518798828125,-0.0217437744140625
1726225569131419400,2.58841943359375,-0.8683013916015625,-1.00299072265625,-0.0157470703125
1726225569141455400,2.598455322265625,-1.010040283203125,-0.93646240234375,-0.0342864990234375
1726225569151492400,2.608492431640625,-0.3139801025390625,-0.880462646484375,-0.177703857421875
1726225569161528300,2.6185283203125,-0.20281982421875,-0.8744659423828125,-0.12353515625
1726225569171564300,2.628564208984375,-0.0361175537109375,-0.76397705078125,-0.0702056884765625
1726225569181601300,2.638601318359375,-0.1441650390625,-0.8489532470703125,-0.0089874267578125
1726225569191637200,2.64863720703125,-0.3083343505859375,-0.7938690185546875,0.0308685302734375
1726225569201677600,2.658677490234375,-0.7704010009765625,-0.8178863525390625,0.108856201171875
1726225569211713500,2.668713623046875,-1.1333770751953125,-0.9380645751953125,0.0297393798828125
1726225569221750800,2.678750732421875,-1.2863616943359375,-1.0490264892578125,0.0650787353515625
1726225569231786800,2.688786865234375,-0.98944091796875,-0.97540283203125,0.048126220703125
1726225569241822700,2.69882275390625,-0.60955810546875,-0.9518890380859375,-0.07794189453125
1726225569251859700,2.708859619140625,-0.3757476806640625,-0.930999755859375,-0.1064605712890625
1726225569261895700,2.718895751953125,-0.1455535888671875,-0.7381744384765625,-0.090423583984375
1726225569271931600,2.728931640625,-0.301422119140625,-0.6730499267578125,-0.022857666015625
1726225569281968600,2.73896875,-0.4601898193359375,-0.629974365234375,0.064727783203125
1726225569292004600,2.749004638671875,-0.7771453857421875,-0.783843994140625,0.1188201904296875
1726225569302040600,2.75904052734375,-0.9914703369140625,-0.7803802490234375,0.1464385986328125
1726225569312076500,2.76907666015625,-0.8984375,-0.728851318359375,0.1556854248046875
1726225569322113800,2.77911376953125,-0.707000732421875,-0.8477630615234375,0.2264251708984375
1726225569332149800,2.789149658203125,-0.5940704345703125,-0.8613128662109375,0.2106170654296875
1726225569342185700,2.799185791015625,-0.560394287109375,-0.6735076904296875,0.131134033203125
1726225569352222700,2.80922265625,-0.4627838134765625,-0.5185394287109375,0.2266082763671875
1726225569362258700,2.8192587890625,-0.2196807861328125,-0.7866058349609375,0.2068328857421875
1726225569372294700,2.829294677734375,-0.3470916748046875,-0.9683380126953125,0.1226348876953125
1726225569382331600,2.83933154296875,-0.549468994140625,-0.717132568359375,0.1991119384765625
1726225569392367600,2.84936767578125,-0.7651824951171875,-0.722412109375,0.1260833740234375
1726225569402403600,2.859403564453125,-0.85736083984375,-0.9671478271484375,0.059051513671875
1726225569412439600,2.869439453125,-0.7093505859375,-1.035858154296875,0.0308837890625
1726225569422476500,2.8794765625,-0.7198944091796875,-0.886016845703125,-0.0041656494140625
1726225569432512500,2.889512451171875,-0.7144927978515625,-0.6391754150390625,0.0023345947265625
1726225569442548700,2.899548828125,-0.54986572265625,-0.753631591796875,0.024658203125
1726225569452585700,2.909585693359375,-0.333251953125,-0.9313507080078125,-0.0003204345703125
1726225569462621700,2.91962158203125,-0.4862060546875,-0.7363433837890625,0.0476531982421875
1726225569472657700,2.92965771484375,-0.60089111328125,-0.61920166015625,0.08172607421875
1726225569482694700,2.939694580078125,-0.5140380859375,-0.94989013671875,0.1177978515625
1726225569492730600,2.949730712890625,-0.6522369384765625,-1.0450286865234375,0.0789031982421875
1726225569502766600,2.9597666015625,-0.6156768798828125,-0.8830413818359375,0.0709075927734375
1726225569512802600,2.969802490234375,-0.651397705078125,-1.0452880859375,0.019134521484375
1726225569522839600,2.979839599609375,-0.6142730712890625,-0.8384857177734375,0.082366943359375
1726225569532875500,2.98987548828125,-0.4759674072265625,-0.66229248046875,0.076934814453125
1726225569542911500,2.999911376953125,-0.3612213134765625,-0.82275390625,0.046600341796875
1726225569552948700,3.00994873046875,0.0744171142578125,-0.9933013916015625,0.0155792236328125
1726225569562984700,3.019984619140625,-0.2039337158203125,-0.9271240234375,0.0757598876953125
1726225569573020700,3.030020751953125,-0.4788665771484375,-0.6514129638671875,0.1616973876953125
1726225569583057700,3.0400576171875,-0.6114044189453125,-0.900909423828125,0.144195556640625
1726225569593093600,3.05009375,-0.8469390869140625,-1.1431884765625,0.11834716796875
1726225569603129600,3.060129638671875,-0.889984130859375,-1.111724853515625,0.1084442138671875
1726225569613165600,3.07016552734375,-0.8879241943359375,-1.006072998046875,0.04901123046875
1726225569623202600,3.08020263671875,-0.7445068359375,-0.836181640625,0.1069488525390625
1726225569633238500,3.090238525390625,-0.364776611328125,-0.6954498291015625,0.1353759765625
1726225569643274500,3.1002744140625,-0.0089111328125,-0.8786773681640625,0.077423095703125
1726225569653311700,3.110311767578125,0.0402374267578125,-0.8120880126953125,0.1020355224609375
1726225569663347700,3.12034765625,-0.2757568359375,-0.714599609375,0.1904754638671875
1726225569673383700,3.1303837890625,-0.50885009765625,-0.85589599609375,0.0829010009765625
1726225569683420700,3.140420654296875,-0.789276123046875,-1.0326080322265625,0.0883026123046875
1726225569693456600,3.15045654296875,-0.89208984375,-1.0023345947265625,0.1273193359375
1726225569703492600,3.16049267578125,-0.814178466796875,-0.9852142333984375,0.0120697021484375
1726225569713529600,3.170529541015625,-0.7221221923828125,-0.8793182373046875,0.0557861328125
1726225569723565600,3.180565673828125,-0.5281982421875,-0.7425994873046875,0.1145477294921875
1726225569733601500,3.1906015625,-0.2618255615234375,-0.933441162109375,0.0745697021484375
1726225569743637500,3.200637451171875,0.0615234375,-0.8654327392578125,0.0636444091796875
1726225569753674800,3.2106748046875,-0.1062164306640625,-0.663818359375,0.166259765625
1726225569763710700,3.220710693359375,-0.1173248291015625,-0.721923828125,0.0944061279296875
1726225569773746700,3.23074658203125,-0.4111785888671875,-0.921478271484375,-0.0107574462890625
1726225569783783700,3.24078369140625,-0.6765899658203125,-0.7577667236328125,0.001220703125
1726225569793819600,3.250819580078125,-0.920196533203125,-0.8837890625,-0.0049896240234375
1726225569803855600,3.260855712890625,-0.9581298828125,-0.90606689453125,-0.081573486328125
1726225569813892600,3.270892578125,-0.79559326171875,-0.824127197265625,0.008270263671875
1726225569823928600,3.280928466796875,-0.56304931640625,-0.92779541015625,0.00762939453125
1726225569833964500,3.290964599609375,-0.2801513671875,-0.873626708984375,0.034759521484375
1726225569844000500,3.30100048828125,-0.4039764404296875,-0.708282470703125,0.1392059326171875
1726225569854037500,3.31103759765625,-0.283905029296875,-0.725341796875,0.0438995361328125
1726225569864073700,3.32107373046875,-0.5551605224609375,-0.8889617919921875,0.0583038330078125
1726225569874109700,3.331109619140625,-0.66851806640625,-0.65386962890625,0.0038909912109375
1726225569884146700,3.341146728515625,-0.6731109619140625,-0.82977294921875,-0.0347137451171875
1726225569894182700,3.3511826171875,-0.7550201416015625,-0.9251861572265625,-0.0352630615234375
1726225569904218600,3.361218505859375,-0.8212432861328125,-0.64422607421875,-0.1281280517578125
1726225569914255600,3.371255615234375,-0.71258544921875,-0.5728302001953125,-0.0551605224609375
1726225569924291600,3.38129150390625,-0.3402557373046875,-0.88934326171875,-0.0373077392578125
1726225569934327600,3.39132763671875,0.044952392578125,-0.82989501953125,-0.068878173828125
1726225569944364500,3.401364501953125,-0.08319091796875,-0.62451171875,0.05975341796875
1726225569954400500,3.411400390625,-0.4259796142578125,-0.647186279296875,0.0945587158203125
1726225569964436500,3.4214365234375,-0.9266510009765625,-0.92437744140625,0.0137786865234375
1726225569974472400,3.431472412109375,-1.3231658935546875,-0.9453125,0.1618804931640625
1726225569984509700,3.441509765625,-1.3136749267578125,-0.9780731201171875,0.051239013671875
1726225569994545700,3.451545654296875,-1.1674957275390625,-0.8426971435546875,-0.0277099609375
1726225570004581600,3.46158154296875,-0.66082763671875,-0.7336578369140625,0.0333251953125
1726225570014618600,3.47161865234375,-0.15447998046875,-0.914825439453125,-0.04656982421875
1726225570024654600,3.481654541015625,0.0390472412109375,-0.8328094482421875,-0.0115814208984375
1726225570034690600,3.491690673828125,-0.2347259521484375,-0.683929443359375,0.1068267822265625
1726225570044727600,3.5017275390625,-0.3702545166015625,-0.8068084716796875,0.042205810546875
1726225570054763500,3.511763427734375,-0.9445343017578125,-1.1210479736328125,0.069244384765625
1726225570064799500,3.521799560546875,-1.2352752685546875,-0.875823974609375,0.1224517822265625
1726225570074835500,3.53183544921875,-1.0624847412109375,-0.934478759765625,0.0439605712890625
1726225570084872700,3.541872802734375,-0.81524658203125,-0.965728759765625,0.0482940673828125
1726225570094908700,3.55190869140625,-0.634246826171875,-0.846038818359375,-0.04107666015625
1726225570104944600,3.561944580078125,-0.3733978271484375,-0.5904693603515625,-0.033233642578125
1726225570114981600,3.571981689453125,-0.094757080078125,-0.7665863037109375,0.01513671875
1726225570125017600,3.582017578125,0.152496337890625,-0.809051513671875,-0.0019378662109375
1726225570135053600,3.592053466796875,-0.2679901123046875,-0.6200103759765625,0.0410919189453125
1726225570145090600,3.602090576171875,-0.41851806640625,-0.6542205810546875,-0.015716552734375
1726225570155126500,3.61212646484375,-0.91448974609375,-0.9231414794921875,0.0045928955078125
1726225570165162500,3.62216259765625,-1.2781524658203125,-0.9824676513671875,0.0511474609375
1726225570175199700,3.63219970703125,-1.154327392578125,-1.1193084716796875,0.0329132080078125
1726225570185235700,3.642235595703125,-0.9572296142578125,-1.0459747314453125,0.050201416015625
1726225570195271700,3.652271728515625,-0.6389007568359375,-0.7532501220703125,0.0303497314453125
1726225570205307400,3.662307373046875,-0.1334991455078125,-0.7317352294921875,0.035919189453125
1726225570215344400,3.672344482421875,-0.291900634765625,-0.848052978515625,0.0956573486328125
1726225570225380400,3.68238037109375,-0.2838287353515625,-0.67724609375,0.0790557861328125
1726225570235416300,3.692416259765625,-0.503082275390625,-0.82025146484375,0.152374267578125
1726225570245453300,3.702453369140625,-0.604278564453125,-0.972991943359375,0.1458892822265625
1726225570255489500,3.712489501953125,-0.6230010986328125,-0.84320068359375,0.118927001953125
1726225570265525500,3.722525390625,-0.5054931640625,-0.8312225341796875,0.1295623779296875
1726225570275562500,3.7325625,-0.4645233154296875,-0.94659423828125,0.0697174072265625
1726225570285598500,3.742598388671875,-0.5889892578125,-0.7894287109375,0.0735931396484375
1726225570295634400,3.752634521484375,-0.3148345947265625,-0.6068267822265625,0.0142669677734375
1726225570305670400,3.76267041015625,0.147186279296875,-0.9086151123046875,0.05267333984375
1726225570315707400,3.772707275390625,-0.052886962890625,-0.9383087158203125,0.080322265625
1726225570325743400,3.782743408203125,-0.1692047119140625,-0.86993408203125,0.0825958251953125
1726225570335779300,3.792779296875,-0.4772491455078125,-0.993865966796875,0.1007232666015625
1726225570345816300,3.80281640625,-0.746795654296875,-0.954681396484375,0.0774688720703125
1726225570355852300,3.812852294921875,-0.9173736572265625,-0.968231201171875,0.00323486328125
1726225570365888300,3.82288818359375,-0.91033935546875,-0.902069091796875,0.0653076171875
1726225570375925500,3.832925537109375,-0.7269287109375,-0.68914794921875,-0.02398681640625
1726225570385961500,3.84296142578125,-0.2874908447265625,-0.901214599609375,-0.022857666015625
1726225570395997400,3.85299755859375,-0.327850341796875,-1.140899658203125,0.07537841796875
1726225570406034400,3.863034423828125,-0.473175048828125,-0.7291412353515625,-0.039947509765625
1726225570416070400,3.8730703125,-0.556060791015625,-0.6927642822265625,-0.156646728515625
1726225570426106400,3.8831064453125,-0.6773529052734375,-0.9919586181640625,-0.02996826171875
1726225570436142300,3.893142333984375,-0.7190399169921875,-0.9259796142578125,-0.019775390625
1726225570446179300,3.903179443359375,-0.749359130859375,-0.7550506591796875,-0.0614013671875
1726225570456215300,3.91321533203125,-0.7847137451171875,-0.7523193359375,0.0361480712890625
1726225570466251300,3.923251220703125,-0.7389678955078125,-0.671142578125,0.009918212890625
1726225570476288500,3.93328857421875,-0.432769775390625,-0.7431793212890625,-0.09283447265625
1726225570486324500,3.943324462890625,-0.0212554931640625,-0.875091552734375,0.033416748046875
1726225570496360400,3.9533603515625,-0.30633544921875,-0.615692138671875,0.1013641357421875
1726225570506397400,3.9633974609375,-0.2950897216796875,-0.6800537109375,0.16424560546875
1726225570516433400,3.973433349609375,-0.5978851318359375,-1.0154876708984375,0.202667236328125
1726225570526469400,3.983469482421875,-1.0132598876953125,-0.8586273193359375,0.2339019775390625
1726225570536505300,3.99350537109375,-1.11688232421875,-0.800384521484375,0.152862548828125
1726225570546542300,4.003542236328125,-0.8220062255859375,-0.92889404296875,0.109619140625
1726225570556578300,4.013578369140625,-0.5709686279296875,-1.0505828857421875,0.106109619140625
1726225570566614300,4.0236142578125,-0.459869384765625,-0.8155517578125,-0.086456298828125
1726225570576651500,4.033651611328125,-0.0040283203125,-0.61181640625,-0.0465850830078125
1726225570586687500,4.0436875,-0.1235809326171875,-0.7407379150390625,0.072113037109375
1726225570596723500,4.053723388671875,-0.4227447509765625,-0.6263427734375,-0.0098724365234375
1726225570606760400,4.063760498046875,-0.8988037109375,-0.681488037109375,0.09100341796875
1726225570616796400,4.07379638671875,-1.20574951171875,-0.87725830078125,0.08551025390625
1726225570626832400,4.083832275390625,-1.2062530517578125,-1.01190185546875,0.053955078125
1726225570636869400,4.093869384765625,-0.9916839599609375,-1.048858642578125,0.0794525146484375
1726225570646905300,4.1039052734375,-0.78692626953125,-0.8742828369140625,0.020904541015625
1726225570656941300,4.11394140625,-0.400970458984375,-0.643218994140625,0.035064697265625
1726225570666977300,4.123977294921875,0.1482086181640625,-0.829071044921875,0.0927734375
1726225570677014300,4.13401416015625,0.04351806640625,-0.8159942626953125,0.1243896484375
1726225570687050500,4.144050537109375,-0.1526641845703125,-0.5351409912109375,0.1664886474609375
1726225570697086500,4.15408642578125,-0.5643157958984375,-0.7688140869140625,0.1999664306640625
1726225570707123500,4.16412353515625,-0.8529510498046875,-1.0661468505859375,0.1787109375
1726225570717159400,4.174159423828125,-1.0535430908203125,-1.019866943359375,0.136810302734375
1726225570727195400,4.1841953125,-0.979522705078125,-0.924560546875,0.083038330078125
1726225570737232400,4.194232421875,-0.733001708984375,-0.8670501708984375,0.0554656982421875
1726225570747268400,4.204268310546875,-0.38372802734375,-0.9467315673828125,0.118499755859375
1726225570757304300,4.21430419921875,-0.28173828125,-0.978790283203125,0.2096405029296875
1726225570767340500,4.224340576171875,-0.39227294921875,-0.78985595703125,0.1319122314453125
1726225570777377300,4.234377197265625,-0.642333984375,-0.7464447021484375,0.1600341796875
1726225570787413200,4.244413330078125,-0.643890380859375,-0.8227081298828125,0.1247100830078125
1726225570797449500,4.254449462890625,-0.569488525390625,-0.9270477294921875,0.0716705322265625
1726225570807486500,4.264486572265625,-0.4759674072265625,-0.791717529296875,0.025543212890625
1726225570817522400,4.2745224609375,-0.4122772216796875,-0.7462310791015625,0.1341705322265625
1726225570827558400,4.284558349609375,-0.494720458984375,-0.844268798828125,0.0410003662109375
1726225570837595400,4.294595458984375,-0.427398681640625,-0.6685791015625,0.0606536865234375
1726225570847631400,4.30463134765625,-0.221221923828125,-0.8567352294921875,0.10638427734375
1726225570857667300,4.314667236328125,-0.3421478271484375,-1.03961181640625,0.0534820556640625
1726225570867704300,4.324704345703125,-0.4207611083984375,-0.81927490234375,0.170806884765625
1726225570877740300,4.334740234375,-0.55023193359375,-0.9104461669921875,0.1712188720703125
1726225570887776300,4.3447763671875,-0.6521148681640625,-1.0616302490234375,0.141510009765625
1726225570897812500,4.3548125,-0.7303009033203125,-0.8374481201171875,0.1341400146484375
1726225570907849500,4.364849365234375,-0.75341796875,-0.802764892578125,0.11700439453125
1726225570917885400,4.374885498046875,-0.843170166015625,-0.71270751953125,0.090484619140625
1726225570927921400,4.38492138671875,-0.4795379638671875,-0.476470947265625,0.022369384765625
1726225570937958400,4.39495849609375,-0.1536407470703125,-0.9443511962890625,0.038482666015625
1726225570947994400,4.404994384765625,-0.1685791015625,-1.028533935546875,-0.0272979736328125
1726225570958030300,4.4150302734375,-0.3867034912109375,-0.7733612060546875,0.0560455322265625
1726225570968067300,4.4250673828125,-0.5350799560546875,-0.7873992919921875,0.0520477294921875
1726225570978103300,4.435103271484375,-0.69964599609375,-1.0884246826171875,0.068756103515625
1726225570988139300,4.44513916015625,-0.7895355224609375,-0.9832763671875,0.1042327880859375
1726225570998176500,4.455176513671875,-0.8759307861328125,-0.77215576171875,0.0205841064453125
1726225571008212500,4.46521240234375,-0.8180999755859375,-0.6420745849609375,0.085357666015625
1726225571018248400,4.47524853515625,-0.2242431640625,-0.76849365234375,0.074951171875
1726225571028284700,4.48528466796875,-0.0175628662109375,-1.0764617919921875,0.0193634033203125
1726225571038321400,4.4953212890625,-0.3742523193359375,-0.69390869140625,0.1312103271484375
1726225571048357400,4.505357421875,-0.5237579345703125,-0.6152801513671875,0.112823486328125
1726225571058393600,4.5153935546875,-0.799835205078125,-1.0366058349609375,0.120361328125
1726225571068430300,4.525430419921875,-1.0364227294921875,-1.0885162353515625,0.1347198486328125
1726225571078466300,4.53546630859375,-1.031768798828125,-0.7969207763671875,0.0543212890625
1726225571088502500,4.54550244140625,-0.6804962158203125,-0.8042755126953125,0.0553436279296875
1726225571098539300,4.555539306640625,-0.37017822265625,-1.020721435546875,0.064544677734375
1726225571108575500,4.565575439453125,0.0364227294921875,-0.822784423828125,-0.02191162109375
1726225571118611500,4.575611572265625,-0.0272369384765625,-0.5521087646484375,0.020477294921875
1726225571128648400,4.5856484375,-0.28411865234375,-0.483673095703125,-0.0708465576171875
1726225571138684400,4.595684326171875,-0.7652587890625,-0.789642333984375,-0.022216796875
1726225571148720400,4.605720458984375,-1.266082763671875,-0.7750091552734375,0.042999267578125
1726225571158756600,4.615756591796875,-1.2845458984375,-0.770843505859375,-0.048736572265625
1726225571168793300,4.62579345703125,-1.0223846435546875,-0.850067138671875,-0.0142669677734375
1726225571178829300,4.635829345703125,-0.7659912109375,-1.00592041015625,-0.0806732177734375
1726225571188865500,4.645865478515625,-0.446197509765625,-0.7193603515625,-0.0450286865234375
1726225571198902300,4.65590234375,0.011016845703125,-0.6689605712890625,0.03997802734375
1726225571208938800,4.665938720703125,-0.0434112548828125,-0.7173614501953125,0.029296875
1726225571218974700,4.675974609375,-0.16192626953125,-0.702789306640625,0.0116119384765625
1726225571229011700,4.68601171875,-0.5160369873046875,-0.7349700927734375,0.1399383544921875
1726225571239047700,4.696047607421875,-0.74786376953125,-0.8057861328125,0.0581207275390625
1726225571249083600,4.706083740234375,-0.842987060546875,-0.9812164306640625,0.16546630859375
1726225571259120600,4.71612060546875,-0.89715576171875,-0.91510009765625,0.146484375
1726225571269156600,4.726156494140625,-0.974395751953125,-0.8429412841796875,0.0404205322265625
1726225571279192600,4.736192626953125,-0.67608642578125,-1.090972900390625,0.0813751220703125
1726225571289228800,4.746228759765625,-0.5418243408203125,-1.2184600830078125,0.1908721923828125
1726225571299265500,4.756265625,-0.235107421875,-0.74029541015625,0.0058135986328125
1726225571309301500,4.766301513671875,-0.4691925048828125,-0.60809326171875,0.058319091796875
1726225571319337700,4.776337646484375,-0.5272979736328125,-0.7693634033203125,0.091705322265625
1726225571329374700,4.786374755859375,-0.4968414306640625,-0.9670257568359375,0.1173858642578125
1726225571339410700,4.79641064453125,-0.5692138671875,-0.8231201171875,0.1082763671875
1726225571349446700,4.80644677734375,-0.702880859375,-0.64080810546875,0.0694732666015625
1726225571359483600,4.816483642578125,-0.7241363525390625,-0.7738189697265625,0.0528564453125
1726225571369519600,4.82651953125,-0.497222900390625,-0.8284912109375,0.0444183349609375
1726225571379555600,4.8365556640625,-0.112091064453125,-0.867218017578125,-0.05291748046875
1726225571389592600,4.846592529296875,-0.2509765625,-0.7984161376953125,-0.0515594482421875
1726225571399628500,4.856628662109375,-0.362060546875,-0.6982574462890625,-0.0939788818359375
1726225571409664500,4.86666455078125,-0.5057830810546875,-0.8269195556640625,-0.095947265625
1726225571419701800,4.87670166015625,-0.6357421875,-0.83477783203125,-0.094696044921875
1726225571429737700,4.88673779296875,-0.7225189208984375,-0.8145751953125,-0.0947723388671875
1726225571439773700,4.896773681640625,-0.76129150390625,-0.8985443115234375,-0.00640869140625
1726225571449809700,4.9068095703125,-0.67431640625,-0.73712158203125,-0.0191497802734375
1726225571459846700,4.9168466796875,-0.4387359619140625,-0.694610595703125,0.1020965576171875
1726225571469882600,4.926882568359375,-0.314971923828125,-0.8406219482421875,0.1324615478515625
1726225571479918600,4.936918701171875,-0.3012237548828125,-0.77032470703125,-0.054473876953125
1726225571489955600,4.94695556640625,-0.33233642578125,-0.882110595703125,-0.0621795654296875
1726225571499991600,4.956991455078125,-0.673492431640625,-0.9090576171875,-0.0525970458984375
1726225571510027500,4.967027587890625,-0.7873077392578125,-0.79974365234375,-0.1674346923828125
1726225571520064800,4.977064697265625,-0.766326904296875,-0.973876953125,-0.0916900634765625
1726225571530100700,4.987100830078125,-0.8099822998046875,-0.8532562255859375,-0.0644683837890625
1726225571540136700,4.99713671875,-0.7996826171875,-0.5716705322265625,-0.078948974609375
1726225571550173700,5.007173583984375,-0.349395751953125,-0.7108612060546875,0.05572509765625
1726225571560209700,5.017209716796875,0.0661468505859375,-0.9025115966796875,0.1114349365234375
1726225571570245600,5.02724560546875,-0.4100341796875,-0.7168426513671875,-0.039794921875
1726225571580281900,5.03728173828125,-0.21282958984375,-0.7089385986328125,0.028961181640625
1726225571590318600,5.047318603515625,-1.241790771484375,-1.1561279296875,0.092254638671875
1726225571600354600,5.0573544921875,-1.0807037353515625,-0.9700775146484375,-0.0934906005859375
1726225571610390800,5.067390869140625,-1.864532470703125,-1.102996826171875,0.1706695556640625
1726225571620427500,5.077427490234375,-1.781707763671875,-0.7955474853515625,0.19635009765625
1726225571630463500,5.08746337890625,-0.5483551025390625,-1.07672119140625,-0.0532073974609375
1726225571640499700,5.097499755859375,-0.15863037109375,-1.04052734375,0.1434326171875
1726225571650536700,5.10753662109375,-0.2664031982421875,-0.5712738037109375,0.17108154296875
1726225571660572700,5.11757275390625,0.4300994873046875,-0.550994873046875,0.0663604736328125
1726225571670608600,5.127608642578125,0.618682861328125,-0.8588714599609375,0.1115875244140625
1726225571680645600,5.137645751953125,-0.3246002197265625,-0.6851959228515625,0.163177490234375
1726225571690681600,5.147681640625,-0.9249114990234375,-0.592376708984375,0.1216583251953125
1726225571700717600,5.157717529296875,-1.4075927734375,-1.032135009765625,0.072265625
1726225571710754600,5.167754638671875,-1.458587646484375,-1.1078643798828125,-0.01007080078125
1726225571720790500,5.17779052734375,-0.816864013671875,-0.9793243408203125,-0.0770721435546875
1726225571730826500,5.187826416015625,-0.2418365478515625,-0.7855682373046875,-0.057281494140625
1726225571740862700,5.19786279296875,-0.0255126953125,-0.648681640625,-0.1277618408203125
1726225571750899700,5.207899658203125,-0.075714111328125,-0.468017578125,-0.0296173095703125
1726225571760935700,5.217935791015625,-0.24102783203125,-0.69952392578125,0.1236724853515625
1726225571770971600,5.2279716796875,-0.6753387451171875,-0.7425689697265625,0.10247802734375
1726225571781008600,5.238008544921875,-1.0890655517578125,-0.767486572265625,0.1015472412109375
1726225571791044600,5.248044677734375,-1.0738677978515625,-0.8927001953125,0.0207061767578125
1726225571801080600,5.25808056640625,-0.87103271484375,-0.9618072509765625,-0.0315093994140625
1726225571811117600,5.26811767578125,-0.800262451171875,-0.849517822265625,0.0044708251953125
1726225571821153500,5.278153564453125,-0.5558013916015625,-0.8981475830078125,-0.089141845703125
1726225571831189800,5.288189697265625,-0.795501708984375,-0.80865478515625,-0.0262298583984375
1726225571841226800,5.298226806640625,-0.200836181640625,-0.7708587646484375,0.109649658203125
1726225571851262700,5.3082626953125,-0.34527587890625,-1.0925140380859375,0.1397705078125
1726225571861298700,5.318298583984375,-0.5208892822265625,-0.7175140380859375,0.058441162109375
1726225571871335700,5.328335693359375,-0.384674072265625,-0.621734619140625,0.1023101806640625
1726225571881371600,5.33837158203125,-0.64007568359375,-0.87103271484375,0.1846923828125
1726225571891407600,5.34840771484375,-0.5171966552734375,-0.7292938232421875,-0.026031494140625
1726225571901443800,5.35844384765625,-0.4439239501953125,-0.897613525390625,-0.011505126953125
1726225571911480600,5.36848046875,-0.789337158203125,-1.0172271728515625,0.058197021484375
1726225571921516500,5.3785166015625,-0.2137451171875,-1.0408782958984375,0.047821044921875
1726225571931552800,5.388552734375,-0.5550537109375,-1.416412353515625,-0.0167083740234375
1726225571941589800,5.39858984375,-0.49749755859375,-0.8845672607421875,0.0010986328125
1726225571951625700,5.408625732421875,0.0555419921875,-1.028472900390625,0.1734619140625
1726225571961661700,5.41866162109375,-0.1213531494140625,-1.0260162353515625,0.174041748046875
1726225571971698700,5.42869873046875,-0.1380615234375,-0.32769775390625,0.09307861328125
1726225571981734700,5.438734619140625,-0.3763275146484375,-0.463470458984375,0.154815673828125
1726225571991770600,5.4487705078125,-1.1268463134765625,-0.7481842041015625,0.1900787353515625
1726225572001807600,5.4588076171875,-1.3718719482421875,-0.97332763671875,0.357147216796875
1726225572011843600,5.468843505859375,-1.308746337890625,-1.2811279296875,0.150360107421875
1726225572021879600,5.478879638671875,-0.6939849853515625,-1.5348663330078125,0.0415191650390625
1726225572031915800,5.488915771484375,-0.2661285400390625,-0.8702392578125,0.137420654296875
1726225572041952500,5.498952392578125,0.185821533203125,-0.5594024658203125,0.2068939208984375
1726225572051988500,5.508988525390625,0.36053466796875,-0.563018798828125,0.238739013671875
1726225572062024700,5.519024658203125,0.0069732666015625,-0.46783447265625,0.2400054931640625
1726225572072061700,5.529061767578125,-0.9460296630859375,-0.6513824462890625,0.2021942138671875
1726225572082097700,5.53909765625,-1.1528778076171875,-0.9324188232421875,0.2392578125
1726225572092134000,5.5491337890625,-0.86126708984375,-1.000579833984375,0.0195465087890625
1726225572102170600,5.559170654296875,-0.649169921875,-1.0073699951171875,0.038848876953125
1726225572112206600,5.56920654296875,-0.1670379638671875,-1.124603271484375,0.281402587890625
1726225572122242800,5.579242919921875,-0.3671722412109375,-0.8748626708984375,0.1396942138671875
1726225572132279600,5.589279541015625,0.03314208984375,-0.4271087646484375,0.00494384765625
1726225572142315500,5.5993154296875,-0.0055084228515625,-0.6397247314453125,0.0845184326171875
1726225572152351700,5.609351806640625,-0.9468994140625,-0.7880859375,0.1737823486328125
1726225572162387700,5.6193876953125,-1.178192138671875,-0.7122344970703125,0.2309722900390625
1726225572172424700,5.6294248046875,-0.9242095947265625,-0.8422393798828125,0.042022705078125
1726225572182460700,5.639460693359375,-0.9535675048828125,-0.9560699462890625,0.1704864501953125
1726225572192497000,5.649496826171875,-0.547821044921875,-1.1258544921875,0.2184600830078125
1726225572202533600,5.65953369140625,-0.07940673828125,-0.8928070068359375,-0.1273040771484375
1726225572212569600,5.669569580078125,-0.4486541748046875,-0.5585784912109375,-0.0087127685546875
1726225572222605600,5.67960546875,-0.368377685546875,-0.5379791259765625,0.040985107421875
1726225572232642300,5.689642333984375,-0.8503570556640625,-1.0443572998046875,0.04559326171875
1726225572242678500,5.699678466796875,-0.988006591796875,-0.564056396484375,0.2648773193359375
1726225572252714500,5.709714599609375,-0.92132568359375,-0.673614501953125,0.145538330078125
1726225572262751500,5.71975146484375,-0.58709716796875,-1.157928466796875,0.090484619140625
1726225572272787500,5.729787353515625,-0.719512939453125,-1.1430816650390625,0.14385986328125
1726225572282823700,5.73982373046875,-0.548004150390625,-0.620880126953125,-0.02154541015625
1726225572292860400,5.7498603515625,-0.05853271484375,-0.5303802490234375,-0.0692138671875
1726225572302896400,5.759896484375,0.191619873046875,-0.7959747314453125,-0.122711181640625
1726225572312932600,5.7699326171875,-0.3386688232421875,-0.6584320068359375,0.1633758544921875
1726225572322968600,5.779968505859375,-1.2946319580078125,-0.209259033203125,0.334930419921875
1726225572333005300,5.79000537109375,-0.757049560546875,-0.716156005859375,0.2479248046875
1726225572343041500,5.80004150390625,-0.365997314453125,-1.300262451171875,0.27349853515625
1726225572353077500,5.810077392578125,-0.786041259765625,-0.929931640625,0.187591552734375
1726225572363114200,5.8201142578125,-0.967041015625,-0.4850006103515625,0.1561126708984375
1726225572373150500,5.830150390625,-0.331817626953125,-0.85504150390625,0.14739990234375
1726225572383186700,5.840186767578125,-0.599029541015625,-0.9555511474609375,-0.104248046875
1726225572393223400,5.850223388671875,-0.8063507080078125,-0.667144775390625,-0.00103759765625
1726225572403259400,5.86025927734375,-1.1041107177734375,-0.613861083984375,0.0821533203125
1726225572413295600,5.870295654296875,-0.5130767822265625,-0.9752655029296875,0.13983154296875
1726225572423332400,5.880332275390625,-0.449310302734375,-0.8267059326171875,0.0974884033203125
1726225572433368300,5.890368408203125,-0.3261871337890625,-0.80218505859375,-0.0299072265625
1726225572443404500,5.900404541015625,-0.3701171875,-0.8740081787109375,0.015625
1726225572453441300,5.910441162109375,-0.3815155029296875,-0.7681121826171875,-0.011749267578125
1726225572463477200,5.920477294921875,-0.53131103515625,-0.49005126953125,0.0095977783203125
1726225572473513500,5.930513427734375,-0.3693084716796875,-0.9595489501953125,-0.0356903076171875
1726225572483550500,5.940550537109375,-1.14239501953125,-1.17864990234375,-0.0191192626953125
1726225572493586400,5.95058642578125,-0.78265380859375,-0.768524169921875,0.2329559326171875
1726225572503622700,5.96062255859375,-0.570770263671875,-0.8853607177734375,-0.0366058349609375
1726225572513658600,5.97065869140625,-0.386962890625,-0.996795654296875,-0.1011810302734375
1726225572523695400,5.9806953125,-0.1340179443359375,-1.0738983154296875,0.015045166015625
1726225572533731600,5.990731689453125,-0.1910552978515625,-0.597503662109375,-0.136444091796875
1726225572543767600,6.000767578125,-0.3901519775390625,-0.1927337646484375,-0.1504974365234375
1726225572553804300,6.01080419921875,-0.30548095703125,-0.9360198974609375,-0.0774078369140625
1726225572563840500,6.020840576171875,-0.67681884765625,-1.36016845703125,-0.0398712158203125
1726225572573876500,6.03087646484375,-1.1522216796875,-0.7271270751953125,0.171600341796875
1726225572583913500,6.04091357421875,-1.106170654296875,-0.7150421142578125,-0.0036468505859375
1726225572593949400,6.050949462890625,-0.1562347412109375,-1.4770355224609375,0.078643798828125
1726225572603985700,6.060985595703125,-0.6707763671875,-1.257843017578125,0.0441436767578125
1726225572614022400,6.0710224609375,-0.9729766845703125,-0.1978607177734375,-0.037628173828125
1726225572624058400,6.081058349609375,-0.641632080078125,-0.447723388671875,-0.0305328369140625
1726225572634094600,6.091094482421875,-0.618560791015625,-1.0838623046875,0.126861572265625
1726225572644131300,6.10113134765625,-0.7464599609375,-1.1840972900390625,0.157440185546875
1726225572654167300,6.111167236328125,-0.545867919921875,-0.39434814453125,0.000244140625
1726225572664203500,6.12120361328125,-0.2886810302734375,-0.751495361328125,-0.0121002197265625
1726225572674239500,6.131239501953125,0.52105712890625,-1.6659698486328125,0.1166229248046875
1726225572684276500,6.1412763671875,-0.5625762939453125,-0.7933349609375,0.0367431640625
1726225572694312400,6.1513125,-0.99383544921875,0.1726226806640625,-0.0355377197265625
1726225572704348700,6.1613486328125,-0.4351806640625,-0.5336761474609375,0.053131103515625
1726225572714385400,6.171385498046875,-0.1917877197265625,-1.43603515625,0.24127197265625
1726225572724421400,6.18142138671875,-0.866302490234375,-1.219818115234375,0.16082763671875
1726225572734457600,6.19145751953125,-0.8747711181640625,-0.638671875,0.122528076171875
1726225572744494300,6.201494384765625,-0.9297332763671875,-0.686676025390625,0.154052734375
1726225572754530300,6.2115302734375,-0.040802001953125,-1.0304107666015625,0.13629150390625
1726225572764566500,6.22156640625,-0.4181671142578125,-0.8340911865234375,0.0036163330078125
1726225572774603300,6.231603271484375,-0.6937103271484375,-0.144439697265625,-0.12322998046875
1726225572784639200,6.24163916015625,-0.62982177734375,-0.5080413818359375,0.03265380859375
1726225572794675500,6.251675537109375,-0.6750640869140625,-1.0724029541015625,0.21148681640625
1726225572804712400,6.26171240234375,-0.896087646484375,-1.2841033935546875,0.0337066650390625
1726225572814748400,6.27174853515625,-0.92791748046875,-0.925262451171875,-0.039398193359375
1726225572824784600,6.28178466796875,-0.8399658203125,-0.740936279296875,0.1698150634765625
1726225572834820600,6.291820556640625,-0.1369476318359375,-0.7937164306640625,0.2095794677734375
1726225572844857300,6.301857421875,-0.450836181640625,-0.878204345703125,0.104583740234375
1726225572854893600,6.3118935546875,-0.1143798828125,-0.66802978515625,-0.0151824951171875
1726225572864929500,6.321929443359375,-0.49444580078125,-0.43499755859375,-0.1166229248046875
1726225572874966300,6.33196630859375,-0.3559417724609375,-0.48406982421875,0.1097259521484375
1726225572885002500,6.34200244140625,-0.504608154296875,-1.261932373046875,-0.1346435546875
1726225572895038500,6.35203857421875,-0.869354248046875,-1.0652618408203125,-0.1892852783203125
1726225572905075500,6.362075439453125,-1.078399658203125,-0.618133544921875,0.0907745361328125
1726225572915111400,6.372111328125,-0.296600341796875,-0.81011962890625,-0.134674072265625
1726225572925147600,6.382147705078125,0.1092529296875,-0.9146728515625,-0.0568084716796875
1726225572935184400,6.392184326171875,-0.0947265625,-0.6822509765625,0.1737213134765625
1726225572945220400,6.402220458984375,-0.3981475830078125,-0.4406280517578125,-0.07122802734375
1726225572955256600,6.412256591796875,-0.6957244873046875,-0.8851318359375,0.1219635009765625
1726225572965293300,6.422293212890625,-1.0664520263671875,-1.354644775390625,0.0679168701171875
1726225572975329300,6.432329345703125,-1.7284698486328125,-1.1071929931640625,-0.0717315673828125
1726225572985365500,6.442365478515625,-1.2035980224609375,-0.55377197265625,0.0265960693359375
1726225572995401500,6.4524013671875,-0.293426513671875,-0.7538909912109375,0.2070770263671875
1726225573005438500,6.4624384765625,-0.2080841064453125,-0.8856201171875,0.0997467041015625
1726225573015474400,6.472474365234375,0.173248291015625,-0.96722412109375,0.1274261474609375
1726225573025510700,6.4825107421875,-0.585113525390625,-0.3815765380859375,0.022857666015625
1726225573035547400,6.49254736328125,-0.5266265869140625,-0.48199462890625,0.2257232666015625
1726225573045583400,6.502583251953125,-0.5933837890625,-1.295684814453125,0.180206298828125
1726225573055619600,6.51261962890625,-0.4734649658203125,-1.3225555419921875,0.0753631591796875
1726225573065656300,6.52265625,-0.685638427734375,-0.4975128173828125,0.1338043212890625
1726225573075692300,6.5326923828125,-0.861175537109375,-0.6419677734375,0.1348114013671875
1726225573085728500,6.542728515625,-0.6276397705078125,-0.7649078369140625,0.158447265625
1726225573095765200,6.55276513671875,-0.4293060302734375,-1.2062225341796875,0.1987457275390625
1726225573105801500,6.562801513671875,-0.587005615234375,-0.839874267578125,0.0335235595703125
1726225573115837700,6.572837646484375,-0.745452880859375,-0.8527679443359375,0.3747711181640625
1726225573125874400,6.58287451171875,-0.251251220703125,-0.99713134765625,0.0041961669921875
1726225573135910400,6.592910400390625,-0.2055511474609375,-1.102020263671875,-0.04266357421875
1726225573145946600,6.602946533203125,-0.503814697265625,-0.4152984619140625,0.0883941650390625
1726225573155982600,6.612982666015625,-0.4955596923828125,-0.6010894775390625,0.1338348388671875
1726225573166019300,6.623019287109375,-0.301177978515625,-0.7439117431640625,0.178253173828125
1726225573176055600,6.6330556640625,-0.7289886474609375,-0.9336090087890625,0.013092041015625
1726225573186091500,6.643091552734375,-1.551666259765625,-0.6783447265625,0.1508026123046875
1726225573196128300,6.653128173828125,-1.4146881103515625,-1.019927978515625,0.13726806640625
1726225573206161000,6.663160888671875,-0.23590087890625,-1.3005523681640625,-0.0457000732421875
1726225573216196900,6.67319677734375,-0.649993896484375,-1.0756072998046875,-0.0211181640625
1726225573226233900,6.68323388671875,-0.6246795654296875,-0.5587310791015625,0.1379547119140625
1726225573236269800,6.693269775390625,-0.054046630859375,-0.7669677734375,0.072998046875
1726225573246306000,6.70330615234375,-0.5965118408203125,-0.5238189697265625,0.107025146484375
1726225573256342800,6.7133427734375,-0.60479736328125,-0.4511566162109375,0.1929931640625
1726225573266378800,6.723378662109375,-0.3814239501953125,-1.235565185546875,0.2576446533203125
1726225573276415000,6.7334150390625,-1.113311767578125,-1.2212371826171875,0.309112548828125
1726225573286451700,6.74345166015625,-1.3446197509765625,-0.6896209716796875,0.19122314453125
1726225573296488000,6.753488037109375,-0.3691864013671875,-1.16278076171875,0.046112060546875
1726225573306524000,6.76352392578125,-0.0606536865234375,-1.4610443115234375,0.0590972900390625
1726225573316560000,6.773559814453125,-0.430328369140625,-0.325836181640625,-0.1116790771484375
1726225573326596900,6.783596923828125,0.52130126953125,-0.046661376953125,-0.00079345703125
1726225573336632800,6.7936328125,0.6735992431640625,-0.7379150390625,0.1917266845703125
1726225573346669000,6.8036689453125,-0.736114501953125,-0.6409454345703125,0.327423095703125
1726225573356705800,6.813705810546875,-1.3539581298828125,-0.4653778076171875,0.1808929443359375
1726225573366742000,6.823741943359375,-1.188323974609375,-1.2967376708984375,0.0342864990234375
1726225573376778000,6.833778076171875,-1.401031494140625,-1.0278472900390625,0.1672515869140625
1726225573386814700,6.843814697265625,-0.8115234375,-0.91339111328125,-0.057159423828125
1726225573396851000,6.853850830078125,-0.6059112548828125,-0.6376190185546875,-0.07537841796875
1726225573406887000,6.863886962890625,0.0037994384765625,-0.9392242431640625,0.15057373046875
1726225573416923600,6.873923583984375,-0.2223358154296875,-0.8794097900390625,0.048858642578125
1726225573426960000,6.8839599609375,-0.44964599609375,-0.595855712890625,0.1407623291015625
1726225573436995800,6.893995849609375,-0.5312042236328125,-0.5916900634765625,-0.0985107421875
1726225573447032800,6.90403271484375,-0.911865234375,-0.8437957763671875,0.0860443115234375
1726225573457068800,6.91406884765625,-1.3372039794921875,-0.8574981689453125,0.0543365478515625
1726225573467105000,6.92410498046875,-1.2644195556640625,-0.763641357421875,-0.1395263671875
1726225573477141000,6.93414111328125,-0.8596038818359375,-0.9402618408203125,0.1880950927734375
1726225573487177700,6.944177734375,-0.1873931884765625,-1.2099609375,0.2176666259765625
1726225573497214000,6.9542138671875,0.3105621337890625,-1.0027008056640625,0.1548004150390625
1726225573507250000,6.96425,0.408447265625,-0.7562713623046875,0.1133880615234375
1726225573517286700,6.97428662109375,0.23748779296875,-0.596771240234375,-0.127593994140625
1726225573527323000,6.984322998046875,-0.0429534912109375,-0.470733642578125,0.208892822265625
1726225573537358800,6.99435888671875,-0.67718505859375,-0.7939300537109375,0.2501068115234375
1726225573547395800,7.004395751953125,-1.442230224609375,-1.016387939453125,-0.00970458984375
1726225573557432000,7.01443212890625,-2.07843017578125,-1.00537109375,0.0620880126953125
1726225573567468000,7.024468017578125,-1.1856231689453125,-1.0897674560546875,0.1161651611328125
1726225573577504800,7.0345048828125,-0.31781005859375,-1.32586669921875,0.0506134033203125
1726225573587541000,7.044541015625,0.145904541015625,-1.076446533203125,-0.009307861328125
1726225573597577000,7.054576904296875,-0.199920654296875,-0.594390869140625,-0.032440185546875
1726225573607613700,7.06461376953125,0.3918914794921875,-0.550811767578125,0.0550994873046875
1726225573617650000,7.07464990234375,-0.2195587158203125,-0.800872802734375,0.0550994873046875
1726225573627686000,7.084685791015625,-0.9527740478515625,-0.4367523193359375,0.190155029296875
1726225573637721900,7.094721923828125,-1.3860931396484375,-0.53204345703125,0.031463623046875
1726225573647758800,7.1047587890625,-1.304534912109375,-0.6008148193359375,-0.048980712890625
1726225573657795000,7.114795166015625,-0.8857421875,-0.9198455810546875,0.1005706787109375
1726225573667831000,7.1248310546875,-0.11883544921875,-1.444488525390625,0.217193603515625
1726225573677867800,7.13486767578125,0.1545257568359375,-1.3292999267578125,0.0733642578125
1726225573687904000,7.144904052734375,0.5897979736328125,-0.71295166015625,0.0785980224609375
1726225573697940000,7.15493994140625,-0.4250335693359375,-0.2607269287109375,0.0333099365234375
1726225573707976700,7.164976806640625,-0.4810333251953125,-0.507537841796875,-0.023956298828125
1726225573718013000,7.175012939453125,-1.2169952392578125,-0.878387451171875,-0.1945953369140625
1726225573728049000,7.185048828125,-1.519287109375,-0.69964599609375,-0.1446075439453125
1726225573738085600,7.195085693359375,-1.3280181884765625,-0.863311767578125,-0.006103515625
1726225573748121900,7.205121826171875,-0.3893585205078125,-1.2736968994140625,0.0506439208984375
1726225573758157800,7.21515771484375,-0.0240325927734375,-1.1779937744140625,-0.0423431396484375
1726225573768194800,7.22519482421875,-0.14306640625,-0.6482086181640625,-0.013427734375
1726225573778230800,7.235230712890625,-0.2379150390625,-0.742950439453125,0.0105133056640625
1726225573788267000,7.24526708984375,-0.2585296630859375,-0.7318267822265625,0.0607452392578125
1726225573798303000,7.255302978515625,-0.3182373046875,-0.4299468994140625,-0.0694580078125
1726225573808339700,7.265339599609375,-1.1858673095703125,-0.4415435791015625,0.0492401123046875
1726225573818376000,7.2753759765625,-1.420654296875,-0.9780731201171875,0.142486572265625
1726225573828412000,7.285411865234375,-1.8203582763671875,-1.011199951171875,-0.0731201171875
1726225573838448600,7.29544873046875,-1.1631317138671875,-1.0539398193359375,0.0731964111328125
1726225573848484900,7.30548486328125,-0.306976318359375,-1.0746917724609375,0.0929107666015625
1726225573858520800,7.315520751953125,0.6545562744140625,-0.8365631103515625,-0.0242919921875
1726225573868557800,7.325557861328125,-0.2754974365234375,-0.5793609619140625,0.03302001953125
1726225573878594000,7.335593994140625,-0.39178466796875,-0.5029449462890625,0.081573486328125
1726225573888630000,7.345630126953125,-0.27215576171875,-0.77581787109375,0.052825927734375
1726225573898666800,7.355666748046875,-0.765167236328125,-0.95294189453125,0.2226409912109375
1726225573908703000,7.365702880859375,-0.97991943359375,-0.643035888671875,0.071502685546875
1726225573918739000,7.375739013671875,-0.60693359375,-0.825927734375,0.0363616943359375
1726225573928775000,7.38577490234375,-0.7536468505859375,-0.9873809814453125,-0.019134521484375
1726225573938812000,7.39581201171875,-1.400634765625,-0.765350341796875,0.1503753662109375
1726225573948847900,7.405847900390625,-0.9467315673828125,-0.8558349609375,-0.019134521484375
1726225573958883800,7.4158837890625,-0.8212738037109375,-0.948333740234375,-0.161407470703125
1726225573968920800,7.4259208984375,0.012939453125,-1.01995849609375,-0.106597900390625
1726225573978957000,7.43595703125,0.1177520751953125,-0.9947357177734375,-0.0256805419921875
1726225573988993000,7.445992919921875,-0.1373138427734375,-0.6458587646484375,-0.0388641357421875
1726225573999029800,7.45602978515625,-0.7069854736328125,-0.2537994384765625,0.1310882568359375
1726225574009066000,7.46606591796875,-0.828887939453125,-0.54437255859375,0.2270355224609375
1726225574019102000,7.47610205078125,-0.6826019287109375,-1.1702880859375,-0.0264892578125
1726225574029138700,7.486138671875,-0.570159912109375,-1.04022216796875,-0.203155517578125
1726225574039175000,7.4961748046875,-0.757354736328125,-0.7049560546875,0.0771942138671875
1726225574049211000,7.5062109375,-0.337127685546875,-1.088226318359375,0.0104217529296875
1726225574059247600,7.51624755859375,-0.0698089599609375,-1.2438201904296875,-0.0977325439453125
1726225574069283800,7.526283935546875,-0.53240966796875,-0.6189727783203125,-0.011016845703125
1726225574079320000,7.536320068359375,-0.136383056640625,-0.505706787109375,0.174560546875
1726225574089356000,7.54635595703125,-1.0830078125,-0.855010986328125,0.313812255859375
1726225574099392800,7.556392822265625,-1.1761627197265625,-0.7354278564453125,0.1258544921875
1726225574109429000,7.566428955078125,-0.779632568359375,-0.6186981201171875,0.212738037109375
1726225574119465000,7.57646484375,-0.547454833984375,-1.2427825927734375,0.390106201171875
1726225574129501700,7.586501708984375,0.4012908935546875,-1.5247955322265625,-0.0132598876953125
1726225574139538000,7.596537841796875,0.1580657958984375,-0.86822509765625,-0.06524658203125
1726225574149574000,7.606573974609375,-0.077667236328125,-0.109466552734375,-0.1397552490234375
1726225574159610600,7.616610595703125,-0.5827484130859375,-0.8326873779296875,-0.016021728515625
1726225574169646800,7.626646728515625,-0.919189453125,-0.9700927734375,0.18560791015625
1726225574179682800,7.636682861328125,-0.6667633056640625,-0.78851318359375,0.085601806640625
1726225574189719800,7.6467197265625,-0.7655792236328125,-0.9758453369140625,0.14453125
1726225574199756000,7.656756103515625,-0.82476806640625,-1.1212158203125,-0.087646484375
1726225574209791200,7.666791259765625,-0.5861968994140625,-0.9989776611328125,-0.018585205078125
1726225574219828200,7.676828125,-1.2171478271484375,-0.8345794677734375,0.177337646484375
1726225574229864200,7.6868642578125,-1.0501556396484375,-1.0384979248046875,0.2535858154296875
1726225574239900200,7.696900146484375,0.228485107421875,-0.8522186279296875,0.020477294921875
1726225574249936100,7.70693603515625,0.38873291015625,-0.8235321044921875,0.0067291259765625
1726225574259973400,7.716973388671875,-0.221954345703125,-0.755523681640625,0.0389862060546875
1726225574270009300,7.72700927734375,-0.7936553955078125,-0.8175048828125,-0.0487213134765625
1726225574280045300,7.73704541015625,-0.1700897216796875,-0.9798736572265625,0.0396575927734375
1726225574290082300,7.747082275390625,-1.298797607421875,-0.67254638671875,0.2024078369140625
1726225574300118300,7.7571181640625,-1.33160400390625,-0.4395294189453125,0.05950927734375
1726225574310154200,7.767154296875,-0.73297119140625,-1.10870361328125,-0.094970703125
1726225574320191200,7.777191162109375,-0.4982757568359375,-1.1097259521484375,-0.0287628173828125
1726225574330227200,7.787227294921875,-0.6812896728515625,-0.9165496826171875,0.0458984375
1726225574340263200,7.79726318359375,-0.715911865234375,-0.9208984375,0.341278076171875
1726225574350300400,7.807300537109375,-0.333404541015625,-0.8740997314453125,0.1186981201171875
1726225574360336400,7.81733642578125,-0.5882720947265625,-0.7067718505859375,-0.00213623046875
1726225574370372400,7.827372314453125,-0.451812744140625,-0.39044189453125,0.1744384765625
1726225574380408300,7.837408203125,-0.0647430419921875,-0.7215576171875,0.002471923828125
1726225574390445300,7.8474453125,-0.172637939453125,-0.7876739501953125,-0.0948944091796875
1726225574400481300,7.857481201171875,-0.7491302490234375,-0.6322479248046875,0.1810150146484375
1726225574410517200,7.867517333984375,-1.340850830078125,-0.7423248291015625,-0.003692626953125
1726225574420554200,7.87755419921875,-0.706573486328125,-1.0488739013671875,-0.145965576171875
1726225574430590200,7.887590087890625,-0.547515869140625,-1.2940216064453125,0.036529541015625
1726225574440626200,7.897626220703125,-0.5485382080078125,-0.5475311279296875,-0.1737060546875
1726225574450663400,7.907663330078125,-0.64678955078125,-0.3694915771484375,0.12017822265625
1726225574460699400,7.917699462890625,-0.08343505859375,-0.9125213623046875,0.1683197021484375
1726225574470735400,7.9277353515625,-0.471221923828125,-0.972381591796875,-0.009521484375
1726225574480772400,7.9377724609375,-0.93035888671875,-0.576568603515625,0.0867919921875
1726225574490808300,7.947808349609375,-0.943267822265625,-0.3655853271484375,0.095916748046875
1726225574500844300,7.95784423828125,-0.3059539794921875,-0.78228759765625,0.10577392578125
1726225574510881300,7.96788134765625,0.1931610107421875,-1.247711181640625,0.0857391357421875
1726225574520917200,7.977917236328125,-0.29779052734375,-1.001007080078125,-0.1012115478515625
1726225574530953200,7.987953125,-0.728973388671875,-0.5826416015625,-0.0482330322265625
1726225574540989200,7.9979892578125,-1.11492919921875,-0.9750518798828125,0.05078125
1726225574551026200,8.008026123046875,-1.1391143798828125,-1.060760498046875,0.1111602783203125
1726225574561062400,8.0180625,-0.713592529296875,-0.8786468505859375,0.1576690673828125
1726225574571098400,8.028098388671875,-0.5540313720703125,-0.79132080078125,0.2089080810546875
1726225574581135400,8.03813525390625,-0.308074951171875,-0.684844970703125,0.032989501953125
1726225574591171300,8.04817138671875,-0.2585296630859375,-0.799957275390625,-0.0257415771484375
1726225574601207300,8.058207275390625,-0.88995361328125,-0.7657470703125,0.0654754638671875
1726225574611244300,8.068244384765626,-0.64373779296875,-0.9430999755859375,0.0852508544921875
1726225574621280300,8.0782802734375,-0.5066680908203125,-1.2088165283203125,0.049468994140625
1726225574631316200,8.088316162109376,-0.2314605712890625,-0.8830413818359375,0.023956298828125
1726225574641353200,8.098353271484376,0.1490631103515625,-0.629058837890625,0.0494537353515625
1726225574651389200,8.10838916015625,-0.0286102294921875,-0.973968505859375,0.086334228515625
1726225574661425200,8.118425048828126,-0.7709197998046875,-0.8052825927734375,0.0697784423828125
1726225574671462400,8.12846240234375,-0.7952117919921875,-0.5843353271484375,0.0177001953125
1726225574681498400,8.138498291015624,-0.913177490234375,-0.8214111328125,0.135986328125
1726225574691534300,8.148534423828124,-0.7157745361328125,-0.830413818359375,0.081695556640625
1726225574701570300,8.1585703125,-0.3269195556640625,-0.8726959228515625,0.0261993408203125
1726225574711607300,8.168607177734375,-0.292510986328125,-0.8223419189453125,0.30364990234375
1726225574721643300,8.178643310546875,-0.760650634765625,-0.6218719482421875,0.1692657470703125
1726225574731679200,8.18867919921875,-0.817230224609375,-0.907073974609375,0.1647491455078125
1726225574741716200,8.19871630859375,-0.6065826416015625,-1.21923828125,0.0937042236328125
1726225574751752200,8.208752197265625,-0.50518798828125,-0.83807373046875,-0.001708984375
1726225574761788200,8.2187880859375,-0.762725830078125,-0.654449462890625,0.037750244140625
1726225574771825400,8.228825439453125,-0.4217376708984375,-0.718048095703125,0.1057891845703125
1726225574781861400,8.238861328125,-0.1727294921875,-0.890350341796875,-0.1338043212890625
1726225574791897300,8.2488974609375,-0.7919921875,-0.993408203125,-0.05584716796875
1726225574801934300,8.258934326171875,-0.829681396484375,-0.9012603759765625,0.006591796875
1726225574811970300,8.26897021484375,-0.7495880126953125,-0.9097137451171875,-0.0157928466796875
1726225574822006300,8.27900634765625,-0.843353271484375,-0.77655029296875,-0.0377655029296875
1726225574832042200,8.289042236328125,-0.6851806640625,-0.698944091796875,0.072967529296875
1726225574842079200,8.299079345703126,-0.0953216552734375,-0.9154052734375,0.1055755615234375
1726225574852115200,8.309115234375,0.48712158203125,-0.6186981201171875,0.0514984130859375
1726225574862151200,8.319151123046876,0.54248046875,-0.46978759765625,0.0581512451171875
1726225574872188400,8.3291884765625,0.0948944091796875,-0.7004547119140625,0.0278778076171875
1726225574882224400,8.339224365234376,-1.2716522216796875,-0.4742889404296875,0.05780029296875
1726225574892260400,8.34926025390625,-2.00286865234375,-0.2269744873046875,0.1158599853515625
1726225574902297300,8.35929736328125,-1.738800048828125,-1.304718017578125,0.24560546875
1726225574912333300,8.369333251953124,-1.2969970703125,-1.9290008544921875,0.2287445068359375
1726225574922369300,8.379369384765624,-0.763824462890625,-1.025146484375,0.0618743896484375
1726225574932406300,8.38940625,-0.6641082763671875,-0.3607635498046875,0.131591796875
1726225574942442200,8.399442138671875,-0.3066253662109375,-0.6525726318359375,0.2460174560546875
1726225574952478200,8.409478271484375,-0.0860443115234375,-1.1398162841796875,-0.026702880859375
1726225574962515200,8.41951513671875,-0.526092529296875,-0.2781829833984375,-0.1929473876953125
1726225574972551200,8.42955126953125,-0.4321746826171875,-0.3573760986328125,0.063720703125
1726225574982587400,8.43958740234375,-0.431610107421875,-1.0375213623046875,-0.078887939453125
1726225574992623400,8.449623291015625,-0.312225341796875,-1.35223388671875,-0.002777099609375
1726225575002660400,8.459660400390625,-0.6902313232421875,-0.627349853515625,-0.159027099609375
1726225575012696300,8.4696962890625,-1.57904052734375,-0.535003662109375,0.0369110107421875
1726225575022732300,8.479732177734375,-0.9512939453125,-1.0620574951171875,0.0814208984375
1726225575032769300,8.489769287109375,-0.657867431640625,-1.199432373046875,0.0679473876953125
1726225575042805200,8.49980517578125,0.1205291748046875,-1.18084716796875,0.0480499267578125
1726225575052841200,8.50984130859375,-0.0800018310546875,-0.80841064453125,0.110321044921875
1726225575062878200,8.519878173828126,-0.1994476318359375,-0.234832763671875,0.040924072265625
1726225575072914200,8.5299140625,-0.78399658203125,-0.5496978759765625,0.019287109375
1726225575082950100,8.5399501953125,-0.9966888427734375,-1.043304443359375,0.1266021728515625
1726225575092987400,8.5499873046875,-1.2185516357421875,-1.2227020263671875,0.1100616455078125
1726225575103023400,8.5600234375,-0.3601837158203125,-0.9696807861328125,-0.03717041015625
1726225575113059300,8.570059326171876,-0.4248199462890625,-0.9174652099609375,0.2647857666015625
1726225575123096300,8.580096435546874,-0.5982818603515625,-0.7255859375,0.169891357421875
1726225575133132300,8.59013232421875,-0.2953338623046875,-0.794830322265625,0.0552520751953125
1726225575143168300,8.600168212890624,-0.3299560546875,-0.84967041015625,0.1923828125
1726225575153204200,8.610204345703124,-0.9973297119140625,-0.4942626953125,0.2099609375
1726225575163241200,8.6202412109375,-0.6545867919921875,-0.7368316650390625,0.2585296630859375
1726225575173277200,8.630277099609375,-0.214080810546875,-0.8517303466796875,0.10919189453125
1726225575183313200,8.640313232421875,-0.241607666015625,-0.57086181640625,0.047393798828125
1726225575193350400,8.650350341796875,-0.4398345947265625,-0.64056396484375,0.1156463623046875
1726225575203386400,8.660386474609375,0.1976165771484375,-1.111053466796875,0.04254150390625
1726225575213422600,8.670422607421875,0.38800048828125,-1.439910888671875,0.0249176025390625
1726225575223459600,8.68045947265625,-0.5110015869140625,-0.59735107421875,0.1310272216796875
1726225575233495800,8.690495849609375,-0.887115478515625,-0.8671875,0.2304534912109375
1726225575243531800,8.70053173828125,-0.815704345703125,-1.1190948486328125,0.0999298095703125
1726225575253568800,8.71056884765625,-0.985260009765625,-0.95953369140625,0.1214752197265625
1726225575263604700,8.720604736328125,-1.1162567138671875,-0.779876708984375,0.1529693603515625
1726225575273640700,8.730640625,-1.27239990234375,-0.7646484375,-0.08612060546875
1726225575283676700,8.7406767578125,-0.358917236328125,-1.0249481201171875,0.031585693359375
1726225575293713700,8.750713623046876,-0.429534912109375,-1.0064849853515625,-0.005096435546875
1726225575303749600,8.76074951171875,-0.13629150390625,-0.6847076416015625,0.1272430419921875
1726225575313785600,8.77078564453125,0.3912200927734375,-0.7449951171875,0.138702392578125
1726225575323822600,8.780822509765626,0.232879638671875,-0.9993133544921875,0.04815673828125
1726225575333858600,8.790858642578126,-0.89691162109375,-0.7235565185546875,0.16351318359375
1726225575343894500,8.80089453125,-1.7330169677734375,-0.672393798828125,0.2342071533203125
1726225575353931800,8.810931884765624,-1.0025634765625,-1.01434326171875,0.013519287109375
1726225575363967700,8.8209677734375,-0.4445953369140625,-1.3671875,0.163909912109375
1726225575374003700,8.831003662109374,-0.708251953125,-0.8110809326171875,0.140869140625
1726225575384040700,8.841040771484375,-0.22320556640625,-0.5599822998046875,0.0859222412109375
1726225575394076700,8.85107666015625,0.3540191650390625,-0.964874267578125,-0.011444091796875
1726225575404112600,8.861112548828125,-0.4288482666015625,-0.6835174560546875,0.0348968505859375
1726225575414149600,8.871149658203125,-1.1089935302734375,-0.454864501953125,0.17218017578125
1726225575424185600,8.881185546875,-0.85064697265625,-0.657379150390625,0.0725860595703125
1726225575434221600,8.8912216796875,-0.9999542236328125,-0.7780303955078125,0.115447998046875
1726225575444257500,8.901257568359375,-0.771697998046875,-0.7107391357421875,0.1514434814453125
1726225575454294800,8.911294677734375,-0.060943603515625,-0.8304443359375,-0.0906524658203125
1726225575464330800,8.921330810546875,-0.3841705322265625,-0.8315582275390625,-0.0227203369140625
1726225575474366700,8.93136669921875,-0.84747314453125,-0.68145751953125,0.1634979248046875
1726225575484403700,8.94140380859375,-0.9232177734375,-0.67645263671875,-0.00848388671875
1726225575494439700,8.951439697265625,-0.571624755859375,-0.80902099609375,-0.0106048583984375
1726225575504475600,8.9614755859375,-0.1266326904296875,-0.907562255859375,0.0768890380859375
1726225575514512600,8.9715126953125,-0.435089111328125,-0.625274658203125,0.0633087158203125
1726225575524548600,8.981548583984376,-0.9635009765625,-0.5789947509765625,0.1090087890625
1726225575534584600,8.99158447265625,-0.78143310546875,-0.7197723388671875,-0.057098388671875
1726225575544621800,9.001621826171874,-0.9449920654296875,-0.9247894287109375,-0.033782958984375
1726225575554657800,9.01165771484375,-0.4329986572265625,-0.86907958984375,0.0272064208984375
1726225575564693800,9.02169384765625,-0.643524169921875,-1.0677947998046875,0.0700225830078125
1726225575574729700,9.031729736328124,-0.2934722900390625,-0.89166259765625,-0.0356903076171875
1726225575584766700,9.0417666015625,-0.5622711181640625,-1.0059814453125,-0.018280029296875
1726225575594802700,9.051802734375,-0.799652099609375,-0.7913970947265625,-0.1125640869140625
1726225575604838700,9.061838623046874,-1.0158538818359375,-0.3614044189453125,-0.27313232421875
1726225575614875600,9.071875732421875,-0.231201171875,-0.6401519775390625,-0.1043243408203125
1726225575624911600,9.08191162109375,-0.5902099609375,-1.040924072265625,0.0001220703125
1726225575634947600,9.091947509765625,-1.354461669921875,-0.64306640625,-0.039703369140625
1726225575644984600,9.101984619140625,-0.647613525390625,-0.7263336181640625,-0.0608367919921875
1726225575655020500,9.1120205078125,-0.2694854736328125,-1.3928375244140625,0.06219482421875
1726225575665056800,9.122056884765625,-0.1867218017578125,-1.2644805908203125,0.12158203125
1726225575675093800,9.13209375,-0.264617919921875,-0.7459716796875,0.0915374755859375
1726225575685129700,9.142129638671875,-0.254608154296875,-0.3777313232421875,-0.019866943359375
1726225575695165700,9.152165771484375,-0.85028076171875,-0.8137969970703125,0.0804290771484375
1726225575705201700,9.16220166015625,-1.396331787109375,-1.250335693359375,0.14678955078125
1726225575715238700,9.17223876953125,-0.93353271484375,-1.11468505859375,0.03271484375
1726225575725274600,9.182274658203125,-0.78826904296875,-0.73065185546875,-0.0191192626953125
1726225575735310600,9.192310546875,0.03265380859375,-0.6078643798828125,-0.020050048828125
1726225575745347600,9.20234765625,0.205169677734375,-1.128662109375,0.0437469482421875
1726225575755383600,9.212383544921876,0.120330810546875,-0.6941375732421875,0.1002349853515625
1726225575765419500,9.22241943359375,-0.8116912841796875,-0.13897705078125,0.0673370361328125
1726225575775456800,9.232456787109374,-1.0761260986328125,-0.7711029052734375,0.1446380615234375
1726225575785492700,9.24249267578125,-0.524444580078125,-1.66571044921875,0.0670166015625
1726225575795528700,9.25252880859375,-0.102264404296875,-1.4208221435546875,0.0023651123046875
1726225575805565700,9.262565673828124,-0.8118896484375,-0.3582305908203125,0.023712158203125
1726225575815601700,9.2726015625,-0.25689697265625,-0.92327880859375,0.1371307373046875
1726225575825637600,9.2826376953125,-0.1911468505859375,-1.293548583984375,-0.0432281494140625
1726225575835674600,9.292674560546875,-0.679656982421875,-0.5113525390625,-0.1131591796875
1726225575845710600,9.302710693359375,-1.1603546142578125,-0.154998779296875,-0.01629638671875
1726225575855746600,9.31274658203125,0.05169677734375,-1.2366943359375,-0.0035247802734375
1726225575865782500,9.322782470703125,0.0824127197265625,-1.3749542236328125,-0.03387451171875
1726225575875819800,9.33281982421875,-0.555999755859375,-0.4627532958984375,0.0377044677734375
1726225575885855700,9.342855712890625,-0.7059478759765625,-0.335540771484375,-0.01507568359375
1726225575895891700,9.3528916015625,-0.420379638671875,-1.1057281494140625,0.0982513427734375
1726225575905928700,9.3629287109375,-0.4031524658203125,-1.04290771484375,0.0454254150390625
1726225575915964700,9.372964599609375,-0.8954010009765625,-0.651397705078125,0.05609130859375
1726225575926000600,9.383000732421875,-1.134063720703125,-0.3508758544921875,0.1580047607421875
1726225575936037600,9.39303759765625,0.0868682861328125,-1.0547332763671875,-0.0139312744140625
1726225575946073600,9.403073486328125,0.5127716064453125,-1.3804931640625,0.1029510498046875
1726225575956109600,9.413109619140625,-0.865936279296875,-0.35614013671875,-0.021148681640625
1726225575966146800,9.423146728515626,-1.7643585205078125,-0.2136993408203125,-0.00311279296875
1726225575976182800,9.433182861328126,-0.8153076171875,-0.955810546875,0.170196533203125
1726225575986218800,9.44321875,-0.914581298828125,-1.1625213623046875,0.4312896728515625
1726225575996255700,9.453255859375,-0.872833251953125,-0.9507904052734375,0.221282958984375
1726225576006291700,9.463291748046874,-0.320526123046875,-0.676422119140625,-0.007537841796875
1726225576016327700,9.47332763671875,-0.156280517578125,-1.215728759765625,0.051788330078125
1726225576026363600,9.48336376953125,-0.9781036376953125,-0.9533843994140625,-0.0301666259765625
1726225576036400600,9.493400634765624,-1.38079833984375,-0.4244842529296875,-0.205535888671875
1726225576046436600,9.5034365234375,-0.88568115234375,-0.738128662109375,-0.0416717529296875
1726225576056472600,9.51347265625,-0.264739990234375,-1.189971923828125,0.077423095703125
1726225576066509600,9.523509521484375,-0.2825775146484375,-0.875640869140625,0.0736236572265625
1726225576076545500,9.533545654296875,-0.3089752197265625,-0.4625396728515625,0.1570892333984375
1726225576086581800,9.543581787109375,-0.169036865234375,-0.988555908203125,0.0029449462890625
1726225576096618800,9.55361865234375,-1.036712646484375,-1.01983642578125,0.0794525146484375
1726225576106654700,9.56365478515625,-1.7366943359375,-0.4520111083984375,0.1874847412109375
1726225576116690700,9.573690673828125,-0.997314453125,-1.033172607421875,0.00421142578125
1726225576126727700,9.583727783203125,-0.6934661865234375,-1.4286956787109375,0.1893310546875
1726225576136763600,9.593763671875,-0.404876708984375,-1.1158294677734375,-0.0489501953125
1726225576146799600,9.603799560546875,0.1206207275390625,-0.46820068359375,-0.006988525390625
1726225576156835600,9.613835693359375,0.017059326171875,-0.5430145263671875,0.172210693359375
1726225576166872600,9.62387255859375,0.005645751953125,-0.6928863525390625,0.1375732421875
1726225576176908500,9.633908447265625,-0.3028411865234375,-0.63232421875,0.14959716796875
1726225576186944500,9.643944580078125,-0.878173828125,-0.4965057373046875,0.2366790771484375
1726225576196981800,9.653981689453126,-0.797393798828125,-0.6716461181640625,0.056854248046875
1726225576207017700,9.664017822265626,-0.301116943359375,-1.1873779296875,0.174346923828125
1726225576217053000,9.674052978515626,-0.43341064453125,-1.0228271484375,0.193023681640625
1726225576227090200,9.684090087890626,-0.254119873046875,-0.6386871337890625,0.046051025390625
1726225576237126100,9.694126220703126,-0.124847412109375,-0.5360870361328125,0.016998291015625
1726225576247162000,9.704162109375,-0.185821533203125,-0.674072265625,0.0695648193359375
1726225576257199000,9.71419921875,-0.52520751953125,-0.3513336181640625,0.0038299560546875
1726225576267235000,9.724235107421874,-0.5399932861328125,-0.5298919677734375,0.40765380859375
1726225576277271000,9.73427099609375,-0.2506866455078125,-1.420684814453125,0.309906005859375
1726225576287308000,9.74430810546875,-0.1914825439453125,-1.4516754150390625,-0.019775390625
1726225576297344000,9.754343994140624,-0.5533294677734375,-0.6383209228515625,0.2234649658203125
1726225576307380000,9.7643798828125,-0.5383758544921875,-0.679656982421875,0.219024658203125
1726225576317416000,9.774416015625,-0.8428497314453125,-0.863433837890625,0.131011962890625
1726225576327453000,9.784452880859375,-0.9611358642578125,-1.18499755859375,0.19580078125
1726225576337489200,9.7944892578125,-1.48211669921875,-0.8502044677734375,0.1147613525390625
1726225576347525000,9.804525146484375,-1.0751190185546875,-0.9557342529296875,0.269805908203125
1726225576357562000,9.81456201171875,-0.8422393798828125,-1.2762298583984375,-0.1832122802734375
1726225576367598000,9.82459814453125,0.13458251953125,-1.0251312255859375,-0.1938934326171875
1726225576377634000,9.834634033203125,-0.4270477294921875,-0.5279693603515625,0.285308837890625
1726225576387671000,9.844671142578125,-0.2977294921875,-0.3489990234375,0.072357177734375
1726225576397707000,9.85470703125,-0.0822601318359375,-1.186798095703125,-0.0886993408203125
1726225576407743000,9.864742919921875,0.0679168701171875,-1.479156494140625,0.025390625
1726225576417780000,9.874780029296875,-1.0029296875,-0.6913299560546875,0.144927978515625
1726225576427816000,9.88481591796875,-0.4766998291015625,-0.7593536376953125,0.1110076904296875
1726225576437852000,9.894851806640625,-1.341827392578125,-1.1335601806640625,0.1271820068359375
1726225576447888000,9.904887939453126,-2.3795318603515625,-0.665557861328125,0.06182861328125
1726225576457925000,9.914925048828126,-1.1750946044921875,-1.154571533203125,0.0010986328125
1726225576467961000,9.924961181640626,-0.1976776123046875,-1.0705718994140625,-0.1169281005859375
1726225576477997000,9.9349970703125,-0.4079742431640625,-0.5840606689453125,-0.02337646484375
1726225576488034000,9.945033935546874,-0.058685302734375,-0.444732666015625,-0.1977081298828125
1726225576498070000,9.955070068359374,0.146820068359375,-0.777496337890625,-0.1056976318359375
1726225576508106000,9.96510595703125,0.14471435546875,-0.778076171875,0.062957763671875
1726225576518143000,9.97514306640625,-0.6772003173828125,-0.398681640625,0.0241851806640625
1726225576528179000,9.985178955078124,-1.2920989990234375,-0.109649658203125,0.017730712890625
1726225576538215000,9.99521484375,-1.11773681640625,-0.8016357421875,0.085113525390625
1726225576548252200,10.005252197265625,-0.25537109375,-1.0730438232421875,0.060943603515625
1726225576558288100,10.0152880859375,0.096221923828125,-0.9730987548828125,-0.0261077880859375
1726225576568324000,10.025323974609375,-0.37164306640625,-0.337982177734375,0.0753936767578125
1726225576578360000,10.035360107421875,-1.02435302734375,-0.2771148681640625,0.064453125
1726225576588397000,10.04539697265625,-0.8069000244140625,-1.0811309814453125,0.21881103515625
1726225576598433000,10.05543310546875,-0.7401275634765625,-1.3106689453125,0.1788787841796875
1726225576608469000,10.065468994140625,-1.1255645751953125,-0.4313812255859375,0.1197967529296875
1726225576618506000,10.075506103515625,-0.7021484375,-0.183258056640625,0.0729217529296875
1726225576628542000,10.0855419921875,-0.52459716796875,-1.24237060546875,0.204315185546875
1726225576638578000,10.095577880859375,0.5617218017578125,-1.677276611328125,-0.0887451171875
1726225576648615200,10.105615234375,-0.1417236328125,-1.101959228515625,-0.0290069580078125
1726225576658651100,10.115651123046876,-0.8298187255859375,-0.3956146240234375,-0.1507568359375
1726225576668687000,10.12568701171875,-0.661773681640625,-0.2732391357421875,-0.05853271484375
1726225576678724000,10.13572412109375,0.0059967041015625,-0.9756622314453125,-0.148284912109375
1726225576688760000,10.145760009765626,-0.7583465576171875,-0.818359375,-0.1790924072265625
1726225576698796000,10.155796142578126,-1.3193511962890625,-0.658447265625,-0.01513671875
1726225576708832000,10.16583203125,-0.6834869384765625,-0.9813232421875,-0.1943359375
1726225576718869000,10.175868896484374,-1.2880859375,-1.0946807861328125,-0.0770263671875
1726225576728905000,10.185905029296874,-0.832061767578125,-1.069580078125,0.1109161376953125
1726225576738941000,10.19594091796875,-0.03350830078125,-1.5047607421875,0.12896728515625
1726225576748978000,10.20597802734375,0.01690673828125,-1.173675537109375,0.1752471923828125
1726225576759014000,10.216013916015624,0.3586273193359375,-0.59771728515625,0.16571044921875
1726225576769050000,10.226050048828125,-0.0186309814453125,-0.6208038330078125,-0.0738983154296875
1726225576779087000,10.236087158203125,-0.47760009765625,-1.05279541015625,-0.1505889892578125
1726225576789123000,10.246123046875,-1.29278564453125,-0.8703765869140625,0.0679931640625
1726225576799159000,10.256158935546875,-1.4744873046875,-0.528778076171875,0.259246826171875
1726225576809196000,10.266196044921875,-0.75567626953125,-0.9706268310546875,0.24822998046875
1726225576819232000,10.27623193359375,-0.2700042724609375,-1.12384033203125,0.0540924072265625
1726225576829268000,10.28626806640625,-0.3960723876953125,-0.70489501953125,-0.041168212890625
1726225576839304000,10.296303955078125,-0.568756103515625,-0.6840057373046875,0.0230560302734375
1726225576849341000,10.3063408203125,-0.39190673828125,-0.3643341064453125,0.0077056884765625
1726225576859377000,10.316376953125,-0.381591796875,-0.7227325439453125,0.071197509765625
1726225576869412900,10.326412841796875,-0.318328857421875,-0.972991943359375,0.167694091796875
1726225576879450000,10.3364501953125,-0.9377593994140625,-0.960693359375,0.074005126953125
1726225576889486000,10.346486083984376,-0.6711578369140625,-0.89501953125,0.1617584228515625
1726225576899522000,10.35652197265625,-0.8916168212890625,-1.0117645263671875,-0.0076751708984375
1726225576909559000,10.36655908203125,-0.1156463623046875,-0.853851318359375,-0.069671630859375
1726225576919595000,10.376594970703126,0.8880462646484375,-0.789764404296875,-0.04302978515625
1726225576929631000,10.386630859375,0.3347015380859375,-0.182861328125,0.2233123779296875
1726225576939668000,10.39666796875,-1.2911376953125,-0.03460693359375,0.1455078125
1726225576949704000,10.406703857421874,-1.3239898681640625,-0.7382659912109375,0.0682830810546875
1726225576959740000,10.416739990234374,-1.841522216796875,-1.5469512939453125,0.3589324951171875
1726225576969777200,10.426777099609374,-1.5771026611328125,-1.166473388671875,0.0789794921875
1726225576979813000,10.436813232421875,-1.2259674072265625,-0.546539306640625,-0.008575439453125
1726225576989849000,10.44684912109375,-0.2215118408203125,-0.6373291015625,0.17425537109375
1726225576999885000,10.456885009765625,0.2735137939453125,-1.226318359375,0.12384033203125
1726225577009922000,10.466922119140625,-0.333160400390625,-0.8925018310546875,-0.033905029296875
1726225577019958000,10.4769580078125,-0.5726318359375,-0.7742462158203125,-0.010650634765625
1726225577029994000,10.486993896484375,-0.252288818359375,-1.2180938720703125,0.3485565185546875
1726225577040031000,10.497031005859375,-1.26031494140625,-1.078582763671875,0.019195556640625
1726225577050067000,10.50706689453125,-1.244171142578125,-0.4219207763671875,0.2315673828125
1726225577060103000,10.51710302734375,-0.843841552734375,-0.5132293701171875,0.093719482421875
1726225577070140200,10.52714013671875,0.0890655517578125,-1.0863494873046875,-0.00823974609375
1726225577080176000,10.537176025390625,0.053466796875,-1.4326934814453125,-0.088287353515625
1726225577090212000,10.547212158203125,-0.917236328125,-0.2387542724609375,-0.14697265625
1726225577100248000,10.557248046875,-0.4989166259765625,-0.106475830078125,-0.1256103515625
1726225577110285000,10.56728515625,0.131011962890625,-1.471466064453125,0.0856781005859375
1726225577120321000,10.577321044921876,-0.2405242919921875,-1.1221771240234375,-0.136077880859375
1726225577130357000,10.58735693359375,-0.297607421875,-0.235748291015625,0.04791259765625
1726225577140394000,10.59739404296875,-0.6473846435546875,0.011444091796875,0.092987060546875
1726225577150430000,10.607429931640626,-1.2829132080078125,-1.391632080078125,0.13958740234375
1726225577160466000,10.6174658203125,-2.103118896484375,-1.5875396728515625,0.326934814453125
1726225577170503000,10.6275029296875,-2.0673980712890625,-0.8819122314453125,0.0170745849609375
1726225577180539000,10.637538818359374,-0.0476531982421875,-0.939117431640625,-0.0484771728515625
1726225577190575000,10.6475751953125,0.903411865234375,-1.5689239501953125,0.0741729736328125
1726225577200612000,10.657612060546874,0.4994354248046875,-0.2912750244140625,0.08111572265625
1726225577210648600,10.667648681640625,0.1395416259765625,0.1367950439453125,0.26776123046875
1726225577220684500,10.6776845703125,0.3651123046875,-0.07403564453125,0.454498291015625
1726225577230720500,10.687720458984375,-0.4932098388671875,-0.816070556640625,0.4063262939453125
1726225577240757800,10.6977578125,-1.17919921875,-1.0047149658203125,-0.00628662109375
1726225577250793700,10.707793701171875,-1.2671661376953125,-0.9743499755859375,-0.0720672607421875
1726225577260829700,10.71782958984375,0.031829833984375,-1.430755615234375,-0.06781005859375
1726225577270866700,10.72786669921875,0.2882537841796875,-1.6436004638671875,-0.2496490478515625
1726225577280902700,10.737902587890625,-0.804229736328125,-0.146270751953125,-0.288848876953125
1726225577290938600,10.747938720703125,-0.4755096435546875,-0.247222900390625,-0.0284271240234375
1726225577300975600,10.7579755859375,-0.486114501953125,-1.4367218017578125,0.339385986328125
1726225577311011600,10.768011474609375,-1.1350860595703125,-1.382720947265625,0.27117919921875
1726225577321047600,10.778047607421875,-1.4901580810546875,-0.6494903564453125,0.0272369384765625
1726225577331084500,10.78808447265625,-1.0325775146484375,-0.547882080078125,0.0852203369140625
1726225577341120500,10.79812060546875,-0.9189453125,-1.286590576171875,0.26483154296875
1726225577351156700,10.80815673828125,-0.5584259033203125,-1.134521484375,-0.1312713623046875
1726225577361192700,10.818192626953126,-0.3788299560546875,-0.1679840087890625,-0.168487548828125
1726225577371229700,10.828229736328124,-0.2951202392578125,-0.651153564453125,0.1317138671875
1726225577381265700,10.838265625,-0.20709228515625,-1.52032470703125,0.1099853515625
1726225577391301600,10.848301513671874,-0.6473388671875,-1.251495361328125,0.2722625732421875
1726225577401338600,10.858338623046874,-1.19268798828125,0.138336181640625,0.0311126708984375
1726225577411374600,10.86837451171875,0.0326080322265625,-0.8460235595703125,0.0986480712890625
1726225577421410600,10.87841064453125,-0.0362701416015625,-1.496856689453125,0.138214111328125
1726225577431447600,10.888447509765625,-0.6744384765625,-0.2640380859375,0.09893798828125
1726225577441483500,10.8984833984375,-1.0364837646484375,-0.0173492431640625,0.1137847900390625
1726225577451519500,10.90851953125,-0.6384735107421875,-1.4729766845703125,0.0422821044921875
1726225577461556700,10.918556640625,-0.452667236328125,-1.82952880859375,-0.1504364013671875
1726225577471592700,10.9285927734375,-0.413330078125,-1.0015716552734375,-0.032806396484375
1726225577481628700,10.938628662109375,-1.05657958984375,0.268310546875,-0.0477447509765625
1726225577491664600,10.94866455078125,-0.6908111572265625,-0.2292633056640625,0.31146240234375
1726225577501701600,10.95870166015625,-0.2404327392578125,-1.0229034423828125,0.2510833740234375
1726225577511737600,10.968737548828125,-0.365142822265625,-0.519073486328125,0.1599884033203125
1726225577521773600,10.978773681640625,-1.2000579833984375,-0.228729248046875,0.145751953125
1726225577531810600,10.988810546875,-0.275482177734375,-1.2843017578125,0.1387176513671875
1726225577541846500,10.998846435546875,0.498931884765625,-1.38714599609375,0.1222991943359375
1726225577551882500,11.008882568359375,-0.32757568359375,-0.66436767578125,0.081573486328125
1726225577561919700,11.018919677734376,-1.937225341796875,0.1493072509765625,-0.0252838134765625
1726225577571955700,11.028955810546876,-1.38238525390625,-0.104278564453125,-0.053619384765625
1726225577581991700,11.03899169921875,0.07373046875,-1.352783203125,0.076690673828125
1726225577592028700,11.049028564453126,-0.111541748046875,-1.2115325927734375,0.0815887451171875
1726225577602064600,11.059064697265624,-0.196502685546875,-0.8787841796875,0.0113983154296875
1726225577612100600,11.0691005859375,-0.328369140625,-1.320281982421875,0.098114013671875
1726225577622136600,11.079136474609374,-0.51739501953125,-0.7085418701171875,-0.1358642578125
1726225577632173600,11.089173583984374,-1.2748565673828125,-0.294036865234375,-0.20196533203125
1726225577642209500,11.09920947265625,-1.1641693115234375,-0.6896514892578125,-0.024383544921875
1726225577652245500,11.10924560546875,-0.9976043701171875,-1.216094970703125,0.012298583984375
1726225577662282800,11.11928271484375,-0.8809814453125,-1.2714691162109375,0.0684967041015625
1726225577672318700,11.129318603515625,-0.6098175048828125,-0.959747314453125,0.0792999267578125
1726225577682354700,11.139354736328125,-0.268890380859375,-1.0149688720703125,-0.0571746826171875
1726225577692391700,11.1493916015625,-0.2780609130859375,-0.65655517578125,-0.08380126953125
1726225577702427600,11.159427734375,-0.5155487060546875,-0.481842041015625,-0.1118316650390625
1726225577712463600,11.169463623046875,-0.9519195556640625,-0.7152862548828125,0.1944732666015625
1726225577722500600,11.17950048828125,-0.87274169921875,-1.368804931640625,0.2078704833984375
1726225577732536600,11.18953662109375,-1.1246337890625,-1.1554412841796875,-0.0577239990234375
1726225577742572500,11.199572509765625,-0.5250244140625,-0.938201904296875,0.16229248046875
1726225577752608500,11.2096083984375,-0.2569732666015625,-0.9989013671875,0.086090087890625
1726225577762645500,11.2196455078125,0.5334930419921875,-0.84716796875,-0.06048583984375
1726225577772681500,11.229681396484375,-0.053741455078125,-0.840667724609375,0.1103515625
1726225577782717700,11.2397177734375,-0.1078948974609375,-0.2547454833984375,0.0946502685546875
1726225577792754700,11.249754638671876,0.0766143798828125,-0.3558502197265625,0.1168670654296875
1726225577802790700,11.259790771484376,-0.8904266357421875,-0.9804534912109375,0.1432037353515625
1726225577812826600,11.26982666015625,-1.876617431640625,-0.6998748779296875,-0.0202178955078125
1726225577822863600,11.279863525390626,-1.3404693603515625,-1.1984710693359375,-0.0023345947265625
1726225577832899600,11.289899658203124,-0.7928009033203125,-1.31719970703125,0.1700897216796875
1726225577842935600,11.299935546875,-0.7724151611328125,-0.842987060546875,0.0911865234375
1726225577852972500,11.30997265625,-0.3690185546875,-0.0969390869140625,-0.210235595703125
1726225577863008500,11.320008544921874,0.837127685546875,-0.92474365234375,-0.15118408203125
1726225577873044500,11.33004443359375,0.0452423095703125,-1.02362060546875,0.1993255615234375
1726225577883080400,11.34008056640625,-0.818695068359375,-0.5579986572265625,0.077728271484375
1726225577893117700,11.35011767578125,-0.9544219970703125,-0.5088958740234375,-0.013427734375
1726225577903153700,11.360153564453125,-0.9384765625,-0.9823150634765625,-0.212188720703125
1726225577913189600,11.370189697265625,-0.7375335693359375,-1.053863525390625,0.00360107421875
1726225577923226600,11.3802265625,-0.6006011962890625,-0.582244873046875,-0.226593017578125
1726225577933262600,11.3902626953125,0.030517578125,-0.6727447509765625,-0.3334503173828125
1726225577943298600,11.400298583984375,0.6746063232421875,-1.4622039794921875,0.0081787109375
1726225577953335600,11.41033544921875,-0.472015380859375,-0.7835845947265625,0.0204315185546875
1726225577963371500,11.42037158203125,-1.695220947265625,-0.2059326171875,0.0784759521484375
1726225577973407500,11.430407470703125,-1.3286895751953125,-0.933807373046875,0.0244598388671875
1726225577983444700,11.44044482421875,-1.452667236328125,-1.58026123046875,0.1298980712890625
1726225577993480700,11.450480712890625,-0.854461669921875,-0.9525604248046875,0.35333251953125
1726225578003516700,11.4605166015625,-0.4818878173828125,-0.2568511962890625,0.174957275390625
1726225578013552600,11.470552734375,-0.0825958251953125,-1.276641845703125,-0.075042724609375
1726225578023589600,11.480589599609376,-0.473724365234375,-1.4206695556640625,-0.2266998291015625
1726225578033625600,11.49062548828125,-0.54486083984375,-0.6740875244140625,-0.0948944091796875
1726225578043661600,11.50066162109375,-0.8823699951171875,0.146636962890625,-0.1762237548828125
1726225578053698600,11.510698486328126,-0.7229461669921875,-1.114593505859375,0.223663330078125
1726225578063734500,11.520734619140624,-0.4065704345703125,-1.537353515625,0.4465179443359375
1726225578073770500,11.5307705078125,-0.919219970703125,-0.4705047607421875,0.2742462158203125
1726225578083807700,11.540807861328124,-0.7173919677734375,0.04937744140625,0.2491607666015625
1726225578093843700,11.55084375,0.4207305908203125,-1.181793212890625,0.40020751953125
1726225578103879700,11.560879638671874,0.486480712890625,-1.49951171875,-0.0168914794921875
1726225578113915600,11.57091552734375,-0.743988037109375,-0.43505859375,0.0544586181640625
1726225578123952600,11.58095263671875,-1.4545440673828125,0.1352386474609375,0.00054931640625
1726225578133988600,11.590988525390625,-0.3667755126953125,-1.314361572265625,0.09283447265625
1726225578144024600,11.601024658203125,-0.3628997802734375,-1.3420257568359375,0.0613250732421875
1726225578154061600,11.6110615234375,-1.1067657470703125,-0.408660888671875,-0.02215576171875
1726225578164097500,11.62109765625,-1.216888427734375,0.11932373046875,0.139801025390625
1726225578174133500,11.631133544921875,0.5051116943359375,-1.4480133056640625,0.07720947265625
1726225578184170500,11.64117041015625,0.3062896728515625,-1.587066650390625,-0.1493377685546875
1726225578194206500,11.65120654296875,-1.3781585693359375,-0.076812744140625,-0.0505218505859375
1726225578204242700,11.66124267578125,-1.6192169189453125,0.1996917724609375,-0.0595550537109375
1726225578214280200,11.6712802734375,-0.2955322265625,-1.5775604248046875,0.1053466796875
1726225578224316200,11.681316162109376,-0.452789306640625,-1.44512939453125,0.194183349609375
1726225578234352000,11.69135205078125,-1.35565185546875,-0.3863372802734375,0.1524200439453125
1726225578244388000,11.70138818359375,-0.5738525390625,0.018035888671875,0.13922119140625
1726225578254425000,11.711425048828126,0.2506561279296875,-1.620025634765625,0.3350982666015625
1726225578264461000,11.7214609375,0.169281005859375,-1.4837188720703125,-0.06640625
1726225578274497000,11.7314970703125,-1.08648681640625,-0.4605560302734375,0.0762481689453125
1726225578284534000,11.741533935546874,-0.3238525390625,-0.5375213623046875,0.1495208740234375
1726225578294570200,11.7515703125,0.015228271484375,-1.57537841796875,0.1786346435546875
1726225578304606200,11.761606201171874,-0.5097808837890625,-0.879486083984375,0.1231536865234375
1726225578314643200,11.771643310546875,-1.107391357421875,-0.4064788818359375,0.1764373779296875
1726225578324679200,11.78167919921875,-0.6891937255859375,-1.1754302978515625,0.315765380859375
1726225578334715100,11.791715087890625,-1.0872650146484375,-1.5371551513671875,0.1894683837890625
1726225578344752000,11.801752197265625,-1.0230255126953125,-0.7434539794921875,0.01910400390625
1726225578354788000,11.8117880859375,-0.7290496826171875,-0.5020294189453125,0.0044403076171875
1726225578364824000,11.821823974609375,0.1683807373046875,-1.2895050048828125,0.136932373046875
1726225578374860000,11.831860107421875,-0.3231201171875,-1.0446014404296875,0.1770172119140625
1726225578384897000,11.84189697265625,-0.4859466552734375,-0.2883148193359375,-0.001312255859375
1726225578394933000,11.85193310546875,-0.5417022705078125,-0.2629852294921875,-0.214752197265625
1726225578404969000,11.861968994140625,-0.3324432373046875,-1.3645172119140625,0.2434844970703125
1726225578415006200,11.872006103515625,-0.437286376953125,-1.01605224609375,0.093017578125
1726225578425042200,11.882042236328125,-0.99737548828125,-0.2605743408203125,0.073760986328125
1726225578435078100,11.892078125,-0.5360870361328125,-0.2081298828125,0.06793212890625
1726225578445115100,11.902115234375,0.117584228515625,-1.4554290771484375,0.0853424072265625
1726225578455151000,11.912151123046876,-0.1013336181640625,-0.983123779296875,0.111907958984375
1726225578465187000,11.92218701171875,-1.092132568359375,-0.4071197509765625,0.1761627197265625
1726225578475224000,11.93222412109375,-1.2195587158203125,0.0410919189453125,0.171478271484375
1726225578485260000,11.942260009765626,-0.8054656982421875,-1.3171844482421875,0.2113037109375
1726225578495296000,11.9522958984375,-0.2034149169921875,-1.4345703125,0.07666015625
1726225578505332000,11.96233203125,-1.29949951171875,-0.503265380859375,0.0006103515625
1726225578515369200,11.972369140625,-0.6001129150390625,-0.126983642578125,-0.0921783447265625
1726225578525405200,11.9824052734375,0.6119842529296875,-1.2454833984375,-0.0049896240234375
1726225578535441200,11.992441162109374,-0.030975341796875,-0.965179443359375,0.090118408203125
1726225578545478100,12.00247802734375,-0.92449951171875,-0.2155303955078125,-0.00799560546875
1726225578555514000,12.01251416015625,-0.773895263671875,-0.65301513671875,0.183258056640625
1726225578565550000,12.022550048828125,-0.610443115234375,-1.3906097412109375,0.193756103515625
1726225578575587000,12.032587158203125,-0.546142578125,-0.9661102294921875,-0.14886474609375
1726225578585623000,12.042623046875,-1.4338226318359375,-0.005950927734375,-0.0307159423828125
1726225578595659000,12.052658935546875,-0.5032501220703125,-0.8175048828125,-0.01031494140625
1726225578605696300,12.0626962890625,-0.510650634765625,-1.7618408203125,-0.0487060546875
1726225578615732200,12.072732177734375,-0.7982330322265625,-0.6749725341796875,0.0435943603515625
1726225578625768200,12.082768310546875,-0.9840850830078125,-0.539764404296875,0.0144500732421875
1726225578635804200,12.09280419921875,-0.5454864501953125,-1.33740234375,0.0959014892578125
1726225578645841200,12.102841064453125,-0.6343536376953125,-1.4990081787109375,0.0470123291015625
1726225578655877000,12.112877197265625,-0.9093170166015625,-0.3725738525390625,0.0041961669921875
1726225578665913000,12.1229130859375,-0.5821685791015625,-0.2371368408203125,0.009033203125
1726225578675950000,12.1329501953125,-0.05975341796875,-1.4814910888671875,0.05206298828125
1726225578685986000,12.142986083984376,-0.4766387939453125,-1.1656646728515625,-0.058380126953125
1726225578696022000,12.15302197265625,-0.6019744873046875,0.1566925048828125,-0.023406982421875
1726225578706059000,12.16305908203125,-0.1407012939453125,-0.59173583984375,0.0024566650390625
1726225578716095200,12.17309521484375,-0.4665374755859375,-1.58343505859375,0.1777191162109375
1726225578726131200,12.183131103515626,-0.88702392578125,-0.9257354736328125,0.032135009765625
1726225578736167200,12.193167236328126,-1.7067108154296875,-0.1702728271484375,0.1536102294921875
1726225578746204200,12.2032041015625,-0.7969818115234375,-0.4907684326171875,0.1684722900390625
1726225578756240100,12.213240234375,0.271697998046875,-1.498046875,0.1177978515625
1726225578766276000,12.223276123046874,0.064788818359375,-1.1707763671875,0.1298828125
1726225578776313000,12.23331298828125,-0.5042724609375,-0.18182373046875,0.026336669921875
1726225578786349000,12.24334912109375,-0.343109130859375,-0.46173095703125,0.1644287109375
1726225578796385000,12.253385009765625,0.1124725341796875,-1.5039215087890625,0.02587890625
1726225578806422000,12.263422119140625,-0.00604248046875,-0.9069366455078125,-0.0420074462890625
1726225578816458000,12.2734580078125,-1.23822021484375,-0.09625244140625,-0.0063018798828125
1726225578826494000,12.283493896484375,-1.1883544921875,0.0718994140625,-0.0531768798828125
1726225578836531200,12.29353125,-0.829620361328125,-1.5549468994140625,0.13494873046875
1726225578846567200,12.303567138671875,-0.6891937255859375,-1.5420074462890625,0.038299560546875
1726225578856603100,12.31360302734375,-1.4067840576171875,-0.6742401123046875,-0.0064697265625
1726225578866639000,12.32363916015625,-0.941436767578125,-0.677490234375,0.1499176025390625
1726225578876676000,12.333676025390625,-0.04632568359375,-1.3508148193359375,0.1643218994140625
1726225578886712000,12.343712158203125,0.1379241943359375,-0.9671630859375,-0.0789337158203125
1726225578896748000,12.353748046875,-0.23980712890625,-0.194793701171875,-0.0783233642578125
1726225578906785000,12.363784912109375,-0.222991943359375,-0.8670196533203125,-0.0325164794921875
1726225578916821000,12.373821044921876,-0.41339111328125,-1.41412353515625,0.0423736572265625
1726225578926857000,12.38385693359375,-1.2127838134765625,-0.7708892822265625,0.0456085205078125
1726225578936894200,12.393894287109376,-0.5487823486328125,-0.373870849609375,-0.12200927734375
1726225578946930200,12.40393017578125,0.0269012451171875,-1.507415771484375,0.1087646484375
1726225578956966100,12.413966064453126,-0.3375701904296875,-0.9847259521484375,-0.048431396484375
1726225578967003100,12.424003173828124,-1.020599365234375,-0.2924041748046875,-0.083465576171875
1726225578977039000,12.4340390625,-0.6128692626953125,-0.4560394287109375,0.063720703125
1726225578987075000,12.444074951171874,-0.7793121337890625,-1.3874359130859375,0.0436553955078125
1726225578997111000,12.454111083984374,-0.9719696044921875,-0.9312896728515625,0.1392364501953125
1726225579007148000,12.46414794921875,-1.124420166015625,-0.2471160888671875,0.1039276123046875
1726225579017184000,12.47418408203125,-0.726593017578125,-0.758270263671875,0.241851806640625
1726225579027220000,12.484219970703125,-0.488983154296875,-1.5842742919921875,0.1480560302734375
1726225579037257200,12.49425732421875,-0.57281494140625,-1.0395355224609375,0.0614471435546875
1726225579047293200,12.504293212890625,-0.841278076171875,-0.160491943359375,-0.1137542724609375
1726225579057329200,12.5143291015625,-0.49078369140625,-0.455322265625,0.052581787109375
1726225579067366100,12.5243662109375,-0.2349090576171875,-1.1945648193359375,0.1067352294921875
1726225579077402000,12.534402099609375,-0.627044677734375,-0.9130401611328125,0.0929412841796875
1726225579087438000,12.54443798828125,-0.6958770751953125,0.0901641845703125,0.0015869140625
1726225579097474000,12.55447412109375,0.36712646484375,-0.551788330078125,0.3326263427734375
1726225579107511000,12.564510986328125,0.5414886474609375,-1.243408203125,0.2079925537109375
1726225579117547000,12.574547119140625,-1.02032470703125,-0.3742218017578125,0.0485992431640625
1726225579127583000,12.5845830078125,-1.3470458984375,-0.3705596923828125,0.184661865234375
1726225579137620200,12.5946201171875,-0.8037109375,-1.4812774658203125,-0.034332275390625
1726225579147656200,12.60465625,-0.787933349609375,-1.647552490234375,-0.0114593505859375
1726225579157692200,12.614692138671876,-1.29010009765625,-0.9616546630859375,-0.012664794921875
1726225579167729200,12.624729248046876,-0.82550048828125,-0.4887542724609375,-0.076873779296875
1726225579177765000,12.63476513671875,-0.54986572265625,-1.1462860107421875,0.105072021484375
1726225579187801000,12.644801025390626,-0.264801025390625,-1.0094146728515625,-0.1082611083984375
1726225579197838000,12.654838134765624,-0.6758880615234375,-0.2042083740234375,-0.03997802734375
1726225579207874000,12.6648740234375,-0.0038604736328125,-0.2952117919921875,0.009033203125
1726225579217909800,12.67490966796875,0.284912109375,-1.430328369140625,0.0621795654296875
1726225579227945700,12.68494580078125,-0.4471435546875,-0.94140625,0.2325286865234375
1726225579237982700,12.694982666015624,-1.4965972900390625,-0.3359832763671875,0.1474151611328125
1726225579248018700,12.705018798828124,-0.691436767578125,-0.7532806396484375,0.2751312255859375
1726225579258054700,12.7150546875,-0.7431793212890625,-1.6240386962890625,0.290069580078125
1726225579268091600,12.725091552734375,-0.7045440673828125,-1.00128173828125,-0.054595947265625
1726225579278127600,12.735127685546875,-0.974151611328125,-0.3561248779296875,0.057830810546875
1726225579288163600,12.74516357421875,0.30596923828125,-0.86663818359375,0.088592529296875
1726225579298200800,12.755200927734375,0.26141357421875,-1.6229095458984375,0.0528717041015625
1726225579308236800,12.76523681640625,-0.6136474609375,-0.6508331298828125,0.2960968017578125
1726225579318272800,12.775272705078125,-0.70965576171875,-0.2996826171875,0.2798309326171875
1726225579328309800,12.785309814453125,-0.2351531982421875,-1.213623046875,0.364471435546875
1726225579338345700,12.795345703125,-0.299041748046875,-1.1913299560546875,0.0803985595703125
1726225579348381700,12.805381591796875,-0.9539947509765625,-0.5751495361328125,-0.0547637939453125
1726225579358417700,12.815417724609375,-0.594970703125,-0.159271240234375,-0.03179931640625
1726225579368454700,12.82545458984375,-0.584259033203125,-1.4589385986328125,-0.016387939453125
1726225579378490600,12.83549072265625,-0.6352996826171875,-0.996185302734375,-0.128662109375
1726225579388526600,12.845526611328125,-1.2534332275390625,-0.301055908203125,0.1644134521484375
1726225579398563800,12.855563720703126,-1.4434661865234375,-0.1431427001953125,0.2167816162109375
1726225579408599800,12.865599853515626,-0.578399658203125,-1.589324951171875,0.307098388671875
1726225579418635800,12.8756357421875,0.1967620849609375,-1.653472900390625,0.1046295166015625
1726225579428672800,12.8856728515625,-0.6237945556640625,-0.329132080078125,0.01483154296875
1726225579438708700,12.895708740234374,-0.4186859130859375,-0.047332763671875,-0.106201171875
1726225579448744700,12.90574462890625,0.8567352294921875,-1.4411773681640625,0.0280609130859375
