time,seconds_elapsed,z,y,x
1726225566567146200,0.024146240234375,-0.09524596482515335,-0.12824934720993042,-0.051473431289196014
1726225566577183200,0.034183349609375,-0.11047125607728958,-0.10306941717863083,0.12268292158842087
1726225566587219200,0.04421923828125,-0.15017069876194,-0.14444807171821594,0.1215931847691536
1726225566597255200,0.054255126953125,-0.22191865742206573,-0.21515047550201416,-0.11031274497509003
1726225566607291100,0.064291015625,-0.2614906132221222,-0.2494884878396988,-0.12736621499061584
1726225566617328000,0.074328125,-0.27352648973464966,-0.22587130963802338,-0.056594304740428925
1726225566627364000,0.084364013671875,-0.23677371442317963,-0.16630849242210388,0.024985553696751595
1726225566637400000,0.094400146484375,-0.2747783660888672,-0.2001415640115738,0.04849806800484657
1726225566647437300,0.104437255859375,-0.2508402466773987,-0.1872033327817917,-0.09295143932104111
1726225566657473300,0.114473388671875,-0.18668709695339203,-0.21656735241413116,0.0759640783071518
1726225566667509200,0.12450927734375,-0.23407748341560364,-0.2041797786951065,0.08361613750457764
1726225566677546200,0.134546142578125,-0.2606350779533386,-0.1982925981283188,-0.0047219786792993546
1726225566687582200,0.144582275390625,-0.2844524681568146,-0.22136589884757996,0.044491373002529144
1726225566697618200,0.1546181640625,-0.26165661215782166,-0.23976407945156097,0.11928784847259521
1726225566707654100,0.164654052734375,-0.27425700426101685,-0.2620132565498352,0.17695440351963043
1726225566717691100,0.174691162109375,-0.33445802330970764,-0.29621994495391846,-0.013936981558799744
1726225566727727000,0.18472705078125,-0.38347721099853516,-0.36132580041885376,-0.10478508472442627
1726225566737763000,0.19476318359375,-0.3626134693622589,-0.3825344145298004,-0.06639721244573593
1726225566747800000,0.204800048828125,-0.2751983404159546,-0.37294191122055054,0.10258897393941879
1726225566757836000,0.2148359375,-0.2303246110677719,-0.26159194111824036,0.19186532497406006
1726225566767872300,0.224872314453125,-0.19637048244476318,-0.31993862986564636,-0.015460934489965439
1726225566777908200,0.234908203125,-0.21475906670093536,-0.31393638253211975,-0.03592945635318756
1726225566787945200,0.2449453125,-0.12003645300865173,-0.20546108484268188,0.1580856293439865
1726225566797981200,0.254981201171875,-0.12124180048704147,-0.20586535334587097,0.09564115852117538
1726225566808017200,0.26501708984375,-0.16281118988990784,-0.1608048677444458,-0.05416784808039665
1726225566818054100,0.27505419921875,-0.032218024134635925,-0.1978510469198227,0.09338033199310303
1726225566828090000,0.285090087890625,-0.01733047515153885,-0.18768556416034698,0.08691102266311646
1726225566838126000,0.2951259765625,0.02177964523434639,-0.13140657544136047,0.12067298591136932
1726225566848162000,0.305162109375,0.0357065387070179,-0.09814395755529404,0.1786564141511917
1726225566858199000,0.315198974609375,0.0175994373857975,-0.14360758662223816,-0.058048002421855927
1726225566868235000,0.325235107421875,0.021649252623319626,-0.20159350335597992,-0.14797693490982056
1726225566878271000,0.33527099609375,0.07695697993040085,-0.12335144728422165,-0.008779909461736679
1726225566888308200,0.34530810546875,0.1448574662208557,-0.025012420490384102,0.12466293573379517
1726225566898344200,0.35534423828125,0.15322086215019226,-0.09739048033952713,-0.13912662863731384
1726225566908380200,0.365380126953125,0.1757735162973404,-0.13469217717647552,-0.3394652009010315
1726225566918416400,0.37541650390625,0.286925345659256,0.09713412821292877,-0.0632234737277031
1726225566928453000,0.385453125,0.38030165433883667,0.19269487261772156,0.383088618516922
1726225566938489000,0.395489013671875,0.38598644733428955,0.1120317205786705,0.2491350919008255
1726225566948525300,0.405525390625,0.3899309039115906,0.16312752664089203,-0.008687813766300678
1726225566958562000,0.41556201171875,0.5510801076889038,0.13314831256866455,0.006368101574480534
1726225566968598000,0.425597900390625,0.4835768938064575,0.17302589118480682,0.21889352798461914
1726225566978634200,0.43563427734375,0.4676855504512787,0.19115376472473145,-0.0004873010329902172
1726225566988670200,0.445670166015625,0.45155051350593567,0.11583331227302551,-0.1749413162469864
1726225566998707200,0.455707275390625,0.41083982586860657,0.18817169964313507,-0.09348452836275101
1726225567008743200,0.4657431640625,0.4809189438819885,0.1515125334262848,0.15259398519992828
1726225567018779400,0.475779296875,0.2830687165260315,0.253561407327652,0.0010143178515136242
1726225567028816100,0.485816162109375,0.29894986748695374,0.11949169635772705,-0.3600579500198364
1726225567038852000,0.49585205078125,0.22486262023448944,0.09088615328073502,-0.0840042307972908
1726225567048888300,0.505888427734375,0.2968393862247467,0.08678681403398514,0.21766741573810577
1726225567058924300,0.51592431640625,0.19238780438899994,0.07748066633939743,0.012476981617510319
1726225567068961000,0.5259609375,0.0942588597536087,0.0882100760936737,-0.08031127601861954
1726225567078997200,0.535997314453125,0.16848967969417572,0.037345029413700104,0.03548083081841469
1726225567089033200,0.546033203125,0.08261647075414658,-0.0009227967821061611,0.08400072157382965
1726225567099070200,0.5560703125,0.036387454718351364,-0.0826546773314476,0.25788649916648865
1726225567109106200,0.566106201171875,-0.036160778254270554,-0.11413783580064774,0.1003241240978241
1726225567119142400,0.576142333984375,-0.12569306790828705,-0.15566077828407288,-0.26767149567604065
1726225567129178400,0.586178466796875,0.07006285339593887,-0.2223062515258789,-0.319673627614975
1726225567139215000,0.596215087890625,-0.0328906886279583,-0.1172831654548645,0.04564604535698891
1726225567149251300,0.606251220703125,-0.018839633092284203,-0.11698515713214874,0.04850063845515251
1726225567159287300,0.616287353515625,-0.034551218152046204,-0.1352858692407608,-0.23786881566047668
1726225567169324000,0.626323974609375,-0.048650871962308884,-0.09859257936477661,-0.052447691559791565
1726225567179360300,0.6363603515625,0.11967528611421585,-0.04227098450064659,0.1783258616924286
1726225567189396200,0.646396240234375,0.08109244704246521,0.056696489453315735,0.10848350077867508
1726225567199433700,0.656433837890625,0.07156232744455338,0.023910049349069595,-0.006530439015477896
1726225567209469700,0.6664697265625,0.10574740171432495,0.02845972590148449,-0.060578711330890656
1726225567219505700,0.676505615234375,0.17890338599681854,0.07603976130485535,0.061638012528419495
1726225567229542000,0.6865419921875,0.2632470428943634,0.06039728224277496,-0.12562447786331177
1726225567239579000,0.696578857421875,0.23671208322048187,0.09422475099563599,-0.12091442197561264
1726225567249614800,0.70661474609375,0.29220736026763916,0.05793585255742073,0.13233980536460876
1726225567259651000,0.716651123046875,0.3118268847465515,0.09085918217897415,0.20823775231838226
1726225567269687800,0.726687744140625,0.38069483637809753,0.0822242796421051,-0.04671528562903404
1726225567279723800,0.736723876953125,0.3165379464626312,0.0698496401309967,-0.050887927412986755
1726225567289760000,0.746760009765625,0.25957489013671875,0.0568016842007637,0.15147750079631805
1726225567299796000,0.7567958984375,0.27476873993873596,0.08381305634975433,0.0021833539940416813
1726225567309832700,0.766832763671875,0.2550109624862671,0.10109864175319672,-0.14536406099796295
1726225567319869000,0.776868896484375,0.28988906741142273,0.05287279188632965,-0.0010974160395562649
1726225567329905000,0.78690478515625,0.2891926169395447,0.05052713677287102,-0.08727480471134186
1726225567339941600,0.796941650390625,0.3174612522125244,0.03706112876534462,-0.10325883328914642
1726225567349977900,0.806977783203125,0.26713091135025024,0.01950310915708542,0.15167336165905
1726225567360014000,0.81701416015625,0.2154264599084854,0.034761156886816025,0.07035880535840988
1726225567370050000,0.827050048828125,0.13465555012226105,0.03285094350576401,-0.10849817097187042
1726225567380086800,0.837086669921875,-0.009496830403804779,0.0615030936896801,-0.053645581007003784
1726225567390123000,0.847123046875,-0.035369500517845154,0.03322451934218407,0.02749556303024292
1726225567400159000,0.857158935546875,-0.05274476483464241,-0.036102090030908585,0.046117980033159256
1726225567410195700,0.86719580078125,-0.09475107491016388,-0.07499583065509796,-0.07717978954315186
1726225567420232000,0.87723193359375,-0.09595055878162384,-0.03241001442074776,-0.13411711156368256
1726225567430268000,0.887267822265625,-0.0587119460105896,-0.02580171823501587,0.17830151319503784
1726225567440303900,0.897303955078125,-0.06842130422592163,-0.11877134442329407,0.04444997012615204
1726225567450340900,0.9073408203125,-0.12198636680841446,-0.16981174051761627,-0.05605218559503555
1726225567460376800,0.917376953125,-0.17591777443885803,-0.14946971833705902,0.07657217234373093
1726225567470412800,0.927412841796875,-0.2409530133008957,-0.16097325086593628,0.39648672938346863
1726225567480449800,0.93744970703125,-0.24276530742645264,-0.19283264875411987,0.13186681270599365
1726225567490486000,0.947486083984375,-0.32369154691696167,-0.20182548463344574,-0.12241062521934509
1726225567500522000,0.95752197265625,-0.3544324040412903,-0.1928572952747345,-0.17370018362998962
1726225567510558000,0.967557861328125,-0.2686064839363098,-0.19418780505657196,0.045674193650484085
1726225567520595000,0.977594970703125,-0.2177017480134964,-0.2017250806093216,0.12981516122817993
1726225567530631000,0.987630859375,-0.1641281694173813,-0.2308402806520462,-0.16798135638237
1726225567540667000,0.9976669921875,-0.2687744200229645,-0.1768188625574112,0.04482412338256836
1726225567550703900,1.007703857421875,-0.16878123581409454,-0.14878162741661072,0.16834934055805206
1726225567560739800,1.01773974609375,-0.18333114683628082,-0.09178519248962402,-0.062036994844675064
1726225567570775800,1.02777587890625,-0.20850153267383575,-0.13364896178245544,0.14696471393108368
1726225567580813000,1.03781298828125,-0.1817319691181183,-0.17544007301330566,0.07177328318357468
1726225567590849000,1.04784912109375,-0.17479988932609558,-0.17177090048789978,0.07406064122915268
1726225567600885000,1.057885009765625,-0.11308220028877258,-0.1654869019985199,0.2957882285118103
1726225567610921000,1.0679208984375,-0.1082884818315506,-0.1474543809890747,0.0374305434525013
1726225567620958000,1.0779580078125,-0.06793040782213211,-0.1693841814994812,-0.12449736893177032
1726225567630994000,1.087993896484375,-0.0693323090672493,-0.1251990646123886,0.02449016459286213
1726225567641030000,1.09802978515625,0.009503118693828583,-0.18156380951404572,0.034453313797712326
1726225567651067000,1.10806689453125,0.015084723010659218,-0.19095870852470398,0.06249295920133591
1726225567661102800,1.118102783203125,0.01966163143515587,-0.17158260941505432,0.02044830471277237
1726225567671138800,1.128138916015625,0.08158886432647705,-0.125785231590271,-0.01415376365184784
1726225567681174800,1.1381748046875,0.0901610478758812,-0.08363645523786545,0.017869150266051292
1726225567691212000,1.1482119140625,0.11927797645330429,-0.09131234884262085,0.13378015160560608
1726225567701248000,1.158248046875,0.13429474830627441,-0.0598636120557785,0.0803731307387352
1726225567711284000,1.168283935546875,0.15624776482582092,-0.0032649203203618526,-0.17019745707511902
1726225567721321000,1.178321044921875,0.18908214569091797,0.03217935562133789,-0.15996533632278442
1726225567731357000,1.18835693359375,0.21202954649925232,0.050194308161735535,-0.08054614067077637
1726225567741393000,1.198392822265625,0.2461928278207779,0.08654326945543289,0.06448721885681152
1726225567751428900,1.208428955078125,0.2949623167514801,0.11704584956169128,-0.2550891637802124
1726225567761465900,1.2184658203125,0.28913745284080505,0.19487911462783813,-0.21076616644859314
1726225567771501800,1.228501708984375,0.35826465487480164,0.1533181071281433,0.05414622277021408
1726225567781537800,1.238537841796875,0.33714765310287476,0.2004571259021759,-0.02101697027683258
1726225567791575000,1.248574951171875,0.3828052580356598,0.1986881047487259,-0.0858667641878128
1726225567801611000,1.258611083984375,0.3867368996143341,0.24831078946590424,-0.1065579205751419
1726225567811647000,1.26864697265625,0.37788376212120056,0.27649056911468506,-0.05748436227440834
1726225567821683000,1.278682861328125,0.38863733410835266,0.28929397463798523,0.006101538427174091
1726225567831720000,1.288719970703125,0.3608115017414093,0.26646801829338074,-0.2116786539554596
1726225567841756000,1.298755859375,0.3447451889514923,0.2678976058959961,-0.18012019991874695
1726225567851792000,1.3087919921875,0.3062942624092102,0.19977349042892456,0.012376653030514717
1726225567861828900,1.318828857421875,0.22339963912963867,0.2234620451927185,-0.19968926906585693
1726225567871864800,1.32886474609375,0.22009912133216858,0.26075515151023865,-0.11074835807085037
1726225567881900800,1.33890087890625,0.16634748876094818,0.2218649983406067,-0.047839172184467316
1726225567891937800,1.348937744140625,0.0682561993598938,0.23301418125629425,-0.07722076028585434
1726225567901974000,1.35897412109375,0.08588073402643204,0.1888784021139145,-0.021664556115865707
1726225567912010000,1.369010009765625,0.0042053391225636005,0.20643572509288788,-0.15339326858520508
1726225567922046000,1.3790458984375,0.03223084658384323,0.17222875356674194,-0.007583596743643284
1726225567932083000,1.3890830078125,-0.007617277558892965,0.1354006826877594,0.11455396562814713
1726225567942119000,1.399118896484375,-0.08591768145561218,0.08099310100078583,0.02707631327211857
1726225567952155000,1.40915478515625,-0.0826762318611145,0.06643173098564148,-0.27785274386405945
1726225567962192000,1.41919189453125,-0.1576295644044876,0.10622575134038925,-0.0722026377916336
1726225567972227800,1.429227783203125,-0.16066136956214905,0.05512988939881325,-0.011620129458606243
1726225567982263800,1.439263916015625,-0.1807626485824585,0.024778105318546295,-0.12089841812849045
1726225567992299800,1.4492998046875,-0.2014349102973938,-0.0017718798480927944,0.10327298194169998
1726225568002336800,1.459336669921875,-0.16801676154136658,0.0007173768244683743,-0.02564132586121559
1726225568012372700,1.469372802734375,-0.21163876354694366,0.024895217269659042,0.04356379434466362
1726225568022409000,1.479408935546875,-0.18885168433189392,0.016612786799669266,0.04601949825882912
1726225568032446000,1.489446044921875,-0.23390446603298187,0.0506032332777977,0.010133815929293633
1726225568042482000,1.49948193359375,-0.24593795835971832,0.05869818478822708,0.17017248272895813
1726225568052518000,1.509517822265625,-0.2554910480976105,0.07197098433971405,-0.03872864693403244
1726225568062553900,1.519553955078125,-0.2713080942630768,0.06473037600517273,-0.21404027938842773
1726225568072590800,1.5295908203125,-0.24580930173397064,0.016102459281682968,0.14317166805267334
1726225568082626800,1.539626708984375,-0.1975557506084442,0.01971823163330555,-0.1493891030550003
1726225568092662800,1.549662841796875,-0.15832552313804626,-0.01986965723335743,-0.2543080747127533
1726225568102699800,1.55969970703125,-0.1748637557029724,-0.026629559695720673,0.033716004341840744
1726225568112735700,1.56973583984375,-0.14871415495872498,0.0219498872756958,0.021340247243642807
1726225568122771700,1.579771728515625,-0.1484808623790741,0.03818265348672867,-0.041798774152994156
1726225568132809000,1.58980908203125,-0.20341558754444122,0.029404200613498688,-0.08995131403207779
1726225568142845000,1.599844970703125,-0.20559166371822357,0.009569777175784111,0.09329520910978317
1726225568152881000,1.609880859375,-0.21986807882785797,-0.010255911387503147,-0.014637921005487442
1726225568162916900,1.619916748046875,-0.2255491316318512,-0.01448847260326147,-0.08702849596738815
1726225568172953900,1.629953857421875,-0.22532229125499725,-0.05559070408344269,-0.29427963495254517
1726225568182989800,1.63998974609375,-0.22721925377845764,-0.06974221020936966,0.09815285354852676
1726225568193025800,1.65002587890625,-0.19097740948200226,-0.10582704097032547,-0.01763254776597023
1726225568203062300,1.660062255859375,-0.22707895934581757,-0.04571736603975296,-0.3770388960838318
1726225568213098200,1.67009814453125,-0.17345403134822845,-0.06823666393756866,-0.0036510995123535395
1726225568223134200,1.68013427734375,-0.1692851185798645,-0.007483297027647495,0.18012751638889313
1726225568233170200,1.690170166015625,-0.16885635256767273,-0.013476207852363586,0.01580622047185898
1726225568243207400,1.70020751953125,-0.19609250128269196,-0.03950700908899307,-0.0654875710606575
1726225568253243400,1.710243408203125,-0.20384536683559418,-0.010886896401643753,0.12478506565093994
1726225568263279400,1.720279296875,-0.16134291887283325,-0.06476158648729324,0.09818834811449051
1726225568273316400,1.73031640625,-0.17879585921764374,-0.10274498909711838,-0.15630067884922028
1726225568283352300,1.740352294921875,-0.1728665977716446,-0.09297651797533035,-0.033474624156951904
1726225568293388300,1.75038818359375,-0.11288169771432877,-0.1499457061290741,0.20472101867198944
1726225568303424300,1.76042431640625,-0.1484178602695465,-0.11600238084793091,-0.05471107363700867
1726225568313461200,1.770461181640625,-0.11776755005121231,-0.12284078449010849,0.03399805724620819
1726225568323497200,1.780497314453125,-0.1263679563999176,-0.10827621817588806,0.23046371340751648
1726225568333533200,1.790533203125,-0.12202942371368408,-0.0797782838344574,0.1319880485534668
1726225568343570200,1.800570068359375,-0.09346728771924973,-0.06733226776123047,0.046986863017082214
1726225568353606400,1.8106064453125,-0.12497395277023315,-0.05364067107439041,-0.022430619224905968
1726225568363642400,1.820642333984375,-0.07331795245409012,-0.05543510988354683,0.39394235610961914
1726225568373679400,1.830679443359375,-0.09626100212335587,-0.10536659508943558,0.2335699498653412
1726225568383715300,1.84071533203125,-0.09190034121274948,-0.15227524936199188,-0.33020153641700745
1726225568393751300,1.850751220703125,-0.054395709186792374,-0.12232066690921783,-0.10491516441106796
1726225568403787300,1.860787353515625,-0.00559567753225565,-0.12756602466106415,0.09087298065423965
1726225568413824300,1.87082421875,-0.052980177104473114,-0.10249669849872589,0.09940122812986374
1726225568423860200,1.880860107421875,0.022664785385131836,-0.07680172473192215,0.005225991830229759
1726225568433896200,1.890896240234375,0.05803786218166351,-0.025834552943706512,0.2366046905517578
1726225568443933200,1.90093310546875,0.09028740972280502,-0.060431674122810364,0.147711843252182
1726225568453969200,1.91096923828125,0.09802888333797455,-0.024459756910800934,0.014204914681613445
1726225568464005000,1.921005126953125,0.12548793852329254,-0.012001489289104939,0.2305111140012741
1726225568474042400,1.93104248046875,0.20627707242965698,-0.03233499079942703,-0.07950666546821594
1726225568484078300,1.941078369140625,0.21437548100948334,-0.02799323946237564,0.009966493584215641
1726225568494114300,1.9511142578125,0.2757337689399719,0.038445845246315,0.07352094352245331
1726225568504150300,1.961150390625,0.2661066949367523,0.1241021603345871,0.2210691273212433
1726225568514187300,1.971187255859375,0.3058895766735077,0.10679680854082108,0.20684362947940826
1726225568524223200,1.98122314453125,0.3079250156879425,0.15935881435871124,-0.05711210519075394
1726225568534259200,1.99125927734375,0.4316228926181793,0.1488455832004547,0.08963054418563843
1726225568544296200,2.001296142578125,0.49201700091362,0.19803309440612793,0.10692271590232849
1726225568554332200,2.011332275390625,0.531691312789917,0.23982535302639008,-0.08544067293405533
1726225568564368100,2.0213681640625,0.5463762283325195,0.22440458834171295,0.3745535612106323
1726225568574404400,2.031404296875,0.49952206015586853,0.25598588585853577,0.17574746906757355
1726225568584441300,2.04144140625,0.5238478779792786,0.28579625487327576,-0.12457320839166641
1726225568594477300,2.051477294921875,0.4809015393257141,0.2291182577610016,0.1617208868265152
1726225568604513300,2.06151318359375,0.469891756772995,0.2032802700996399,-0.05322390794754028
1726225568614550300,2.07155029296875,0.5001614689826965,0.18935652077198029,-0.09156115353107452
1726225568624586200,2.081586181640625,0.4629003405570984,0.16964221000671387,0.06293120980262756
1726225568634622200,2.091622314453125,0.429802268743515,0.17735399305820465,-0.04632037132978439
1726225568644659200,2.1016591796875,0.3814848065376282,0.16733837127685547,-0.038743145763874054
1726225568654695200,2.111695068359375,0.3420146405696869,0.13660836219787598,0.2251005917787552
1726225568664731400,2.1217314453125,0.26518669724464417,0.06983679533004761,0.22742605209350586
1726225568674767400,2.131767333984375,0.15689381957054138,0.06302467733621597,-0.37482962012290955
1726225568684804400,2.141804443359375,0.16901811957359314,-0.00431255204603076,-0.2343156486749649
1726225568694840300,2.15184033203125,0.05949985608458519,0.028064819052815437,0.07902486622333527
1726225568704876500,2.16187646484375,0.06877218186855316,-0.007425264455378056,-0.14856700599193573
1726225568714913300,2.171913330078125,-0.001128162955865264,-0.07721558213233948,-0.10843691974878311
1726225568724949200,2.18194921875,-0.053956225514411926,-0.11664421111345291,0.1747037023305893
1726225568734985500,2.1919853515625,-0.07120152562856674,-0.1338852494955063,0.10671693086624146
1726225568745022200,2.202022216796875,-0.19950249791145325,-0.11110536754131317,-0.04479216784238815
1726225568755058200,2.21205810546875,-0.23861411213874817,-0.122726671397686,0.1849345713853836
1726225568765094400,2.222094482421875,-0.30700647830963135,-0.13446427881717682,0.1588696837425232
1726225568775130400,2.23213037109375,-0.3360706865787506,-0.21770799160003662,-0.20153778791427612
1726225568785167400,2.24216748046875,-0.3774855136871338,-0.22980967164039612,-0.03372375667095184
1726225568795203300,2.252203369140625,-0.37431642413139343,-0.24403925240039825,0.08752835541963577
1726225568805239600,2.262239501953125,-0.3258455693721771,-0.23353548347949982,-0.09037373214960098
1726225568815276300,2.2722763671875,-0.34192705154418945,-0.2217119336128235,0.05735959857702255
1726225568825312300,2.282312255859375,-0.270683228969574,-0.22690004110336304,0.03879337012767792
1726225568835348500,2.292348388671875,-0.2785768210887909,-0.16436880826950073,0.12604649364948273
1726225568845384400,2.302384521484375,-0.20964065194129944,-0.16905570030212402,0.21564428508281708
1726225568855421200,2.312421142578125,-0.2088260054588318,-0.14713183045387268,-0.1161511167883873
1726225568865457400,2.32245751953125,-0.15602244436740875,-0.14244839549064636,-0.19116170704364777
1726225568875493400,2.332493408203125,-0.11202113330364227,-0.13089174032211304,0.0590665265917778
1726225568885530000,2.342530029296875,-0.0749877542257309,-0.08775199949741364,0.047879382967948914
1726225568895566300,2.35256640625,-0.00012674788013100624,-0.040440063923597336,-0.03372993320226669
1726225568905602600,2.3626025390625,0.05444621667265892,0.00011082738637924194,0.09424427896738052
1726225568915639300,2.372639404296875,0.06257431209087372,-0.00032747210934758186,0.04676740616559982
1726225568925675500,2.382675537109375,0.0791732594370842,0.002750875661149621,0.06934062391519547
1726225568935711500,2.39271142578125,0.11430282890796661,0.0271871667355299,0.033842530101537704
1726225568945748200,2.402748291015625,0.13202084600925446,0.022162847220897675,-0.18778972327709198
1726225568955784400,2.412784423828125,0.16301853954792023,0.04586411267518997,0.1879751831293106
1726225568965820400,2.4228203125,0.17767897248268127,-0.006008402444422245,0.3892739713191986
1726225568975856400,2.4328564453125,0.1500271111726761,0.07369104772806168,-0.16476351022720337
1726225568985893400,2.442893310546875,0.1795538365840912,0.024593807756900787,-0.2728217840194702
1726225568995929300,2.452929443359375,0.12106415629386902,0.04275224357843399,0.01729509048163891
1726225569005965300,2.46296533203125,0.1549219936132431,0.029428180307149887,0.003486866597086191
1726225569016002300,2.473002197265625,0.12942387163639069,0.008581958711147308,-0.16637098789215088
1726225569026038500,2.48303857421875,0.10458749532699585,-0.031871192157268524,-0.04126553609967232
1726225569036074500,2.493074462890625,0.10629080981016159,-0.02051534876227379,0.0866953581571579
1726225569046110500,2.5031103515625,0.03521956503391266,-0.0029547298327088356,0.13949865102767944
1726225569056147500,2.5131474609375,0.004083825740963221,-0.0460718497633934,0.09788291901350021
1726225569066183400,2.523183349609375,-0.030096780508756638,-0.04161451756954193,0.008924812078475952
1726225569076219400,2.533219482421875,-0.04688849672675133,-0.0575563944876194,-0.031521979719400406
1726225569086256400,2.54325634765625,-0.08246966451406479,-0.06391336768865585,0.1199311912059784
1726225569096292400,2.553292236328125,-0.08239328861236572,-0.1078689694404602,-0.25727877020835876
1726225569106328300,2.563328369140625,-0.1006721556186676,-0.09618408232927322,-0.16752681136131287
1726225569116365300,2.573365234375,-0.09353893995285034,-0.12633198499679565,-0.0029177258256822824
1726225569126401500,2.583401611328125,-0.12612910568714142,-0.10588318109512329,-0.12282389402389526
1726225569136437500,2.5934375,-0.08714144676923752,-0.18852074444293976,0.04967194423079491
1726225569146474200,2.60347412109375,-0.15574820339679718,-0.10018128156661987,0.29333120584487915
1726225569156510500,2.613510498046875,-0.13871264457702637,-0.13748690485954285,-0.09797336161136627
1726225569166546400,2.62354638671875,-0.22771123051643372,-0.09043923765420914,0.031030692160129547
1726225569176582400,2.63358251953125,-0.20140260457992554,-0.14530281722545624,-0.18206161260604858
1726225569186619400,2.643619384765625,-0.25404584407806396,-0.0752081573009491,-0.2915191352367401
1726225569196655400,2.6536552734375,-0.1721557229757309,-0.09351972490549088,-0.22502827644348145
1726225569206695700,2.66369580078125,-0.16555960476398468,-0.08555127680301666,-0.21283259987831116
1726225569216732700,2.673732666015625,-0.10945974290370941,-0.09845542907714844,-0.09532055258750916
1726225569226768600,2.6837685546875,-0.00478153582662344,-0.07793949544429779,0.12173666805028915
1726225569236804600,2.6938046875,0.014771252870559692,-0.07212308794260025,0.023613398894667625
1726225569246840800,2.7038408203125,0.014931043609976768,-0.043111685663461685,-0.10130563378334045
1726225569256877600,2.713877685546875,-0.012388653121888638,0.026269536465406418,-0.00016474351286888123
1726225569266913500,2.72391357421875,-0.011834715493023396,0.06351570785045624,-0.2594066858291626
1726225569276949800,2.73394970703125,-0.0032069277949631214,0.09875505417585373,-0.035567060112953186
1726225569286986500,2.743986572265625,0.03960391879081726,0.08091853559017181,-0.16877572238445282
1726225569297022500,2.7540224609375,0.04708540439605713,0.11249826103448868,-0.19873076677322388
1726225569307058700,2.76405859375,0.10078378766775131,0.05253133177757263,0.08903630077838898
1726225569317095400,2.774095458984375,0.08917932212352753,0.047355104237794876,-0.04738643020391464
1726225569327131600,2.784131591796875,0.1574912667274475,0.056079354137182236,-0.008327179588377476
1726225569337167600,2.794167724609375,0.1706501543521881,0.07867907732725143,-0.042396046221256256
1726225569347203800,2.804203857421875,0.16938461363315582,0.06802216917276382,0.08361275494098663
1726225569357240600,2.814240478515625,0.2575925886631012,0.04155799746513367,0.2632293701171875
1726225569367276500,2.824276611328125,0.24534177780151367,0.1037856787443161,-0.19740800559520721
1726225569377312800,2.834312744140625,0.2931152880191803,0.08753421902656555,-0.08134622126817703
1726225569387349500,2.844349609375,0.31730344891548157,0.14971104264259338,0.06891118735074997
1726225569397385500,2.854385498046875,0.3889490067958832,0.16856348514556885,0.07535265386104584
1726225569407421700,2.864421630859375,0.38771888613700867,0.18687857687473297,0.05870603397488594
1726225569417458400,2.87445849609375,0.4148879051208496,0.21152034401893616,-0.11549251526594162
1726225569427494400,2.884494384765625,0.4266071617603302,0.27935823798179626,0.09552811086177826
1726225569437530600,2.894530517578125,0.43504446744918823,0.3329048156738281,0.19118838012218475
1726225569447567600,2.904567626953125,0.4639679789543152,0.340800017118454,0.02011488936841488
1726225569457603600,2.914603515625,0.41952118277549744,0.2999911904335022,-0.1774170696735382
1726225569467639800,2.924639892578125,0.43911033868789673,0.31752917170524597,0.18088994920253754
1726225569477675800,2.93467578125,0.4583798050880432,0.319921612739563,0.15795817971229553
1726225569487712500,2.94471240234375,0.4211333692073822,0.3552071452140808,-0.1971796751022339
1726225569497748700,2.954748779296875,0.44117724895477295,0.30542588233947754,0.22037097811698914
1726225569507784700,2.96478466796875,0.3894522786140442,0.32944706082344055,0.02688487246632576
1726225569517821400,2.974821533203125,0.3499906063079834,0.3269535303115845,-0.09623625874519348
1726225569527857700,2.984857666015625,0.28923299908638,0.31060120463371277,0.2811640202999115
1726225569537893600,2.9948935546875,0.2804030179977417,0.318926602602005,0.10570371896028519
1726225569547930600,3.0049306640625,0.25489044189453125,0.2517310678958893,0.271393358707428
1726225569557966600,3.014966552734375,0.16710633039474487,0.28343355655670166,-0.21568147838115692
1726225569568002800,3.0250029296875,0.17139774560928345,0.2608097195625305,-0.16281665861606598
1726225569578038800,3.035038818359375,0.2098316252231598,0.24491357803344727,0.12878307700157166
1726225569588075500,3.045075439453125,0.1509816199541092,0.28724852204322815,-0.08850078284740448
1726225569598111700,3.05511181640625,0.22932013869285583,0.2892078757286072,0.05318601429462433
1726225569608147700,3.065147705078125,0.2297172099351883,0.2728142738342285,0.04655127972364426
1726225569618184400,3.075184326171875,0.18878386914730072,0.273820698261261,0.08199148625135422
1726225569628220700,3.085220703125,0.2509569525718689,0.25158995389938354,0.31599411368370056
1726225569638256600,3.095256591796875,0.2400784194469452,0.22488035261631012,0.24434682726860046
1726225569648293600,3.105293701171875,0.20189854502677917,0.2274702787399292,-0.0910215750336647
1726225569658329600,3.11532958984375,0.2400416135787964,0.209628626704216,0.018832523375749588
1726225569668365800,3.12536572265625,0.2329496145248413,0.21862611174583435,0.004992074333131313
1726225569678401800,3.13540185546875,0.23413816094398499,0.26486706733703613,-0.16160397231578827
1726225569688438500,3.1454384765625,0.2502862513065338,0.27689841389656067,0.048909056931734085
1726225569698474800,3.155474853515625,0.19113676249980927,0.29573601484298706,0.04561840742826462
1726225569708510700,3.1655107421875,0.1965283304452896,0.2912791967391968,-0.02398490346968174
1726225569718547500,3.17554736328125,0.18561452627182007,0.2560969293117523,0.2960618734359741
1726225569728583700,3.185583740234375,0.16921478509902954,0.18374256789684296,0.20701244473457336
1726225569738619600,3.19561962890625,0.15637964010238647,0.2114420235157013,-0.05640025809407234
1726225569748656600,3.20565673828125,0.11911295354366302,0.13232484459877014,-0.07628901302814484
1726225569758692900,3.21569287109375,0.030007919296622276,0.10297629237174988,0.0564577579498291
1726225569768728800,3.225728759765625,0.004281782079488039,0.09389784932136536,-0.32237955927848816
1726225569778764800,3.235764892578125,-0.10858575999736786,0.10849134624004364,-0.19733338057994843
1726225569788801800,3.2458017578125,-0.09710753709077835,0.05426432937383652,-0.07117704302072525
1726225569798837800,3.255837646484375,-0.1582382470369339,0.04677793011069298,-0.07766973227262497
1726225569808873700,3.265873779296875,-0.18105994164943695,0.04985707625746727,0.13775868713855743
1726225569818910700,3.27591064453125,-0.15479964017868042,0.029564864933490753,0.06657171249389648
1726225569828946700,3.28594677734375,-0.21383419632911682,0.057300884276628494,-0.06647048890590668
1726225569838982700,3.295982666015625,-0.19211265444755554,-0.07242044806480408,-0.09511377662420273
1726225569849019600,3.30601953125,-0.265560507774353,-0.09029372036457062,0.09759016335010529
1726225569859055600,3.3160556640625,-0.2675488293170929,-0.10975760966539383,-0.3419550359249115
1726225569869091800,3.326091796875,-0.2907465398311615,-0.07375966012477875,-0.07161598652601242
1726225569879128600,3.336128662109375,-0.28630948066711426,-0.09306852519512177,0.037551190704107285
1726225569889164800,3.346164794921875,-0.27012544870376587,-0.0834135115146637,-0.24699105322360992
1726225569899200800,3.35620068359375,-0.21912617981433868,-0.04460006207227707,-0.09873953461647034
1726225569909236700,3.36623681640625,-0.18022751808166504,-0.0489167794585228,0.169040247797966
1726225569919273700,3.376273681640625,-0.2159404307603836,-0.06691370159387589,0.1580064743757248
1726225569929309700,3.386309814453125,-0.19451956450939178,-0.025820592418313026,-0.026046451181173325
1726225569939345700,3.396345703125,-0.22377844154834747,-0.007119053043425083,-0.3347691595554352
1726225569949382700,3.406382568359375,-0.16793595254421234,-0.08963736891746521,-0.06593663990497589
1726225569959418600,3.416418701171875,-0.20675528049468994,-0.06504867225885391,-0.4019530713558197
1726225569969454600,3.42645458984375,-0.19122159481048584,-0.05534251779317856,-0.3826976418495178
1726225569979491600,3.43649169921875,-0.16712598502635956,-0.05110010504722595,-0.03188692405819893
1726225569989527800,3.44652783203125,-0.16887728869915009,-0.04737141728401184,0.01307655405253172
1726225569999563800,3.456563720703125,-0.14373835921287537,-0.09666039794683456,0.22834554314613342
1726225570009599700,3.466599853515625,-0.21545301377773285,-0.04258809983730316,0.3221426010131836
1726225570019636700,3.47663671875,-0.2414981573820114,-0.00651167519390583,0.027902349829673767
1726225570029672700,3.486672607421875,-0.24209336936473846,-0.06402157247066498,-0.19635924696922302
1726225570039708700,3.496708740234375,-0.29287615418434143,-0.0802704393863678,0.025708427652716637
1726225570049745700,3.50674560546875,-0.24739786982536316,-0.11236099898815155,-0.4656714200973511
1726225570059781600,3.51678173828125,-0.2542158365249634,-0.1924648880958557,-0.3572397530078888
1726225570069817600,3.526817626953125,-0.2073388695716858,-0.19533631205558777,0.07067004591226578
1726225570079854800,3.536854736328125,-0.23116116225719452,-0.21851280331611633,0.10621768236160278
1726225570089890800,3.546890869140625,-0.27545008063316345,-0.15179875493049622,-0.01727522537112236
1726225570099926800,3.5569267578125,-0.2740868330001831,-0.1116216853260994,0.20693054795265198
1726225570109963800,3.5669638671875,-0.37071189284324646,-0.2032482922077179,0.2621762156486511
1726225570119999700,3.576999755859375,-0.3656608462333679,-0.1552734524011612,0.05494461953639984
1726225570130035700,3.58703564453125,-0.32645273208618164,-0.1404082179069519,-0.27285560965538025
1726225570140071700,3.59707177734375,-0.32591408491134644,-0.1919638216495514,-0.0011718613095581532
1726225570150108700,3.607108642578125,-0.2922631800174713,-0.17998147010803223,-0.24578320980072021
1726225570160144600,3.61714453125,-0.22327977418899536,-0.13537412881851196,-0.13175146281719208
1726225570170180600,3.6271806640625,-0.14722628891468048,-0.09328605979681015,0.14519305527210236
1726225570180217900,3.6372177734375,-0.0814741849899292,-0.07724201679229736,0.08546414226293564
1726225570190253800,3.64725390625,-0.029587283730506897,-0.0538536012172699,0.23805822432041168
1726225570200289800,3.657289794921875,-0.09247992932796478,-0.014528336003422737,0.46048372983932495
1726225570210326500,3.667326416015625,-0.08241478353738785,-0.0015406319871544838,0.024661965668201447
1726225570220362500,3.677362548828125,-0.10510805994272232,-0.016996262595057487,0.14312250912189484
1726225570230398500,3.6873984375,-0.00852292962372303,-0.006319649517536163,0.2201339453458786
1726225570240434400,3.697434326171875,0.07233583927154541,-0.0456310510635376,0.05010583996772766
1726225570250471400,3.707471435546875,0.056422386318445206,0.00638101901859045,0.139744371175766
1726225570260507600,3.717507568359375,0.17757372558116913,0.009501983411610126,0.26595669984817505
1726225570270543600,3.727543701171875,0.13131141662597656,0.04481390118598938,0.04981347918510437
1726225570280580600,3.73758056640625,0.14466865360736847,0.03296497091650963,0.06853155791759491
1726225570290616600,3.747616455078125,0.1783967912197113,0.0275568887591362,0.4390752911567688
1726225570300652500,3.757652587890625,0.08956170082092285,0.09059394896030426,0.30870091915130615
1726225570310689500,3.767689453125,0.11372828483581543,0.048969801515340805,-0.05378380045294762
1726225570320725500,3.7777255859375,0.022192444652318954,0.038722675293684006,0.05150062218308449
1726225570330761500,3.787761474609375,-0.00042844563722610474,0.06742516160011292,-0.12925930321216583
1726225570340798500,3.797798583984375,0.0703049972653389,0.03307591378688812,-0.1640576273202896
1726225570350834400,3.80783447265625,-0.016261320561170578,-0.005506899207830429,0.017418425530195236
1726225570360870400,3.817870361328125,0.008018854074180126,-0.07522907108068466,-0.0066420091316103935
1726225570370906400,3.82790625,-0.028529301285743713,-0.05240391194820404,0.12464624643325806
1726225570380943600,3.837943603515625,-0.0520629920065403,-0.05174019932746887,0.39776360988616943
1726225570390979600,3.8479794921875,-0.11074414849281311,-0.06237340718507767,-0.16297213733196259
1726225570401015600,3.858015625,-0.1763063222169876,-0.12754668295383453,-0.16163857281208038
1726225570411052500,3.868052490234375,-0.182218536734581,-0.11933748424053192,0.07470525056123734
1726225570421088500,3.878088623046875,-0.18901972472667694,-0.14465302228927612,-0.1123819500207901
1726225570431124500,3.88812451171875,-0.23916785418987274,-0.12983866035938263,-0.11733835935592651
1726225570441161500,3.898161376953125,-0.18940192461013794,-0.10074401646852493,-0.011262284591794014
1726225570451197400,3.908197509765625,-0.20350922644138336,-0.10794040560722351,-0.056698210537433624
1726225570461233400,3.9182333984375,-0.24976149201393127,-0.16714677214622498,0.08161436021327972
1726225570471269400,3.928269287109375,-0.2975465953350067,-0.17005839943885803,0.2836609482765198
1726225570481306600,3.938306640625,-0.30076587200164795,-0.10245903581380844,-0.029085921123623848
1726225570491342600,3.948342529296875,-0.3227769136428833,-0.13371574878692627,-0.2617329955101013
1726225570501378600,3.958378662109375,-0.30227378010749817,-0.2112148106098175,0.1393948644399643
1726225570511415600,3.96841552734375,-0.29687607288360596,-0.2462122142314911,-0.2906920611858368
1726225570521451500,3.978451416015625,-0.19217658042907715,-0.22311365604400635,-0.4577163755893707
1726225570531487500,3.988487548828125,-0.1298314332962036,-0.278615802526474,0.006054730620235205
1726225570541524500,3.9985244140625,-0.07359776645898819,-0.2131403535604477,0.19558998942375183
1726225570551560400,4.008560546875,-0.013322444632649422,-0.17269305884838104,-0.010646803304553032
1726225570561596400,4.018596435546875,-0.038084350526332855,-0.12048305571079254,-0.11699596047401428
1726225570571633700,4.028633544921875,-0.020895779132843018,-0.11669550836086273,0.11038686335086823
1726225570581669600,4.038669677734375,-0.021896861493587494,-0.0802735835313797,-0.2625472843647003
1726225570591705600,4.04870556640625,0.02933330461382866,-0.037897899746894836,-0.287898451089859
1726225570601741600,4.058741455078125,0.1387842893600464,-0.05122281238436699,-0.22454114258289337
1726225570611778600,4.068778564453125,0.1638912409543991,-0.028676223009824753,-0.12366779148578644
1726225570621814500,4.078814453125,0.2218039184808731,-0.01554601639509201,-0.027542760595679283
1726225570631850500,4.0888505859375,0.21785524487495422,0.006241037510335445,0.0627213567495346
1726225570641887500,4.098887451171875,0.21427741646766663,0.10897786170244217,-0.036452896893024445
1726225570651923500,4.10892333984375,0.26304706931114197,0.1413528472185135,0.2711387574672699
1726225570661959400,4.11895947265625,0.2005317658185959,0.13679975271224976,0.33710864186286926
1726225570671996400,4.128996337890625,0.27926596999168396,0.1303141564130783,-0.2659498155117035
1726225570682032600,4.13903271484375,0.26906222105026245,0.18754659593105316,-0.16105687618255615
1726225570692068600,4.149068603515625,0.31479960680007935,0.13129425048828125,-0.07121087610721588
1726225570702104600,4.1591044921875,0.3566785156726837,0.11563140153884888,-0.16646543145179749
1726225570712141600,4.1691416015625,0.35367098450660706,0.1264832615852356,-0.15608228743076324
1726225570722177500,4.179177490234375,0.39054474234580994,0.15398626029491425,0.017093803733587265
1726225570732213500,4.189213623046875,0.34919118881225586,0.18729761242866516,0.167321115732193
1726225570742250500,4.19925048828125,0.36654600501060486,0.2231043577194214,0.12746523320674896
1726225570752286500,4.209286376953125,0.37351974844932556,0.24194462597370148,-0.07575179636478424
1726225570762322400,4.219322509765625,0.36484280228614807,0.23817722499370575,-0.0334809310734272
1726225570772359400,4.229359375,0.3999826908111572,0.1817035675048828,-0.05214303359389305
1726225570782395400,4.2393955078125,0.36525341868400574,0.24009862542152405,0.12671887874603271
1726225570792431400,4.249431396484375,0.4265037178993225,0.17595985531806946,0.029650656506419182
1726225570802468600,4.259468505859375,0.33556607365608215,0.2073540985584259,0.016740931198000908
1726225570812504600,4.269504638671875,0.3651394248008728,0.1807163655757904,0.16492560505867004
1726225570822540500,4.27954052734375,0.34993991255760193,0.2372710257768631,-0.07993639260530472
1726225570832576500,4.289576416015625,0.31114137172698975,0.2436991035938263,0.13265442848205566
1726225570842613500,4.299613525390625,0.3263391852378845,0.1852463036775589,0.24024803936481476
1726225570852649500,4.3096494140625,0.25208064913749695,0.23314911127090454,-0.1803084909915924
1726225570862685400,4.319685546875,0.2504774332046509,0.19780199229717255,0.025189250707626343
1726225570872722400,4.329722412109375,0.21530532836914062,0.20001161098480225,0.07312987744808197
1726225570882758400,4.33975830078125,0.28009849786758423,0.20364056527614594,-0.18487519025802612
1726225570892794400,4.34979443359375,0.26242122054100037,0.18234966695308685,-0.026929501444101334
1726225570902831600,4.35983154296875,0.25805068016052246,0.18950305879116058,0.06067729741334915
1726225570912867600,4.36986767578125,0.2850596606731415,0.21212661266326904,-0.12652960419654846
1726225570922903600,4.379903564453125,0.25561660528182983,0.24840809404850006,0.29725587368011475
1726225570932940500,4.3899404296875,0.2769642472267151,0.11235971003770828,0.3713418245315552
1726225570942976500,4.3999765625,0.1777798980474472,0.17179936170578003,-0.09381508827209473
1726225570953012500,4.410012451171875,0.16052287817001343,0.16183699667453766,-0.17399194836616516
1726225570963048400,4.42004833984375,0.09257299453020096,0.16370205581188202,0.13099654018878937
1726225570973085400,4.43008544921875,0.1158791184425354,0.1937643587589264,-0.13675127923488617
1726225570983121400,4.440121337890625,0.12259082496166229,0.16088663041591644,-0.1555299162864685
1726225570993157400,4.450157470703125,0.09252294152975082,0.12172085046768188,-0.007709555793553591
1726225571003194600,4.460194580078125,0.13334538042545319,0.13057613372802734,0.07442223280668259
1726225571013230600,4.470230712890625,0.1291186809539795,0.09238295257091522,0.4713429808616638
1726225571023266600,4.4802666015625,0.0669611468911171,0.09847279638051987,-0.020533626899123192
1726225571033303600,4.490303466796875,0.00885683298110962,0.06064845249056816,-0.37945157289505005
1726225571043339500,4.500339599609375,-0.06266129016876221,0.0023515913635492325,-0.01480942964553833
1726225571053375500,4.51037548828125,-0.061257004737854004,0.02291944995522499,0.013882670551538467
1726225571063412500,4.52041259765625,-0.0882207602262497,0.0050577144138514996,-0.2519933879375458
1726225571073448400,4.530448486328125,-0.08949534595012665,-0.011504750698804855,-0.023509060963988304
1726225571083484400,4.540484375,-0.08135844022035599,-0.05267375707626343,0.25444191694259644
1726225571093520400,4.550520263671875,-0.09582206606864929,-0.1002814918756485,0.10517571866512299
1726225571103557600,4.5605576171875,-0.13414108753204346,-0.06913655996322632,-0.019203651696443558
1726225571113593600,4.570593505859375,-0.10484419763088226,-0.11207391321659088,-0.31413543224334717
1726225571123629600,4.580629638671875,-0.1114303469657898,-0.11343105137348175,-0.049638573080301285
1726225571133666600,4.59066650390625,-0.118157759308815,-0.11663989722728729,-0.3402765393257141
1726225571143702500,4.60070263671875,-0.10133717954158783,-0.09448782354593277,-0.49186861515045166
1726225571153738500,4.610738525390625,-0.09984686970710754,-0.03533847630023956,-0.05996858328580856
1726225571163775500,4.620775390625,-0.0906684547662735,-0.049502935260534286,0.2665069103240967
1726225571173811500,4.6308115234375,-0.10396987944841385,-0.025775238871574402,0.12746354937553406
1726225571183847400,4.640847412109375,-0.08298010379076004,0.04211509972810745,0.09297854453325272
1726225571193884400,4.650884521484375,-0.06362025439739227,0.0773971900343895,0.2873499095439911
1726225571203920600,4.660920654296875,-0.005537895485758781,0.09149805456399918,-0.009126219898462296
1726225571213956900,4.670956787109375,-0.02442050725221634,0.14058810472488403,-0.1267274171113968
1726225571223992800,4.680992919921875,0.06924522668123245,0.100020632147789,-0.1768861711025238
1726225571234029800,4.69102978515625,0.0415925532579422,0.1453593373298645,-0.06951869279146194
1726225571244065800,4.701065673828125,0.16179415583610535,0.10846405476331711,-0.11672408133745193
1726225571254101800,4.711101806640625,0.21075689792633057,0.17367342114448547,-0.17481908202171326
1726225571264138800,4.721138671875,0.28205105662345886,0.19477592408657074,0.04561144486069679
1726225571274174700,4.7311748046875,0.3102076053619385,0.2348455786705017,0.21626973152160645
1726225571284210700,4.741210693359375,0.3572925925254822,0.22597089409828186,-0.13273459672927856
1726225571294247700,4.75124755859375,0.33296382427215576,0.259920597076416,-0.00834953598678112
1726225571304283600,4.76128369140625,0.3037511110305786,0.26770880818367004,-0.09278412908315659
1726225571314319600,4.771319580078125,0.24880315363407135,0.3026401698589325,0.12682092189788818
1726225571324356900,4.78135693359375,0.2585543096065521,0.24538901448249817,-0.0532965324819088
1726225571334392800,4.791392822265625,0.18212798237800598,0.24526944756507874,-0.16491706669330597
1726225571344428800,4.8014287109375,0.2410978227853775,0.21926160156726837,0.04672889783978462
1726225571354465800,4.8114658203125,0.19015420973300934,0.20044955611228943,0.04664633795619011
1726225571364501800,4.821501708984375,0.12621305882930756,0.15523755550384521,0.14088492095470428
1726225571374537700,4.831537841796875,0.11705869436264038,0.13456237316131592,0.09117516875267029
1726225571384573700,4.84157373046875,0.02590981125831604,0.15407606959342957,-0.22258229553699493
1726225571394610700,4.851610595703125,-0.05679146200418472,0.11438857764005661,0.005312907975167036
1726225571404646700,4.861646728515625,-0.15845057368278503,0.09265819191932678,-0.10183413326740265
1726225571414682600,4.8716826171875,-0.2247537076473236,0.09685321152210236,-0.14447186887264252
1726225571424720000,4.881719970703125,-0.25352993607521057,0.05439874529838562,0.04356394335627556
1726225571434755800,4.891755859375,-0.3150351047515869,0.006917782127857208,-0.12921634316444397
1726225571444791800,4.901791748046875,-0.3358072340488434,-0.021968195214867592,0.0162002332508564
1726225571454828800,4.911828857421875,-0.3742760419845581,-0.09691727161407471,0.16701717674732208
1726225571464864800,4.92186474609375,-0.44771549105644226,-0.15170449018478394,-0.07872357219457626
1726225571474900700,4.931900634765625,-0.4535568654537201,-0.17768043279647827,0.0634082704782486
1726225571484937700,4.941937744140625,-0.5391354560852051,-0.18172310292720795,-0.04562297835946083
1726225571494973700,4.9519736328125,-0.5645939707756042,-0.19731751084327698,-0.33727025985717773
1726225571505009700,4.962009765625,-0.5727978944778442,-0.22540614008903503,0.05278897285461426
1726225571515045600,4.972045654296875,-0.5792597532272339,-0.21576017141342163,-0.05658997967839241
1726225571525083000,4.982082763671875,-0.542171835899353,-0.15587002038955688,-0.20204941928386688
1726225571535118800,4.992118896484375,-0.500863790512085,-0.1595800668001175,0.13288463652133942
1726225571545154800,5.00215478515625,-0.5330892205238342,-0.18504805862903595,0.3483405113220215
1726225571555191800,5.01219189453125,-0.5194458365440369,-0.22325749695301056,0.08396239578723907
1726225571565227800,5.022227783203125,-0.5068146586418152,-0.20215101540088654,-0.27005308866500854
1726225571575263700,5.032263671875,-0.46849870681762695,-0.17140348255634308,0.18454903364181519
1726225571585300700,5.04230078125,-0.3785618841648102,-0.26963892579078674,-0.48814454674720764
1726225571595336700,5.052336669921875,-0.45334717631340027,0.03891598805785179,-0.13698546588420868
1726225571605372700,5.06237255859375,-0.20713704824447632,-0.18102523684501648,-0.3374671936035156
1726225571615409700,5.07240966796875,-0.26449063420295715,-0.019939418882131577,0.10239886492490768
1726225571625445600,5.082445556640625,-0.08316979557275772,-0.10816119611263275,0.8074921369552612
1726225571635481900,5.09248193359375,-0.0346832200884819,0.013835021294653416,0.4516570568084717
1726225571645517800,5.102517822265625,-0.029505882412195206,0.05981423705816269,0.08656223118305206
1726225571655554800,5.112554931640625,0.08769930154085159,0.02556971274316311,0.4421541690826416
1726225571665590800,5.1225908203125,0.011654729023575783,0.03478435054421425,0.013305715285241604
1726225571675626800,5.132626708984375,0.1062059998512268,0.05531785637140274,-0.741958737373352
1726225571685663700,5.142663818359375,0.2232336699962616,0.07940657436847687,-0.47959819436073303
1726225571695699700,5.15269970703125,0.21797871589660645,0.07159152626991272,-0.09083500504493713
1726225571705735700,5.162735595703125,0.23154211044311523,0.10079405456781387,0.1653885841369629
1726225571715772700,5.172772705078125,0.18978933990001678,0.1845824271440506,0.07087218761444092
1726225571725808600,5.18280859375,0.18962085247039795,0.24293777346611023,0.2559310793876648
1726225571735844600,5.1928447265625,0.11859142035245895,0.2861686050891876,0.10751736164093018
1726225571745881900,5.2028818359375,0.14346785843372345,0.3010908365249634,0.08546553552150726
1726225571755917800,5.212917724609375,0.18369677662849426,0.1684480756521225,0.040591802448034286
1726225571765953800,5.222953857421875,0.009679037146270275,0.19997532665729523,-0.16412679851055145
1726225571775990800,5.23299072265625,0.03899777680635452,0.1074477881193161,-0.017136819660663605
1726225571786026800,5.24302685546875,0.008855236694216728,0.05161505565047264,0.2929699718952179
1726225571796062700,5.253062744140625,-0.1805724799633026,0.11688700318336487,0.022067902609705925
1726225571806098700,5.2630986328125,-0.12866941094398499,0.08093809336423874,0.307451993227005
1726225571816135700,5.2731357421875,-0.37870243191719055,0.10071099549531937,0.3893522024154663
1726225571826171600,5.283171630859375,-0.32810211181640625,-0.01915683038532734,0.047130290418863297
1726225571836207600,5.29320751953125,-0.3418181836605072,-0.09890385717153549,0.5808528065681458
1726225571846244900,5.303244873046875,-0.40927591919898987,-0.10514439642429352,0.09919196367263794
1726225571856280800,5.31328076171875,-0.4276469349861145,-0.19952096045017242,0.039284687489271164
1726225571866316800,5.32331689453125,-0.5833355784416199,-0.15061071515083313,0.2576359212398529
1726225571876353800,5.333353759765625,-0.5271628499031067,-0.2751353681087494,0.18636547029018402
1726225571886389800,5.3433896484375,-0.7163316607475281,-0.31586918234825134,0.3227798640727997
1726225571896425700,5.35342578125,-0.7055668830871582,-0.35063624382019043,0.21744279563426971
1726225571906462700,5.363462646484375,-0.6276810765266418,-0.29524239897727966,0.10357782989740372
1726225571916498700,5.373498779296875,-0.7102507948875427,-0.3198862373828888,0.6507852673530579
1726225571926534700,5.38353466796875,-0.6699385643005371,-0.4637308716773987,-0.04334060475230217
1726225571936572000,5.393572021484375,-0.6389101147651672,-0.3729325234889984,0.0625954195857048
1726225571946607900,5.40360791015625,-0.4435282349586487,-0.2784111201763153,0.3272676467895508
1726225571956643800,5.413643798828125,-0.40195202827453613,-0.32253092527389526,-0.34976595640182495
1726225571966679800,5.4236796875,-0.42606136202812195,-0.34171268343925476,-0.314039021730423
1726225571976716800,5.433716796875,-0.25112685561180115,-0.3343045711517334,-0.09985987842082977
1726225571986752800,5.443752685546875,-0.2920409142971039,-0.2504563629627228,-0.3008478581905365
1726225571996788700,5.453788818359375,-0.20495767891407013,-0.3800492584705353,0.013449345715343952
1726225572006825700,5.46382568359375,-0.21196383237838745,-0.3069670796394348,0.4248538911342621
1726225572016861700,5.47386181640625,-0.156204953789711,-0.18630589544773102,0.4126521050930023
1726225572026897700,5.483897705078125,-0.04795537889003754,-0.1399446576833725,-0.08413905650377274
1726225572036934700,5.4939345703125,-0.0035479669459164143,-0.08958107978105545,0.27759891748428345
1726225572046970600,5.503970703125,0.04672761633992195,-0.16108959913253784,-0.010504082776606083
1726225572057006800,5.5140068359375,0.04737796261906624,-0.08876480162143707,-0.3460732698440552
1726225572067043800,5.5240439453125,0.14773644506931305,-0.17435625195503235,-0.30367401242256165
1726225572077079800,5.534079833984375,0.08619052171707153,-0.25522395968437195,0.08398530632257462
1726225572087115800,5.54411572265625,0.027171699330210686,-0.19718195497989655,0.14798559248447418
1726225572097151700,5.55415185546875,0.12730149924755096,-0.11590493470430374,0.15074248611927032
1726225572107188700,5.564188720703125,0.06745831668376923,-0.11850646138191223,0.1914268583059311
1726225572117224700,5.574224609375,0.16424158215522766,-0.18385057151317596,-0.17987903952598572
1726225572127260700,5.5842607421875,0.12542171776294708,-0.18354657292366028,-0.03454555943608284
1726225572137297700,5.594297607421875,0.14496372640132904,-0.16385862231254578,-0.21462957561016083
1726225572147333600,5.604333740234375,0.15272536873817444,-0.07732824981212616,-0.7307047247886658
1726225572157369600,5.61436962890625,0.18140174448490143,-0.10193079710006714,-0.12885746359825134
1726225572167406800,5.62440673828125,0.07691733539104462,-0.10956580936908722,0.19877859950065613
1726225572177442800,5.63444287109375,0.10614978522062302,-0.09216737747192383,0.03355741873383522
1726225572187478800,5.644478759765625,0.2258843630552292,-0.17108815908432007,0.2171345055103302
1726225572197515800,5.654515869140625,0.24039272964000702,-0.08392156660556793,0.09217844903469086
1726225572207551500,5.664551513671875,0.282002717256546,-0.1504220962524414,-0.4271831810474396
1726225572217587500,5.67458740234375,0.12235445529222488,-0.009487615898251534,0.06818313896656036
1726225572227624400,5.68462451171875,0.20370778441429138,0.03887432813644409,-0.2950291335582733
1726225572237660400,5.694660400390625,0.17151257395744324,0.08250968903303146,-0.2659386098384857
1726225572247696400,5.7046962890625,0.24348174035549164,-0.029226034879684448,0.2461780160665512
1726225572257732400,5.714732421875,0.26147085428237915,-0.10403449833393097,0.316180557012558
1726225572267769600,5.72476953125,0.2731095850467682,-0.05232137814164162,-0.31735989451408386
1726225572277805600,5.7348056640625,0.30984896421432495,0.002274223370477557,-0.0602596290409565
1726225572287841500,5.744841552734375,0.280022531747818,-0.013227161020040512,0.21735069155693054
1726225572297878500,5.75487841796875,0.2706447243690491,0.09213760495185852,-0.049699101597070694
1726225572307914500,5.76491455078125,0.277984619140625,0.1591804176568985,-0.6910659074783325
1726225572317950500,5.774950439453125,0.2691871225833893,0.034823060035705566,-0.7819966077804565
1726225572327987500,5.784987548828125,0.21615423262119293,0.1811639815568924,0.24802106618881226
1726225572338023400,5.7950234375,0.20250871777534485,0.07755503803491592,0.6563869714736938
1726225572348059400,5.805059326171875,0.3465023636817932,-0.0919317901134491,-0.42857640981674194
1726225572358096400,5.815096435546875,0.3357469141483307,0.04195384308695793,-0.46600183844566345
1726225572368132400,5.82513232421875,0.34223416447639465,0.007077968213707209,0.2022453099489212
1726225572378168600,5.83516845703125,0.3220386207103729,0.04291479289531708,-0.15408271551132202
1726225572388205600,5.84520556640625,0.3344604969024658,0.11293167620897293,-0.3610509932041168
1726225572398241500,5.855241455078125,0.3357268273830414,0.1309889853000641,-0.03060755878686905
1726225572408277500,5.865277587890625,0.3053799569606781,0.09499070793390274,0.43038076162338257
1726225572418313500,5.8753134765625,0.24678431451320648,0.09825734049081802,-0.0263684019446373
1726225572428350500,5.8853505859375,0.30942875146865845,0.008734915405511856,0.030078096315264702
1726225572438386400,5.895386474609375,0.2640114724636078,0.007324771955609322,-0.057700760662555695
1726225572448422400,5.90542236328125,0.1305779218673706,0.05160243809223175,-0.22757962346076965
1726225572458459400,5.91545947265625,0.17582476139068604,-0.00003865547478199005,0.05761696398258209
1726225572468495400,5.925495361328125,0.013312914408743382,0.1148490309715271,0.20300516486167908
1726225572478531300,5.93553125,0.0808647945523262,0.13912108540534973,-0.424837201833725
1726225572488568600,5.945568603515625,-0.012408647686243057,0.011000776663422585,0.16501246392726898
1726225572498604500,5.9556044921875,-0.07348877936601639,0.030205097049474716,0.1402464061975479
1726225572508640500,5.965640625,0.07877302169799805,-0.10758456587791443,0.0857803225517273
1726225572518677500,5.975677490234375,-0.08266326785087585,-0.06411618739366531,0.040514569729566574
1726225572528713500,5.98571337890625,-0.03795650973916054,-0.09054358303546906,-0.2943127453327179
1726225572538749400,5.99574951171875,-0.1632649004459381,-0.010253536514937878,-0.17441827058792114
1726225572548786400,6.005786376953125,-0.24011513590812683,-0.0016451640985906124,0.45843374729156494
1726225572558822400,6.015822509765625,-0.2302635759115219,0.10682564973831177,-0.29118722677230835
1726225572568858400,6.0258583984375,-0.1988983005285263,-0.021413227543234825,-0.5465238690376282
1726225572578894300,6.035894287109375,-0.21419256925582886,-0.032244037836790085,0.08341065049171448
1726225572588931600,6.045931640625,-0.16922438144683838,-0.1638302206993103,0.936216413974762
1726225572598967600,6.055967529296875,-0.08948615193367004,-0.18720372021198273,-0.35477250814437866
1726225572609003500,6.06600341796875,-0.08472978323698044,-0.12076377123594284,-0.8070291876792908
1726225572619040500,6.07604052734375,-0.18925699591636658,-0.02623939886689186,0.021693030372262
1726225572629076500,6.086076416015625,-0.224729984998703,-0.036566801369190216,0.6183244585990906
1726225572639112400,6.096112548828125,-0.23178549110889435,0.07363933324813843,0.25260692834854126
1726225572649149400,6.1061494140625,-0.16019688546657562,0.11349841207265854,0.058536019176244736
1726225572659185400,6.116185302734375,-0.042379703372716904,-0.07210101187229156,0.654664933681488
1726225572669221400,6.126221435546875,-0.10774721950292587,-0.0030422010459005833,0.8699615001678467
1726225572679258600,6.136258544921875,0.04580159857869148,0.04274073243141174,-0.9822571873664856
1726225572689294600,6.146294677734375,-0.003330401610583067,-0.03235144913196564,-1.1144856214523315
1726225572699330600,6.15633056640625,-0.004400459583848715,0.12749360501766205,0.2540673315525055
1726225572709367600,6.166367431640625,-0.03308564051985741,0.04418012127280235,0.9878081679344177
1726225572719403500,6.176403564453125,0.0020126919262111187,-0.020026827231049538,-0.04351426288485527
1726225572729439500,6.186439453125,0.04527939110994339,0.0630980134010315,-0.5196946263313293
1726225572739476500,6.1964765625,0.17565284669399261,0.04057645425200462,-0.016049573197960854
1726225572749512400,6.206512451171875,0.11328594386577606,-0.11430896073579788,0.585932731628418
1726225572759548400,6.21654833984375,0.11736510694026947,-0.010516522452235222,-0.38652610778808594
1726225572769584400,6.22658447265625,0.10935996472835541,0.16443341970443726,-0.5240750312805176
1726225572779621400,6.236621337890625,0.1426715850830078,0.09246201068162918,0.12290984392166138
1726225572789657300,6.2466572265625,0.04219180345535278,0.07986916601657867,0.43223240971565247
1726225572799693600,6.256693603515625,0.15560917556285858,0.05949651822447777,-0.171639084815979
1726225572809730600,6.26673046875,0.08994549512863159,0.06006540358066559,-0.14394913613796234
1726225572819766500,6.2767666015625,0.08654117584228516,0.06256211549043655,0.2782668173313141
1726225572829802500,6.286802490234375,0.06954485177993774,0.06018193066120148,0.2974940538406372
1726225572839839500,6.296839599609375,-0.031436629593372345,0.03732828050851822,-0.17487028241157532
1726225572849875500,6.30687548828125,0.01824183762073517,-0.0712704211473465,0.13024692237377167
1726225572859911400,6.316911376953125,0.009602012112736702,0.04846849665045738,-0.39443495869636536
1726225572869948400,6.326948486328125,-0.013535660691559315,-0.03951083868741989,0.24841386079788208
1726225572879984400,6.336984375,-0.0771399438381195,0.05309632420539856,0.1169341430068016
1726225572890020400,6.347020263671875,-0.04655119776725769,0.045644402503967285,-0.34274885058403015
1726225572900057600,6.3570576171875,-0.061551984399557114,-0.0427432507276535,-0.2091817557811737
1726225572910093600,6.367093505859375,-0.09399880468845367,-0.037977658212184906,0.48873618245124817
1726225572920129500,6.377129638671875,-0.10925287008285522,0.1622033715248108,0.14072175323963165
1726225572930165500,6.38716552734375,-0.1504848748445511,-0.02228429727256298,-0.3907705843448639
1726225572940202500,6.397202392578125,-0.17255130410194397,-0.020252304151654243,-0.33011388778686523
1726225572950238500,6.407238525390625,-0.09098057448863983,-0.07570727169513702,-0.0056860861368477345
1726225572960274400,6.4172744140625,-0.19711951911449432,-0.05407414957880974,-0.3333960473537445
1726225572970311400,6.4273115234375,-0.15111230313777924,-0.15316972136497498,-0.6987974643707275
1726225572980347400,6.437347412109375,-0.1983165591955185,0.14923380315303802,-0.017111873254179955
1726225572990383400,6.44738330078125,-0.1319681704044342,-0.041896238923072815,0.5789696574211121
1726225573000420600,6.457420654296875,-0.23225802183151245,-0.022338517010211945,0.29421910643577576
1726225573010456600,6.46745654296875,-0.1909342110157013,-0.017661862075328827,-0.050501033663749695
1726225573020492500,6.477492431640625,-0.07351996004581451,-0.1439412385225296,-0.6669988632202148
1726225573030529500,6.487529541015625,-0.12410566210746765,-0.10720965266227722,0.15470817685127258
1726225573040565500,6.4975654296875,-0.11619208008050919,-0.10076266527175903,0.34533166885375977
1726225573050601500,6.5076015625,-0.24236033856868744,-0.088884636759758,-0.11647649109363556
1726225573060638500,6.517638427734375,-0.18200725317001343,-0.057582102715969086,-0.3948953151702881
1726225573070674400,6.52767431640625,-0.08762805908918381,-0.1416407972574234,-0.08327309787273407
1726225573080710400,6.53771044921875,-0.2278328388929367,-0.06662168353796005,0.42102763056755066
1726225573090746400,6.547746337890625,0.004704981576651335,-0.15790191292762756,0.07373027503490448
1726225573100783600,6.55778369140625,0.004420022945851088,0.0021711126901209354,-0.2012845128774643
1726225573110819600,6.567819580078125,0.17294535040855408,-0.21534955501556396,0.0697437971830368
1726225573120855600,6.57785546875,-0.07299251109361649,-0.20997583866119385,0.3820188641548157
1726225573130892500,6.587892578125,-0.054524462670087814,-0.08767994493246078,-0.3218529224395752
1726225573140928500,6.597928466796875,-0.10309652984142303,-0.013972439803183079,-0.4810257852077484
1726225573150964500,6.607964599609375,-0.05489104613661766,-0.04923929646611214,0.10691583156585693
1726225573161001500,6.61800146484375,-0.09821375459432602,-0.12235158681869507,0.1916477531194687
1726225573171037400,6.628037353515625,0.01424838975071907,-0.058334629982709885,-0.33209988474845886
1726225573181073400,6.638073486328125,0.23796910047531128,-0.21364140510559082,-0.4495282471179962
1726225573191110400,6.6481103515625,0.17756244540214539,-0.06278301030397415,0.3581029176712036
1726225573201146400,6.658146484375,0.07159420847892761,-0.07004571706056595,0.9030607342720032
1726225573211178800,6.6681787109375,-0.11051098257303238,-0.0612201988697052,-0.1108313575387001
1726225573221215700,6.6782158203125,0.034414246678352356,0.05423848703503609,-0.032110974192619324
1726225573231252000,6.688251953125,0.1280800849199295,0.05236028879880905,0.3140244483947754
1726225573241288000,6.698287841796875,0.11204864829778671,-0.017236368730664253,-0.27411362528800964
1726225573251324000,6.708323974609375,0.13925929367542267,-0.05731971934437752,0.2447180151939392
1726225573261361000,6.71836083984375,0.08032860606908798,0.06957618147134781,0.5815469026565552
1726225573271396900,6.72839697265625,0.14750628173351288,-0.010614344850182533,-0.16860082745552063
1726225573281432800,6.738432861328125,0.19335392117500305,-0.1904754638671875,-0.17648857831954956
1726225573291469800,6.7484697265625,0.10991322994232178,-0.07687091827392578,0.8524289131164551
1726225573301505800,6.758505859375,0.2624521851539612,-0.05461834371089935,0.591154158115387
1726225573311541800,6.768541748046875,0.24456389248371124,-0.15492042899131775,-0.43543514609336853
1726225573321578800,6.778578857421875,0.1698441207408905,-0.08911292254924774,0.30756843090057373
1726225573331614700,6.78861474609375,0.038979314267635345,0.046641599386930466,0.41758379340171814
1726225573341651000,6.79865087890625,0.042106930166482925,0.039787691086530685,-0.8782117962837219
1726225573351688000,6.80868798828125,0.0035635745152831078,-0.0356510691344738,-0.6724743843078613
1726225573361724000,6.818723876953125,0.07521459460258484,-0.06607422232627869,0.17503106594085693
1726225573371759900,6.828759765625,0.030375482514500618,-0.07056164741516113,0.131879061460495
1726225573381796900,6.838796875,0.27205950021743774,-0.22230270504951477,0.14028958976268768
1726225573391832800,6.848832763671875,0.20597749948501587,-0.0911889597773552,0.23764073848724365
1726225573401868800,6.858868896484375,0.20490103960037231,0.026735546067357063,0.5490912795066833
1726225573411904800,6.86890478515625,0.22901517152786255,0.05013487860560417,0.12005418539047241
1726225573421941800,6.878941650390625,0.13942696154117584,0.03271647170186043,-0.1899481564760208
1726225573431977700,6.888977783203125,0.13526667654514313,0.08849471807479858,0.03465520963072777
1726225573442013700,6.899013671875,0.21662385761737823,0.05343606695532799,-0.14979825913906097
1726225573452051000,6.909051025390625,0.2235463261604309,0.04615141078829765,-0.15255749225616455
1726225573462087000,6.9190869140625,0.34435075521469116,0.05088411644101143,0.2580936849117279
1726225573472123000,6.929122802734375,0.3456795811653137,0.12153789401054382,0.4600198268890381
1726225573482159900,6.939159912109375,0.3689260482788086,0.1531277745962143,0.4905204772949219
1726225573492195800,6.94919580078125,0.3218860924243927,0.1334216594696045,0.3264681398868561
1726225573502231800,6.959231689453125,0.30244502425193787,0.08136565238237381,-0.13797438144683838
1726225573512268800,6.969268798828125,0.27620065212249756,0.1110171303153038,-0.23235133290290833
1726225573522304800,6.9793046875,0.18222728371620178,0.1607503443956375,-0.4253242611885071
1726225573532340700,6.9893408203125,0.24934443831443787,0.13268201053142548,-0.4078395962715149
1726225573542378000,6.9993779296875,0.30386415123939514,0.1026543378829956,-0.5246703624725342
1726225573552414000,7.0094140625,0.36803531646728516,0.07351677119731903,-0.5208383202552795
1726225573562450000,7.019449951171875,0.35640156269073486,0.1313459873199463,0.4001496434211731
1726225573572486000,7.02948583984375,0.26479431986808777,0.1271905153989792,0.7206182479858398
1726225573582523000,7.03952294921875,0.25585809350013733,0.13797098398208618,0.1723697930574417
1726225573592558800,7.049558837890625,0.1977846622467041,0.12414729595184326,-0.3599746823310852
1726225573602594800,7.0595947265625,0.10591652989387512,0.11512823402881622,0.13526542484760284
1726225573612631800,7.0696318359375,0.1439608633518219,0.1749447137117386,-0.7143365740776062
1726225573622667800,7.079667724609375,0.13102801144123077,0.06756126880645752,-0.8517333269119263
1726225573632703700,7.089703857421875,0.21768520772457123,-0.030420605093240738,-0.3198115825653076
1726225573642740700,7.09974072265625,0.19254283607006073,0.026467444375157356,0.16828033328056335
1726225573652777000,7.10977685546875,0.21773822605609894,0.09323028475046158,0.5396894216537476
1726225573662813000,7.11981298828125,0.16128693521022797,0.21927344799041748,0.6395217776298523
1726225573672850000,7.129849853515625,0.15671682357788086,0.09850601106882095,0.3001525402069092
1726225573682886000,7.139885986328125,0.16105377674102783,0.03347135707736015,-0.3386135697364807
1726225573692921900,7.149921875,0.11623038351535797,0.11858571320772171,-0.840387761592865
1726225573702957800,7.159957763671875,0.01318203005939722,0.03230755403637886,-0.18833138048648834
1726225573712994800,7.169994873046875,0.04763942211866379,-0.00793102290481329,-0.3663474917411804
1726225573723030800,7.18003076171875,0.11527998745441437,0.07427889108657837,-0.1054418683052063
1726225573733066800,7.190066650390625,0.15475209057331085,0.179695725440979,0.3475398123264313
1726225573743103700,7.200103759765625,0.07177864015102386,0.04061107710003853,0.7453308701515198
1726225573753139700,7.2101396484375,-0.02827904187142849,0.17105573415756226,0.10730233788490295
1726225573763175700,7.22017578125,0.04126754403114319,0.20723557472229004,-0.12344671785831451
1726225573773213000,7.230212890625,0.009246250614523888,0.08564026653766632,-0.02187974750995636
1726225573783249000,7.240248779296875,-0.09213283658027649,-0.034866444766521454,-0.2029736340045929
1726225573793284900,7.250284912109375,-0.04822654649615288,0.1740376055240631,-0.7407159805297852
1726225573803321900,7.26032177734375,0.10137572884559631,0.15590572357177734,-0.5360482931137085
1726225573813357800,7.27035791015625,0.03554354980587959,0.055997226387262344,-0.011252092197537422
1726225573823393800,7.280393798828125,0.09456239640712738,0.1501450389623642,0.11302138864994049
1726225573833430800,7.2904306640625,0.264347642660141,0.2179720401763916,0.4210471212863922
1726225573843466800,7.300466796875,0.14852409064769745,0.11503980308771133,0.5935381650924683
1726225573853502700,7.310502685546875,0.07226040959358215,0.18871235847473145,0.6109927892684937
1726225573863538700,7.32053857421875,-0.0026380661875009537,0.24997225403785706,-0.30887317657470703
1726225573873576000,7.330575927734375,0.03521278500556946,0.12942324578762054,-0.09639521688222885
1726225573883612000,7.34061181640625,0.10354310274124146,0.1621556282043457,0.07735234498977661
1726225573893648000,7.35064794921875,0.2444642186164856,0.11609243601560593,-0.37879478931427
1726225573903684900,7.360684814453125,0.10778786242008209,0.16895166039466858,-0.19114527106285095
1726225573913720800,7.370720947265625,0.25575071573257446,0.06542554497718811,0.32047685980796814
1726225573923756800,7.3807568359375,0.053256724029779434,0.23411843180656433,-0.2385275661945343
1726225573933793800,7.390793701171875,0.17527221143245697,0.13647836446762085,-0.30668389797210693
1726225573943829800,7.400829833984375,0.15366092324256897,0.21751728653907776,0.32198163866996765
1726225573953865700,7.41086572265625,0.20013515651226044,0.08164377510547638,0.3086659908294678
1726225573963903000,7.420903076171875,0.24447306990623474,0.2554720342159271,0.5080029964447021
1726225573973939000,7.43093896484375,0.09784912317991257,0.2622012495994568,0.21052764356136322
1726225573983975000,7.440974853515625,-0.029739459976553917,0.3341534733772278,-0.22375057637691498
1726225573994012000,7.451011962890625,0.03383899852633476,0.25334522128105164,-0.48717448115348816
1726225574004048000,7.4610478515625,0.03645635396242142,0.1870144009590149,0.15693522989749908
1726225574014083800,7.471083740234375,0.1759570837020874,0.02794528193771839,0.5581666231155396
1726225574024119800,7.481119873046875,-0.028308706358075142,0.20513977110385895,-0.04819544404745102
1726225574034156800,7.49115673828125,0.03646932542324066,0.2649244964122772,-0.1075710654258728
1726225574044192800,7.50119287109375,0.059471048414707184,0.1779285967350006,0.6048114895820618
1726225574054228700,7.511228759765625,-0.09152556955814362,0.2603682577610016,0.05618985742330551
1726225574064265700,7.521265625,-0.06196927651762962,0.14819031953811646,-0.4692222774028778
1726225574074302000,7.531302001953125,-0.1922803819179535,0.25082212686538696,-0.018066953867673874
1726225574084338000,7.541337890625,-0.047306161373853683,0.20200639963150024,-0.20428849756717682
1726225574094375000,7.551375,-0.09448779374361038,0.11949530988931656,0.03313126787543297
1726225574104411000,7.561410888671875,-0.03513817861676216,0.2757887840270996,0.25048673152923584
1726225574114446800,7.57144677734375,0.15742473304271698,0.02362709678709507,0.6273799538612366
1726225574124483800,7.58148388671875,-0.18988102674484253,0.09456092119216919,0.649537980556488
1726225574134519800,7.591519775390625,-0.020140156149864197,-0.03089572861790657,-0.45934560894966125
1726225574144555800,7.6015556640625,-0.12603357434272766,0.17705054581165314,-0.45650163292884827
1726225574154592800,7.6115927734375,-0.034042079001665115,0.19929808378219604,-0.10695965588092804
1726225574164628700,7.621628662109375,-0.03339386358857155,0.14329794049263,-0.20178602635860443
1726225574174664700,7.631664794921875,-0.08623650670051575,0.17127732932567596,0.052623726427555084
1726225574184700700,7.64170068359375,0.10233394056558609,0.06810726225376129,-0.09342721849679947
1726225574194738000,7.651738037109375,-0.07796932011842728,0.18363186717033386,0.16034211218357086
1726225574204774000,7.66177392578125,0.10268913954496384,0.11764645576477051,-0.12602654099464417
1726225574214809000,7.67180908203125,0.002199400682002306,0.19330282509326935,-0.3510626256465912
1726225574224846000,7.68184619140625,0.11819124966859818,0.13764648139476776,0.33942925930023193
1726225574234882000,7.691882080078125,0.05213146656751633,0.21071593463420868,0.7518239617347717
1726225574244918000,7.70191796875,-0.028703726828098297,0.1573943942785263,0.18144522607326508
1726225574254955300,7.711955322265625,-0.07690266519784927,0.16504862904548645,-0.5339145660400391
1726225574264991200,7.7219912109375,-0.09306911379098892,-0.13758552074432373,-0.1672242134809494
1726225574275027200,7.732027099609375,-0.2406696081161499,0.09427966177463531,0.08885448426008224
1726225574285064200,7.742064208984375,-0.1222287192940712,0.08128636330366135,-0.8489899635314941
1726225574295100200,7.75210009765625,-0.24957922101020813,0.08754275739192963,-0.34827330708503723
1726225574305136000,7.76213623046875,-0.09434355795383453,-0.04647070914506912,0.6490962505340576
1726225574315173000,7.772173095703125,-0.2948032021522522,-0.010702545754611492,0.4407527446746826
1726225574325209000,7.782208984375,-0.2852485775947571,0.03803703188896179,-0.1732984036207199
1726225574335245000,7.7922451171875,-0.1550394892692566,-0.11564654111862183,0.16902154684066772
1726225574345281000,7.802281005859375,-0.3443407118320465,-0.01471007987856865,0.14262056350708008
1726225574355318300,7.812318359375,-0.21142834424972534,-0.10375634580850601,-0.2611061930656433
1726225574365354200,7.822354248046875,-0.3011467754840851,-0.148840993642807,0.1219882071018219
1726225574375390200,7.83239013671875,-0.3140426576137543,-0.3229042887687683,0.40967169404029846
1726225574385427200,7.84242724609375,-0.3823157250881195,-0.2063494324684143,-0.18267019093036652
1726225574395463200,7.852463134765625,-0.38788720965385437,-0.06384341418743134,-0.4011164605617523
1726225574405499100,7.8624990234375,-0.30426475405693054,-0.2948598563671112,-0.037967532873153687
1726225574415536000,7.8725361328125,-0.47715237736701965,-0.2225896716117859,0.5266403555870056
1726225574425572000,7.882572021484375,-0.30878308415412903,-0.2382325381040573,0.19425146281719208
1726225574435608000,7.892608154296875,-0.4525551497936249,-0.15840677917003632,-0.2697804272174835
1726225574445645300,7.902645263671875,-0.39931854605674744,-0.22574879229068756,0.09524467587471008
1726225574455681300,7.912681396484375,-0.433571994304657,-0.23533421754837036,0.6229946613311768
1726225574465717200,7.92271728515625,-0.4292941689491272,-0.2069276124238968,-0.2062269151210785
1726225574475753200,7.932753173828125,-0.3936308026313782,-0.28988346457481384,-0.4182782769203186
1726225574485790200,7.942790283203125,-0.41475075483322144,-0.34650227427482605,0.1420566737651825
1726225574495826200,7.952826171875,-0.4412516951560974,-0.3330153524875641,0.7690595388412476
1726225574505862100,7.962862060546875,-0.34626978635787964,-0.16529586911201477,0.6236842274665833
1726225574515899100,7.972899169921875,-0.257269024848938,-0.335073858499527,-0.4781686067581177
1726225574525935000,7.98293505859375,-0.2027418315410614,-0.22059307992458344,-0.5757766962051392
1726225574535971000,7.99297119140625,-0.18627893924713135,-0.22773747146129608,-0.07905134558677673
1726225574546008000,8.003008056640626,-0.20220251381397247,-0.25922828912734985,0.11039714515209198
1726225574556044000,8.0130439453125,-0.2434336096048355,-0.08653723448514938,0.1256573349237442
1726225574566080300,8.023080322265624,-0.043810781091451645,-0.14571213722229004,-0.04763747379183769
1726225574576117200,8.0331171875,-0.12519288063049316,-0.20461449027061462,0.29983824491500854
1726225574586153200,8.0431533203125,0.052193887531757355,-0.2393069565296173,-0.049346376210451126
1726225574596189200,8.053189208984374,0.14501114189624786,-0.08320131152868271,-0.2746486961841583
1726225574606226200,8.06322607421875,0.09280997514724731,-0.14914438128471375,0.2908889949321747
1726225574616262100,8.07326220703125,-0.008100252598524094,-0.16674968600273132,0.08463843911886215
1726225574626298000,8.083298095703125,-0.01154158916324377,-0.008072158321738243,-0.1359996646642685
1726225574636334000,8.093333984375,0.1688421070575714,-0.03789650276303291,0.14606249332427979
1726225574646371000,8.10337109375,-0.006813884247094393,-0.03113580122590065,-0.1844208836555481
1726225574656407000,8.113406982421875,0.16098681092262268,0.025971900671720505,-0.6263043880462646
1726225574666443000,8.123443115234375,0.11306243389844894,-0.10601622611284256,-0.1519291251897812
1726225574676480300,8.133480224609375,0.079926498234272,-0.10917700827121735,-0.17617662250995636
1726225574686516200,8.14351611328125,0.1960057020187378,-0.10998208075761795,0.11821852624416351
1726225574696552200,8.15355224609375,0.03483672812581062,-0.01950477622449398,0.07416920363903046
1726225574706589200,8.163589111328125,0.09492190182209015,-0.07504553347826004,-0.23059575259685516
1726225574716625200,8.173625244140625,0.02379169687628746,-0.0059923650696873665,-0.3004670739173889
1726225574726661000,8.1836611328125,-0.010470137931406498,-0.10062459856271744,0.3134075403213501
1726225574736698000,8.193697998046876,0.0577765628695488,-0.10582384467124939,0.09722357243299484
1726225574746734000,8.203734130859376,0.055244963616132736,-0.16782835125923157,-0.3003746569156647
1726225574756770000,8.21377001953125,0.07738134264945984,-0.16803178191184998,-0.10803793370723724
1726225574766806000,8.223805908203126,0.08955971151590347,-0.16683310270309448,0.3459327518939972
1726225574776843300,8.23384326171875,0.05218568444252014,-0.0049464767798781395,-0.06581229716539383
1726225574786879200,8.243879150390624,0.10167466849088669,-0.045510947704315186,-0.43434134125709534
1726225574796915200,8.253915283203124,0.021529996767640114,-0.009284038096666336,0.11935145407915115
1726225574806952200,8.2639521484375,0.15054869651794434,-0.050261300057172775,0.0643976628780365
1726225574816988200,8.27398828125,0.07961847633123398,-0.030336584895849228,-0.23149146139621735
1726225574827024100,8.284024169921874,0.08657412230968475,-0.0054453518241643906,0.3425068259239197
1726225574837061000,8.29406103515625,0.10731878876686096,0.0024272047448903322,0.46989181637763977
1726225574847097000,8.30409716796875,0.0006496054120361805,0.05095399543642998,0.06196027621626854
1726225574857133000,8.314133056640625,0.08172997087240219,0.0723610371351242,-0.21444450318813324
1726225574867170300,8.32417041015625,0.02955891378223896,-0.016954462975263596,-0.35413262248039246
1726225574877206300,8.334206298828125,0.09203952550888062,-0.14028745889663696,-1.1319681406021118
1726225574887242200,8.3442421875,0.11155863106250763,-0.02384153939783573,-1.0338106155395508
1726225574897279200,8.354279296875,0.1571153849363327,-0.025245701894164085,0.23537252843379974
1726225574907315200,8.364315185546875,0.17876102030277252,-0.0861508697271347,0.640866219997406
1726225574917351200,8.37435107421875,0.10966663807630539,-0.015200037509202957,0.19545626640319824
1726225574927387100,8.38438720703125,0.06442325562238693,0.11131022870540619,-0.06703074276447296
1726225574937424100,8.394424072265625,0.2746883034706116,-0.07801982760429382,0.7579352259635925
1726225574947460000,8.404460205078125,0.09471718966960907,-0.02390919253230095,0.479871928691864
1726225574957496000,8.41449609375,0.24088634550571442,0.141533762216568,-0.18847201764583588
1726225574967533000,8.424532958984376,0.22332359850406647,-0.054802730679512024,0.1387588381767273
1726225574977569000,8.434569091796876,0.1476268619298935,0.13641171157360077,0.5906457901000977
1726225574987605200,8.444605224609376,0.39467209577560425,0.08327686786651611,0.0062473067082464695
1726225574997642200,8.454642333984374,0.10059892386198044,0.11586278676986694,-0.5530339479446411
1726225575007678200,8.46467822265625,0.34598419070243835,0.0009220829233527184,-0.37114405632019043
1726225575017714200,8.474714111328124,0.2035817801952362,0.27444151043891907,0.6159352660179138
1726225575027751200,8.484751220703124,0.3093028664588928,0.1794862300157547,0.6071561574935913
1726225575037787100,8.494787109375,0.25398069620132446,0.14832481741905212,0.485496461391449
1726225575047823000,8.504822998046874,0.2951342761516571,0.12206125259399414,-0.21373218297958374
1726225575057859000,8.514859130859374,0.24112370610237122,0.38268887996673584,-0.18446683883666992
1726225575067896000,8.52489599609375,0.36014115810394287,0.25684067606925964,0.040325798094272614
1726225575077932000,8.53493212890625,0.3450060486793518,0.2573401629924774,-0.06873681396245956
1726225575087968000,8.544968017578125,0.434016615152359,0.13969846069812775,0.1706177145242691
1726225575098005200,8.555005126953125,0.1727544069290161,0.2065957933664322,0.4110696017742157
1726225575108041200,8.565041259765625,0.12200227379798889,0.3265964984893799,-0.25805628299713135
1726225575118077200,8.5750771484375,0.17673364281654358,0.19730494916439056,0.006573139689862728
1726225575128114200,8.5851142578125,0.1179688572883606,0.11540555953979492,0.32546672224998474
1726225575138150100,8.595150146484375,0.22924800217151642,0.18992774188518524,-0.2786036431789398
1726225575148186000,8.60518603515625,0.2843019366264343,0.2055184245109558,-0.47435954213142395
1726225575158223000,8.61522314453125,0.28144371509552,0.12191808223724365,0.46480053663253784
1726225575168259000,8.625259033203125,0.1622171849012375,0.12624092400074005,0.5858672857284546
1726225575178295000,8.635294921875,0.19799692928791046,0.1627490371465683,0.0006917733699083328
1726225575188332300,8.645332275390626,0.1456192135810852,0.19090904295444489,0.17187072336673737
1726225575198368300,8.6553681640625,0.15112771093845367,-0.02320510894060135,0.8710169196128845
1726225575208404500,8.665404541015626,0.1253989189863205,0.07309932261705399,0.028021521866321564
1726225575218440400,8.6754404296875,0.2514556050300598,0.2354784607887268,-0.7924359440803528
1726225575228477400,8.6854775390625,0.16233530640602112,0.015419868752360344,-0.4159832298755646
1726225575238513700,8.695513671875,0.12781763076782227,0.22882616519927979,-0.08576060086488724
1726225575248549600,8.705549560546874,0.25000718235969543,0.2440360188484192,-0.23448695242404938
1726225575258586600,8.715586669921874,0.18803147971630096,0.15641433000564575,-0.16562336683273315
1726225575268622600,8.72562255859375,0.29800406098365784,0.10188797116279602,0.22798359394073486
1726225575278658600,8.735658447265624,0.3016718327999115,0.16061027348041534,0.5620182752609253
1726225575288695600,8.745695556640625,0.30425697565078735,0.2753816246986389,-0.12575748562812805
1726225575298731500,8.7557314453125,0.3664364516735077,0.24794809520244598,0.2148633599281311
1726225575308767500,8.765767578125,0.11327794194221497,0.2387886941432953,0.21538613736629486
1726225575318804500,8.775804443359375,0.12145848572254181,0.15056028962135315,-0.32050782442092896
1726225575328840400,8.78584033203125,0.14585968852043152,0.3663327693939209,-0.9496692419052124
1726225575338876400,8.79587646484375,0.16585247218608856,0.09213799983263016,-0.5978910326957703
1726225575348912400,8.805912353515625,0.18581898510456085,0.24238768219947815,0.38172903656959534
1726225575358949600,8.81594970703125,0.19988135993480682,0.21498794853687286,0.6067677736282349
1726225575368985600,8.825985595703125,0.17077966034412384,0.2654750645160675,-0.24724066257476807
1726225575379021600,8.836021484375,0.19493652880191803,0.249679833650589,0.1825987994670868
1726225575389058600,8.84605859375,0.16888947784900665,0.29600605368614197,0.16515402495861053
1726225575399094500,8.856094482421875,0.2503747045993805,0.1728077083826065,-0.6951948404312134
1726225575409130500,8.866130615234376,0.15990392863750458,0.05970991402864456,-0.7376466989517212
1726225575419167500,8.87616748046875,0.14744502305984497,0.20080842077732086,0.04585527256131172
1726225575429203500,8.886203369140626,0.06164916604757309,0.1359335482120514,-0.08999470621347427
1726225575439239400,8.896239501953126,0.06726497411727905,0.13206318020820618,0.07736766338348389
1726225575449276700,8.906276611328124,-0.003641424234956503,0.2380490005016327,0.3794303238391876
1726225575459312600,8.916312744140624,-0.011357344686985016,0.16237929463386536,-0.25132134556770325
1726225575469348600,8.9263486328125,0.0795280858874321,0.09282951056957245,-0.4756692349910736
1726225575479385600,8.936385498046874,0.04536549001932144,0.11464816331863403,-0.004221184644848108
1726225575489421600,8.946421630859374,0.1288316249847412,-0.047816645354032516,0.2919045090675354
1726225575499457500,8.95645751953125,-0.05103742331266403,0.041493017226457596,0.0618874691426754
1726225575509493500,8.966493408203124,-0.04393664002418518,0.09830009937286377,-0.3167181611061096
1726225575519530500,8.976530517578125,-0.10080420970916748,-0.06068769469857216,-0.18399830162525177
1726225575529566500,8.98656640625,-0.21991701424121857,-0.005083019845187664,0.24627292156219482
1726225575539602400,8.9966025390625,-0.17636898159980774,-0.09849604964256287,-0.020259862765669823
1726225575549639700,9.0066396484375,-0.4130515456199646,-0.06896931678056717,0.28372398018836975
1726225575559675600,9.016675537109375,-0.3553489148616791,-0.10686934739351273,-0.0328509584069252
1726225575569711600,9.026711669921875,-0.35300374031066895,-0.06847269088029861,0.18574129045009613
1726225575579748600,9.03674853515625,-0.3406692147254944,-0.18999256193637848,-0.21783137321472168
1726225575589784600,9.04678466796875,-0.3761662244796753,-0.23734170198440552,-0.2207517921924591
1726225575599820500,9.056820556640625,-0.3477987051010132,-0.16850657761096954,-0.1136433407664299
1726225575609857500,9.066857421875,-0.40779733657836914,-0.1097940057516098,0.486253947019577
1726225575619893500,9.0768935546875,-0.49091342091560364,-0.0907692089676857,-0.14453434944152832
1726225575629929500,9.086929443359375,-0.3823262155056,-0.22869564592838287,-0.4811834692955017
1726225575639965400,9.09696533203125,-0.42630383372306824,-0.11371618509292603,0.5686050653457642
1726225575650002400,9.10700244140625,-0.3967379629611969,-0.06804242730140686,0.7669858336448669
1726225575660038700,9.11703857421875,-0.36364343762397766,-0.18706344068050385,0.13275110721588135
1726225575670074600,9.12707470703125,-0.2991648316383362,-0.15870583057403564,-0.4373062252998352
1726225575680111600,9.137111572265624,-0.2591864764690399,-0.13990548253059387,0.004877536091953516
1726225575690147600,9.147147705078124,-0.2417190968990326,-0.10055354982614517,-0.22797808051109314
1726225575700183600,9.15718359375,-0.26476314663887024,-0.20553317666053772,0.11444596946239471
1726225575710220500,9.167220458984374,-0.2758653461933136,-0.15367263555526733,0.20949232578277588
1726225575720256500,9.177256591796874,-0.10993167757987976,-0.1317259818315506,0.0718647688627243
1726225575730292500,9.18729248046875,-0.2144855111837387,-0.11700615286827087,0.6739088296890259
1726225575740329500,9.19732958984375,-0.1769510805606842,-0.10476446151733398,0.38218382000923157
1726225575750365400,9.207365478515625,-0.16033881902694702,-0.056632354855537415,-0.27451813220977783
1726225575760401400,9.2174013671875,-0.07243740558624268,-0.08221130818128586,-0.6831073760986328
1726225575770438700,9.227438720703125,-0.1279374212026596,-0.12669435143470764,0.12488426268100739
1726225575780474600,9.237474609375,-0.055150944739580154,-0.2578375041484833,1.0206393003463745
1726225575790510600,9.247510498046875,-0.026573095470666885,-0.06747262179851532,0.36114394664764404
1726225575800546600,9.257546630859375,0.01689179614186287,0.08722721040248871,-0.48603084683418274
1726225575810583600,9.26758349609375,0.0023975414223968983,-0.11710064113140106,0.3220275938510895
1726225575820619500,9.27761962890625,-0.08778608590364456,-0.025731975212693214,0.14613312482833862
1726225575830655500,9.287655517578125,0.008492512628436089,0.09929944574832916,-0.603386402130127
1726225575840692500,9.2976923828125,0.023092063143849373,-0.03431376442313194,-0.4619913697242737
1726225575850728400,9.307728515625,0.051391612738370895,-0.0782543271780014,1.0029629468917847
1726225575860764400,9.317764404296875,0.028377454727888107,0.10474519431591034,0.6266174912452698
1726225575870801700,9.3278017578125,0.138954296708107,-0.03315674141049385,-0.6646444201469421
1726225575880837600,9.337837646484376,0.011445445008575916,0.013252501375973225,-0.5872517824172974
1726225575890873600,9.34787353515625,0.0629163533449173,0.0461510606110096,0.3179537355899811
1726225575900910600,9.35791064453125,-0.03293130174279213,0.03677947074174881,0.01938806101679802
1726225575910946600,9.367946533203124,-0.04255223646759987,0.00035807909443974495,-0.6263669729232788
1726225575920982500,9.377982421875,0.049013927578926086,-0.09974133968353271,-0.1832384467124939
1726225575931018500,9.3880185546875,-0.11002340167760849,-0.11036522686481476,0.8312568068504333
1726225575941055500,9.398055419921874,-0.08736639469861984,0.04368836432695389,0.5701050758361816
1726225575951091500,9.408091552734374,-0.13246463239192963,-0.15780986845493317,-1.2514212131500244
1726225575961127400,9.41812744140625,-0.1919214427471161,-0.02659916691482067,-1.5086941719055176
1726225575971164700,9.42816455078125,-0.03693239018321037,0.16760334372520447,0.0695532038807869
1726225575981200600,9.43820068359375,0.11122778058052063,0.014032416976988316,0.4475332796573639
1726225575991236600,9.448236572265625,0.09481392055749893,-0.26761841773986816,0.18295139074325562
1726225576001273600,9.458273681640625,-0.03196387737989426,-0.11221447587013245,0.17672541737556458
1726225576011309600,9.4683095703125,0.030029986053705215,-0.07107342779636383,0.1494160294532776
1726225576021345500,9.478345458984375,0.04713887348771095,-0.1819920390844345,-0.6286444664001465
1726225576031382500,9.488382568359375,0.08303695172071457,0.023921974003314972,-0.40957120060920715
1726225576041418500,9.49841845703125,0.22264520823955536,0.1253548264503479,0.46558812260627747
1726225576051454500,9.508454345703125,0.17975740134716034,0.1494247317314148,0.6573207974433899
1726225576061491500,9.518491455078125,0.24178056418895721,0.18197175860404968,-0.10808875411748886
1726225576071527400,9.52852734375,0.20712751150131226,0.14983779191970825,-0.04650688171386719
1726225576081563600,9.538563720703126,0.264364629983902,0.1873576045036316,0.15276660025119781
1726225576091599600,9.548599609375,0.46165958046913147,0.3090803027153015,-0.7315935492515564
1726225576101636600,9.55863671875,0.4097616672515869,0.11342011392116547,-0.7710620760917664
1726225576111672600,9.568672607421876,0.46593573689460754,0.43691641092300415,0.5332753658294678
1726225576121708500,9.57870849609375,0.47199729084968567,0.20105423033237457,0.6992349028587341
1726225576131745500,9.58874560546875,0.3868967592716217,0.3407532870769501,0.24461418390274048
1726225576141781500,9.598781494140624,0.41747304797172546,0.41606348752975464,0.008883407339453697
1726225576151817500,9.6088173828125,0.3778260350227356,0.29903459548950195,0.059715427458286285
1726225576161854500,9.6188544921875,0.3334486186504364,0.32264140248298645,0.01848575659096241
1726225576171890400,9.628890380859374,0.44084855914115906,0.452616423368454,-0.3386766314506531
1726225576181926400,9.638926513671874,0.4159707725048065,0.2415798306465149,-0.23688870668411255
1726225576191963600,9.648963623046875,0.3227556049823761,0.33158135414123535,0.3417333662509918
1726225576201999600,9.65899951171875,0.32391849160194397,0.31373071670532227,0.37073445320129395
1726225576212034800,9.669034912109375,0.21540482342243195,0.1980949491262436,-0.10430610924959183
1726225576222071000,9.679071044921875,0.23406881093978882,0.18618528544902802,-0.12503845989704132
1726225576232108000,9.68910791015625,0.15443868935108185,0.26405560970306396,0.24170304834842682
1726225576242144000,9.69914404296875,0.14229319989681244,0.24399079382419586,-0.11893933266401291
1726225576252180200,9.70918017578125,0.09086889028549194,0.35059529542922974,-0.3632042109966278
1726225576262217000,9.719217041015625,0.12008848786354065,0.2538130283355713,0.3115411698818207
1726225576272253000,9.7292529296875,0.13889652490615845,0.09560635685920715,0.561130166053772
1726225576282289200,9.7392890625,0.004357093945145607,0.07761669903993607,-0.1535692662000656
1726225576292326000,9.749325927734375,0.07299980521202087,0.07067623734474182,-0.5549071431159973
1726225576302361900,9.75936181640625,0.03614060953259468,0.09754541516304016,-0.015354286879301071
1726225576312398000,9.769398193359375,0.03477733954787254,0.11745467036962509,0.11039884388446808
1726225576322434800,9.779434814453126,0.07983864098787308,0.02742532454431057,-0.22174718976020813
1726225576332470800,9.789470703125,0.027148263528943062,0.0674947127699852,-0.39876589179039
1726225576342507000,9.799507080078126,0.0966586098074913,0.02498558908700943,0.2908685803413391
1726225576352543200,9.809543212890626,0.05144665762782097,-0.08050461113452911,0.3668017089366913
1726225576362580000,9.819580078125,0.0066904546692967415,0.20025528967380524,0.2979842722415924
1726225576372616000,9.829615966796876,0.10030616074800491,0.17588576674461365,-0.32190296053886414
1726225576382652200,9.839652099609374,0.007049839943647385,0.056094419211149216,0.16986989974975586
1726225576392689000,9.84968896484375,0.031115761026740074,0.006266409996896982,0.41464662551879883
1726225576402724900,9.859724853515624,-0.019367124885320663,0.09910309314727783,-0.23689785599708557
1726225576412761000,9.869760986328124,-0.03656714782118797,-0.021772990003228188,-1.133435845375061
1726225576422797800,9.8797978515625,-0.11255120486021042,0.04545166343450546,-0.07765678316354752
1726225576432833800,9.889833740234375,-0.006669783033430576,-0.07815656065940857,-0.6130924820899963
1726225576442870000,9.8998701171875,-0.03218116611242294,0.16763263940811157,-0.7554386854171753
1726225576452907000,9.909906982421875,0.12454026937484741,0.02872028760612011,0.3436708152294159
1726225576462943000,9.91994287109375,0.025412194430828094,0.22188222408294678,0.7751902937889099
1726225576472979000,9.92997900390625,0.10260684043169022,-0.019424403086304665,0.052663300186395645
1726225576483016000,9.940015869140625,-0.1138608530163765,0.10128854960203171,0.18935982882976532
1726225576493052000,9.950052001953125,-0.07961127161979675,0.055351145565509796,0.14322908222675323
1726225576503087900,9.960087890625,-0.18975558876991272,-0.019006116315722466,-0.2759363651275635
1726225576513124000,9.9701240234375,-0.18649081885814667,0.024690764024853706,-0.839871346950531
1726225576523160800,9.980160888671875,-0.14244088530540466,-0.01666964776813984,-0.4723617434501648
1726225576533196800,9.99019677734375,-0.1760113686323166,0.08675048500299454,0.46643316745758057
1726225576543233000,10.00023291015625,-0.2334783673286438,-0.016482902690768242,0.8975103497505188
1726225576553270000,10.01027001953125,-0.20162242650985718,-0.06672369688749313,0.4591585695743561
1726225576563306000,10.020305908203126,-0.25447291135787964,-0.07061522454023361,-0.3667859435081482
1726225576573342200,10.03034228515625,-0.31409841775894165,-0.10450448095798492,-0.447426974773407
1726225576583379000,10.04037890625,-0.24258282780647278,-0.0780460312962532,0.5061113834381104
1726225576593415000,10.050414794921876,-0.3224976360797882,-0.021604862064123154,0.3491542339324951
1726225576603451100,10.060451171875,-0.11422107368707657,-0.2422071099281311,-0.32452285289764404
1726225576613487900,10.07048779296875,-0.312106192111969,-0.07344551384449005,0.2164144366979599
1726225576623523800,10.08052392578125,-0.08724050223827362,-0.3768042027950287,1.1431769132614136
1726225576633560000,10.09056005859375,-0.2706878185272217,-0.08330412209033966,1.105555772781372
1726225576643596000,10.100595947265624,-0.14627529680728912,-0.2900626063346863,-0.47219425439834595
1726225576653633000,10.110633056640625,-0.09696315228939056,-0.1502101868391037,-1.1249403953552246
1726225576663669000,10.1206689453125,-0.20282332599163055,-0.09069393575191498,-0.27495238184928894
1726225576673705200,10.130705322265625,-0.3149261772632599,-0.054143648594617844,0.6828787922859192
1726225576683742000,10.140741943359375,-0.2421768456697464,-0.07505446672439575,-0.11251460760831833
1726225576693778000,10.15077783203125,-0.187285378575325,-0.09404174238443375,-0.3297311067581177
1726225576703814100,10.160814208984375,-0.263471782207489,-0.0029569528996944427,0.466172993183136
1726225576713851000,10.170850830078125,-0.15714162588119507,-0.030770739540457726,-0.1428309679031372
1726225576723886800,10.180886962890625,-0.22823816537857056,-0.05300334095954895,0.4784890413284302
1726225576733923000,10.190923095703125,-0.24004609882831573,-0.1229933425784111,0.7606011629104614
1726225576743959800,10.200959716796875,-0.24204209446907043,-0.09056711196899414,-0.08152979612350464
1726225576753995800,10.210995849609375,-0.23731578886508942,-0.1587056815624237,-0.192348450422287
1726225576764032000,10.221031982421875,-0.2582273483276367,-0.30750083923339844,-0.10991901159286499
1726225576774068200,10.231068115234375,-0.3439004421234131,-0.12999235093593597,-0.36712419986724854
1726225576784105000,10.24110498046875,-0.18255303800106049,-0.1837204247713089,-0.9263636469841003
1726225576794141000,10.251140869140626,-0.38892191648483276,-0.10919959098100662,-0.6365635395050049
1726225576804177200,10.26117724609375,-0.13142451643943787,-0.09099700301885605,0.5323425531387329
1726225576814214000,10.2712138671875,-0.15461452305316925,-0.18771903216838837,0.5943734049797058
1726225576824249900,10.281249755859376,-0.18424180150032043,-0.29466038942337036,-0.13586246967315674
1726225576834286000,10.2912861328125,-0.10992097109556198,-0.2407180666923523,-0.44319045543670654
1726225576844322800,10.30132275390625,-0.13474826514720917,-0.15332721173763275,0.15553274750709534
1726225576854358800,10.31135888671875,-0.11987718194723129,-0.1125670075416565,0.1334197223186493
1726225576864395000,10.32139501953125,-0.11249460279941559,0.03333934396505356,-0.04819764569401741
1726225576874432000,10.331431884765625,-0.09617181867361069,-0.016697721555829048,-0.11993201822042465
1726225576884468000,10.341468017578125,-0.15854515135288239,-0.09290928393602371,0.26252293586730957
1726225576894504200,10.351504150390625,-0.05368851125240326,-0.07564427703619003,-0.2586587369441986
1726225576904540200,10.3615400390625,0.12469165772199631,-0.13473571836948395,0.4122317433357239
1726225576914577000,10.371576904296875,0.17054890096187592,0.0943179726600647,0.37755391001701355
1726225576924613000,10.381613037109375,0.2919054329395294,0.027547437697649002,-0.7536657452583313
1726225576934649000,10.391649169921875,0.280992329120636,-0.003964149858802557,-1.4628559350967407
1726225576944685800,10.401685791015625,0.23391756415367126,0.23208557069301605,-0.5545938014984131
1726225576954722000,10.41172216796875,0.3483937978744507,-0.025829855352640152,0.23832274973392487
1726225576964758000,10.421758056640625,0.27822408080101013,0.0845784842967987,0.009767310693860054
1726225576974795000,10.431794921875,0.46651995182037354,0.22769781947135925,-0.018331967294216156
1726225576984831000,10.4418310546875,0.29527315497398376,0.170925110578537,0.8715164065361023
1726225576994867200,10.4518671875,0.38706618547439575,0.2233283966779709,1.0422850847244263
1726225577004904000,10.461904052734376,0.3256138563156128,0.09025075286626816,-0.033530838787555695
1726225577014940000,10.47193994140625,0.3763508200645447,0.3629089295864105,-0.2564704418182373
1726225577024976100,10.48197607421875,0.4640997350215912,0.15039624273777008,0.3158538341522217
1726225577035012000,10.49201220703125,0.22067856788635254,0.18596355617046356,-0.6244561076164246
1726225577045048800,10.502048828125,0.26376089453697205,0.1882486492395401,-0.33102646470069885
1726225577055085000,10.5120849609375,0.5003798007965088,0.1447315216064453,0.5214498043060303
1726225577065121000,10.52212109375,0.3242027163505554,0.17275209724903107,0.9571102857589722
1726225577075158000,10.532157958984374,0.4723346531391144,0.12786345183849335,0.2785528302192688
1726225577085194000,10.542194091796874,0.3494114875793457,0.138444721698761,-1.0199329853057861
1726225577095230200,10.552230224609374,0.3083106577396393,0.33049193024635315,-0.2895970344543457
1726225577105267000,10.562266845703125,0.31057900190353394,0.22271448373794556,0.896859884262085
1726225577115303000,10.572302978515625,0.04461148753762245,0.28184249997138977,0.2774251401424408
1726225577125339100,10.582339111328125,0.10117686539888382,0.1931891143321991,-0.7060254216194153
1726225577135376000,10.5923759765625,-0.07532866299152374,0.1908002644777298,-0.6778907179832458
1726225577145412000,10.602412109375,0.11790642887353897,0.24370837211608887,0.05773940682411194
1726225577155448000,10.612447998046875,-0.0006116977892816067,0.0981288030743599,-0.16674615442752838
1726225577165484000,10.622484130859375,0.12272225320339203,0.023743366822600365,-0.1555371731519699
1726225577175521000,10.63252099609375,0.02904636040329933,0.20393231511116028,1.3181610107421875
1726225577185557200,10.64255712890625,-0.18268261849880219,0.11661345511674881,1.6138554811477661
1726225577195593200,10.65259326171875,-0.36511555314064026,0.09471002221107483,-0.4472145736217499
1726225577205630000,10.6626298828125,-0.22417908906936646,0.011176181957125664,-1.1028213500976562
1726225577215666400,10.67266650390625,-0.17193906009197235,0.06623117625713348,0.0494365356862545
1726225577225702400,10.682702392578125,-0.010671788826584816,-0.32008281350135803,0.06269315630197525
1726225577235739600,10.69273974609375,-0.20912763476371765,-0.2858723998069763,-0.18546658754348755
1726225577245775600,10.702775634765626,-0.1459876149892807,-0.21341398358345032,0.09403529018163681
1726225577255811600,10.7128115234375,-0.15092085301876068,-0.24768781661987305,0.9830878973007202
1726225577265848600,10.7228486328125,-0.13743017613887787,-0.040312498807907104,0.10718746483325958
1726225577275884500,10.732884521484374,-0.171439528465271,0.028018353506922722,-1.1014207601547241
1726225577285920500,10.74292041015625,-0.24972322583198547,0.09360387921333313,-0.5190401673316956
1726225577295956700,10.752956787109374,-0.08444400131702423,0.09336526691913605,0.1661539077758789
1726225577305993500,10.762993408203124,-0.057777270674705505,0.030838049948215485,-0.43140313029289246
1726225577316029400,10.773029541015624,0.04507747292518616,-0.2101718932390213,-0.6401062607765198
1726225577326065700,10.783065673828125,-0.06486417353153229,-0.0017841560766100883,0.1661243438720703
1726225577336102400,10.793102294921875,0.11976346373558044,-0.15858414769172668,0.3854926526546478
1726225577346138400,10.803138427734375,-0.04142448678612709,0.021583804860711098,0.13131877779960632
1726225577356174600,10.813174560546875,-0.03667847067117691,0.13035635650157928,-0.14609257876873016
1726225577366211600,10.823211669921875,-0.011932216584682465,0.07754582911729813,0.3327009081840515
1726225577376247600,10.83324755859375,-0.0685129389166832,0.11722666025161743,0.5044026374816895
1726225577386283500,10.843283447265625,0.03256984427571297,-0.08582334965467453,-0.725609540939331
1726225577396320500,10.853320556640625,0.03678243234753609,-0.021520523354411125,-1.0964252948760986
1726225577406356500,10.8633564453125,0.06356862932443619,-0.04447063431143761,0.5401924848556519
1726225577416392400,10.873392333984375,-0.047757890075445175,0.06163715943694115,0.7128087282180786
1726225577426428700,10.8834287109375,0.033582400530576706,-0.10894383490085602,-0.6006352305412292
1726225577436465400,10.89346533203125,-0.07932177186012268,0.14263780415058136,-0.8287845253944397
1726225577446501400,10.90350146484375,0.050532519817352295,-0.0738622173666954,0.25436297059059143
1726225577456537600,10.91353759765625,-0.020068412646651268,-0.09505325555801392,0.3739354610443115
1726225577466574600,10.92357470703125,-0.05080307275056839,-0.2565465569496155,-0.5172573328018188
1726225577476610600,10.933610595703126,-0.0664781704545021,0.10968281328678131,-1.090989589691162
1726225577486646500,10.943646484375,-0.10932636260986328,0.010031946003437042,-0.0018721390515565872
1726225577496683500,10.95368359375,-0.07181094586849213,-0.10342483967542648,0.7864310145378113
1726225577506719500,10.963719482421874,-0.16674886643886566,-0.21310673654079437,0.23478925228118896
1726225577516755500,10.97375537109375,-0.1348833441734314,-0.07858354598283768,-0.42376387119293213
1726225577526792400,10.98379248046875,-0.07483938336372375,-0.25671249628067017,0.7921674847602844
1726225577536828400,10.993828369140624,-0.17231987416744232,-0.08567099273204803,0.8273894190788269
1726225577546864400,11.003864501953124,0.03429265320301056,-0.258083313703537,-0.8147358894348145
1726225577556900600,11.013900634765625,0.03981178626418114,-0.3067973256111145,-1.8893007040023804
1726225577566937600,11.0239375,-0.01802949607372284,0.03169164061546326,-0.7312167286872864
1726225577576973600,11.0339736328125,-0.03945516049861908,-0.21900370717048645,1.2985575199127197
1726225577587009800,11.044009765625,-0.06776449829339981,0.013050444424152374,1.3219596147537231
1726225577597046500,11.054046630859375,0.047422006726264954,-0.022040696814656258,0.5334277153015137
1726225577607082500,11.06408251953125,-0.057129599153995514,-0.05359784513711929,-0.3615511357784271
1726225577617118700,11.07411865234375,-0.009012404829263687,-0.07356569170951843,-0.48937752842903137
1726225577627155500,11.084155517578125,0.062356241047382355,-0.07215099781751633,-0.6660037040710449
1726225577637191400,11.09419140625,0.055151861160993576,0.011010739952325821,0.005488911177963018
1726225577647227600,11.1042275390625,0.20610427856445312,0.06005643680691719,0.3894590139389038
1726225577657264600,11.1142646484375,0.2156253457069397,0.13391095399856567,-0.06464803963899612
1726225577667300600,11.124300537109375,0.255528062582016,0.13358111679553986,0.2574494183063507
1726225577677336600,11.134336669921876,0.2490805685520172,0.07828830182552338,0.2013443261384964
1726225577687372800,11.144372802734376,0.1194712445139885,0.10519681125879288,-0.1423424929380417
1726225577697409500,11.154409423828126,0.17601682245731354,0.22451308369636536,-0.3762279748916626
1726225577707445500,11.164445556640626,0.15632407367229462,0.2532837390899658,0.13773071765899658
1726225577717481700,11.174481689453126,0.1299971342086792,0.15506210923194885,0.18832464516162872
1726225577727518500,11.1845185546875,0.25020527839660645,0.12965095043182373,0.0015367870219051838
1726225577737554400,11.194554443359374,0.14856892824172974,0.11434683203697205,0.26603955030441284
1726225577747590700,11.204590576171874,0.22101444005966187,-0.0057749636471271515,0.2261369377374649
1726225577757627400,11.21462744140625,0.024790864437818527,0.06570880860090256,0.27899909019470215
1726225577767663400,11.224663330078124,0.010105341672897339,0.11968386918306351,-0.39290228486061096
1726225577777699600,11.234699462890624,0.041139692068099976,0.0222819484770298,-0.2150459885597229
1726225577787736600,11.244736572265625,-0.1436256766319275,0.0451202392578125,0.1056051254272461
1726225577797772500,11.2547724609375,-0.06079844385385513,-0.09502594918012619,-0.6854966878890991
1726225577807808500,11.26480859375,-0.2126239687204361,0.0014395350590348244,-0.7207809090614319
1726225577817844700,11.2748447265625,-0.15469008684158325,-0.013827301561832428,0.28937047719955444
1726225577827881500,11.284881591796875,-0.19418996572494507,-0.07766193151473999,0.7216364145278931
1726225577837917400,11.29491748046875,-0.050506286323070526,-0.2080654799938202,0.010303186252713203
1726225577847953700,11.30495361328125,-0.23757794499397278,-0.27251696586608887,0.3263660967350006
1726225577857990400,11.314990478515625,-0.30952563881874084,0.035613685846328735,1.0711954832077026
1726225577868026400,11.3250263671875,-0.25829899311065674,-0.12765628099441528,-0.0040608858689665794
1726225577878062600,11.3350625,-0.34054088592529297,0.00890369527041912,-0.7839756011962891
1726225577888099600,11.345099609375,-0.26644468307495117,-0.15474872291088104,-0.2617205083370209
1726225577898135600,11.355135498046875,-0.3323017358779907,-0.10767681896686554,0.3621121942996979
1726225577908171800,11.365171875,-0.27174967527389526,-0.15891911089420319,0.4457510709762573
1726225577918208500,11.37520849609375,-0.13241496682167053,-0.1519104689359665,0.024529533460736275
1726225577928244500,11.385244384765626,-0.24278850853443146,-0.037661049515008926,0.6561580300331116
1726225577938280700,11.39528076171875,-0.2345191389322281,0.051415830850601196,0.6220972537994385
1726225577948316700,11.405316650390626,-0.21207162737846375,0.109039805829525,-0.7020815014839172
1726225577958353400,11.415353515625,-0.2077498584985733,-0.0958012193441391,-1.2822977304458618
1726225577968389600,11.4253896484375,-0.28252142667770386,0.002466503530740738,-0.37984776496887207
1726225577978425600,11.435425537109374,0.05758927762508392,0.046556998044252396,0.4782578945159912
1726225577988462600,11.445462646484375,-0.09255407750606537,-0.03607761114835739,0.2312077134847641
1726225577998498600,11.45549853515625,0.022284355014562607,0.02861882746219635,0.36884042620658875
1726225578008534800,11.46553466796875,0.03804347291588783,0.058863695710897446,0.6089736223220825
1726225578018571500,11.475571533203125,0.04006987065076828,0.050304561853408813,-0.08983607590198517
1726225578028607500,11.485607421875,0.10624001175165176,-0.06511788815259933,-0.7212750315666199
1726225578038643700,11.495643798828125,0.02793082222342491,0.21947363018989563,-0.43416228890419006
1726225578048679700,11.5056796875,0.1077330932021141,0.20470395684242249,0.69322270154953
1726225578058716400,11.51571630859375,-0.10818162560462952,0.14934375882148743,0.6870763897895813
1726225578068752600,11.525752685546875,0.07122457027435303,-0.01727575808763504,-0.5934328436851501
1726225578078788600,11.53578857421875,-0.02744394913315773,0.2372175008058548,-0.45306429266929626
1726225578088825600,11.54582568359375,0.16903147101402283,-0.18448594212532043,1.0464208126068115
1726225578098861600,11.555861572265625,0.05019216611981392,-0.13670137524604797,0.7589166760444641
1726225578108897800,11.565897705078125,0.1428876370191574,-0.1295531690120697,-1.2440108060836792
1726225578118934500,11.5759345703125,0.07726974040269852,0.01048809289932251,-1.5790449380874634
1726225578128970500,11.585970458984375,0.10349550098180771,0.18670658767223358,0.26200589537620544
1726225578139006700,11.5960068359375,0.09190169721841812,0.11400549113750458,0.7206009030342102
1726225578149043500,11.60604345703125,-0.012158295139670372,-0.052629318088293076,-0.43237146735191345
1726225578159079400,11.616079345703126,-0.015257149934768677,0.22880582511425018,-0.4153362810611725
1726225578169115600,11.62611572265625,0.13938845694065094,0.02011219970881939,1.2482550144195557
1726225578179151600,11.636151611328126,-0.021535182371735573,-0.054708778858184814,0.7005184888839722
1726225578189188600,11.646188720703124,0.028830787166953087,0.03688665106892586,-1.6688624620437622
1726225578199224800,11.656224853515624,0.027131421491503716,0.31274139881134033,-1.608450174331665
1726225578209260800,11.6662607421875,-0.03832647576928139,0.03948204219341278,0.6357195973396301
1726225578219298000,11.676298095703125,-0.010678602382540703,0.26005035638809204,0.8990210294723511
1726225578229334000,11.686333984375,-0.13980057835578918,-0.16878341138362885,-0.2589881420135498
1726225578239370000,11.696369873046875,-0.07291661947965622,0.29708945751190186,0.43895581364631653
1726225578249407000,11.706406982421875,0.1344621628522873,-0.22853855788707733,1.2375519275665283
1726225578259443000,11.71644287109375,-0.09185139834880829,-0.11032857745885849,0.5080074667930603
1726225578269479000,11.72647900390625,0.13153520226478577,-0.0072368597611784935,-0.9144814610481262
1726225578279516000,11.736515869140625,0.017754577100276947,0.17288443446159363,-0.031090985983610153
1726225578289552100,11.74655224609375,0.1337415874004364,-0.07433218508958817,0.5164420008659363
1726225578299588000,11.756588134765625,-0.0694405660033226,0.05096554756164551,-0.3816691040992737
1726225578309624300,11.766624267578125,0.09406916797161102,-0.045709263533353806,-0.7878036499023438
1726225578319661000,11.7766611328125,0.0656905248761177,0.08349159359931946,0.05456164851784706
1726225578329697000,11.786697021484375,0.27957314252853394,-0.05576056241989136,-0.07758942246437073
1726225578339733200,11.796733154296875,0.14741748571395874,-0.07377258688211441,-0.36626487970352173
1726225578349770000,11.80677001953125,0.22442659735679626,0.0635678842663765,0.42274317145347595
1726225578359806000,11.816805908203126,0.12686169147491455,0.23249219357967377,0.8678836226463318
1726225578369842200,11.82684228515625,0.09992466121912003,0.044852860271930695,-0.137742817401886
1726225578379879000,11.83687890625,0.014747712761163712,-0.03320412337779999,-0.5854657292366028
1726225578389915000,11.846914794921876,-0.03320136293768883,0.07299280911684036,-0.027702882885932922
1726225578399951000,11.856951171875,0.12282419204711914,-0.007805101573467255,0.33156660199165344
1726225578409988000,11.866988037109374,-0.031150788068771362,0.07982607930898666,-0.1639777421951294
1726225578420024000,11.877024169921874,0.12582099437713623,-0.06365171819925308,-0.7141966819763184
1726225578430060000,11.88706005859375,-0.04881499335169792,0.09351035952568054,0.24879124760627747
1726225578440096300,11.89709619140625,0.05873197317123413,0.006257209461182356,0.8860337734222412
1726225578450133000,11.907133056640625,-0.13435301184654236,-0.0027602752670645714,0.06734027713537216
1726225578460169000,11.9171689453125,-0.0012399672996252775,-0.043661102652549744,-1.1364034414291382
1726225578470205200,11.927205078125,-0.12195247411727905,0.04393545538187027,-0.7678111791610718
1726225578480242000,11.937241943359375,0.18540027737617493,-0.07385536283254623,0.7486355900764465
1726225578490278000,11.94727783203125,-0.1067466288805008,-0.040517911314964294,0.9704015254974365
1726225578500314000,11.957314208984375,0.10352139174938202,-0.2702493667602539,-0.491107702255249
1726225578510351000,11.96735107421875,-0.08274748921394348,0.03833500295877457,-0.08224713802337646
1726225578520387000,11.977386962890625,0.03068612888455391,-0.02699606865644455,1.0721462965011597
1726225578530423000,11.987423095703125,-0.04461483284831047,-0.24010694026947021,0.034484848380088806
1726225578540459300,11.997459228515625,-0.05458251014351845,0.07411517947912216,-0.9790729880332947
1726225578550496000,12.00749609375,-0.0766248106956482,-0.10740379244089127,-0.27616116404533386
1726225578560532000,12.017531982421875,-0.12401603162288666,-0.20257318019866943,0.29985982179641724
1726225578570568200,12.027568115234375,-0.14038719236850739,-0.08156858384609222,-0.12411335855722427
1726225578580605000,12.03760498046875,-0.01782212033867836,-0.2262168526649475,-0.8203352689743042
1726225578590641000,12.047640869140626,-0.05930503085255623,-0.035224542021751404,0.5879894495010376
1726225578600677000,12.057677001953126,-0.13568449020385742,-0.029106196016073227,0.681278645992279
1726225578610714000,12.067714111328126,-0.20122496783733368,-0.046358026564121246,-0.28030306100845337
1726225578620750000,12.07775,-0.0653691366314888,-0.036363717168569565,-0.2540450692176819
1726225578630786300,12.087786376953124,-0.10872650891542435,-0.09901928901672363,0.5536391139030457
1726225578640823000,12.097822998046874,-0.034574516117572784,-0.10176154226064682,-0.07104664295911789
1726225578650859000,12.10785888671875,-0.030408602207899094,-0.07338256388902664,-0.7058051824569702
1726225578660895200,12.117895263671874,-0.016579072922468185,0.0036301985383033752,0.12255851179361343
1726225578670931200,12.12793115234375,-0.028630465269088745,-0.01821744069457054,0.7401784658432007
1726225578680968000,12.137968017578125,-0.13216723501682281,-0.099872887134552,-0.1062244400382042
1726225578691004200,12.148004150390625,-0.018837109208106995,0.01517992652952671,-0.5568398833274841
1726225578701040000,12.1580400390625,-0.10820187628269196,-0.027625326067209244,0.3947824239730835
1726225578711076900,12.168076904296875,-0.12063273787498474,-0.023839278146624565,0.07778804004192352
1726225578721113000,12.178113037109375,-0.042187198996543884,0.05716715380549431,-0.4550287425518036
1726225578731149300,12.1881494140625,-0.0033819875679910183,-0.06483288109302521,-0.8281224966049194
1726225578741186000,12.19818603515625,0.02920365333557129,-0.01985315792262554,0.37393519282341003
1726225578751222000,12.208221923828125,-0.03765711933374405,0.046492479741573334,1.2806342840194702
1726225578761258200,12.21825830078125,-0.009396720677614212,-0.23107734322547913,0.4300440549850464
1726225578771295000,12.228294921875,-0.041997116059064865,0.16234846413135529,-0.7402504086494446
1726225578781331000,12.2383310546875,0.047667257487773895,-0.06743253022432327,-0.17410865426063538
1726225578791367200,12.2483671875,-0.03237041085958481,-0.07795321941375732,0.4513784646987915
1726225578801403100,12.258403076171875,-0.007289560046046972,0.01593412086367607,-0.26495620608329773
1726225578811439900,12.26843994140625,0.16224223375320435,-0.1628720909357071,-1.5180200338363647
1726225578821476000,12.27847607421875,0.05495626851916313,0.1333097666501999,-0.7318620681762695
1726225578831512300,12.28851220703125,0.18554913997650146,-0.08541327714920044,0.8938679695129395
