time,seconds_elapsed,z,y,x
1726225566562128400,0.01912841796875,-0.10075883567333221,-0.20877611637115479,-0.021227523684501648
1726225566572164400,0.029164306640625,-0.11493004858493805,-0.14208044111728668,0.0325896330177784
1726225566582201300,0.039201416015625,-0.10997150838375092,-0.09324632585048676,0.17547355592250824
1726225566592237300,0.0492373046875,-0.17376354336738586,-0.11134330183267593,-0.019631491973996162
1726225566602273300,0.059273193359375,-0.25294438004493713,-0.1990814059972763,-0.16428987681865692
1726225566612310300,0.069310302734375,-0.25904035568237305,-0.2228487879037857,-0.04439196735620499
1726225566622346200,0.07934619140625,-0.25250840187072754,-0.24814429879188538,-0.03540007025003433
1726225566632382200,0.08938232421875,-0.2636124789714813,-0.17508099973201752,0.10471336543560028
1726225566642418200,0.099418212890625,-0.22915968298912048,-0.27079713344573975,-0.02008902281522751
1726225566652455400,0.109455322265625,-0.25688719749450684,-0.25737375020980835,-0.006330067757517099
1726225566662491400,0.119491455078125,-0.1853826493024826,-0.20797477662563324,0.12956838309764862
1726225566672527400,0.12952734375,-0.2090698629617691,-0.18291202187538147,0.06799502670764923
1726225566682564400,0.139564453125,-0.2893258333206177,-0.23280981183052063,0.009344499558210373
1726225566692600300,0.149600341796875,-0.2669885456562042,-0.2848682105541229,0.07384253293275833
1726225566702636300,0.15963623046875,-0.26922160387039185,-0.2572597563266754,0.19409731030464172
1726225566712673300,0.16967333984375,-0.2889564335346222,-0.26457279920578003,0.13973872363567352
1726225566722709200,0.179709228515625,-0.3725277781486511,-0.2734251618385315,-0.06276857852935791
1726225566732745200,0.1897451171875,-0.36661607027053833,-0.3666280508041382,-0.12202497571706772
1726225566742781200,0.19978125,-0.3267826437950134,-0.3551940619945526,0.027571173384785652
1726225566752818200,0.209818115234375,-0.2068631649017334,-0.40194106101989746,0.17791859805583954
1726225566762854400,0.2198544921875,-0.24442119896411896,-0.3664797246456146,0.14373773336410522
1726225566772890400,0.229890380859375,-0.2535129487514496,-0.26345694065093994,-0.07744605839252472
1726225566782927400,0.23992724609375,-0.09591241180896759,-0.34439918398857117,0.06388044357299805
1726225566792963300,0.24996337890625,-0.1465897113084793,-0.18017563223838806,0.1602461338043213
1726225566802999300,0.259999267578125,-0.10429391264915466,-0.21319003403186798,0.003549727378413081
1726225566813035300,0.27003515625,-0.12157969176769257,-0.20401811599731445,-0.02323741279542446
1726225566823072300,0.280072265625,-0.03407514467835426,-0.17858119308948517,0.10624441504478455
1726225566833108200,0.290108154296875,0.04633980244398117,-0.14252331852912903,0.06323196738958359
1726225566843144200,0.300144287109375,0.012351474724709988,-0.10690727829933167,0.20813561975955963
1726225566853181200,0.31018115234375,0.032877787947654724,-0.2062133550643921,0.0862712413072586
1726225566863217200,0.320217041015625,0.025792181491851807,-0.14374598860740662,-0.18720024824142456
1726225566873253000,0.330253173828125,0.06691484898328781,-0.1046246811747551,-0.06567275524139404
1726225566883289300,0.340289306640625,0.12039272487163544,-0.09770418703556061,0.11790665984153748
1726225566893326300,0.350326416015625,0.12263403832912445,-0.10528780519962311,0.017065802589058876
1726225566903362300,0.3603623046875,0.1823386549949646,-0.10179347544908524,-0.32918083667755127
1726225566913398300,0.370398193359375,0.22699213027954102,-0.0004721784498542547,-0.27387869358062744
1726225566923435300,0.380435302734375,0.38145628571510315,0.09766770154237747,0.2723409831523895
1726225566933471200,0.39047119140625,0.33604058623313904,0.10813286155462265,0.40766391158103943
1726225566943507200,0.400507080078125,0.4162989556789398,0.11195236444473267,0.07165714353322983
1726225566953543200,0.410543212890625,0.46794748306274414,0.1014920026063919,-0.01883094571530819
1726225566963580200,0.420580078125,0.4845685362815857,0.28389430046081543,0.17791274189949036
1726225566973616000,0.4306162109375,0.5542626976966858,0.26286572217941284,0.17647171020507812
1726225566983652000,0.440652099609375,0.39535292983055115,0.23695741593837738,-0.12713319063186646
1726225566993689300,0.450689453125,0.4725867211818695,0.10222410410642624,-0.16742680966854095
1726225567003725300,0.460725341796875,0.4253057539463043,0.16988757252693176,0.11180083453655243
1726225567013761300,0.47076123046875,0.43582257628440857,0.12945012748241425,0.1447763592004776
1726225567023797200,0.48079736328125,0.26120150089263916,0.11333321779966354,-0.2523965537548065
1726225567033834200,0.490834228515625,0.2277977466583252,0.17660193145275116,-0.27348774671554565
1726225567043870200,0.5008701171875,0.3369484543800354,0.11679718643426895,0.17992475628852844
1726225567053906200,0.51090625,0.19608642160892487,0.11074462532997131,0.14082449674606323
1726225567063943200,0.520943115234375,0.20383036136627197,0.015796273946762085,-0.11309699714183807
1726225567073979100,0.530979248046875,0.11594151705503464,-0.0475454144179821,-0.018381670117378235
1726225567084015000,0.54101513671875,0.10117748379707336,-0.04872439429163933,0.06746985763311386
1726225567094052400,0.55105224609375,0.10722605884075165,0.009721336886286736,0.20364420115947723
1726225567104088300,0.56108837890625,-0.006676278542727232,-0.026193520054221153,0.2008175253868103
1726225567114124300,0.571124267578125,-0.0641677975654602,-0.1534353643655777,-0.08073079586029053
1726225567124160300,0.58116015625,-0.023678164929151535,-0.3257341682910919,-0.3575029969215393
1726225567134197200,0.591197265625,-0.008284294977784157,-0.2414618879556656,-0.12519599497318268
1726225567144233200,0.601233154296875,0.05335483327507973,-0.13627395033836365,0.017585119232535362
1726225567154269200,0.611269287109375,-0.08187063038349152,-0.06089051440358162,-0.07097829878330231
1726225567164306200,0.62130615234375,-0.01152669358998537,-0.08870696276426315,-0.19703423976898193
1726225567174342100,0.631342041015625,0.04791346192359924,-0.10629687458276749,0.15508012473583221
1726225567184378000,0.641378173828125,0.08482354134321213,-0.02052897773683071,0.14743153750896454
1726225567194414000,0.6514140625,0.10227816551923752,0.02743961289525032,0.05639536678791046
1726225567204451800,0.661451904296875,0.061283864080905914,0.08490210771560669,-0.05128555744886398
1726225567214487800,0.67148779296875,0.16230209171772003,0.044614873826503754,0.009125054813921452
1726225567224523800,0.681523681640625,0.21182836592197418,0.055563125759363174,0.08906276524066925
1726225567234560800,0.691560791015625,0.2596755027770996,0.07774113118648529,-0.12317758798599243
1726225567244597000,0.701596923828125,0.25922197103500366,0.10161211341619492,0.043711792677640915
1726225567254633000,0.711633056640625,0.31219226121902466,0.07763887196779251,0.20808103680610657
1726225567264669000,0.7216689453125,0.3629662096500397,0.044200751930475235,0.0667119175195694
1726225567274706000,0.731705810546875,0.31931832432746887,0.09438242763280869,-0.1307162046432495
1726225567284742000,0.741741943359375,0.3242683708667755,0.1167609691619873,0.1001521646976471
1726225567294777900,0.75177783203125,0.25073474645614624,0.12840457260608673,0.1421922892332077
1726225567304814800,0.76181494140625,0.2613586187362671,0.11968672275543213,-0.10628702491521835
1726225567314850800,0.771850830078125,0.2840551435947418,0.08557348698377609,-0.04658028483390808
1726225567324886800,0.78188671875,0.29998111724853516,0.035228028893470764,-0.006993993651121855
1726225567334922800,0.7919228515625,0.31278347969055176,-0.020234698429703712,-0.13436579704284668
1726225567344959700,0.801959716796875,0.28492122888565063,0.001865277998149395,0.06495635956525803
1726225567354995700,0.81199560546875,0.2829779088497162,-0.009692841209471226,0.17696678638458252
1726225567365032000,0.822031982421875,0.1578652709722519,0.002201901515945792,-0.031030885875225067
1726225567375069000,0.83206884765625,0.0765024945139885,-0.011492072604596615,-0.07973184436559677
1726225567385105000,0.84210498046875,-0.03630021587014198,0.035187017172575,0.0404781848192215
1726225567395140900,0.852140869140625,-0.04928179457783699,-0.007547664921730757,0.06346206367015839
1726225567405176800,0.8621767578125,-0.05421503633260727,-0.03353079408407211,0.026942668482661247
1726225567415213800,0.8722138671875,-0.07719385623931885,-0.10017213970422745,-0.1759321540594101
1726225567425249800,0.882249755859375,-0.11053317040205002,-0.09305058419704437,0.0049377670511603355
1726225567435285800,0.89228564453125,-0.04596749320626259,-0.09425859153270721,0.14447276294231415
1726225567445322800,0.90232275390625,-0.0802580863237381,-0.08126449584960938,-0.020957212895154953
1726225567455358700,0.912358642578125,-0.1510329246520996,-0.12051869183778763,-0.03659156709909439
1726225567465394700,0.922394775390625,-0.2078741043806076,-0.14347966015338898,0.3105725049972534
1726225567475430700,0.9324306640625,-0.24074310064315796,-0.1849091351032257,0.29399168491363525
1726225567485468000,0.942468017578125,-0.2580059766769409,-0.20498377084732056,0.021339910104870796
1726225567495504000,0.95250390625,-0.3106588125228882,-0.25450870394706726,-0.1957777589559555
1726225567505539800,0.962539794921875,-0.3585948944091797,-0.18870839476585388,-0.07779572904109955
1726225567515576800,0.972576904296875,-0.18154875934123993,-0.22896873950958252,0.18608252704143524
1726225567525612800,0.98261279296875,-0.23738539218902588,-0.21088427305221558,-0.03718411922454834
1726225567535648800,0.992648681640625,-0.19327998161315918,-0.13508005440235138,-0.10123766958713531
1726225567545684700,1.002684814453125,-0.1683298945426941,-0.1490187793970108,0.21548248827457428
1726225567555721700,1.0127216796875,-0.22394201159477234,-0.18323959410190582,0.04525083675980568
1726225567565757700,1.0227578125,-0.16691361367702484,-0.18289311230182648,0.015978433191776276
1726225567575793700,1.032793701171875,-0.20293393731117249,-0.13295751810073853,0.17015814781188965
1726225567585831000,1.042830810546875,-0.17150810360908508,-0.1460791826248169,-0.03867868706583977
1726225567595867000,1.052866943359375,-0.15024036169052124,-0.1543256640434265,0.24528831243515015
1726225567605902800,1.06290283203125,-0.0865601897239685,-0.18928177654743195,0.2480873018503189
1726225567615938800,1.072938720703125,-0.07197166234254837,-0.1734868288040161,-0.0721421018242836
1726225567625975800,1.082975830078125,-0.05343925580382347,-0.21571019291877747,-0.010573281906545162
1726225567636011800,1.09301171875,-0.026343457400798798,-0.22510609030723572,0.03671806678175926
1726225567646047700,1.1030478515625,-0.01417494099587202,-0.16551066935062408,0.03514626994729042
1726225567656084700,1.113084716796875,0.06101221963763237,-0.11704619228839874,0.07504414767026901
1726225567666120700,1.12312060546875,0.036015789955854416,-0.11138591170310974,-0.00321843009442091
1726225567676156700,1.13315673828125,0.06661923974752426,-0.14266687631607056,0.01264096051454544
1726225567686194000,1.14319384765625,0.11101067066192627,-0.09551294147968292,0.08488079905509949
1726225567696230000,1.15322998046875,0.12362926453351974,-0.018460765480995178,0.13558925688266754
1726225567706265900,1.163265869140625,0.17119412124156952,-0.006158826407045126,-0.060928862541913986
1726225567716301800,1.1733017578125,0.1686052531003952,-0.01667405106127262,-0.16693173348903656
1726225567726338800,1.1833388671875,0.20400692522525787,-0.007700263988226652,-0.13061180710792542
1726225567736374800,1.193374755859375,0.2578459084033966,0.04646443575620651,0.06860755383968353
1726225567746410800,1.20341064453125,0.278354674577713,0.11021092534065247,-0.0236456748098135
1726225567756447700,1.21344775390625,0.32224249839782715,0.09873349964618683,-0.3372853398323059
1726225567766483700,1.223483642578125,0.31121355295181274,0.15525349974632263,0.007152718026190996
1726225567776519700,1.233519775390625,0.34899768233299255,0.19887714087963104,-0.012010323815047741
1726225567786555600,1.2435556640625,0.3740428388118744,0.2428952008485794,-0.03472176194190979
1726225567796593000,1.253593017578125,0.37433284521102905,0.2596968114376068,-0.05997838079929352
1726225567806628900,1.26362890625,0.3973574936389923,0.2639826536178589,-0.08366081118583679
1726225567816664800,1.273664794921875,0.3731674551963806,0.27594688534736633,0.023455791175365448
1726225567826701800,1.283701904296875,0.37339967489242554,0.26725512742996216,-0.01955186389386654
1726225567836737800,1.29373779296875,0.36545148491859436,0.2654910683631897,-0.242737278342247
1726225567846773800,1.303773681640625,0.30842360854148865,0.27551573514938354,-0.000624777574557811
1726225567856809700,1.313809814453125,0.2925455868244171,0.2571218013763428,-0.06453745067119598
1726225567866846700,1.3238466796875,0.2420552372932434,0.21379537880420685,-0.1990949958562851
1726225567876882700,1.333882568359375,0.1548503041267395,0.18901386857032776,-0.044616736471652985
1726225567886918700,1.343918701171875,0.1664169430732727,0.18558824062347412,-0.08694182336330414
1726225567896955600,1.35395556640625,0.0627312883734703,0.20605675876140594,-0.02346164919435978
1726225567906991900,1.363991943359375,0.049916692078113556,0.21001048386096954,-0.09285643696784973
1726225567917027800,1.37402783203125,0.07087177783250809,0.14992877840995789,-0.10484785586595535
1726225567927064800,1.38406494140625,-0.033789388835430145,0.15667270123958588,0.08176570385694504
1726225567937100800,1.394100830078125,-0.0036663739010691643,0.1053280234336853,0.09322182089090347
1726225567947136800,1.40413671875,-0.08714555203914642,0.09730684757232666,-0.12748099863529205
1726225567957173000,1.414173095703125,-0.1185346394777298,0.04682103544473648,-0.23760323226451874
1726225567967209700,1.424209716796875,-0.1371234953403473,-0.011212707497179508,0.050633881241083145
1726225567977245700,1.43424560546875,-0.19193987548351288,0.01107368990778923,-0.10864285379648209
1726225567987282000,1.444281982421875,-0.16304057836532593,0.014386395923793316,-0.007633951026946306
1726225567997318700,1.454318603515625,-0.18696722388267517,0.01028725877404213,0.07999017089605331
1726225568007354600,1.464354736328125,-0.18576399981975555,0.017140904441475868,-0.011507784947752953
1726225568017390800,1.474390869140625,-0.17876362800598145,0.001335575245320797,0.09213045984506607
1726225568027427000,1.484427001953125,-0.21605879068374634,0.009666209109127522,-0.005920739844441414
1726225568037463800,1.4944638671875,-0.2254275232553482,0.03080691397190094,0.11156647652387619
1726225568047499800,1.504499755859375,-0.24564065039157867,0.03320402652025223,0.12422234565019608
1726225568057536000,1.514535888671875,-0.25992879271507263,0.05315030366182327,-0.19626644253730774
1726225568067572700,1.52457275390625,-0.247501939535141,0.030416760593652725,0.0011238539591431618
1726225568077608700,1.534608642578125,-0.19924280047416687,-0.061099305748939514,0.09259624779224396
1726225568087645000,1.54464501953125,-0.21042966842651367,-0.04560503363609314,-0.28398245573043823
1726225568097681700,1.554681640625,-0.1542620062828064,-0.0035119105596095324,-0.07878216356039047
1726225568107717600,1.564717529296875,-0.14945979416370392,0.03236033767461777,0.044493697583675385
1726225568117753900,1.57475390625,-0.16137158870697021,0.03808559849858284,0.029160548001527786
1726225568127789800,1.584789794921875,-0.168243870139122,0.02431252971291542,-0.07713153958320618
1726225568137826800,1.594826904296875,-0.20143191516399384,0.038356974720954895,-0.008082959800958633
1726225568147862800,1.60486279296875,-0.20835161209106445,0.02015826478600502,0.12173575907945633
1726225568157899000,1.61489892578125,-0.20516833662986755,-0.048179514706134796,-0.04131707921624184
1726225568167935700,1.624935791015625,-0.25010305643081665,-0.06804802268743515,-0.21916431188583374
1726225568177971700,1.6349716796875,-0.21716932952404022,-0.058524563908576965,-0.1423845738172531
1726225568188008000,1.645008056640625,-0.20867571234703064,-0.052493300288915634,0.17940197885036469
1726225568198044000,1.6550439453125,-0.2078607827425003,-0.05775890499353409,-0.327976793050766
1726225568208080400,1.665080322265625,-0.1772962212562561,-0.07012848556041718,-0.2223779410123825
1726225568218116400,1.675116455078125,-0.17915430665016174,-0.027757328003644943,0.14870744943618774
1726225568228152300,1.68515234375,-0.15085369348526,-0.0712752416729927,0.10995180159807205
1726225568238189600,1.695189453125,-0.18611501157283783,-0.043475572019815445,-0.02942420169711113
1726225568248225500,1.7052255859375,-0.1861421763896942,-0.03377420827746391,-0.014537663199007511
1726225568258261500,1.715261474609375,-0.16470745205879211,-0.06590045243501663,0.16098728775978088
1726225568268297500,1.72529736328125,-0.18743939697742462,-0.06626717001199722,-0.040463801473379135
1726225568278334500,1.73533447265625,-0.15080948173999786,-0.13244380056858063,-0.17727385461330414
1726225568288370400,1.745370361328125,-0.144800066947937,-0.0956554189324379,0.179639533162117
1726225568298406400,1.755406494140625,-0.11500967293977737,-0.13319134712219238,0.05919594690203667
1726225568308443400,1.765443359375,-0.12240820378065109,-0.1274072229862213,-0.07538183778524399
1726225568318479400,1.775479248046875,-0.1496499478816986,-0.0853164941072464,0.17102207243442535
1726225568328515300,1.785515380859375,-0.0793110653758049,-0.10068319737911224,0.2271793633699417
1726225568338552300,1.79555224609375,-0.11311110854148865,-0.11668533831834793,0.1470557600259781
1726225568348588300,1.80558837890625,-0.10846681892871857,-0.1069546788930893,-0.010065416805446148
1726225568358624500,1.81562451171875,-0.07618771493434906,-0.07527850568294525,0.2185690850019455
1726225568368660500,1.825660400390625,-0.06545756757259369,-0.1513863205909729,0.4165431559085846
1726225568378697500,1.835697509765625,-0.08481555432081223,-0.12854412198066711,-0.12695075571537018
1726225568388733400,1.8457333984375,-0.0864371508359909,-0.15908552706241608,-0.2785235047340393
1726225568398769400,1.855769287109375,-0.05332260951399803,-0.11815966665744781,0.06935697048902512
1726225568408806400,1.865806396484375,0.005374791566282511,-0.08818711340427399,0.11190176755189896
1726225568418842400,1.87584228515625,-0.0031188279390335083,-0.10112182050943375,0.032523322850465775
1726225568428878300,1.88587841796875,0.01624847762286663,-0.08405762165784836,0.08529918640851974
1726225568438914300,1.895914306640625,0.09753108024597168,-0.0830080658197403,0.2604723274707794
1726225568448951300,1.905951416015625,0.08486402779817581,-0.007544469088315964,0.001776062068529427
1726225568458987300,1.9159873046875,0.12580320239067078,-0.01636406034231186,0.17402292788028717
1726225568469023200,1.926023193359375,0.14756815135478973,-0.013748303055763245,0.10469232499599457
1726225568479060500,1.936060546875,0.2263159602880478,0.03214168921113014,-0.054131943732500076
1726225568489096400,1.946096435546875,0.27139660716056824,0.03442029282450676,0.10324409604072571
1726225568499132400,1.95613232421875,0.2671784460544586,0.028657477349042892,0.1362915337085724
1726225568509169400,1.96616943359375,0.2772020399570465,0.03969414904713631,0.31021058559417725
1726225568519205400,1.976205322265625,0.3003435730934143,0.11628346890211105,0.004698615055531263
1726225568529241300,1.986241455078125,0.380240797996521,0.1821940392255783,-0.061409831047058105
1726225568539277300,1.99627734375,0.44994640350341797,0.2301005721092224,0.15104171633720398
1726225568549314300,2.006314208984375,0.541244626045227,0.20490175485610962,-0.04242309182882309
1726225568559350300,2.016350341796875,0.513382077217102,0.2339874655008316,0.1363879293203354
1726225568569386200,2.02638623046875,0.5565109252929688,0.22188100218772888,0.43231654167175293
1726225568579423500,2.036423583984375,0.518908679485321,0.2593016028404236,-0.10101237148046494
1726225568589459500,2.04645947265625,0.47467276453971863,0.22511407732963562,0.015210910700261593
1726225568599495400,2.056495361328125,0.5059942007064819,0.198787659406662,0.08565471321344376
1726225568609532400,2.066532470703125,0.4626781642436981,0.22104530036449432,-0.1171702966094017
1726225568619568400,2.076568359375,0.5010263323783875,0.20366044342517853,0.017592575401067734
1726225568629604400,2.086604248046875,0.45780378580093384,0.18009893596172333,0.03832048922777176
1726225568639640300,2.096640380859375,0.40261775255203247,0.1766117811203003,-0.08394470065832138
1726225568649677300,2.10667724609375,0.3810056746006012,0.11681796610355377,0.07556426525115967
1726225568659713300,2.11671337890625,0.2868006229400635,0.09792017191648483,0.33496466279029846
1726225568669749200,2.126749267578125,0.23348625004291534,0.062010373920202255,-0.06722377985715866
1726225568679786500,2.136786376953125,0.14938442409038544,0.05206799507141113,-0.3905232846736908
1726225568689822500,2.146822509765625,0.12950445711612701,-0.0011078750248998404,0.05837276205420494
1726225568699858400,2.1568583984375,0.08117900788784027,-0.05699297785758972,-0.033666882663965225
1726225568709894400,2.166894287109375,-0.001163002452813089,-0.055632900446653366,-0.1875118464231491
1726225568719931400,2.176931396484375,0.024275245144963264,-0.0752502828836441,0.1176035925745964
1726225568729967400,2.18696728515625,-0.06609220057725906,-0.10549606382846832,0.19220566749572754
1726225568740003300,2.19700341796875,-0.15409982204437256,-0.1292908787727356,-0.0035960664972662926
1726225568750040300,2.207040283203125,-0.20012350380420685,-0.13477618992328644,0.016397882252931595
1726225568760076300,2.217076171875,-0.2768361270427704,-0.15566043555736542,0.2406054139137268
1726225568770112300,2.2271123046875,-0.3116721510887146,-0.22718575596809387,-0.01079645473510027
1726225568780149500,2.2371494140625,-0.38064640760421753,-0.1907244175672531,-0.14900439977645874
1726225568790185500,2.247185546875,-0.32788893580436707,-0.26682236790657043,0.12325295805931091
1726225568800221400,2.257221435546875,-0.38756290078163147,-0.24154657125473022,0.031803734600543976
1726225568810257400,2.26725732421875,-0.3227359652519226,-0.2361302375793457,-0.040527451783418655
1726225568820294400,2.27729443359375,-0.2978188991546631,-0.18736377358436584,0.10511017590761185
1726225568830330400,2.287330322265625,-0.2676095962524414,-0.17488552629947662,0.03925419598817825
1726225568840366300,2.297366455078125,-0.23177570104599,-0.19952748715877533,0.21457381546497345
1726225568850403300,2.3074033203125,-0.21238283812999725,-0.18235622346401215,0.0771978497505188
1726225568860439300,2.317439208984375,-0.16351249814033508,-0.14809012413024902,-0.20556513965129852
1726225568870475300,2.327475341796875,-0.1377304345369339,-0.10237058252096176,-0.08513886481523514
1726225568880512300,2.33751220703125,-0.09279332309961319,-0.08235958963632584,0.13528378307819366
1726225568890548200,2.34754833984375,-0.020794760435819626,-0.08208101987838745,-0.08438491821289062
1726225568900584400,2.35758447265625,0.02810327336192131,-0.07667400687932968,0.06718303263187408
1726225568910620400,2.367620361328125,0.0574776753783226,-0.018040519207715988,0.11001944541931152
1726225568920657400,2.377657470703125,0.09263645857572556,0.014537397772073746,0.04995078220963478
1726225568930693400,2.387693359375,0.08483659476041794,0.043473176658153534,0.12694570422172546
1726225568940729300,2.397729248046875,0.12954281270503998,0.05373992770910263,-0.09016664326190948
1726225568950766300,2.407766357421875,0.16805611550807953,0.03827734664082527,-0.030251113697886467
1726225568960802300,2.41780224609375,0.1624690741300583,0.01859898492693901,0.39823418855667114
1726225568970838300,2.42783837890625,0.1685384213924408,0.0690658837556839,0.22830747067928314
1726225568980875300,2.437875244140625,0.16721855103969574,0.05175294354557991,-0.3294372856616974
1726225568990911200,2.4479111328125,0.1587289273738861,0.04944664612412453,-0.11950322985649109
1726225569000947200,2.457947265625,0.1541064828634262,0.013166667893528938,0.028675319626927376
1726225569010983200,2.467983154296875,0.10270693898200989,0.015380553901195526,-0.10035909712314606
1726225569021020400,2.4780205078125,0.14554227888584137,0.04091707244515419,-0.1282772719860077
1726225569031056400,2.488056396484375,0.12318824231624603,-0.00029587719473056495,0.06736146658658981
1726225569041092400,2.49809228515625,0.062497999519109726,-0.01582503505051136,0.11710984259843826
1726225569051129300,2.50812939453125,0.031911060214042664,-0.04818244278430939,0.10669156163930893
1726225569061165300,2.518165283203125,0.0035478631034493446,-0.06376966089010239,0.055397745221853256
1726225569071201300,2.528201171875,-0.025471005588769913,-0.06341678649187088,-0.059371981769800186
1726225569081238300,2.53823828125,-0.06040981411933899,-0.11524935811758041,0.06832046806812286
1726225569091274200,2.548274169921875,-0.08824890106916428,-0.1273811310529709,-0.03477715328335762
1726225569101310200,2.558310302734375,-0.07565347850322723,-0.10922609269618988,-0.315160870552063
1726225569111346200,2.56834619140625,-0.09360291808843613,-0.11629997938871384,0.006967095658183098
1726225569121383400,2.578383544921875,-0.1119459718465805,-0.09934283047914505,-0.024105869233608246
1726225569131419400,2.58841943359375,-0.09807276725769043,-0.11204584687948227,-0.14560140669345856
1726225569141455400,2.598455322265625,-0.09476751834154129,-0.1811801791191101,0.3497715890407562
1726225569151492400,2.608492431640625,-0.16271062195301056,-0.18082784116268158,0.09276535362005234
1726225569161528300,2.6185283203125,-0.18257008492946625,-0.1247672289609909,-0.014840997755527496
1726225569171564300,2.628564208984375,-0.2050950974225998,-0.1417347639799118,-0.040520794689655304
1726225569181601300,2.638601318359375,-0.23692306876182556,-0.060511279851198196,-0.2359781712293625
1726225569191637200,2.64863720703125,-0.19015689194202423,-0.10519193112850189,-0.23908661305904388
1726225569201673200,2.658673095703125,-0.19452448189258575,-0.118398018181324,-0.21837520599365234
1726225569211713500,2.668713623046875,-0.09794813394546509,-0.1193719357252121,-0.16356922686100006
1726225569221750800,2.678750732421875,-0.07542737573385239,-0.12446363270282745,0.009093630127608776
1726225569231786800,2.688786865234375,0.008564193733036518,-0.11635883152484894,0.10725481808185577
1726225569241822700,2.69882275390625,0.03466583415865898,-0.04519703984260559,-0.007790012285113335
1726225569251859700,2.708859619140625,0.007457649800926447,-0.007195062469691038,-0.04115382954478264
1726225569261895700,2.718895751953125,-0.02383768931031227,0.05558496341109276,-0.1356787383556366
1726225569271931600,2.728931640625,0.01540398970246315,0.10362546145915985,-0.19107887148857117
1726225569281968600,2.73896875,0.011942945420742035,0.08275773376226425,-0.0224967859685421
1726225569292004600,2.749004638671875,0.03487835451960564,0.08056674897670746,-0.2768467664718628
1726225569302040600,2.75904052734375,0.08403631299734116,0.04855555295944214,-0.03722566366195679
1726225569312076500,2.76907666015625,0.08980578929185867,0.06220931187272072,0.0368935689330101
1726225569322113800,2.77911376953125,0.14697399735450745,0.023937290534377098,-0.055256329476833344
1726225569332149800,2.789149658203125,0.131987065076828,0.05931898206472397,-0.008686965331435204
1726225569342185700,2.799185791015625,0.21008585393428802,0.08788378536701202,-0.036013659089803696
1726225569352222700,2.80922265625,0.20990023016929626,0.10198788344860077,0.294083833694458
1726225569362258700,2.8192587890625,0.23196692764759064,0.07985621690750122,0.08972083032131195
1726225569372294700,2.829294677734375,0.2821861505508423,0.1203107014298439,-0.2041214406490326
1726225569382331600,2.83933154296875,0.3321593105792999,0.09325511008501053,0.018250109627842903
1726225569392367600,2.84936767578125,0.3442566990852356,0.10837893933057785,0.03110971674323082
1726225569402403600,2.859403564453125,0.3777068257331848,0.1606173813343048,0.08226850628852844
1726225569412439600,2.869439453125,0.42291316390037537,0.22675032913684845,-0.05808540806174278
1726225569422476500,2.8794765625,0.4119710326194763,0.30346933007240295,-0.04659439995884895
1726225569432512500,2.889512451171875,0.4547981321811676,0.2863529324531555,0.24076147377490997
1726225569442548700,2.899548828125,0.43696269392967224,0.27881112694740295,0.12580426037311554
1726225569452585700,2.909585693359375,0.42726370692253113,0.33439022302627563,-0.11510954797267914
1726225569462621700,2.91962158203125,0.47960174083709717,0.34579068422317505,0.002266882685944438
1726225569472657700,2.92965771484375,0.42889490723609924,0.3248217701911926,0.32412001490592957
1726225569482694700,2.939694580078125,0.4487399756908417,0.2870213985443115,-0.06247669458389282
1726225569492730600,2.949730712890625,0.43324944376945496,0.3203023672103882,-0.023137010633945465
1726225569502766600,2.9597666015625,0.43242305517196655,0.2704533338546753,0.22219204902648926
1726225569512802600,2.969802490234375,0.3588489592075348,0.33771812915802,-0.14498062431812286
1726225569522839600,2.979839599609375,0.3217756450176239,0.32957524061203003,0.1406865417957306
1726225569532875500,2.98987548828125,0.2985544800758362,0.3112369775772095,0.21052661538124084
1726225569542911500,2.999911376953125,0.26169872283935547,0.25335344672203064,0.2519656717777252
1726225569552948700,3.00994873046875,0.21375489234924316,0.286805123090744,0.08179473131895065
1726225569562984700,3.019984619140625,0.1941806674003601,0.2790404260158539,-0.2731543183326721
1726225569573020700,3.030020751953125,0.15501435101032257,0.27342167496681213,0.10740421712398529
1726225569583057700,3.0400576171875,0.1937180757522583,0.2892778813838959,-0.026580743491649628
1726225569593093600,3.05009375,0.24642150104045868,0.257816880941391,-0.07223877310752869
1726225569603129600,3.060129638671875,0.16790564358234406,0.24353036284446716,0.13539457321166992
1726225569613165600,3.07016552734375,0.25202879309654236,0.2595948278903961,-0.011141334660351276
1726225569623202600,3.08020263671875,0.23958489298820496,0.28403064608573914,0.28914153575897217
1726225569633238500,3.090238525390625,0.23286333680152893,0.2003655880689621,0.2874847650527954
1726225569643274500,3.1002744140625,0.2346455305814743,0.26608574390411377,0.12512809038162231
1726225569653311700,3.110311767578125,0.22292335331439972,0.2563369870185852,-0.13347363471984863
1726225569663347700,3.12034765625,0.22354574501514435,0.2309384047985077,0.04935609921813011
1726225569673383700,3.1303837890625,0.26010534167289734,0.23501278460025787,-0.08941696584224701
1726225569683420700,3.140420654296875,0.23603223264217377,0.24179771542549133,-0.05375990271568298
1726225569693456600,3.15045654296875,0.23072509467601776,0.25160107016563416,0.1281885951757431
1726225569703492600,3.16049267578125,0.2070157676935196,0.2782049775123596,0.013485714793205261
1726225569713529600,3.170529541015625,0.17537474632263184,0.26592516899108887,0.14370417594909668
1726225569723565600,3.180565673828125,0.20117439329624176,0.22804196178913116,0.3168700933456421
1726225569733601500,3.1906015625,0.17538699507713318,0.13617141544818878,0.11111773550510406
1726225569743637500,3.200637451171875,0.11570236086845398,0.1576106697320938,-0.09168677777051926
1726225569753674800,3.2106748046875,0.11560888588428497,0.11518171429634094,0.09918490797281265
1726225569763710700,3.220710693359375,0.01750762015581131,0.08718656748533249,-0.12958116829395294
1726225569773746700,3.23074658203125,-0.07084967195987701,0.12757952511310577,-0.30886730551719666
1726225569783783700,3.24078369140625,-0.08470503240823746,0.06869890540838242,-0.06115283444523811
1726225569793819600,3.250819580078125,-0.16574528813362122,0.11008389294147491,-0.10050423443317413
1726225569803855600,3.260855712890625,-0.12268304079771042,0.08061095327138901,-0.014987205155193806
1726225569813892600,3.270892578125,-0.18075965344905853,0.055256329476833344,0.1330946683883667
1726225569823928600,3.280928466796875,-0.17002952098846436,-0.03910692408680916,0.005273325368762016
1726225569833964500,3.290964599609375,-0.20343966782093048,-0.027116306126117706,-0.12306413799524307
1726225569844000500,3.30100048828125,-0.20551933348178864,-0.06272543221712112,0.1178203746676445
1726225569854037500,3.31103759765625,-0.251236230134964,-0.08753757178783417,-0.09686768800020218
1726225569864073700,3.32107373046875,-0.292519211769104,-0.1278434544801712,-0.2900616526603699
1726225569874109700,3.331109619140625,-0.2928462624549866,-0.12563249468803406,0.09928876906633377
1726225569884146700,3.341146728515625,-0.27169570326805115,-0.0548081211745739,-0.08289754390716553
1726225569894182700,3.3511826171875,-0.2162257730960846,-0.07178337872028351,-0.20407935976982117
1726225569904218600,3.361218505859375,-0.22345572710037231,-0.047376569360494614,0.10374663770198822
1726225569914255600,3.371255615234375,-0.16112791001796722,-0.04363882541656494,0.22700119018554688
1726225569924291600,3.38129150390625,-0.2039097249507904,-0.05536339059472084,0.06475982069969177
1726225569934327600,3.39132763671875,-0.2325671911239624,-0.03128654882311821,-0.18034100532531738
1726225569944364500,3.401364501953125,-0.1687149852514267,-0.041920553892850876,-0.26805436611175537
1726225569954400500,3.411400390625,-0.21805110573768616,-0.03338645398616791,-0.15641969442367554
1726225569964436500,3.4214365234375,-0.17272570729255676,-0.021461348980665207,-0.41940444707870483
1726225569974472400,3.431472412109375,-0.17791220545768738,-0.09014054387807846,-0.1673639565706253
1726225569984509700,3.441509765625,-0.16117770969867706,-0.10105684399604797,-0.010133327916264534
1726225569994545700,3.451545654296875,-0.14185380935668945,-0.04892972484230995,0.10578209161758423
1726225570004581600,3.46158154296875,-0.1775875687599182,-0.1415211707353592,0.3199694752693176
1726225570014618600,3.47161865234375,-0.2071894109249115,-0.07648811489343643,0.2402067482471466
1726225570024654600,3.481654541015625,-0.2594131827354431,-0.02732003852725029,-0.19715701043605804
1726225570034690600,3.491690673828125,-0.22304107248783112,-0.09368787705898285,-0.030542995780706406
1726225570044727600,3.5017275390625,-0.2787887454032898,-0.13814614713191986,-0.1705954372882843
1726225570054763500,3.511763427734375,-0.2806497812271118,-0.0800815224647522,-0.4677498936653137
1726225570064799500,3.521799560546875,-0.2294023036956787,-0.18944396078586578,-0.05832189694046974
1726225570074835500,3.53183544921875,-0.24123898148536682,-0.14414651691913605,0.15265798568725586
1726225570084872700,3.541872802734375,-0.18118230998516083,-0.20252060890197754,-0.01593768782913685
1726225570094908700,3.55190869140625,-0.31117039918899536,-0.1821327805519104,0.06930556893348694
1726225570104944600,3.561944580078125,-0.3238252103328705,-0.21296073496341705,0.27660495042800903
1726225570114981600,3.571981689453125,-0.34056851267814636,-0.11179737001657486,0.2286779135465622
1726225570125017600,3.582017578125,-0.3498069941997528,-0.21207337081432343,-0.22361445426940918
1726225570135053600,3.592053466796875,-0.34374165534973145,-0.1929156631231308,-0.07301748543977737
1726225570145090600,3.602090576171875,-0.2952902317047119,-0.15462100505828857,-0.07748892903327942
1726225570155126500,3.61212646484375,-0.25138190388679504,-0.1362403929233551,-0.24111515283584595
1726225570165162500,3.62216259765625,-0.18211521208286285,-0.15252536535263062,0.12154054641723633
1726225570175199700,3.63219970703125,-0.10154766589403152,-0.10539699345827103,0.2133769989013672
1726225570185235700,3.642235595703125,-0.02148212306201458,-0.12338398396968842,0.05375111103057861
1726225570195271700,3.652271728515625,-0.07711289077997208,-0.059125903993844986,0.420176237821579
1726225570205307400,3.662307373046875,-0.07757575064897537,-0.06653135269880295,0.26092028617858887
1726225570215344400,3.672344482421875,-0.1131792888045311,0.03159787505865097,0.0695793405175209
1726225570225380400,3.68238037109375,-0.021339111030101776,-0.020176908001303673,0.16916239261627197
1726225570235416300,3.692416259765625,-0.005622199270874262,-0.012822055257856846,0.12954680621623993
1726225570245453300,3.702453369140625,0.11393189430236816,-0.015304387547075748,0.01375336293131113
1726225570255489500,3.712489501953125,0.128065824508667,-0.022278673946857452,0.22170017659664154
1726225570265525500,3.722525390625,0.11272361874580383,0.022119417786598206,0.17355553805828094
1726225570275562500,3.7325625,0.21000170707702637,0.040708813816308975,0.016462596133351326
1726225570285598500,3.742598388671875,0.14814232289791107,0.0308734942227602,0.2832578122615814
1726225570295634400,3.752634521484375,0.1335276961326599,-0.009433715604245663,0.48805248737335205
1726225570305670400,3.76267041015625,0.12821069359779358,0.055982574820518494,0.02237774431705475
1726225570315707400,3.772707275390625,0.03431509807705879,0.08592289686203003,0.0433056615293026
1726225570325743400,3.782743408203125,0.08304987847805023,0.051234424114227295,-0.00737216230481863
1726225570335779300,3.792779296875,0.007969776168465614,0.006174805108457804,-0.19833385944366455
1726225570345816300,3.80281640625,0.04147979989647865,-0.06581203639507294,-0.056831326335668564
1726225570355852300,3.812852294921875,-0.0006085322820581496,-0.023506391793489456,0.013261210173368454
1726225570365888300,3.82288818359375,-0.005440571811050177,-0.05943882465362549,0.008807339705526829
1726225570375925500,3.832925537109375,-0.025374598801136017,-0.04165077209472656,0.3252614438533783
1726225570385961500,3.84296142578125,-0.09681842476129532,-0.05106770992279053,0.1527719646692276
1726225570395997400,3.85299755859375,-0.1452176421880722,-0.07764286547899246,-0.2719968855381012
1726225570406034400,3.863034423828125,-0.14448128640651703,-0.11662355065345764,0.02948145940899849
1726225570416070400,3.8730703125,-0.22298434376716614,-0.13375753164291382,0.025195900350809097
1726225570426106400,3.8831064453125,-0.18719172477722168,-0.1347769945859909,-0.13032712042331696
1726225570436142300,3.893142333984375,-0.19732186198234558,-0.14843633770942688,-0.031932100653648376
1726225570446179300,3.903179443359375,-0.2294212132692337,-0.14005990326404572,0.010537595488131046
1726225570456215300,3.91321533203125,-0.2154712975025177,-0.13144856691360474,-0.04716964438557625
1726225570466251300,3.923251220703125,-0.25482216477394104,-0.09893377125263214,0.2256118208169937
1726225570476288500,3.93328857421875,-0.28327512741088867,-0.21487022936344147,0.24742470681667328
1726225570486324500,3.943324462890625,-0.33669573068618774,-0.16211514174938202,-0.3056240975856781
1726225570496360400,3.9533603515625,-0.2943386733531952,-0.17010009288787842,-0.026041720062494278
1726225570506397400,3.9633974609375,-0.3002769947052002,-0.1673668920993805,-0.004237089306116104
1726225570516433400,3.973433349609375,-0.2427431344985962,-0.20694679021835327,-0.48436668515205383
1726225570526469400,3.983469482421875,-0.18081851303577423,-0.2529395818710327,-0.27373355627059937
1726225570536505300,3.99350537109375,-0.035889025777578354,-0.23909194767475128,0.1421358287334442
1726225570546542300,4.003542236328125,-0.06058478355407715,-0.21053273975849152,0.11136141419410706
1726225570556578300,4.013578369140625,-0.004373176954686642,-0.2362128049135208,-0.11837484687566757
1726225570566614300,4.0236142578125,-0.05513116344809532,-0.10018172860145569,0.07082783430814743
1726225570576651500,4.033651611328125,-0.02261423133313656,-0.08026314526796341,-0.002409361768513918
1726225570586687500,4.0436875,0.029638852924108505,-0.047086287289857864,-0.30202963948249817
1726225570596723500,4.053723388671875,0.06457686424255371,-0.05121232196688652,-0.2323983609676361
1726225570606760400,4.063760498046875,0.15438024699687958,-0.055027298629283905,-0.16073082387447357
1726225570616796400,4.07379638671875,0.20021751523017883,-0.01278423797339201,-0.0510898157954216
1726225570626832400,4.083832275390625,0.22018936276435852,0.03756095841526985,0.05567498132586479
1726225570636869400,4.093869384765625,0.25632205605506897,0.020368654280900955,0.010459565557539463
1726225570646905300,4.1039052734375,0.2019733339548111,0.07808867841959,0.052628323435783386
1726225570656941300,4.11394140625,0.24142567813396454,0.0943954810500145,0.3834608495235443
1726225570666977300,4.123977294921875,0.27402809262275696,0.16385018825531006,0.06795109063386917
1726225570677014300,4.13401416015625,0.2371518313884735,0.1856982260942459,-0.26659759879112244
1726225570687050500,4.144050537109375,0.32658398151397705,0.08972802013158798,-0.046674828976392746
1726225570697086500,4.15408642578125,0.3150634169578552,0.14810983836650848,-0.10350854694843292
1726225570707123500,4.16412353515625,0.3896702527999878,0.08690853416919708,-0.15439783036708832
1726225570717159400,4.174159423828125,0.3508288562297821,0.11673620343208313,-0.06741419434547424
1726225570727195400,4.1841953125,0.37991297245025635,0.17056161165237427,0.10052287578582764
1726225570737232400,4.194232421875,0.3865154981613159,0.224001944065094,0.17320427298545837
1726225570747268400,4.204268310546875,0.3442798852920532,0.23671481013298035,0.05324457958340645
1726225570757304300,4.21430419921875,0.3897179365158081,0.22466959059238434,-0.10860291123390198
1726225570767340500,4.224340576171875,0.37280580401420593,0.23989196121692657,-0.02412530966103077
1726225570777377300,4.234377197265625,0.41798391938209534,0.2169506847858429,0.03677133098244667
1726225570787413200,4.244413330078125,0.3882625102996826,0.14777667820453644,0.12272192537784576
1726225570797449500,4.254449462890625,0.3560899496078491,0.20803043246269226,-0.03501977026462555
1726225570807486500,4.264486572265625,0.4056979715824127,0.21880877017974854,0.1272333264350891
1726225570817522400,4.2745224609375,0.33318620920181274,0.21556797623634338,0.08444750308990479
1726225570827558400,4.284558349609375,0.34661945700645447,0.2126254439353943,-0.04831453412771225
1726225570837595400,4.294595458984375,0.32422253489494324,0.22158458828926086,0.3588087558746338
1726225570847631400,4.30463134765625,0.29718828201293945,0.21060091257095337,-0.02641030214726925
1726225570857667300,4.314667236328125,0.24114950001239777,0.23229795694351196,-0.12579068541526794
1726225570867704300,4.324704345703125,0.2549888789653778,0.20926374197006226,0.060686782002449036
1726225570877740300,4.334740234375,0.26399195194244385,0.182721346616745,-0.047018639743328094
1726225570887776300,4.3447763671875,0.24130237102508545,0.17990584671497345,-0.15177541971206665
1726225570897812500,4.3548125,0.29725804924964905,0.17767545580863953,0.08633728325366974
1726225570907849500,4.364849365234375,0.26752012968063354,0.1959708333015442,-0.05077875778079033
1726225570917885400,4.374885498046875,0.2889133095741272,0.16365177929401398,0.019687684252858162
1726225570927921400,4.38492138671875,0.2633781135082245,0.18431498110294342,0.48021161556243896
1726225570937958400,4.39495849609375,0.23580266535282135,0.20396111905574799,0.15341299772262573
1726225570947994400,4.404994384765625,0.15749721229076385,0.14448954164981842,-0.21865564584732056
1726225570958030300,4.4150302734375,0.14306075870990753,0.14481870830059052,-0.013346964493393898
1726225570968067300,4.4250673828125,0.1335652470588684,0.1304866373538971,0.05780923739075661
1726225570978103300,4.435103271484375,0.07514774799346924,0.11621049791574478,-0.15342284739017487
1726225570988139300,4.44513916015625,0.12846475839614868,0.1399616301059723,-0.018756909295916557
1726225570998176500,4.455176513671875,0.11542992293834686,0.15742583572864532,-0.010203368961811066
1726225571008212500,4.46521240234375,0.13929876685142517,0.1033969596028328,0.2674146592617035
1726225571018248400,4.47524853515625,0.1057482659816742,0.09753427654504776,0.3415064513683319
1726225571028284700,4.48528466796875,0.04310539364814758,0.04821386933326721,-0.3737349808216095
1726225571038321400,4.4953212890625,-0.008764463476836681,0.03190626576542854,-0.23293711245059967
1726225571048357400,4.505357421875,-0.06443571299314499,0.032165657728910446,0.04695046320557594
1726225571058393600,4.5153935546875,-0.08009190857410431,0.0015867113834246993,-0.1291891485452652
1726225571068430300,4.525430419921875,-0.05536738410592079,-0.049072470515966415,-0.1634959876537323
1726225571078466300,4.53546630859375,-0.08670586347579956,-0.04222708195447922,0.20123803615570068
1726225571088502500,4.54550244140625,-0.09411504864692688,-0.053833138197660446,0.2027408629655838
1726225571098539300,4.555539306640625,-0.1070159301161766,-0.0656365305185318,-0.003936684690415859
1726225571108575500,4.565575439453125,-0.12371901422739029,-0.07753127813339233,-0.16186825931072235
1726225571118611500,4.575611572265625,-0.1032414361834526,-0.1199149489402771,-0.25177231431007385
1726225571128648400,4.5856484375,-0.11673513799905777,-0.11629544943571091,-0.08696339279413223
1726225571138684400,4.595684326171875,-0.10557383298873901,-0.08796980232000351,-0.5178093314170837
1726225571148720400,4.605720458984375,-0.09947146475315094,-0.11134783178567886,-0.3066997528076172
1726225571158756600,4.615756591796875,-0.09542212635278702,-0.03527010604739189,0.14648930728435516
1726225571168793300,4.62579345703125,-0.07760557532310486,-0.0016935041639953852,0.23639042675495148
1726225571178829300,4.635829345703125,-0.11793196201324463,0.030704116448760033,0.032455943524837494
1726225571188865500,4.645865478515625,-0.06373370438814163,0.07890547066926956,0.22891627252101898
1726225571198902300,4.65590234375,-0.028595957905054092,0.09625835716724396,0.16657380759716034
1726225571208938800,4.665938720703125,0.010785802267491817,0.09271156042814255,-0.06394515931606293
1726225571218974700,4.675974609375,0.004840561654418707,0.10514692217111588,-0.16692960262298584
1726225571229011700,4.68601171875,0.03972664102911949,0.13675226271152496,-0.12261006981134415
1726225571239047700,4.696047607421875,0.1310293823480606,0.15282469987869263,-0.07798108458518982
1726225571249083600,4.706083740234375,0.17162741720676422,0.1701168715953827,-0.1453164517879486
1726225571259120600,4.71612060546875,0.27747130393981934,0.1322893351316452,-0.10817733407020569
1726225571269156600,4.726156494140625,0.28156644105911255,0.21478606760501862,0.23270462453365326
1726225571279192600,4.736192626953125,0.35743510723114014,0.23060818016529083,0.032642364501953125
1726225571289228800,4.746228759765625,0.36380112171173096,0.23629829287528992,-0.13155482709407806
1726225571299265500,4.756265625,0.31669139862060547,0.2538954019546509,-0.03369830921292305
1726225571309301500,4.766301513671875,0.29705485701560974,0.23552356660366058,0.003114300547167659
1726225571319337700,4.776337646484375,0.21172024309635162,0.27312660217285156,0.08179845660924911
1726225571329374700,4.786374755859375,0.24256257712841034,0.2932870090007782,-0.17506662011146545
1726225571339410700,4.79641064453125,0.2515083849430084,0.2375936508178711,-0.0296670813113451
1726225571349446700,4.80644677734375,0.1624182015657425,0.20126627385616302,0.07139348983764648
1726225571359483600,4.816483642578125,0.21108055114746094,0.16139288246631622,0.049426138401031494
1726225571369519600,4.82651953125,0.12828446924686432,0.1381533443927765,0.2496601641178131
1726225571379555600,4.8365556640625,0.05950513854622841,0.1461188644170761,-0.11936847120523453
1726225571389592600,4.846592529296875,-0.000180029688635841,0.0867370218038559,-0.07124435156583786
1726225571399628500,4.856628662109375,-0.13212235271930695,0.11355319619178772,-0.016382701694965363
1726225571409664500,4.86666455078125,-0.15374162793159485,0.0731317326426506,-0.22950269281864166
1726225571419701800,4.87670166015625,-0.2515195906162262,0.0720486268401146,-0.0232336837798357
1726225571429737700,4.88673779296875,-0.2714938223361969,0.024831313639879227,-0.016221314668655396
1726225571439773700,4.896773681640625,-0.2994748651981354,-0.015736619010567665,-0.08694848418235779
1726225571449809700,4.9068095703125,-0.3914841413497925,-0.034260500222444534,0.13179051876068115
1726225571459846700,4.9168466796875,-0.37585166096687317,-0.09825199842453003,0.07212638854980469
1726225571469882600,4.926882568359375,-0.4263385236263275,-0.18170614540576935,-0.13468430936336517
1726225571479918600,4.936918701171875,-0.5233010053634644,-0.20874015986919403,0.13775040209293365
1726225571489955600,4.94695556640625,-0.5336375832557678,-0.23209555447101593,-0.2885609567165375
1726225571499991600,4.956991455078125,-0.5814884305000305,-0.19023358821868896,-0.15909244120121002
1726225571510027500,4.967027587890625,-0.5647712349891663,-0.15979871153831482,0.09881632775068283
1726225571520064800,4.977064697265625,-0.5412076115608215,-0.18871451914310455,-0.20427590608596802
1726225571530100700,4.987100830078125,-0.5340815186500549,-0.22980976104736328,-0.09113284200429916
1726225571540136700,4.99713671875,-0.5268344879150391,-0.17644640803337097,0.24416527152061462
1726225571550173700,5.007173583984375,-0.5077545642852783,-0.15414749085903168,0.3651191294193268
1726225571560209700,5.017209716796875,-0.5115373134613037,-0.19561557471752167,-0.28413504362106323
1726225571570245600,5.02724560546875,-0.45911192893981934,-0.22602567076683044,-0.05337880179286003
1726225571580281900,5.03728173828125,-0.4677429497241974,-0.2275223731994629,-0.2114264965057373
1726225571590318600,5.047318603515625,-0.30872029066085815,-0.1958954632282257,-0.3653540015220642
1726225571600354600,5.0573544921875,-0.3629390597343445,-0.17242422699928284,-0.2693023085594177
1726225571610390800,5.067390869140625,-0.28579047322273254,-0.08070283383131027,-0.2472129911184311
1726225571620427500,5.077427490234375,-0.08499771356582642,0.0866914838552475,0.5390722751617432
1726225571630463500,5.08746337890625,-0.16593436896800995,0.14943476021289825,0.7612185478210449
1726225571640499700,5.097499755859375,0.09049181640148163,-0.03351668268442154,0.06127720698714256
1726225571650536700,5.10753662109375,0.0010463559301570058,0.012181831523776054,0.25626692175865173
1726225571660572700,5.11757275390625,0.012674516066908836,0.009306682273745537,0.3987239599227905
1726225571670608600,5.127608642578125,0.08670986443758011,0.020053336396813393,-0.45430997014045715
1726225571680645600,5.137645751953125,0.19225946068763733,-0.0694965198636055,-0.7368316650390625
1726225571690681600,5.147681640625,0.1959173083305359,0.0681052878499031,-0.2769320011138916
1726225571700717600,5.157717529296875,0.2614150941371918,0.09456831961870193,0.06559818238019943
1726225571710754600,5.167754638671875,0.1838659644126892,0.19499239325523376,0.20529429614543915
1726225571720790500,5.17779052734375,0.21715842187404633,0.22990110516548157,0.16145387291908264
1726225571730826500,5.187826416015625,0.14604029059410095,0.2881220579147339,0.2809397876262665
1726225571740862700,5.19786279296875,0.15767164528369904,0.25283145904541016,-0.05072549358010292
1726225571750899700,5.207899658203125,0.13094016909599304,0.2329869121313095,0.0454508401453495
1726225571760935700,5.217935791015625,0.12526284158229828,0.23450730741024017,-0.14814765751361847
1726225571770971600,5.2279716796875,0.07654164731502533,0.12286333739757538,-0.16531279683113098
1726225571781008600,5.238008544921875,-0.056717608124017715,0.087156742811203,0.10512401908636093
1726225571791044600,5.248044677734375,0.020739367231726646,0.08813465386629105,0.2616467773914337
1726225571801080600,5.25808056640625,-0.1299249827861786,0.024050207808613777,0.042996734380722046
1726225571811117600,5.26811767578125,-0.3497611880302429,-0.006433664355427027,0.4833272397518158
1726225571821153500,5.278153564453125,-0.29071518778800964,-0.002413090318441391,0.04265958070755005
1726225571831189800,5.288189697265625,-0.3798123002052307,0.0942591205239296,0.3709501028060913
1726225571841226800,5.298226806640625,-0.33195823431015015,-0.06482959538698196,0.4607345759868622
1726225571851262700,5.3082626953125,-0.4359576106071472,-0.18737681210041046,-0.1089286133646965
1726225571861298700,5.318298583984375,-0.4525490999221802,-0.2591439485549927,0.2598361074924469
1726225571871335700,5.328335693359375,-0.5595756769180298,-0.33819374442100525,0.16545580327510834
1726225571881371600,5.33837158203125,-0.6973122358322144,-0.2799522876739502,0.19792373478412628
1726225571891407600,5.34840771484375,-0.61365807056427,-0.25193342566490173,0.3827607035636902
1726225571901443800,5.35844384765625,-0.6856441497802734,-0.2628404200077057,0.13087385892868042
1726225571911480600,5.36848046875,-0.6849879026412964,-0.3832182288169861,0.47116538882255554
1726225571921516500,5.3785166015625,-0.7289031744003296,-0.2765865921974182,0.4205927550792694
1726225571931552800,5.388552734375,-0.6328072547912598,-0.27159956097602844,-0.13514690101146698
1726225571941589800,5.39858984375,-0.4763588309288025,-0.3954029977321625,0.3529106676578522
1726225571951625700,5.408625732421875,-0.5044775605201721,-0.38409653306007385,0.056343432515859604
1726225571961661700,5.41866162109375,-0.3491726517677307,-0.3309425115585327,-0.40506333112716675
1726225571971698700,5.42869873046875,-0.37478265166282654,-0.25087082386016846,-0.06691937893629074
1726225571981734700,5.438734619140625,-0.2611871361732483,-0.29055488109588623,-0.15044116973876953
1726225571991770600,5.4487705078125,-0.2597447633743286,-0.263490229845047,-0.2246869057416916
1726225572001807600,5.4588076171875,-0.20165854692459106,-0.26718616485595703,0.10630646347999573
1726225572011843600,5.468843505859375,-0.15474270284175873,-0.32380762696266174,0.4778776168823242
1726225572021879600,5.478879638671875,-0.09472624212503433,-0.3043633699417114,0.16917064785957336
1726225572031915800,5.488915771484375,-0.019239474087953568,-0.1149609386920929,0.027768779546022415
1726225572041952500,5.498952392578125,0.0076272934675216675,-0.12798699736595154,0.23732547461986542
1726225572051988500,5.508988525390625,0.08303896337747574,-0.1112290546298027,-0.2265617698431015
1726225572062024700,5.519024658203125,0.14010463654994965,-0.24490508437156677,-0.3171047270298004
1726225572072061700,5.529061767578125,0.06926295906305313,-0.20783229172229767,-0.21845483779907227
1726225572082097700,5.53909765625,0.14329670369625092,-0.2436821609735489,0.09583678096532822
1726225572092134000,5.5491337890625,0.02570296637713909,-0.16050365567207336,0.09279970824718475
1726225572102170600,5.559170654296875,0.0887136235833168,-0.12562716007232666,0.17921023070812225
1726225572112206600,5.56920654296875,0.1670084297657013,-0.07882291078567505,-0.13408829271793365
1726225572122242800,5.579242919921875,0.12183269113302231,-0.18185235559940338,-0.0075974659994244576
1726225572132279600,5.589279541015625,0.1264335662126541,-0.19014650583267212,-0.011126953177154064
1726225572142315500,5.5993154296875,0.17134591937065125,-0.09490413963794708,-0.4579494595527649
1726225572152351700,5.609351806640625,0.1988569051027298,-0.16096624732017517,-0.5410922765731812
1726225572162387700,5.6193876953125,0.105453722178936,-0.1405046433210373,0.0809561014175415
1726225572172424700,5.6294248046875,0.09420586377382278,-0.07246115058660507,0.06310493499040604
1726225572182460700,5.639460693359375,0.15432752668857574,-0.08779057115316391,0.17976203560829163
1726225572192497000,5.649496826171875,0.27536845207214355,-0.2801038324832916,0.1933731883764267
1726225572202533600,5.65953369140625,0.20753641426563263,-0.04916062206029892,-0.24868358671665192
1726225572212569600,5.669569580078125,0.27681347727775574,-0.07558317482471466,-0.2617860734462738
1726225572222605600,5.67960546875,0.16357001662254333,-0.037349503487348557,0.046239934861660004
1726225572232642300,5.689642333984375,0.12909141182899475,0.021570006385445595,-0.37822240591049194
1726225572242678500,5.699678466796875,0.2837619483470917,-0.059781841933727264,-0.0619930624961853
1726225572252714500,5.709714599609375,0.19407252967357635,-0.0043771713972091675,0.3634147047996521
1726225572262751500,5.71975146484375,0.3052930533885956,0.019268503412604332,0.059597283601760864
1726225572272787500,5.729787353515625,0.30426907539367676,-0.057566091418266296,-0.2693968415260315
1726225572282823700,5.73982373046875,0.2893918752670288,-0.1371554583311081,0.15543939173221588
1726225572292860400,5.7498603515625,0.29048481583595276,-0.020472250878810883,0.12975239753723145
1726225572302896400,5.759896484375,0.25215741991996765,0.12144573777914047,-0.31865280866622925
1726225572312932600,5.7699326171875,0.3148402273654938,0.22880655527114868,-0.8038005828857422
1726225572322968600,5.779968505859375,0.24351784586906433,0.0536712184548378,-0.23427774012088776
1726225572333005300,5.79000537109375,0.22926540672779083,-0.016157664358615875,0.5604164600372314
1726225572343041500,5.80004150390625,0.265170156955719,0.03151558339595795,0.31395047903060913
1726225572353077500,5.810077392578125,0.3683846890926361,-0.010409231297671795,-0.6697852611541748
1726225572363114200,5.8201142578125,0.3117259442806244,-0.03440351411700249,0.028210066258907318
1726225572373150500,5.830150390625,0.34228357672691345,-0.0029459886718541384,0.14672473073005676
1726225572383186700,5.840186767578125,0.33932772278785706,0.130641371011734,-0.3289419412612915
1726225572393223400,5.850223388671875,0.3845047950744629,0.02725159376859665,-0.2935567796230316
1726225572403259400,5.86025927734375,0.27714797854423523,0.08802972733974457,0.32120224833488464
1726225572413295600,5.870295654296875,0.2721329927444458,0.08593754470348358,0.19893839955329895
1726225572423332400,5.880332275390625,0.3250561058521271,0.07944981753826141,-0.06756918877363205
1726225572433368300,5.890368408203125,0.22357237339019775,0.06821740418672562,0.13041339814662933
1726225572443404500,5.900404541015625,0.2639661431312561,0.030991205945611,-0.147547647356987
1726225572453441300,5.910441162109375,0.10868946462869644,0.08200858533382416,-0.22424349188804626
1726225572463477200,5.920477294921875,0.10187096893787384,0.09747116267681122,0.32287418842315674
1726225572473513500,5.930513427734375,0.12341301143169403,-0.017919078469276428,-0.26126009225845337
1726225572483550500,5.940550537109375,-0.023395869880914688,0.11168525367975235,-0.23218317329883575
1726225572493586400,5.95058642578125,0.05061604082584381,-0.08171137422323227,0.21742020547389984
1726225572503622700,5.96062255859375,-0.06778943538665771,-0.08587256073951721,0.07046271115541458
1726225572513658600,5.97065869140625,0.006403836887329817,-0.07785990834236145,0.190585657954216
1726225572523695400,5.9806953125,0.03725655749440193,-0.13868890702724457,-0.1263265162706375
1726225572533731600,5.990731689453125,-0.21029065549373627,0.037218473851680756,-0.2885766625404358
1726225572543767600,6.000767578125,-0.09794280678033829,-0.04760027676820755,0.2213001698255539
1726225572553804300,6.01080419921875,-0.28544852137565613,0.06810501962900162,0.2543624937534332
1726225572563840500,6.020840576171875,-0.2300872653722763,0.0072869411669671535,-0.5924689173698425
1726225572573876500,6.03087646484375,-0.19108180701732635,-0.1238231435418129,-0.3753608465194702
1726225572583913500,6.04091357421875,-0.17976656556129456,-0.0698203593492508,0.7046489715576172
1726225572593949400,6.050949462890625,-0.1397850662469864,-0.04538638889789581,0.5541383028030396
1726225572603985700,6.060985595703125,-0.08618015795946121,-0.09720218181610107,-0.7189334034919739
1726225572614022400,6.0710224609375,-0.16768726706504822,-0.13305072486400604,-0.5059798359870911
1726225572624058400,6.081058349609375,-0.20317548513412476,0.055217448621988297,0.5087960958480835
1726225572634094600,6.091094482421875,-0.22424322366714478,0.1693381667137146,0.5462548136711121
1726225572644131300,6.10113134765625,-0.15236397087574005,-0.0884033665060997,-0.0341758131980896
1726225572654167300,6.111167236328125,-0.17559872567653656,-0.027275295928120613,0.21929720044136047
1726225572664203500,6.12120361328125,0.002880208659917116,-0.12506204843521118,0.9711405634880066
1726225572674239500,6.131239501953125,0.019163841381669044,-0.1151452288031578,-0.07410432398319244
1726225572684276500,6.1412763671875,0.046848200261592865,-0.06311292201280594,-1.2546098232269287
1726225572694312400,6.1513125,-0.03632791340351105,-0.024872060865163803,-0.5861489772796631
1726225572704348700,6.1613486328125,-0.01666925847530365,0.1777963638305664,0.8208352327346802
1726225572714385400,6.171385498046875,-0.012406602501869202,0.10484492033720016,0.6090582609176636
1726225572724421400,6.18142138671875,0.045631133019924164,0.020742297172546387,-0.3719128370285034
1726225572734457600,6.19145751953125,0.11467625200748444,-0.07284757494926453,-0.4322187900543213
1726225572744494300,6.201494384765625,0.12744823098182678,-0.000461259507574141,0.42514437437057495
1726225572754530300,6.2115302734375,0.1394881159067154,0.11032890528440475,0.3197351098060608
1726225572764566500,6.22156640625,0.12133947759866714,0.002829342382028699,-0.5589383840560913
1726225572774603300,6.231603271484375,0.05931445583701134,0.08741586655378342,-0.17656837403774261
1726225572784639200,6.24163916015625,0.12587083876132965,0.21049997210502625,0.46021392941474915
1726225572794675500,6.251675537109375,0.17206710577011108,0.016469521448016167,0.12781281769275665
1726225572804712400,6.26171240234375,0.02064029686152935,0.05391170084476471,-0.1522318720817566
1726225572814748400,6.27174853515625,0.1841096580028534,-0.011913650669157505,0.057671818882226944
1726225572824784600,6.28178466796875,0.03458487614989281,0.06440668553113937,0.3238486349582672
1726225572834820600,6.291820556640625,0.022968431934714317,0.06941156834363937,-0.07477490603923798
1726225572844857300,6.301857421875,0.007555121555924416,0.02707982063293457,0.10766094923019409
1726225572854893600,6.3118935546875,-0.0008649947121739388,-0.018338261172175407,-0.25350576639175415
1726225572864929500,6.321929443359375,0.002665025182068348,0.060750965029001236,-0.23144014179706573
1726225572874966300,6.33196630859375,0.016879914328455925,-0.02359720505774021,0.3704049587249756
1726225572885002500,6.34200244140625,-0.11097285896539688,-0.00720598129555583,-0.24025920033454895
1726225572895038500,6.35203857421875,-0.08722811192274094,0.05307520180940628,-0.39518648386001587
1726225572905075500,6.362075439453125,-0.005554821342229843,0.037218742072582245,0.2732650935649872
1726225572915111400,6.372111328125,-0.12482448667287827,0.04752464219927788,0.47524216771125793
1726225572925147600,6.382147705078125,-0.1773875653743744,-0.02726650796830654,-0.20310518145561218
1726225572935184400,6.392184326171875,-0.11512845009565353,0.0583016574382782,-0.4793809652328491
1726225572945220400,6.402220458984375,-0.15214665234088898,0.01625327207148075,-0.16143016517162323
1726225572955256600,6.412256591796875,-0.11593565344810486,-0.04153252765536308,-0.10168721526861191
1726225572965293300,6.422293212890625,-0.19182829558849335,-0.028734175488352776,-0.6038928031921387
1726225572975329300,6.432329345703125,-0.16602838039398193,-0.04337037727236748,-0.49746251106262207
1726225572985365500,6.442365478515625,-0.1665857881307602,0.1231544241309166,0.40868231654167175
1726225572995401500,6.4524013671875,-0.19779376685619354,0.06308043003082275,0.45102497935295105
1726225573005438500,6.4624384765625,-0.19796474277973175,-0.0885266661643982,0.22120535373687744
1726225573015474400,6.472474365234375,-0.16627313196659088,-0.1804286241531372,-0.4803152084350586
1726225573025510700,6.4825107421875,-0.08436441421508789,0.019393138587474823,-0.4175303876399994
1726225573035547400,6.49254736328125,-0.045215949416160583,-0.18408700823783875,0.26197463274002075
1726225573045583400,6.502583251953125,-0.26250219345092773,-0.0860198363661766,0.3124913275241852
1726225573055619600,6.51261962890625,-0.1536414921283722,-0.1154371127486229,-0.4500422775745392
1726225573065656300,6.52265625,-0.1794123649597168,-0.05164215341210365,-0.14624829590320587
1726225573075692300,6.5326923828125,-0.11971228569746017,-0.0858888104557991,0.11872319132089615
1726225573085728500,6.542728515625,-0.1147787794470787,-0.09025266766548157,0.4504912793636322
1726225573095765200,6.55276513671875,-0.016352076083421707,-0.10135991126298904,-0.2836599349975586
1726225573105801500,6.562801513671875,0.11044901609420776,-0.1058713048696518,-0.033852506428956985
1726225573115837700,6.572837646484375,0.08275613188743591,-0.11902279406785965,0.3146580755710602
1726225573125874400,6.58287451171875,-0.06731832027435303,-0.09680110961198807,0.14703498780727386
1726225573135910400,6.592910400390625,-0.12586845457553864,-0.08066661655902863,-0.5405088067054749
1726225573145946600,6.602946533203125,-0.015836752951145172,-0.15460075438022614,-0.14528794586658478
1726225573155982600,6.612982666015625,-0.13272449374198914,-0.09582293033599854,0.13160009682178497
1726225573166019300,6.623019287109375,0.028839902952313423,-0.17808665335178375,-0.13606809079647064
1726225573176055600,6.6330556640625,0.05285069718956947,-0.042459841817617416,-0.4944651126861572
1726225573186091500,6.643091552734375,0.2731923758983612,-0.09890181571245193,-0.13108877837657928
1726225573196128300,6.653128173828125,0.1663157343864441,-0.15401113033294678,0.744547426700592
1726225573206161000,6.663160888671875,-0.07557518780231476,0.0600457601249218,0.49759674072265625
1726225573216196900,6.67319677734375,0.0336407832801342,0.0044293696992099285,-0.32056230306625366
1726225573226233900,6.68323388671875,0.020366789773106575,-0.057317350059747696,0.3855857849121094
1726225573236269800,6.693269775390625,0.1544329822063446,-0.10643802583217621,-0.010441722348332405
1726225573246306000,6.70330615234375,0.1602591723203659,-0.05643238127231598,-0.22836579382419586
1726225573256342800,6.7133427734375,0.09976467490196228,-0.020901020616292953,0.658482015132904
1726225573266378800,6.723378662109375,0.12769165635108948,-0.06641018390655518,0.13752350211143494
1726225573276415000,6.7334150390625,0.1345202624797821,-0.05432901903986931,-0.41430503129959106
1726225573286451700,6.74345166015625,0.21074126660823822,-0.023417973890900612,0.4828968942165375
1726225573296488000,6.753488037109375,0.17383144795894623,-0.1595451831817627,1.0234568119049072
1726225573306524000,6.76352392578125,0.26302897930145264,-0.20463091135025024,-0.12032880634069443
1726225573316560000,6.773559814453125,0.2211182713508606,-0.07503749430179596,-0.2502274215221405
1726225573326596900,6.783596923828125,0.12882988154888153,-0.08970964699983597,0.5321629643440247
1726225573336632800,6.7936328125,-0.005167864263057709,0.06678435951471329,-0.2337789386510849
1726225573346669000,6.8036689453125,0.104249969124794,-0.08598574995994568,-1.0764411687850952
1726225573356705800,6.813705810546875,-0.05102749913930893,-0.017371267080307007,-0.05079180747270584
1726225573366742000,6.823741943359375,0.10477408021688461,-0.09694784879684448,0.14423812925815582
1726225573376778000,6.833778076171875,0.19680680334568024,-0.14715136587619781,0.20219837129116058
1726225573386814700,6.843814697265625,0.15020175278186798,-0.10740022361278534,0.07729931175708771
1726225573396851000,6.853850830078125,0.30924758315086365,-0.05573410168290138,0.4292304515838623
1726225573406887000,6.863886962890625,0.1880527287721634,0.004622715059667826,0.44380512833595276
1726225573416923600,6.873923583984375,0.15197248756885529,0.10311146825551987,-0.07921892404556274
1726225573426960000,6.8839599609375,0.24279266595840454,-0.024111993610858917,-0.051958806812763214
1726225573436995800,6.893995849609375,0.0799933671951294,0.04998486861586571,0.16315670311450958
1726225573447032800,6.90403271484375,0.2592051923274994,0.039867788553237915,-0.20891407132148743
1726225573457068800,6.91406884765625,0.2877098023891449,0.009556753560900688,0.008010788820683956
1726225573467105000,6.92410498046875,0.31376057863235474,0.14950454235076904,0.3316602110862732
1726225573477141000,6.93414111328125,0.43354398012161255,0.06689940392971039,0.538343071937561
1726225573487177700,6.944177734375,0.2891511023044586,0.19342033565044403,0.42512333393096924
1726225573497214000,6.9542138671875,0.3503875732421875,0.1663128137588501,0.16614502668380737
1726225573507250000,6.96425,0.29945993423461914,0.07481059432029724,-0.26800215244293213
1726225573517286700,6.97428662109375,0.1924344301223755,0.10378924757242203,-0.2150859385728836
1726225573527323000,6.984322998046875,0.26241591572761536,0.0789150521159172,-0.34000471234321594
1726225573537358800,6.99435888671875,0.24331757426261902,0.0939754992723465,-0.3990597724914551
1726225573547395800,7.004395751953125,0.3389892578125,-0.042932022362947464,-0.64974445104599
1726225573557432000,7.01443212890625,0.38173484802246094,0.15762610733509064,-0.08712078630924225
1726225573567468000,7.024468017578125,0.35534584522247314,0.058639876544475555,0.6149986982345581
1726225573577504800,7.0345048828125,0.26276957988739014,0.1297377496957779,0.5868536233901978
1726225573587541000,7.044541015625,0.21475064754486084,0.1598738133907318,-0.3452349007129669
1726225573597577000,7.054576904296875,0.2015935629606247,0.09003934264183044,-0.05359984561800957
1726225573607613700,7.06461376953125,0.11354067921638489,0.06215444952249527,-0.21691472828388214
1726225573617650000,7.07464990234375,0.09705091267824173,0.21135379374027252,-0.8109445571899414
1726225573627686000,7.084685791015625,0.15709666907787323,-0.0054847802966833115,-0.6898013353347778
1726225573637721900,7.094721923828125,0.20463623106479645,0.09698539972305298,-0.07083635777235031
1726225573647758800,7.1047587890625,0.2958183288574219,0.14027509093284607,0.34562718868255615
1726225573657795000,7.114795166015625,0.11717136204242706,0.01176051888614893,0.7077425122261047
1726225573667831000,7.1248310546875,0.20056238770484924,0.023874972015619278,0.4363781213760376
1726225573677867800,7.13486767578125,0.15772464871406555,0.15433524549007416,0.03500219061970711
1726225573687904000,7.144904052734375,0.19704915583133698,0.055262189358472824,-0.7301655411720276
1726225573697940000,7.15493994140625,0.04837099462747574,-0.09432730078697205,-0.5370301604270935
1726225573707976700,7.164976806640625,0.00811971165239811,0.02111700363457203,-0.20531347393989563
1726225573718013000,7.175012939453125,0.10637730360031128,0.07766389846801758,-0.23932737112045288
1726225573728049000,7.185048828125,0.17248521745204926,0.08458119630813599,0.0878177359700203
1726225573738085600,7.195085693359375,0.09779606759548187,0.05127836763858795,0.5945038199424744
1726225573748121900,7.205121826171875,-0.0011060107499361038,0.26780053973197937,0.6749888062477112
1726225573758157800,7.21515771484375,0.05229036882519722,0.13627661764621735,-0.19391460716724396
1726225573768194800,7.22519482421875,-0.039209987968206406,0.14226233959197998,-0.031931035220623016
1726225573778230800,7.235230712890625,-0.03131185099482536,0.1007484495639801,-0.13093964755535126
1726225573788267000,7.24526708984375,-0.01799018494784832,0.05937544256448746,-0.26084864139556885
1726225573798303000,7.255302978515625,0.0002663161139935255,-0.03140266239643097,-0.845730721950531
1726225573808339700,7.265339599609375,0.03930293023586273,0.1775239259004593,-0.17189612984657288
1726225573818376000,7.2753759765625,0.19660040736198425,0.1644110530614853,-0.007707720622420311
1726225573828412000,7.285411865234375,0.10402866452932358,0.17644454538822174,0.3663409650325775
1726225573838448600,7.29544873046875,0.22386692464351654,0.04008909687399864,0.5031307935714722
1726225573848484900,7.30548486328125,0.14875352382659912,0.25704216957092285,0.704288125038147
1726225573858520800,7.315520751953125,0.03536837548017502,0.11169883608818054,0.008301605470478535
1726225573868557800,7.325557861328125,-0.011325092054903507,0.127132385969162,-0.2815272808074951
1726225573878594000,7.335593994140625,0.1151425689458847,0.08795995265245438,0.1837964653968811
1726225573888630000,7.345630126953125,0.13512879610061646,0.1113201305270195,-0.0971641018986702
1726225573898666800,7.355666748046875,0.22485920786857605,0.155674010515213,-0.3458642065525055
1726225573908703000,7.365702880859375,0.17405834794044495,0.08429570496082306,0.10573255270719528
1726225573918739000,7.375739013671875,0.1029447540640831,0.2706892788410187,0.2555880844593048
1726225573928775000,7.38577490234375,0.17630764842033386,0.2814444601535797,-0.47686827182769775
1726225573938812000,7.39581201171875,0.07388860732316971,0.1867688149213791,0.1084793359041214
1726225573948847900,7.405847900390625,0.20710311830043793,0.25876283645629883,0.30431249737739563
1726225573958883800,7.4158837890625,0.24625371396541595,0.25822436809539795,0.3794839382171631
1726225573968920800,7.4259208984375,0.16939568519592285,0.31511399149894714,0.46573972702026367
1726225573978957000,7.43595703125,0.05528802424669266,0.24847346544265747,-0.01648523285984993
1726225573988993000,7.445992919921875,-0.0666930079460144,0.3308407664299011,-0.4715858995914459
1726225573999029800,7.45602978515625,0.07608571648597717,0.2735671103000641,-0.1948339343070984
1726225574009066000,7.46606591796875,0.1599755585193634,0.09543038159608841,0.5349838137626648
1726225574019102000,7.47610205078125,-0.010894459672272205,0.16513729095458984,0.3932490348815918
1726225574029138700,7.486138671875,0.07644790410995483,0.13168026506900787,-0.16482943296432495
1726225574039175000,7.4961748046875,0.01986744813621044,0.16278837621212006,0.2943163216114044
1726225574049211000,7.5062109375,-0.024601217359304428,0.21631711721420288,0.5797187685966492
1726225574059247600,7.51624755859375,-0.08103066682815552,0.2308686375617981,-0.41682785749435425
1726225574069283800,7.526283935546875,-0.1066950187087059,0.23878248035907745,-0.12039751559495926
1726225574079320000,7.536320068359375,-0.107425257563591,0.1773444265127182,-0.2221294641494751
1726225574089356000,7.54635595703125,-0.08942095935344696,0.15794356167316437,-0.11445414274930954
1726225574099392800,7.556392822265625,0.03996872156858444,0.13058890402317047,0.19670480489730835
1726225574109429000,7.566428955078125,-0.03406928852200508,0.09581147879362106,0.422712117433548
1726225574119465000,7.57646484375,0.028547221794724464,0.059772785753011703,0.750540554523468
1726225574129501700,7.586501708984375,-0.09817823022603989,0.0014024205738678575,0.21848280727863312
1726225574139538000,7.596537841796875,-0.12494726479053497,0.16365204751491547,-0.5465786457061768
1726225574149574000,7.606573974609375,0.029993850737810135,-0.06471481174230576,-0.25478142499923706
1726225574159610600,7.616610595703125,-0.15927967429161072,0.171643927693367,-0.040526919066905975
1726225574169646800,7.626646728515625,0.05674530565738678,0.09542239457368851,-0.0868946835398674
1726225574179682800,7.636682861328125,-0.07914328575134277,0.21580259501934052,0.02611415833234787
1726225574189719800,7.6467197265625,0.06799902766942978,0.10765455663204193,-0.08092440664768219
1726225574199756000,7.656756103515625,0.021949240937829018,0.05155826732516289,0.15248461067676544
1726225574209791200,7.666791259765625,-0.07295916229486465,0.3277544379234314,-0.42376965284347534
1726225574219828200,7.676828125,0.18750518560409546,0.19447015225887299,-0.10703830420970917
1726225574229864200,7.6868642578125,0.04791745916008949,0.07085046917200089,0.6162424087524414
1726225574239900200,7.696900146484375,0.05946439132094383,0.10060223937034607,0.4739619791507721
1726225574249936100,7.70693603515625,-0.03307938948273659,-0.016055665910243988,-0.3184719979763031
1726225574259973400,7.716973388671875,-0.0972176268696785,-0.009385245852172375,-0.5942436456680298
1726225574270009300,7.72700927734375,-0.1848289668560028,0.13596928119659424,0.21131303906440735
1726225574280045300,7.73704541015625,-0.1697445660829544,0.041920553892850876,-0.3691708445549011
1726225574290082300,7.747082275390625,-0.1703384518623352,0.02269386127591133,-0.7938448786735535
1726225574300118300,7.7571181640625,-0.1467479020357132,0.07397542148828506,0.2456750124692917
1726225574310154200,7.767154296875,-0.32168883085250854,0.17245087027549744,0.6775580048561096
1726225574320191200,7.777191162109375,-0.16142937541007996,0.017471134662628174,0.05747660994529724
1726225574330227200,7.787227294921875,-0.3479158878326416,0.11622700840234756,-0.10402493923902512
1726225574340263200,7.79726318359375,-0.17513133585453033,-0.06149079278111458,0.4446845054626465
1726225574350300400,7.807300537109375,-0.24460148811340332,-0.10455277562141418,-0.21583881974220276
1726225574360336400,7.81733642578125,-0.32111623883247375,-0.16486617922782898,-0.16277746856212616
1726225574370372400,7.827372314453125,-0.22529330849647522,-0.30853545665740967,0.3382297158241272
1726225574380408300,7.837408203125,-0.381430447101593,-0.12536057829856873,0.15034502744674683
1726225574390445300,7.8474453125,-0.3465113341808319,-0.1756000518798828,-0.379114031791687
1726225574400481300,7.857481201171875,-0.3881104588508606,-0.3471851348876953,-0.3490472137928009
1726225574410517200,7.867517333984375,-0.34801149368286133,-0.14209827780723572,0.3329598605632782
1726225574420554200,7.87755419921875,-0.34424713253974915,-0.2253793329000473,0.447220116853714
1726225574430590200,7.887590087890625,-0.4245550036430359,-0.2981760501861572,-0.11079868674278259
1726225574440626200,7.897626220703125,-0.3833495080471039,-0.20255230367183685,-0.20730897784233093
1726225574450663400,7.907663330078125,-0.40092718601226807,-0.2666471302509308,0.5457744002342224
1726225574460699400,7.917699462890625,-0.4369286000728607,-0.28603893518447876,0.30157849192619324
1726225574470735400,7.9277353515625,-0.44440194964408875,-0.23222550749778748,-0.42055627703666687
1726225574480772400,7.9377724609375,-0.3770897686481476,-0.39716973900794983,-0.2596054673194885
1726225574490808300,7.947808349609375,-0.42958998680114746,-0.27046316862106323,0.5689995288848877
1726225574500844300,7.95784423828125,-0.3768114447593689,-0.42097359895706177,0.8553591370582581
1726225574510881300,7.96788134765625,-0.3183252513408661,-0.3037945032119751,0.13604864478111267
1726225574520917200,7.977917236328125,-0.21811582148075104,-0.11296889930963516,-0.5915277600288391
1726225574530953200,7.987953125,-0.21167416870594025,-0.28668609261512756,-0.3039918541908264
1726225574540989200,7.9979892578125,-0.2178628146648407,-0.13355858623981476,0.09926187247037888
1726225574551026200,8.008026123046875,-0.102027028799057,-0.1443212330341339,-0.06727118045091629
1726225574561062400,8.0180625,-0.1983434408903122,-0.23482023179531097,0.04713102802634239
1726225574571098400,8.028098388671875,-0.1397658884525299,-0.19123467803001404,-0.025433188304305077
1726225574581135400,8.03813525390625,0.05434313416481018,-0.15380793809890747,0.36381736397743225
1726225574591171300,8.04817138671875,0.08590158820152283,-0.11365039646625519,-0.3279653489589691
1726225574601207300,8.058207275390625,0.15498346090316772,-0.20979610085487366,0.05632346123456955
1726225574611244300,8.068244384765626,-0.03501098230481148,0.021513281390070915,0.28118932247161865
1726225574621280300,8.0782802734375,0.09965921193361282,-0.018677281215786934,-0.08863931894302368
1726225574631316200,8.088316162109376,-0.0025297366082668304,-0.058168232440948486,-0.09676196426153183
1726225574641353200,8.098353271484376,0.06150836870074272,0.00971494521945715,0.044668667018413544
1726225574651389200,8.10838916015625,0.1760948747396469,-0.08226211369037628,-0.5991734266281128
1726225574661425200,8.118425048828126,0.08572395890951157,-0.11346211284399033,-0.5409244894981384
1726225574671462400,8.12846240234375,0.15006886422634125,-0.048412274569272995,-0.14243224263191223
1726225574681498400,8.138498291015624,0.12737099826335907,-0.09167079627513885,-0.11583765596151352
1726225574691534300,8.148534423828124,0.08109059184789658,-0.05017528682947159,0.16854506731033325
1726225574701570300,8.1585703125,0.1288978010416031,-0.009047291241586208,-0.07712247967720032
1726225574711607300,8.168607177734375,-0.00216594897210598,0.021520204842090607,-0.4153306186199188
1726225574721643300,8.178643310546875,0.09306416660547256,-0.13176575303077698,0.014693991281092167
1726225574731679200,8.18867919921875,0.007250189781188965,-0.1970086693763733,0.2556014060974121
1726225574741716200,8.19871630859375,0.03552230820059776,-0.17397019267082214,-0.1575973480939865
1726225574751752200,8.208752197265625,0.10026774555444717,-0.052980128675699234,-0.2645443081855774
1726225574761788200,8.2187880859375,0.07573657482862473,-0.10997763276100159,0.2144843339920044
1726225574771825400,8.228825439453125,0.05601426586508751,-0.10198894888162613,0.2671555280685425
1726225574781861400,8.238861328125,0.06228042021393776,0.026669161394238472,-0.30002906918525696
1726225574791897300,8.2488974609375,0.10453014075756073,-0.010588995181024075,-0.14397501945495605
1726225574801934300,8.258934326171875,0.09581174701452255,-0.11536547541618347,0.12928102910518646
1726225574811970300,8.26897021484375,0.04162547364830971,0.02155322954058647,-0.16142617166042328
1726225574822006300,8.27900634765625,0.1961362212896347,-0.029460420832037926,-0.03453081101179123
1726225574832042200,8.289042236328125,0.04548599198460579,-0.04557254537940025,0.4700215756893158
1726225574842079200,8.299079345703126,0.08660998940467834,0.02779807522892952,0.3543551564216614
1726225574852115200,8.309115234375,0.06019063666462898,-0.04187048599123955,-0.20202048122882843
1726225574862151200,8.319151123046876,0.005464540328830481,-0.052742574363946915,-0.24240943789482117
1726225574872188400,8.3291884765625,0.09163031727075577,-0.014092382974922657,-0.7762020230293274
1726225574882224400,8.339224365234376,0.08303389698266983,-0.13238680362701416,-1.328701376914978
1726225574892260400,8.34926025390625,0.1176491379737854,0.07693073153495789,-0.5426899194717407
1726225574902297300,8.35929736328125,0.26141268014907837,-0.0031318773981183767,0.7046047449111938
1726225574912333300,8.369333251953124,0.0979478657245636,-0.03823340684175491,0.49785560369491577
1726225574922369300,8.379369384765624,0.10454797744750977,0.035099130123853683,-0.045515820384025574
1726225574932406300,8.38940625,0.17707650363445282,0.05052575841546059,0.18457277119159698
1726225574942442200,8.399442138671875,0.12207131087779999,0.07559063285589218,0.9407512545585632
1726225574952478200,8.409478271484375,0.28064924478530884,-0.20700378715991974,-0.13882020115852356
1726225574962515200,8.41951513671875,0.0777837410569191,0.22566482424736023,-0.0647859200835228
1726225574972551200,8.42955126953125,0.41740310192108154,0.0738246887922287,0.42517420649528503
1726225574982587400,8.43958740234375,0.13264219462871552,0.03473347797989845,0.4708023965358734
1726225574992623400,8.449623291015625,0.2308100461959839,0.05856477469205856,-0.4255638122558594
1726225575002660400,8.459660400390625,0.284713476896286,0.13448430597782135,-0.6857051253318787
1726225575012696300,8.4696962890625,0.2813778817653656,0.31265005469322205,0.20625996589660645
1726225575022732300,8.479732177734375,0.3161633014678955,0.11408822238445282,0.6569821238517761
1726225575032769300,8.489769287109375,0.2049531489610672,0.26373177766799927,0.5962194204330444
1726225575042805200,8.49980517578125,0.3220033347606659,0.2773543894290924,0.1641860157251358
1726225575052841200,8.50984130859375,0.291995108127594,0.2108485847711563,-0.2291540950536728
1726225575062878200,8.519878173828126,0.3027782440185547,0.09441199153661728,-0.09285110980272293
1726225575072914200,8.5299140625,0.30728405714035034,0.2822527289390564,0.13244006037712097
1726225575082950100,8.5399501953125,0.4756075441837311,0.17777904868125916,0.03194355219602585
1726225575092987400,8.5499873046875,0.2522716522216797,0.2556016743183136,0.46552589535713196
1726225575103023400,8.5600234375,0.19572076201438904,0.17067080736160278,0.09720378369092941
1726225575113059300,8.570059326171876,0.05212631821632385,0.26842454075813293,-0.2642502784729004
1726225575123096300,8.580096435546874,0.18748973309993744,0.22792397439479828,0.2787650525569916
1726225575133132300,8.59013232421875,0.19476015865802765,0.2592723071575165,0.15476614236831665
1726225575143168300,8.600168212890624,0.2363896369934082,0.21250852942466736,-0.5238499045372009
1726225575153204200,8.610204345703124,0.2375403791666031,0.18238738179206848,-0.06707996875047684
1726225575163241200,8.6202412109375,0.2938143014907837,0.10225339978933334,0.5372077822685242
1726225575173277200,8.630277099609375,0.20109130442142487,0.12906956672668457,0.30794477462768555
1726225575183313200,8.640313232421875,0.1340201199054718,0.13652002811431885,-0.015668708831071854
1726225575193350400,8.650350341796875,0.1769939512014389,0.03389458358287811,0.6235669255256653
1726225575203386400,8.660386474609375,0.05368506535887718,0.2788279056549072,0.8170410394668579
1726225575213422600,8.670422607421875,0.23911191523075104,0.09574250131845474,-0.6490184664726257
1726225575223459600,8.68045947265625,0.18866844475269318,0.15377092361450195,-0.7071478366851807
1726225575233495800,8.690495849609375,0.2373901903629303,0.13265258073806763,-0.016414659097790718
1726225575243531800,8.70053173828125,0.12195093929767609,0.06703389436006546,-0.11843636631965637
1726225575253568800,8.71056884765625,0.18159402906894684,0.20327216386795044,-0.15159058570861816
1726225575263604700,8.720604736328125,0.33738070726394653,0.16184481978416443,-0.04402950778603554
1726225575273640700,8.730640625,0.2111830860376358,0.24986682832241058,0.5533230900764465
1726225575283676700,8.7406767578125,0.3855716586112976,0.24112899601459503,0.2789301574230194
1726225575293713700,8.750713623046876,0.2726999819278717,0.28255578875541687,-0.12080391496419907
1726225575303749600,8.76074951171875,0.2596568763256073,0.15607935190200806,0.3857375681400299
1726225575313785600,8.77078564453125,0.1532454788684845,0.22511087357997894,-0.017888186499476433
1726225575323822600,8.780822509765626,0.09992952644824982,0.2285844385623932,-0.834742546081543
1726225575333858600,8.790858642578126,0.20309771597385406,-0.0781794935464859,-0.9354193210601807
1726225575343894500,8.80089453125,0.15793690085411072,0.2747468650341034,-0.06004469469189644
1726225575353931800,8.810931884765624,0.21119746565818787,0.20404420793056488,0.6043082475662231
1726225575363967700,8.8209677734375,0.2026231437921524,0.2982894778251648,0.24079956114292145
1726225575374003700,8.831003662109374,0.20289559662342072,0.1719035804271698,-0.23283325135707855
1726225575384040700,8.841040771484375,0.19875730574131012,-0.008681905455887318,0.39333903789520264
1726225575394076700,8.85107666015625,0.20567859709262848,0.20456565916538239,-0.4418168365955353
1726225575404112600,8.861112548828125,0.2216208130121231,0.3161294758319855,-0.7866679430007935
1726225575414149600,8.871149658203125,0.14902490377426147,0.107256680727005,-0.339063823223114
1726225575424185600,8.881185546875,0.0495276041328907,0.2490985095500946,0.14081038534641266
1726225575434221600,8.8912216796875,0.13792777061462402,0.2166566699743271,-0.2314089834690094
1726225575444257500,8.901257568359375,0.023664848878979683,0.03292759135365486,0.4225728213787079
1726225575454294800,8.911294677734375,-0.0031856733839958906,0.10095537453889847,0.11770719289779663
1726225575464330800,8.921330810546875,-0.027064373716711998,0.2983584702014923,-0.41651999950408936
1726225575474366700,8.93136669921875,0.13981276750564575,0.07818055897951126,-0.23203963041305542
1726225575484403700,8.94140380859375,0.05132816731929779,0.025500565767288208,0.25505438446998596
1726225575494439700,8.951439697265625,0.023872043937444687,0.01095571182668209,0.2756637930870056
1726225575504475600,8.9614755859375,0.018634138628840446,0.006353769451379776,-0.2489485740661621
1726225575514512600,8.9715126953125,-0.12115145474672318,0.02538525126874447,-0.32124727964401245
1726225575524548600,8.981548583984376,-0.0754377692937851,-0.16266748309135437,0.1146746501326561
1726225575534584600,8.99158447265625,-0.2686314582824707,-0.09978464990854263,0.03213769569993019
1726225575544621800,9.001621826171874,-0.28846773505210876,-0.057242251932621,0.19630639255046844
1726225575554657800,9.01165771484375,-0.32848653197288513,-0.0071066454984247684,0.15313442051410675
1726225575564693800,9.02169384765625,-0.3907150328159332,-0.15208646655082703,0.09145241975784302
1726225575574729700,9.031729736328124,-0.36673271656036377,-0.09782136976718903,-0.019458387047052383
1726225575584766700,9.0417666015625,-0.3286449909210205,-0.11599398404359818,-0.22709360718727112
1726225575594802700,9.051802734375,-0.32915446162223816,-0.22690452635288239,-0.2958369851112366
1726225575604838700,9.061838623046874,-0.3928431570529938,-0.19761906564235687,0.31726503372192383
1726225575614875600,9.071875732421875,-0.4608003795146942,-0.107901431620121,0.31073418259620667
1726225575624911600,9.08191162109375,-0.44633275270462036,-0.11015766113996506,-0.5423479676246643
1726225575634947600,9.091947509765625,-0.3915901482105255,-0.14879773557186127,-0.028422586619853973
1726225575644984600,9.101984619140625,-0.3944895267486572,-0.21664363145828247,0.759793221950531
1726225575655020500,9.1120205078125,-0.37782078981399536,-0.10207629948854446,0.46856507658958435
1726225575665056800,9.122056884765625,-0.301929235458374,-0.08850856125354767,-0.18108323216438293
1726225575675093800,9.13209375,-0.2587287724018097,-0.1777084767818451,-0.2644020915031433
1726225575685129700,9.142129638671875,-0.2513185143470764,-0.22428636252880096,-0.13417725265026093
1726225575695165700,9.152165771484375,-0.2675475478172302,-0.13399802148342133,-0.19747419655323029
1726225575705201700,9.16220166015625,-0.19796687364578247,-0.1880202293395996,0.2886517643928528
1726225575715238700,9.17223876953125,-0.19750481843948364,-0.20161114633083344,0.00555269094184041
1726225575725274600,9.182274658203125,-0.1730860322713852,-0.2132803201675415,0.3502272665500641
1726225575735310600,9.192310546875,-0.1628698706626892,-0.09673000127077103,0.633080780506134
1726225575745347600,9.20234765625,-0.19416095316410065,-0.07319218665361404,0.1096000000834465
1726225575755383600,9.212383544921876,-0.11118883639574051,-0.004588626325130463,-0.6285510063171387
1726225575765419500,9.22241943359375,-0.11042637377977371,-0.10439511388540268,-0.3474988341331482
1726225575775456800,9.232456787109374,0.005906891077756882,-0.1003018394112587,0.723484992980957
1726225575785492700,9.24249267578125,-0.15802238881587982,-0.02556874230504036,1.1066815853118896
1726225575795528700,9.25252880859375,0.05197212100028992,-0.1067352369427681,-0.3454900085926056
1726225575805565700,9.262565673828124,0.00376064982265234,-0.036253612488508224,-0.23611825704574585
1726225575815601700,9.2726015625,-0.016562465578317642,-0.06968693435192108,0.5101945400238037
1726225575825637600,9.2826376953125,-0.008914931677281857,-0.029708094894886017,-0.3162096440792084
1726225575835674600,9.292674560546875,0.01552489772439003,-0.09921899437904358,-0.7731342911720276
1726225575845710600,9.302710693359375,0.039090145379304886,0.042572759091854095,0.36902835965156555
1726225575855746600,9.31274658203125,0.017075389623641968,0.10542842000722885,1.1360986232757568
1726225575865782500,9.322782470703125,0.11338381469249725,-0.03500378876924515,-0.14766988158226013
1726225575875819800,9.33281982421875,0.0867314338684082,0.11505921185016632,-0.709892213344574
1726225575885855700,9.342855712890625,0.08868486434221268,-0.09957931935787201,0.00797563511878252
1726225575895891700,9.3528916015625,-0.05771176517009735,-0.11152919381856918,0.3063617944717407
1726225575905928700,9.3629287109375,0.024759141728281975,0.014897722750902176,-0.33781957626342773
1726225575915964700,9.372964599609375,0.005073321983218193,-0.08385655283927917,-0.6281696557998657
1726225575926000600,9.383000732421875,-0.021021395921707153,-0.02383529208600521,0.501122772693634
1726225575936037600,9.39303759765625,-0.11168525367975235,0.013500362634658813,1.0332553386688232
1726225575946073600,9.403073486328125,-0.09327535331249237,-0.1876623034477234,-0.5137503743171692
1726225575956109600,9.413109619140625,-0.188715860247612,-0.08283363282680511,-1.6270393133163452
1726225575966146800,9.423146728515626,-0.053464557975530624,-0.01697392389178276,-0.7463343739509583
1726225575976182800,9.433182861328126,0.031078023836016655,-0.020141487941145897,0.45940086245536804
1726225575986218800,9.44321875,0.11207220703363419,-0.0862954705953598,0.2876394987106323
1726225575996255700,9.453255859375,0.01882828213274479,-0.10488327592611313,0.09892844408750534
1726225576006291700,9.463291748046874,0.01332725677639246,-0.1460229903459549,0.22847577929496765
1726225576016327700,9.47332763671875,-0.0022442457266151905,-0.126458078622818,-0.1973988264799118
1726225576026363600,9.48336376953125,0.11517372727394104,-0.014356035739183426,-0.6846014857292175
1726225576036400600,9.493400634765624,0.050043992698192596,0.1631963849067688,0.0445815809071064
1726225576046436600,9.5034365234375,0.2566395103931427,0.12919314205646515,0.6033322215080261
1726225576056472600,9.51347265625,0.2593764364719391,0.24157774448394775,0.4301292896270752
1726225576066509600,9.523509521484375,0.16284990310668945,0.21198442578315735,-0.2277732491493225
1726225576076545500,9.533545654296875,0.2874898314476013,0.16049939393997192,0.19849258661270142
1726225576086581800,9.543581787109375,0.3934173285961151,0.05704490840435028,-0.39703232049942017
1726225576096618800,9.55361865234375,0.47393855452537537,0.10993661731481552,-0.85410076379776
1726225576106654700,9.56365478515625,0.4685416519641876,0.22877512872219086,-0.2197003960609436
1726225576116690700,9.573690673828125,0.3801249563694,0.3875056505203247,0.7016638517379761
1726225576126727700,9.583727783203125,0.5129655599594116,0.40152478218078613,0.5201486349105835
1726225576136763600,9.593763671875,0.3861303925514221,0.199290469288826,0.1037817895412445
1726225576146799600,9.603799560546875,0.3266433775424957,0.3732449412345886,-0.07577545195817947
1726225576156835600,9.613835693359375,0.44509357213974,0.43986526131629944,0.21484147012233734
1726225576166872600,9.62387255859375,0.3971579968929291,0.35653841495513916,-0.23180420696735382
1726225576176908500,9.633908447265625,0.37427106499671936,0.3389788568019867,-0.23699736595153809
1726225576186944500,9.643944580078125,0.4388628304004669,0.2349962741136551,-0.03298085182905197
1726225576196981800,9.653981689453126,0.30043038725852966,0.1953231543302536,0.5366690158843994
1726225576207017700,9.664017822265626,0.2615743577480316,0.3286338150501251,0.037944719195365906
1726225576217053000,9.674052978515626,0.27407655119895935,0.2788800895214081,-0.11307409405708313
1726225576227090200,9.684090087890626,0.1728881597518921,0.2536439895629883,0.036265596747398376
1726225576237126100,9.694126220703126,0.19513939321041107,0.03542217239737511,0.08136516064405441
1726225576247162000,9.704162109375,0.08415669202804565,0.2917868494987488,-0.35264354944229126
1726225576257199000,9.71419921875,0.12869539856910706,0.3077431619167328,-0.12325961887836456
1726225576267235000,9.724235107421874,0.13735678791999817,0.1531597226858139,0.6536547541618347
1726225576277271000,9.73427099609375,0.07626361399888992,0.146351620554924,0.3057122528553009
1726225576287308000,9.74430810546875,0.0411040261387825,0.03772367537021637,-0.6953321695327759
1726225576297344000,9.754343994140624,0.06261757761240005,0.04519464075565338,-0.23471184074878693
1726225576307380000,9.7643798828125,0.0671183168888092,0.04565297067165375,-0.14911411702632904
1726225576317416000,9.774416015625,0.017953965812921524,0.11632820963859558,0.11708188056945801
1726225576327453000,9.784452880859375,0.07648278772830963,0.16759459674358368,-0.3916434049606323
1726225576337489200,9.7944892578125,0.03747227415442467,0.20284073054790497,-0.034200847148895264
1726225576347525000,9.804525146484375,0.12768952548503876,-0.09526979178190231,0.3502653241157532
1726225576357562000,9.81456201171875,0.0076115806587040424,0.06738942861557007,0.5023984313011169
1726225576367598000,9.82459814453125,0.052614741027355194,0.05648085102438927,-0.06381946057081223
1726225576377634000,9.834634033203125,0.08127515017986298,0.10706253349781036,-0.13829369843006134
1726225576387671000,9.844671142578125,0.0564986951649189,0.09849248826503754,0.43194982409477234
1726225576397707000,9.85470703125,-0.03346927836537361,0.03663231432437897,0.286761999130249
1726225576407743000,9.864742919921875,-0.05267706140875816,0.05967558175325394,-0.8885138630867004
1726225576417780000,9.874780029296875,-0.032894033938646317,0.10013512521982193,-0.7313591837882996
1726225576427816000,9.88481591796875,-0.09732308983802795,0.09402263164520264,-0.01233176700770855
1726225576437852000,9.894851806640625,0.017883924767374992,-0.06379708647727966,-0.8734869956970215
1726225576447888000,9.904887939453126,-0.013862552121281624,0.0933440625667572,-0.12227904051542282
1726225576457925000,9.914925048828126,0.1582610160112381,-0.002665824256837368,0.5831273198127747
1726225576467961000,9.924961181640626,0.034939076751470566,0.1107824370265007,0.46299561858177185
1726225576477997000,9.9349970703125,0.056717075407505035,0.009229451417922974,-0.04659120365977287
1726225576488034000,9.945033935546874,-0.10995286703109741,-0.020672520622611046,0.24303822219371796
1726225576498070000,9.955070068359374,-0.19911576807498932,0.047389086335897446,0.001657285145483911
1726225576508106000,9.96510595703125,-0.11605975776910782,0.11650610715150833,-0.5286784768104553
1726225576518143000,9.97514306640625,-0.13693948090076447,-0.09786584228277206,-0.8024884462356567
1726225576528179000,9.985178955078124,-0.21762339770793915,-0.03267299011349678,0.01677738130092621
1726225576538215000,9.99521484375,-0.14210520684719086,-0.09946294128894806,0.7380125522613525
1726225576548252200,10.005252197265625,-0.23166997730731964,0.08376360684633255,0.8349119424819946
1726225576558288100,10.0152880859375,-0.22002877295017242,-0.08093186467885971,-0.07171066850423813
1726225576568324000,10.025323974609375,-0.2576581835746765,-0.03346847742795944,-0.5298356413841248
1726225576578360000,10.035360107421875,-0.31978917121887207,-0.13322250545024872,0.06822539120912552
1726225576588397000,10.04539697265625,-0.24716344475746155,-0.18835659325122833,0.6158501505851746
1726225576598433000,10.05543310546875,-0.2213989645242691,-0.16386696696281433,-0.1474701464176178
1726225576608469000,10.065468994140625,-0.20565275847911835,-0.12017540633678436,-0.04657416045665741
1726225576618506000,10.075506103515625,-0.17450548708438873,-0.10306753218173981,0.7742149829864502
1726225576628542000,10.0855419921875,-0.265362948179245,-0.19595752656459808,1.4199961423873901
1726225576638578000,10.095577880859375,-0.18456345796585083,-0.18354293704032898,0.3222678005695343
1726225576648615200,10.105615234375,-0.10234794020652771,-0.22343549132347107,-0.9462999701499939
1726225576658651100,10.115651123046876,-0.1316419094800949,-0.198918417096138,-0.930908203125
1726225576668687000,10.12568701171875,-0.24246323108673096,-0.18061985075473785,0.4681898355484009
1726225576678724000,10.13572412109375,-0.3184714615345001,-0.039680302143096924,0.4570879340171814
1726225576688760000,10.145760009765626,-0.2019387185573578,-0.033907897770404816,-0.4755955636501312
1726225576698796000,10.155796142578126,-0.20060500502586365,-0.11377689987421036,0.0593314990401268
1726225576708832000,10.16583203125,-0.23726554214954376,-0.09882564842700958,0.16778847575187683
1726225576718869000,10.175868896484374,-0.1793050467967987,-0.0608375184237957,0.06254460662603378
1726225576728905000,10.185905029296874,-0.20521493256092072,-0.10820716619491577,0.8743493556976318
1726225576738941000,10.19594091796875,-0.29156792163848877,-0.049247972667217255,0.4141308665275574
1726225576748978000,10.20597802734375,-0.19379982352256775,-0.21308963000774384,-0.3449837565422058
1726225576759014000,10.216013916015624,-0.2962585687637329,-0.14052942395210266,-0.21585293114185333
1726225576769050000,10.226050048828125,-0.23875798285007477,-0.19882787764072418,-0.12793906033039093
1726225576779087000,10.236087158203125,-0.27790406346321106,-0.16904442012310028,-0.7773663401603699
1726225576789123000,10.246123046875,-0.29588037729263306,-0.10615520179271698,-0.9074590802192688
1726225576799159000,10.256158935546875,-0.19978927075862885,0.10541830211877823,-0.0865737721323967
1726225576809196000,10.266196044921875,-0.21593309938907623,-0.29129016399383545,0.7290337085723877
1726225576819232000,10.27623193359375,-0.12002281099557877,-0.12884773313999176,0.1592375934123993
1726225576829268000,10.28626806640625,-0.14784592390060425,-0.1785132884979248,-0.2823778986930847
1726225576839304000,10.296303955078125,-0.10044218599796295,-0.20074881613254547,-0.24991104006767273
1726225576849341000,10.3063408203125,-0.11172439903020859,-0.10885724425315857,0.1457952857017517
1726225576859377000,10.316376953125,-0.07332002371549606,-0.1446666419506073,0.07882983237504959
1726225576869412900,10.326412841796875,-0.13080994784832,-0.07588091492652893,-0.29499542713165283
1726225576879450000,10.3364501953125,-0.12206865102052689,-0.03978363052010536,0.2466188371181488
1726225576889486000,10.346486083984376,-0.06166549399495125,-0.09918010979890823,-0.01323910616338253
1726225576899522000,10.35652197265625,-0.02371598221361637,-0.11028709262609482,0.03153848648071289
1726225576909559000,10.36655908203125,0.19616231322288513,-0.15144437551498413,0.5842293500900269
1726225576919595000,10.376594970703126,0.22230097651481628,0.042932286858558655,-0.0719466283917427
1726225576929631000,10.386630859375,0.3017771542072296,0.19635939598083496,-1.1230435371398926
1726225576939668000,10.39666796875,0.22602860629558563,0.006053631659597158,-1.2256828546524048
1726225576949704000,10.406703857421874,0.1748807281255722,0.14432628452777863,-0.18256235122680664
1726225576959740000,10.416739990234374,0.49802470207214355,0.08913573622703552,0.2914257347583771
1726225576969777200,10.426777099609374,0.29344385862350464,0.12381328642368317,-0.257698118686676
1726225576979813000,10.436813232421875,0.36964648962020874,0.200504332780838,0.6329015493392944
1726225576989849000,10.44684912109375,0.3821178078651428,0.20552439987659454,1.0579109191894531
1726225576999885000,10.456885009765625,0.3211497962474823,0.25815457105636597,0.6614887118339539
1726225577009922000,10.466922119140625,0.4409691393375397,0.19670027494430542,-0.3309403657913208
1726225577019958000,10.4769580078125,0.39339256286621094,0.17189612984657288,0.2502002418041229
1726225577029994000,10.486993896484375,0.3731546700000763,0.026021480560302734,-0.1935953050851822
1726225577040031000,10.497031005859375,0.25199976563453674,0.24746598303318024,-0.5832695364952087
1726225577050067000,10.50706689453125,0.34581518173217773,0.08063652366399765,0.007820106111466885
1726225577060103000,10.51710302734375,0.362489253282547,0.3074907064437866,0.8882321119308472
1726225577070140200,10.52714013671875,0.5075361728668213,0.14428606629371643,0.8095698356628418
1726225577080176000,10.537176025390625,0.26523593068122864,0.18839120864868164,-0.5451977849006653
1726225577090212000,10.547212158203125,0.4594738483428955,0.2110973298549652,-0.9782440662384033
1726225577100248000,10.557248046875,0.24240678548812866,0.34118661284446716,0.6318453550338745
1726225577110285000,10.56728515625,0.24601083993911743,0.2844037711620331,0.7328079342842102
1726225577120321000,10.577321044921876,-0.02804947830736637,0.24897333979606628,-0.3332599997520447
1726225577130357000,10.58735693359375,0.08213188499212265,0.26525378227233887,-0.7228034734725952
1726225577140394000,10.59739404296875,0.012981578707695007,0.13544464111328125,-0.1417672485113144
1726225577150430000,10.607429931640626,-0.03243943303823471,0.10686945915222168,0.1621716022491455
1726225577160466000,10.6174658203125,0.2199440747499466,-0.004078364931046963,-0.34587112069129944
1726225577170503000,10.6275029296875,0.005995574407279491,0.29316049814224243,0.585263729095459
1726225577180539000,10.637538818359374,-0.029891852289438248,0.0843827947974205,1.7385780811309814
1726225577190575000,10.6475751953125,-0.29065605998039246,0.07683353126049042,0.8204213976860046
1726225577200612000,10.657612060546874,-0.3683479428291321,0.14920653402805328,-0.9836958050727844
1726225577210648600,10.667648681640625,-0.17755748331546783,0.05535939708352089,-0.7376967072486877
1726225577220684500,10.6776845703125,-0.027477962896227837,-0.173944890499115,0.15005500614643097
1726225577230720500,10.687720458984375,-0.18439514935016632,-0.22194571793079376,0.12573449313640594
1726225577240757800,10.6977578125,-0.09548337757587433,-0.34125664830207825,-0.21279269456863403
1726225577250793700,10.707793701171875,-0.19819989800453186,-0.2170444279909134,0.6538009643554688
1726225577260829700,10.71782958984375,-0.11952666193246841,-0.052564408630132675,1.0077351331710815
1726225577270866700,10.72786669921875,-0.1506717950105667,-0.08174919337034225,-0.8722763061523438
1726225577280902700,10.737902587890625,-0.2357238382101059,0.05235721543431282,-1.0129618644714355
1726225577290938600,10.747938720703125,-0.15866820514202118,0.19737406075000763,0.15352751314640045
1726225577300975600,10.7579755859375,-0.025261148810386658,0.04459916055202484,0.023576965555548668
1726225577311011600,10.768011474609375,-0.026162894442677498,-0.14222665131092072,-0.6499612331390381
1726225577321047600,10.778047607421875,-0.04767005145549774,-0.058701395988464355,-0.33547332882881165
1726225577331084500,10.78808447265625,0.03151531517505646,0.01619335077702999,0.2693481147289276
1726225577341120500,10.79812060546875,0.03951172158122063,0.03922490030527115,0.3634304106235504
1726225577351156700,10.80815673828125,-0.004713262431323528,-0.058875832706689835,-0.1506797820329666
1726225577361192700,10.818192626953126,-0.10475064814090729,0.20357629656791687,0.15527240931987762
1726225577371229700,10.828229736328124,0.08554978668689728,0.049797650426626205,0.5651915073394775
1726225577381265700,10.838265625,-0.10013538599014282,0.06325779855251312,0.09565568715333939
1726225577391301600,10.848301513671874,0.12602956593036652,-0.15867966413497925,-1.1529932022094727
1726225577401338600,10.858338623046874,-0.057680338621139526,0.09538723528385162,-0.26548174023628235
1726225577411374600,10.86837451171875,0.12929220497608185,-0.02371145412325859,0.9201703667640686
1726225577421410600,10.87841064453125,-0.029557891190052032,-0.17315234243869781,0.15702849626541138
1726225577431447600,10.888447509765625,-0.027173563838005066,0.10304196178913116,-0.8793334364891052
1726225577441483500,10.8984833984375,-0.01757553219795227,-0.07856591790914536,-0.10589846968650818
1726225577451519500,10.90851953125,0.027997545897960663,-0.2558844983577728,0.37628868222236633
1726225577461556700,10.918556640625,-0.08736606687307358,0.1109190583229065,0.13189251720905304
1726225577471592700,10.9285927734375,0.04695605859160423,-0.22129377722740173,-0.9566276669502258
1726225577481628700,10.938628662109375,-0.20214404165744781,0.13606463372707367,-0.8506730198860168
1726225577491664600,10.94866455078125,0.04604365676641464,-0.10376501083374023,0.4937282204627991
1726225577501701600,10.95870166015625,-0.2336428463459015,-0.0098052266985178,0.7483235001564026
1726225577511737600,10.968737548828125,-0.045766424387693405,-0.3147590160369873,-0.4220004975795746
1726225577521773600,10.978773681640625,-0.1937130093574524,-0.049371276050806046,0.14127297699451447
1726225577531810600,10.988810546875,-0.06283462047576904,-0.3004668951034546,0.9423922896385193
1726225577541846500,10.998846435546875,-0.10619620978832245,-0.16154442727565765,0.05835917964577675
1726225577551882500,11.008882568359375,0.0665004625916481,-0.1333247721195221,-1.3769069910049438
1726225577561919700,11.018919677734376,0.01900911144912243,-0.1325892060995102,-1.7280786037445068
1726225577571955700,11.028955810546876,-0.060925137251615524,-0.09779047220945358,0.6231114864349365
1726225577581991700,11.03899169921875,-0.018035991117358208,-0.12537044286727905,1.4657995700836182
1726225577592028700,11.049028564453126,0.026824424043297768,-0.2973531186580658,1.0277695655822754
1726225577602064600,11.059064697265624,-0.0378325991332531,-0.004703941289335489,0.03837375342845917
1726225577612100600,11.0691005859375,0.013410081155598164,-0.05529201775789261,-0.4453020989894867
1726225577622136600,11.079136474609374,-0.05702973157167435,0.009211075492203236,-0.5904513001441956
1726225577632173600,11.089173583984374,0.11586321890354156,-0.014430604875087738,-0.3627696633338928
1726225577642209500,11.09920947265625,0.1428772658109665,0.03374810889363289,0.3722848892211914
1726225577652245500,11.10924560546875,0.16383740305900574,0.07423055171966553,0.2770731449127197
1726225577662282800,11.11928271484375,0.30718445777893066,0.10870810598134995,-0.016376575455069542
1726225577672318700,11.129318603515625,0.2457120269536972,-0.02231409400701523,0.30479106307029724
1726225577682354700,11.139354736328125,0.16289331018924713,0.1761324256658554,-0.12328944355249405
1726225577692391700,11.1493916015625,0.22397318482398987,0.10197749733924866,-0.022243253886699677
1726225577702427600,11.159427734375,0.07484334707260132,0.24309253692626953,-0.32544681429862976
1726225577712463600,11.169463623046875,0.18221081793308258,0.16594237089157104,0.34922298789024353
1726225577722500600,11.17950048828125,0.18730944395065308,0.1647183746099472,-0.22187167406082153
1726225577732536600,11.18953662109375,0.1972142606973648,0.22043943405151367,0.36945101618766785
1726225577742572500,11.199572509765625,0.25718119740486145,-0.01212936732918024,0.19776421785354614
1726225577752608500,11.2096083984375,0.02582094445824623,0.1550106257200241,0.3328743577003479
1726225577762645500,11.2196455078125,0.11058750003576279,0.06805521994829178,-0.02353089302778244
1726225577772681500,11.229681396484375,-0.014027401804924011,0.05199555680155754,-0.4372958540916443
1726225577782717700,11.2397177734375,-0.05795837566256523,0.023870445787906647,-0.000663393409922719
1726225577792754700,11.249754638671876,-0.060498762875795364,-0.018491925671696663,-0.07074154913425446
1726225577802790700,11.259790771484376,-0.1471247375011444,-0.12150965631008148,-0.9479905366897583
1726225577812826600,11.26982666015625,-0.1942451149225235,-0.05987584963440895,-0.18654191493988037
1726225577822863600,11.279863525390626,-0.12256932258605957,-0.002758768619969487,0.6339151859283447
1726225577832899600,11.289899658203124,-0.14498861134052277,-0.1258135885000229,0.4729696810245514
1726225577842935600,11.299935546875,-0.1544649451971054,-0.17259733378887177,-0.10354264080524445
1726225577852972500,11.30997265625,-0.20745891332626343,-0.18085846304893494,0.9248391389846802
1726225577863008500,11.320008544921874,-0.3531529903411865,-0.12907010316848755,0.6838017702102661
1726225577873044500,11.33004443359375,-0.24879570305347443,-0.030538201332092285,-0.4790251851081848
1726225577883080400,11.34008056640625,-0.24602840840816498,-0.20210622251033783,-0.7320880889892578
1726225577893117700,11.35011767578125,-0.35174232721328735,-0.20118103921413422,0.14059972763061523
1726225577903153700,11.360153564453125,-0.2664569914340973,-0.2084331065416336,0.44998180866241455
1726225577913189600,11.370189697265625,-0.1841847449541092,-0.21240121126174927,0.19172681868076324
1726225577923226600,11.3802265625,-0.2153213620185852,-0.10228509455919266,0.30390608310699463
1726225577933262600,11.3902626953125,-0.2113407403230667,0.03556864708662033,0.9219538569450378
1726225577943298600,11.400298583984375,-0.2288518249988556,0.07765857875347137,-0.12524260580539703
1726225577953335600,11.41033544921875,-0.23175866901874542,0.12110325694084167,-1.1361010074615479
1726225577963371500,11.42037158203125,-0.20139223337173462,0.021509818732738495,-0.8121131062507629
1726225577973407500,11.430407470703125,-0.12795157730579376,-0.024104537442326546,0.20443889498710632
1726225577983444700,11.44044482421875,-0.09683040529489517,0.044619131833314896,0.48221272230148315
1726225577993480700,11.450480712890625,0.062485214322805405,-0.0017555557424202561,-0.013333648443222046
1726225578003516700,11.4605166015625,-0.03497369587421417,0.011472631245851517,0.8353031277656555
1726225578013552600,11.470552734375,0.10026855021715164,-0.01870577782392502,0.24511973559856415
1726225578023589600,11.480589599609376,0.008950351737439632,0.029806364327669144,-0.4228772222995758
1726225578033625600,11.49062548828125,0.17245939373970032,-0.030111562460660934,-0.7960665225982666
1726225578043661600,11.50066162109375,-0.07180681079626083,0.2898917496204376,0.14026762545108795
1726225578053698600,11.510698486328126,0.10508274286985397,0.27455034852027893,0.8710427284240723
1726225578063734500,11.520734619140624,-0.04000946879386902,0.021372133865952492,0.08658336102962494
1726225578073770500,11.5307705078125,-0.007820372469723225,0.15777790546417236,-0.7844529747962952
1726225578083807700,11.540807861328124,0.06482267379760742,0.02382437326014042,0.4536500573158264
1726225578093843700,11.55084375,0.10494904965162277,-0.09658139944076538,1.1672546863555908
1726225578103879700,11.560879638671874,0.08253082633018494,-0.21028666198253632,-0.2010103315114975
1726225578113915600,11.57091552734375,0.17118000984191895,-0.07987059652805328,-1.6700688600540161
1726225578123952600,11.58095263671875,0.06083086133003235,0.24114683270454407,-0.6015177965164185
1726225578133988600,11.590988525390625,0.2007530778646469,0.000026365294615970924,0.6487473845481873
1726225578144024600,11.601024658203125,-0.046235937625169754,0.07529502362012863,0.3341750502586365
1726225578154061600,11.6110615234375,0.05312793329358101,0.1393701434135437,-0.7774041295051575
1726225578164097500,11.62109765625,0.03239043056964874,0.15008777379989624,0.6157646775245667
1726225578174133500,11.631133544921875,0.06076374650001526,0.014369884505867958,1.3487409353256226
1726225578184170500,11.64117041015625,0.051715392619371414,-0.0797709971666336,-0.7893340587615967
1726225578194206500,11.65120654296875,-0.031748607754707336,-0.32554641366004944,-2.1123275756835938
1726225578204242700,11.66124267578125,0.04735766351222992,0.43010425567626953,-0.32481005787849426
1726225578214280200,11.6712802734375,0.12668336927890778,0.02279745787382126,0.9453651905059814
1726225578224316200,11.681316162109376,-0.20172512531280518,0.0021763353142887354,0.40199750661849976
1726225578234352000,11.69135205078125,-0.020717529579997063,0.17884165048599243,-0.26948872208595276
1726225578244388000,11.70138818359375,-0.06847359985113144,-0.016981113702058792,1.0052248239517212
1726225578254425000,11.711425048828126,0.07453601807355881,0.034995801746845245,1.13420832157135
1726225578264461000,11.7214609375,0.00036618465674109757,-0.31929197907447815,-0.5011786818504333
1726225578274497000,11.7314970703125,0.09205669164657593,0.16533783078193665,-0.8066094517707825
1726225578284534000,11.741533935546874,0.11146021634340286,0.01182177197188139,0.5183230638504028
1726225578294570200,11.7515703125,-0.027512850239872932,0.12795956432819366,0.16419266164302826
1726225578304606200,11.761606201171874,0.048838112503290176,0.01967197097837925,-0.8366621732711792
1726225578314643200,11.771643310546875,0.008564193733036518,0.19940951466560364,-0.10377752780914307
1726225578324679200,11.78167919921875,0.2678346335887909,-0.07104514539241791,0.07835739105939865
1726225578334715100,11.791715087890625,0.11298540979623795,0.054655522108078,-0.20610150694847107
1726225578344752000,11.801752197265625,0.3216715157032013,-0.09176746755838394,-0.15459756553173065
1726225578354788000,11.8117880859375,0.07518582791090012,0.1161135584115982,0.9160863757133484
1726225578364824000,11.821823974609375,0.22245118021965027,0.04302416741847992,0.44379502534866333
1726225578374860000,11.831860107421875,-0.08067833632230759,0.11263999342918396,-0.4003237187862396
1726225578384897000,11.84189697265625,0.12939101457595825,-0.20793455839157104,-0.5419881939888
1726225578394933000,11.85193310546875,-0.06017545610666275,0.13558019697666168,0.39745548367500305
1726225578404969000,11.861968994140625,0.19639481604099274,-0.012768791988492012,0.12043054401874542
1726225578415006200,11.872006103515625,-0.06938253343105316,0.0984775722026825,-0.5951946377754211
1726225578425042200,11.882042236328125,0.09533637017011642,-0.03478674218058586,-0.5209630131721497
1726225578435078100,11.892078125,-0.0006143912323750556,0.011652395129203796,0.8135077953338623
1726225578445115100,11.902115234375,-0.008537295274436474,0.01949939876794815,0.5947000980377197
1726225578455151000,11.912151123046876,-0.07708439975976944,-0.13830967247486115,-0.737693190574646
1726225578465187000,11.92218701171875,-0.054788947105407715,-0.09550148993730545,-1.2959685325622559
1726225578475224000,11.93222412109375,-0.04292003810405731,0.03099093958735466,-0.0571192130446434
1726225578485260000,11.942260009765626,0.13479216396808624,-0.012513660825788975,1.1489568948745728
1726225578495296000,11.9522958984375,-0.0110470587387681,-0.3185257911682129,0.2565934360027313
1726225578505332000,11.96233203125,0.007518103811889887,-0.03201945126056671,-0.5797805786132812
1726225578515369200,11.972369140625,0.04651929810643196,-0.12804877758026123,0.8304638862609863
1726225578525405200,11.9824052734375,-0.07580900937318802,-0.12458640336990356,0.8857993483543396
1726225578535441200,11.992441162109374,-0.002320412313565612,-0.11402563750743866,-0.7819187641143799
1726225578545478100,12.00247802734375,-0.10493653267621994,-0.001228516222909093,-0.88480544090271
1726225578555514000,12.01251416015625,-0.08864704519510269,-0.008580438792705536,0.2223379909992218
1726225578565550000,12.022550048828125,-0.11820466816425323,-0.14330708980560303,0.24190397560596466
1726225578575587000,12.032587158203125,-0.09548098593950272,-0.15678881108760834,-0.7091225385665894
1726225578585623000,12.042623046875,0.01932229846715927,-0.08870430290699005,-0.26713183522224426
1726225578595659000,12.052658935546875,-0.12094985693693161,-0.17925789952278137,0.7997890710830688
1726225578605696300,12.0626962890625,-0.1587395817041397,-0.09650310128927231,0.20631642639636993
1726225578615732200,12.072732177734375,-0.12044332176446915,-0.021979333832859993,-0.46615517139434814
1726225578625768200,12.082768310546875,-0.0945933535695076,-0.026368755847215652,0.2815978527069092
1726225578635804200,12.09280419921875,-0.05739964172244072,-0.06354408711194992,0.38591787219047546
1726225578645841200,12.102841064453125,-0.07354772090911865,-0.05748113617300987,-0.5033060312271118
1726225578655877000,12.112877197265625,0.08412366360425949,-0.15743249654769897,-0.5693958401679993
1726225578665913000,12.1229130859375,-0.06569698452949524,-0.17797745764255524,0.5555489659309387
1726225578675950000,12.1329501953125,-0.08171829581260681,0.007792409509420395,0.5111660957336426
1726225578685986000,12.142986083984376,-0.06347271800041199,-0.05458441376686096,-0.5827323794364929
1726225578696022000,12.15302197265625,-0.07380977272987366,-0.025957297533750534,-0.24517513811588287
1726225578706059000,12.16305908203125,-0.08297637850046158,0.1052667647600174,0.4810827374458313
1726225578716095200,12.17309521484375,-0.04519863799214363,-0.06590737402439117,-0.3785257339477539
1726225578726131200,12.183131103515626,-0.07506439089775085,-0.148368701338768,-0.7437641620635986
1726225578736167200,12.193167236328126,0.09902352094650269,-0.0030133668333292007,-0.40072372555732727
1726225578746204200,12.2032041015625,0.023313311859965324,-0.14768852293491364,1.0747426748275757
1726225578756240100,12.213240234375,-0.0480082705616951,-0.09683626145124435,1.1111302375793457
1726225578766276000,12.223276123046874,0.0046605318784713745,-0.14692313969135284,-0.41190552711486816
1726225578776313000,12.23331298828125,0.027039339765906334,0.1099667176604271,-0.7434158325195312
1726225578786349000,12.24334912109375,0.021168934181332588,-0.10557089745998383,0.5046620965003967
1726225578796385000,12.253385009765625,-0.04407105594873428,-0.09181620925664902,0.20513877272605896
1726225578806422000,12.263422119140625,0.07088375836610794,-0.07874274998903275,-0.9900535345077515
1726225578816458000,12.2734580078125,0.1170792207121849,0.0038900794461369514,-1.5047067403793335
1726225578826494000,12.283493896484375,0.05493222549557686,0.11297715455293655,0.17811647057533264
