time,seconds_elapsed,z,y,x
1726225667445806300,0.019806396484375,1.962685973879695,-0.7801251258075237,0.27853125630691644
1726225667455842300,0.02984228515625,0.993610055577755,-0.3927876039534807,0.6974169589173048
1726225667465878300,0.039878173828125,0.07709902177155017,-0.276103006246686,0.5055114082705229
1726225667475914200,0.049914306640625,-1.4025772254377602,-0.877692350590229,0.8082017579957842
1726225667485951200,0.059951171875,-3.3436148466110227,-0.0669634122043848,0.28882234869673845
1726225667495987200,0.0699873046875,-1.4015548966526985,0.6185451553195714,-0.3511304459085688
1726225667506023200,0.080023193359375,2.165536696910858,-1.193191547679901,0.45700902397334575
1726225667516060200,0.09006005859375,3.195225197085738,-1.6172253537684678,-0.36908337816316633
1726225667526096100,0.10009619140625,1.6095196016967295,1.0942974582076073,-0.0272371491568163
1726225667536132000,0.110132080078125,1.9259177934527396,2.114288740232587,1.5326222399771212
1726225667546168000,0.12016796875,2.192064638352394,0.5903554181456565,0.019594781177490948
1726225667556205300,0.130205322265625,1.5816811621785163,1.1012877554863691,0.8386661621034145
1726225667566241300,0.1402412109375,-0.3919868089646101,0.13491408188045023,0.35812362926416097
1726225667576277200,0.15027734375,-1.4639146144539117,0.0276759424328804,-0.7173284778937697
1726225667586314200,0.160314208984375,-1.4698200391054153,-0.19925357532203197,-0.21988230265714226
1726225667596350200,0.17035009765625,-0.9088958826273679,-1.315959264692664,-0.5214694769134745
1726225667606386200,0.18038623046875,-0.8193973980098962,-0.035823008531332017,-0.30611327337864785
1726225667616422100,0.190422119140625,0.7336129654794931,1.5407459251999853,-0.09267178089134395
1726225667626459100,0.200459228515625,0.3554781562566757,0.8023726134508847,-0.16460439634304494
1726225667636495000,0.2104951171875,0.7242255439311266,-0.17345044102370738,0.12242544291373342
1726225667646531000,0.220531005859375,0.4316846131026745,-1.8551801234066485,-0.29617720497157424
1726225667656568300,0.230568359375,-0.6935907516926526,0.02006546742916107,-0.392081757239066
1726225667666604300,0.240604248046875,-2.53776958861351,0.8861439525932073,-0.41769378941208124
1726225667676640300,0.25064013671875,-5.535452690470218,-1.5331418799370526,-0.49979175198208536
1726225667686676200,0.26067626953125,-2.611163326126337,-2.9512480984181164,-0.6644862377613783
1726225667696713200,0.270713134765625,0.0796598121702671,-2.6069173591196537,-0.6113836661923676
1726225667706749200,0.280749267578125,2.7745816179573533,1.222768939819932,-0.012393325366079807
1726225667716785200,0.29078515625,4.18626627895832,2.277763146165013,0.5230979548981413
1726225667726821000,0.300821044921875,5.320334606540203,-1.0568716906547546,1.149796277263388
1726225667736858000,0.310858154296875,4.9936505830913775,-3.775156836372614,0.6072680840997025
1726225667746894000,0.32089404296875,0.23379764995872973,-2.170093045040965,1.580406758328527
1726225667756930000,0.330929931640625,-4.2545992259502405,2.951101383423805,0.8794713429614901
1726225667766967300,0.34096728515625,-2.1729683082163334,0.7623895626306534,0.859424580232799
1726225667777003300,0.351003173828125,0.8512053256809711,-1.978881321877241,0.2579649266835302
1726225667787039200,0.361039306640625,0.7876192809551954,-1.7669705095559358,-1.7587986012771724
1726225667797075200,0.3710751953125,2.4550334377378222,-1.0413304226517677,-1.7360162761047482
1726225667807112200,0.3811123046875,2.2490169441521166,-0.8258943588137626,-0.7698444086812436
1726225667817148200,0.391148193359375,0.3036936084836721,1.0407336258023976,0.6399931631483137
1726225667827184000,0.40118408203125,-1.8018308105349539,3.7300276548355815,1.702407874882966
1726225667837221000,0.41122119140625,-0.8667249663740396,1.5954618502497673,1.307873719523102
1726225667847257000,0.421257080078125,0.9354203169375658,-2.517149994432926,0.2944423074703663
1726225667857293000,0.43129296875,-0.34017303509712216,-1.8361457525908946,0.3664938000613823
1726225667867329000,0.4413291015625,-0.5247410824626684,3.1816601975917815,1.0697000464372337
1726225667877366300,0.4513662109375,1.1931640751510857,2.8977935716062784,2.106553762066364
1726225667887402200,0.46140234375,1.1929980709344148,-2.0689239963740107,1.8436890075773
1726225667897438200,0.471438232421875,-0.3136065152108669,-3.1561890717267986,0.9076146837104111
1726225667907475200,0.48147509765625,-4.032174618399143,0.4593073640435934,0.983975746596232
1726225667917511200,0.49151123046875,-6.213239723831415,2.5175188277453184,0.04925245374580845
1726225667927547100,0.501547119140625,-3.799643042853474,-0.29983751757740973,-1.3048365437842904
1726225667937583000,0.5115830078125,-1.0504466260433196,-2.497931499221921,-0.9534363044910132
1726225667947620000,0.5216201171875,0.29013211612105366,0.7259568977683782,-1.1954697217449546
1726225667957656000,0.531656005859375,1.697740905985236,3.1902053230971097,0.9174315096519887
1726225667967692000,0.541692138671875,4.171847877505422,-2.502273327818513,0.6180839675486087
1726225667977728300,0.551728271484375,1.232298984709382,-2.1443635605007407,-0.5178420436639338
1726225667987765200,0.56176513671875,-1.8326812913507222,3.246305980503559,-0.48397696426734327
1726225667997801200,0.57180126953125,-2.5159832887411118,2.4035125093370673,-0.1696566016986966
1726225668007837200,0.581837158203125,0.8249801665782928,-2.0319266833662986,-1.6372772310636936
1726225668017874200,0.591874267578125,2.015622029775381,-4.535957668507099,-0.8878329285934566
1726225668027910100,0.60191015625,-0.3457663250595331,1.474537130755186,0.2863378018720075
1726225668037946000,0.611946044921875,-0.4674146826535463,3.353480407065153,1.0245721800744534
1726225668047982300,0.621982421875,2.1401339601069687,-0.25769115124344827,0.5013061751330271
1726225668058019000,0.63201904296875,2.3830197564065454,-2.0681471667826172,1.156348548451066
1726225668068055000,0.642054931640625,1.1474024409294128,0.7517115167498588,0.8345994971863925
1726225668078091300,0.65209130859375,0.039915830802917475,1.5233493847191333,1.0169424158483744
1726225668088128000,0.6621279296875,-0.667394234162569,-0.6614630905479192,0.832894885225594
1726225668098164000,0.6721640625,0.8509995739758014,-0.8185574400544167,0.5526775389952585
1726225668108200200,0.6822001953125,2.3426725484490394,-1.004329602512717,0.8229743797138332
1726225668118236400,0.692236328125,3.567609479957819,-1.4971224720507859,0.5039146040657535
1726225668128273200,0.702273193359375,1.7384639615178108,0.6480892297118902,0.2652315201530233
1726225668138309000,0.71230908203125,1.0858166301101446,2.211156876835227,0.605530921576172
1726225668148345300,0.722345458984375,-0.8160434114068746,0.06164426300823688,0.984886212504655
1726225668158382000,0.732382080078125,-3.2115672600775955,-0.4717606029033661,1.5764656194873152
1726225668168418000,0.74241796875,-4.339235072967409,-0.2983078237920999,1.527209421148151
1726225668178454300,0.752454345703125,-3.3527684594035145,-0.18709435097277163,1.431161661017686
1726225668188490200,0.762490234375,-1.7150427539199589,0.16259937666356564,1.511856661454588
1726225668198527000,0.77252685546875,-0.3729144442260265,0.03425765891075134,1.2087016898922622
1726225668208563200,0.782563232421875,1.8157663969069717,0.7026642849862575,0.1952244476701133
1726225668218599200,0.79259912109375,3.478471060824394,-1.0829355217158794,-0.6381839948344975
1726225668228636200,0.80263623046875,2.0102035118579864,-1.5150123490065335,-0.6045386226031929
1726225668238672400,0.81267236328125,2.8485347429186105,0.8178606899619102,-1.4924563799358903
1726225668248708400,0.822708251953125,1.4698305604994295,1.1765472868710756,-1.1289074376873671
1726225668258744300,0.832744384765625,-0.7884954792678356,1.2191706230670214,-0.14767784799411893
1726225668268781300,0.84278125,0.6791822871118783,-0.9970336002856492,-0.1389147506228648
1726225668278817300,0.8528173828125,-2.4797780028939247,-1.8038894966304302,0.8391037498030811
1726225668288853200,0.862853271484375,-2.613794843673706,0.8019435743838548,0.7277839670650661
1726225668298890200,0.87289013671875,-3.7643776682049035,-1.1580074215739964,0.4329251512156799
1726225668308930000,0.882929931640625,-1.5723977855265139,-2.491989249691367,0.27774717499082907
1726225668318966000,0.892966064453125,0.6650438716441393,-1.7756962523251771,-0.21003606795798985
1726225668329002000,0.903001953125,2.626246913489699,0.3808686181008816,0.055887612877390344
1726225668339039000,0.9130390625,4.602726434922218,1.7727338953882454,-0.01977872747622896
1726225668349075000,0.923074951171875,7.125403083822131,-1.446729670897126,-0.00601222319395747
1726225668359111000,0.93311083984375,6.1957180956661695,-2.401677695125341,0.25362255009766665
1726225668369148000,0.94314794921875,0.7045581359088421,-0.924561653792858,1.2954298330135643
1726225668379183900,0.953183837890625,-0.9732499891161918,-1.7699942412912844,1.8248387611567973
1726225668389219800,0.9632197265625,-3.1330940273433923,-3.408404421907663,0.25965766554344444
1726225668399255800,0.973255859375,-4.719161441782116,-2.3578344617456195,-0.19740378273688255
1726225668409293000,0.98329296875,-3.3257530267059803,-0.6239648422807454,-0.18997366926874965
1726225668419329000,0.9933291015625,-0.7469616918742656,-0.27750293617248534,-0.8448623863950371
1726225668429365000,1.003364990234375,2.1937959921896457,-0.17317630025744438,-0.627361060590297
1726225668439402000,1.013402099609375,3.515232811510563,-0.3127005062818527,-0.1485750525621697
1726225668449438000,1.02343798828125,4.519572350895404,-0.465313326460123,0.0654684426725842
1726225668459474000,1.033473876953125,4.860962360566854,-0.8062655292361974,-0.2404690357477404
1726225668469510000,1.043510009765625,5.355783521062135,-0.2445429158568382,-0.7783473024800419
1726225668479547000,1.053546875,3.6894139048963783,1.100610879138112,-0.307222001805529
1726225668489582800,1.063582763671875,0.660724839401245,0.9545090482890606,0.8135573667448014
1726225668499618800,1.073618896484375,-4.482772021764516,-1.0059311924904584,0.7743418662309646
1726225668509655800,1.08365576171875,-5.103763401192427,-1.9374661924272774,0.22736831103097646
1726225668519692000,1.093692138671875,-3.5034184550762175,-2.2690029166042804,0.10406431345073505
1726225668529728000,1.10372802734375,0.0020049100816249845,-0.8716735286921262,-0.8902774722013622
1726225668539764000,1.113763916015625,3.3875720617592333,-0.3223375186771154,-1.3540880659483372
1726225668549801000,1.123801025390625,3.398356490623951,-0.5562596717983483,-0.22036513600433244
1726225668559837000,1.1338369140625,4.117528842818737,1.5521908638000488,-0.16342864882824942
1726225668569873000,1.143872802734375,5.012358790692686,0.6254974586755037,0.3535164277296513
1726225668579910000,1.153909912109375,4.047358743527531,-0.6045107847481965,0.8907724161114543
1726225668589945900,1.16394580078125,1.3258107966214419,0.6509907963722944,0.936095878111571
1726225668599981800,1.17398193359375,-0.23432956487834453,0.7907190005362034,0.5503169838763773
1726225668610017800,1.184017822265625,-2.6430595166027544,-0.5385667787194252,1.8190251064419745
1726225668620054800,1.1940546875,-3.4606314527511595,-0.5298357752531767,0.618020985314995
1726225668630090800,1.2040908203125,-2.5080010578155516,-2.0522171917229888,0.06618656434668227
1726225668640127000,1.214126953125,-0.48730245542824263,-1.6747633505016564,-0.4590834190946072
1726225668650164000,1.2241640625,-0.048640989050269125,0.7559703432381153,-1.5270318726241587
1726225668660200000,1.234199951171875,-0.12301730785965918,2.0091788449853656,-1.2998543714575468
1726225668670236000,1.24423583984375,3.3637644851922985,0.2209802539616823,-1.2117558898311107
1726225668680272000,1.25427197265625,5.757342460492253,-2.151325800728798,-1.4551625681996345
1726225668690308900,1.264308837890625,0.696926618117094,0.3370435048997402,-0.3577908901784569
1726225668700344800,1.2743447265625,-1.62261113846004,2.2374738058745858,-0.7647044885095209
1726225668710380800,1.284380859375,-2.7234692703574894,-0.8790016796231269,-1.4980004239290952
1726225668720417800,1.294417724609375,-5.282261773255467,-1.5948060166895388,-1.3835335022717714
1726225668730453800,1.304453857421875,-4.933171856731176,-0.01256312897503376,-1.6305619513340293
1726225668740489700,1.31448974609375,-2.8595483043640852,-1.110016420865059,-1.3700110267452894
1726225668750525700,1.324525634765625,-0.6967945161700249,-0.5110884046852588,-1.0793502105750143
1726225668760563000,1.33456298828125,1.1701882732331752,1.460325650051236,-1.273439096610248
1726225668770599000,1.344598876953125,3.883697875112295,-0.19144728548526763,-0.33960199374351646
1726225668780635000,1.354634765625,2.1296026292204857,0.039351767179369924,-0.30656766608264296
1726225668790672000,1.364671875,-0.4443605548024177,1.4383295068204403,-0.5000638834543526
1726225668800707800,1.374707763671875,-1.8354039943128824,-0.32865152412950993,-0.11226521036196499
1726225668810743800,1.384743896484375,-3.2557647137224675,-2.1461732402712106,0.22492453460805117
1726225668820779800,1.39477978515625,-3.0312346583247183,-0.5635106658399105,0.16607304412350057
1726225668830816800,1.404816650390625,-2.1392899104982614,-0.3618786709487438,-0.1380658969748765
1726225668840852700,1.414852783203125,-1.383883046361804,-0.3679997841775417,-0.4328489807069301
1726225668850888700,1.424888671875,-0.8747796780139208,2.726963542214036,-1.7173156672880052
1726225668860926000,1.434926025390625,2.288155360841751,2.398822890216112,-0.8792587961893528
1726225668870962000,1.4449619140625,4.451518805366755,-3.090822573325038,0.12706877520754933
1726225668880998000,1.454997802734375,5.379238046407699,-1.0189449878424406,-0.7622385367874056
1726225668891033900,1.465033935546875,2.815212903553247,2.8887703071951862,0.4926015116844326
1726225668901070800,1.47507080078125,3.0970383790999647,1.107097318547964,-0.14042100873365998
1726225668911106800,1.48510693359375,-0.8631178817927837,-1.6675556110799312,-0.6634967883326113
1726225668921142800,1.495142822265625,-4.785043488490581,2.828643463012576,0.14503770874887703
1726225668931179800,1.5051796875,-4.49052395106554,2.1942449050009247,0.00550575780943036
1726225668941215700,1.5152158203125,-3.5328345191746946,0.27128771491944786,-0.8891017794854938
1726225668951251700,1.525251708984375,-0.6410042398869991,-1.849830579072237,-0.6800283825471997
1726225668961289000,1.5352890625,-0.04692307921648025,-0.7598240960568189,-0.40007885694019496
1726225668971325000,1.545324951171875,0.20871698471605776,4.014785092180967,-0.46939073196686804
1726225668981361000,1.55536083984375,3.1413994988739486,2.045169026777148,0.4021975295946002
1726225668991396900,1.56539697265625,2.866289010795951,-3.40943668756485,0.2528884271368384
1726225669001433900,1.575433837890625,0.598652121847868,-1.2521738980025052,-0.1711477901045233
1726225669011469800,1.5854697265625,-3.060319883033633,1.879592095607519,-0.032673166198283435
1726225669021505800,1.595505859375,-2.4726240394860506,-1.518774916410446,-0.0632740561671555
1726225669031542800,1.605542724609375,-0.7820990562289952,-4.539481166458129,0.17130546488426623
1726225669041578800,1.615578857421875,-1.3954244310736654,-0.6630079819023609,0.13819894877001643
1726225669051614700,1.62561474609375,-1.0518471404910088,2.717057065227628,-0.2582471046257764
1726225669061650700,1.635650634765625,0.1611883408218622,0.6387631829619407,-0.3800424694750458
1726225669071688000,1.64568798828125,2.3329437661170958,-0.9371417339026927,-1.3293851479768752
1726225669081724000,1.655723876953125,6.300032456621527,-0.195644737175107,-1.3399363526076078
1726225669091759900,1.665759765625,5.479598116779327,0.1520563553392887,0.007744768907874822
1726225669101796900,1.675796875,-0.07117839955091476,-0.2840226933300495,-1.044058386310935
1726225669111832800,1.685832763671875,-4.956695355659723,-1.287960081654787,-0.16436375598758457
1726225669121868800,1.695868896484375,-7.497056714332103,-3.188533590492606,1.652160181288421
1726225669131904800,1.70590478515625,-5.016142400884628,-3.180563634526729,0.16765052257329224
1726225669141941800,1.715941650390625,-2.1422230413407086,-2.336431023710966,0.48046975986398754
1726225669151977700,1.725977783203125,-0.4677496136963367,0.16690847203433512,0.3241406225763261
1726225669162013700,1.736013671875,0.9457628472536802,0.7937894940227269,0.38545243875980373
1726225669172050700,1.74605078125,4.950069800040126,-1.385869251742959,0.18385259257256983
1726225669182086700,1.756086669921875,5.4236710623741144,-1.2167857737571,-0.5064823721945285
1726225669192123000,1.766122802734375,2.9933517946541306,1.5081149907082319,0.3720242173880338
1726225669202159900,1.776159912109375,2.2777643152087927,1.7598299901515244,0.030432109273225066
1726225669212195800,1.78619580078125,-0.6865355724841355,-0.4137801230996847,-0.23069924555197358
1726225669222231800,1.796231689453125,-2.325104743054509,0.07655892354547977,0.5230442884821445
1726225669232267800,1.806267822265625,-2.940426260152459,-0.794397396788001,-0.07472272109426557
1726225669242304800,1.8163046875,-2.244504435163736,-0.880118700954318,0.32911227350905536
1726225669252340700,1.8263408203125,-0.4166688302785158,-0.32961832333505153,0.8928142241373658
1726225669262376700,1.836376708984375,0.04881342300772667,0.22587679383158682,0.8775362101804465
1726225669272413700,1.84641357421875,0.9620482116222381,3.1055303131133316,1.4633195711702107
1726225669282449700,1.85644970703125,2.921982840967178,2.81973944106698,1.4836002887852489
1726225669292485600,1.866485595703125,3.1694781768888234,0.44741000550091264,1.5810321967504917
1726225669302518300,1.876518310546875,2.5982711113274095,1.104238421985507,0.6275845671478658
1726225669312555300,1.88655517578125,1.3543126684844493,0.28138357699811456,-0.5414215836286544
1726225669322591200,1.89659130859375,0.5627940420031547,-1.7859622102737425,0.3314564985476434
1726225669332627200,1.906627197265625,-1.3169336626827717,-1.6310644940286874,0.3573527910221368
1726225669342664200,1.916664306640625,-2.7237235373795032,0.7546516618549823,-0.1014826446607709
1726225669352700200,1.9267001953125,-2.9090146383225917,1.760516803371906,1.5030845953255891
1726225669362736000,1.936736083984375,-1.1610942816734313,0.8593781107425689,1.473436768297851
1726225669372773400,1.9467734375,0.64646718146801,-0.8311655772149562,1.6208577189214526
1726225669382809300,1.956809326171875,0.5201876569420099,-0.3698614863961935,1.9613637853652237
1726225669392845300,1.96684521484375,0.22380583277642727,0.5206967755079269,1.0468152838036417
1726225669402881300,1.97688134765625,0.9444254611700773,-1.3066875784784555,0.8296899517044425
1726225669412918300,1.986918212890625,-0.6096165834546089,-1.7391507747381925,-0.6437441131796687
1726225669422954200,1.996954345703125,-1.723263469776511,1.0144260491132735,-0.013545637206360697
1726225669432990200,2.006990234375,-1.1417056905925274,0.6144447342634201,-0.9513733806118368
1726225669443027200,2.017027099609375,-0.7697738276630639,-0.6066273385107517,-1.672140308521688
1726225669453063200,2.027063232421875,-1.0036813677370549,0.33086744661331174,-0.49338038710244
1726225669463099100,2.03709912109375,-0.6441513057410717,0.9414753791928291,0.12548388063628227
1726225669473136400,2.047136474609375,1.635384695315361,-0.6051502516955137,-0.19204108665995298
1726225669483172400,2.05717236328125,4.788209843567014,-1.408883047583699,0.4858169295782223
1726225669493208300,2.067208251953125,2.474092358472943,1.425185363087058,1.374222068569064
1726225669503244300,2.077244384765625,1.6210551411896943,2.9125030649602413,1.2320308352924882
1726225669513281300,2.08728125,0.775568193155527,0.09476678040921688,1.7058058467581867
1726225669523317200,2.097317138671875,-0.7504711612999438,-0.24703005649745463,2.063795109052956
1726225669533353200,2.107353271484375,-2.649097043201327,1.1662363207370041,1.912651484644413
1726225669543390200,2.11739013671875,-2.6736341030865907,0.7998316967964172,1.8301083721227942
1726225669553426200,2.12742626953125,-1.882248163074255,-0.08155015596151352,1.7995175651565194
1726225669563462100,2.137462158203125,-1.1507529204010962,1.0893792910277842,0.5998937924720347
1726225669573498400,2.147498291015625,0.9550245965957641,1.5980390072613953,0.5434666795901953
1726225669583535400,2.157535400390625,3.452596030333638,-0.6794827313631773,1.0567018139805644
1726225669593571300,2.1675712890625,7.85810887132883,0.3576075695008039,-0.44778683945666997
1726225669603607300,2.177607177734375,7.904974667400121,2.364329668983817,-0.03238899722835049
1726225669613644300,2.187644287109375,-0.8822253178447484,2.941198413568735,0.35555805309247224
1726225669623680300,2.19768017578125,-13.14607148657441,-1.6830623922914265,1.0309647306557743
1726225669633716200,2.20771630859375,-17.86787204468846,-6.355114292374253,1.2471622073203326
1726225669643753200,2.217753173828125,-12.020507952487469,-5.832565751519799,1.680929033524543
1726225669653789200,2.2277890625,-3.0620681880056857,-3.576083293792605,0.701027623695135
1726225669663825200,2.2378251953125,3.8426924955070016,-0.04528524888157844,-0.06412826184369623
1726225669673861400,2.247861328125,1.0667185464084148,1.0158470218271016,0.6754385705389082
1726225669683898000,2.257898193359375,3.452472696214914,0.01972527568936348,-1.2506129322960973
1726225669693934300,2.267934326171875,-4.272279259547591,0.957984615445137,-1.2627905690848826
1726225669703970600,2.277970458984375,-5.478276512786746,1.4985516280710696,0.2599877194817178
1726225669714007300,2.28800732421875,1.5693863287508487,-3.887478562694788,-0.005497903296537697
1726225669724043300,2.298043212890625,6.53065323010981,-3.361249872022867,-0.5167913655672222
1726225669734079500,2.30807958984375,6.1158665603160856,1.4317992282688616,-0.3664044778101146
1726225669744116200,2.3181162109375,4.775517535254359,2.021799257105589,-0.574410501245223
1726225669754152200,2.328152099609375,2.782062913623452,-1.0729372747927903,-0.09953971216576174
1726225669764188400,2.3381884765625,1.0746353108823299,-1.4786697005152702,0.30284482790092004
1726225669774224400,2.348224365234375,1.073978308278322,0.9580857377320527,-0.19644717613179236
1726225669784261000,2.35826123046875,-0.855819541478157,0.10235796619057655,0.6895143690992146
1726225669794297300,2.36829736328125,2.1867279534995556,0.49279754571318624,-0.3934248058784753
1726225669804333300,2.378333251953125,4.346777158910036,0.8846148433297872,-1.0568372769284993
1726225669814370300,2.388370361328125,2.2787480655491352,2.7415824346750974,-0.3036671588681638
1726225669824406300,2.39840625,1.2073369774103164,2.89930046903789,0.5974134468983858
1726225669834442500,2.4084423828125,0.3433411437392235,0.34192367815673347,0.6126897072896361
1726225669844479200,2.418479248046875,-0.3579553600251674,0.9912690454095602,0.3528795911308378
1726225669854515200,2.42851513671875,-2.940053335186839,1.5044044457525014,0.943838966519013
1726225669864551400,2.438551513671875,-2.6787059995234013,0.5297369910538197,0.5608469265233725
1726225669874587400,2.44858740234375,0.6502443619191646,-0.02655658301413059,-0.20506578699843958
1726225669884624100,2.4586240234375,3.237921013996005,1.7346008563488722,-0.3909564795361832
1726225669894660400,2.468660400390625,1.4501508775174616,3.243597890588641,-0.8449669427480548
1726225669904696300,2.4786962890625,1.1934510753989218,1.2657283761024474,-1.1280241520468144
1726225669914733300,2.4887333984375,-3.423354153758287,-0.14162205508649348,0.1444733345980756
1726225669924769300,2.498769287109375,-5.303950457972288,1.5635177289783955,-0.3672113737462088
1726225669934805500,2.508805419921875,-4.162589050772786,-1.5652034901082514,-0.4420598766446113
1726225669944842200,2.51884228515625,-2.3263363306760785,-2.9545693517953158,0.35734559409637
1726225669954878200,2.528878173828125,-1.6614117014974354,0.45567923667430876,-0.3355117652878165
1726225669964914400,2.53891455078125,1.1816513320118187,3.7311540285170075,-0.3263923470258713
1726225669974950400,2.548950439453125,5.447245999228954,-0.9162193573832511,-0.12102383248750119
1726225669984987100,2.558987060546875,4.400896871632337,-3.694923608228564,-0.5966224426511675
1726225669995023400,2.5690234375,-0.8190618824452162,-0.4845096098393202,-0.42569834176730365
1726225670005059300,2.579059326171875,-4.3834991621077055,0.216842423504591,-0.1569203446464613
1726225670015096300,2.589096435546875,-4.18938119610846,-3.959344359987974,-1.7129652169935403
1726225670025132500,2.599132568359375,-4.190480097261071,-4.443406810581684,-2.043139128384739
1726225670035168500,2.60916845703125,-2.1209879456102847,-0.4204401655107736,-2.5065377072647212
1726225670045205200,2.619205322265625,0.7568634926855564,-1.7899369591236114,-2.423783728471398
1726225670055241500,2.629241455078125,1.1505734721809624,-2.2836486970722674,-2.5920459532022475
1726225670065277400,2.63927734375,0.5621253489613532,1.5918132646143435,-2.0314887303404507
1726225670075314200,2.649314208984375,-1.8450322388797997,2.1647516840130088,-0.6146859956733882
1726225670085350400,2.659350341796875,-0.6026537587046623,-3.157555683904886,0.6803158942516893
1726225670095386400,2.669386474609375,-3.3116093505412336,-3.904531404304504,1.2751523302689194
1726225670105422300,2.67942236328125,-6.34120793209672,2.5715216360896824,1.7534180772826073
1726225670115459300,2.689459228515625,-3.461195516374707,1.7958190028995273,1.3424524270817637
1726225670125495600,2.69949560546875,-1.072730938565731,-0.9968822091162204,1.1394276626579463
1726225670135531500,2.709531494140625,0.8450812898427248,-0.7178431494176387,0.3622863749668002
1726225670145568300,2.719568359375,0.7393728441804647,1.8339812680333851,-0.021827289469912647
1726225670155604500,2.7296044921875,-0.24891630863547323,5.336796496519446,0.18654365828745065
1726225670165640400,2.739640380859375,1.5629484046578406,3.5500457662165164,0.21281251040138302
1726225670175677200,2.74967724609375,2.3684639923095703,0.9133253895074128,-0.004137319000437856
1726225670185713400,2.75971337890625,0.6854571295976638,3.616210721519589,0.5244212759237736
1726225670195749400,2.769749267578125,0.5155576590538025,4.722609536409378,1.0376084064539521
1726225670205785300,2.779785400390625,1.7352561053872106,0.7505886501997708,0.6867720115885139
1726225670215822300,2.789822265625,2.7949615581631657,-2.71571032679379,0.8283781384535134
1726225670225858300,2.7998583984375,1.0660931079864502,-1.1133949573874473,0.37345351953878997
1726225670235894500,2.80989453125,-0.4067565080732107,1.0209446372270583,-0.6300885127928108
1726225670245931300,2.81993115234375,-0.5168015216350555,-0.8125538157254457,-0.5986967647071928
1726225670255967500,2.829967529296875,-1.4091560193061827,-0.8681365867376327,-0.9238519711535423
1726225670266003500,2.84000341796875,-1.846900370839238,4.647060666689277,-1.3011058328233658
1726225670276040200,2.850040283203125,3.7935464795440432,4.144137448281049,-1.3801757162764667
1726225670286076400,2.860076416015625,6.570069294697046,-1.1262322271287442,-1.911647860559821
1726225670296112400,2.8701123046875,4.669250286665559,-2.0089690016269683,-1.658154453267157
1726225670306153000,2.880153076171875,0.05815232923924923,-1.2578162878036498,-1.7177246864803135
1726225670316189000,2.89018896484375,-4.554637819057703,-2.8030232840657234,-0.9993284332245588
1726225670326225200,2.90022509765625,-6.218218681287765,-2.84527194173038,-0.4078925263658166
1726225670336261000,2.91026123046875,-5.495419370767474,-1.1565887869477272,-0.21935754813067615
1726225670346297900,2.9202978515625,-2.3352584728002546,0.5114315190345049,-0.4948797588147223
1726225670356334000,2.930333984375,2.3121873938143254,-1.2169149530947208,0.1344002140741795
1726225670366370000,2.9403701171875,6.9527616210937495,-1.5030173753082752,0.33932321333475407
1726225670376407000,2.950406982421875,4.913352473017573,-0.4520651378303766,0.3608152795009315
1726225670386443300,2.960443359375,1.9305501294285057,0.7419593535423278,0.12952815105840562
1726225670396479200,2.970479248046875,-0.8048141613841057,-1.8851608356505631,0.9067889004107564
1726225670406516000,2.980515869140625,-3.7650808480381963,-3.617553952822089,-0.0600092822175473
1726225670416552200,2.99055224609375,-5.678640679699182,-2.0712410411447286,-0.20469905431158839
1726225670426588200,3.000588134765625,-3.7329870891630645,-1.5031792878717183,-0.9214583540152758
1726225670436625000,3.010625,-0.8189864791214465,-1.6185381899327038,-0.5491298199184239
1726225670446661000,3.0206611328125,1.4407570262283087,-0.4594195922464132,0.2300060756560415
1726225670456697000,3.030697021484375,3.2897622603923082,0.6281809986710548,0.21270386239513753
1726225670466733000,3.040733154296875,6.240952491143346,0.026048048970103262,0.31436632060222325
1726225670476770000,3.05077001953125,5.608413881784677,1.0035545264869927,0.6717819477275013
1726225670486806300,3.06080615234375,2.6790327472597357,3.471585392963886,0.6663697134204208
1726225670496842200,3.07084228515625,0.24311551340222357,2.4635271253168582,0.7795254794139415
1726225670506879000,3.08087890625,-2.5457956586807966,-0.1376087277919054,0.4793858370848
1726225670516915200,3.090915283203125,-4.210554917040467,0.03658580959737301,0.7545008552074431
1726225670526951200,3.100951171875,-4.163220918935537,0.429391533729434,0.09760397659651934
1726225670536988000,3.11098779296875,-2.287314233842492,0.20357962182760236,0.4063294417675584
1726225670547024100,3.121024169921875,0.2797428240537643,-0.43999008463323114,1.003753848451376
1726225670557060000,3.13106005859375,2.595760005289316,0.2277770744949579,0.13976013367213308
1726225670567097000,3.14109716796875,2.388317278292775,1.250995501872897,0.7916052818514406
1726225670577133000,3.151133056640625,0.6580588350623846,1.511964067351818,1.0857355276979506
1726225670587169300,3.161169189453125,0.6563023467838763,0.630163112398982,0.29947803661525246
1726225670597205200,3.171205322265625,-1.3714888442128896,-0.2952899372756481,0.8359554418399929
1726225670607242000,3.181241943359375,-1.6148504413306712,0.9331628933995961,0.5926497396279126
1726225670617278200,3.1912783203125,-1.4265700954437255,-0.7734557310461998,-0.20936236994750795
1726225670627314200,3.201314208984375,-0.19350772514641285,-0.5879658926606178,0.49547852842546997
1726225670637351000,3.211350830078125,-0.24227029474973677,0.44303485915660856,0.18941965211518108
1726225670647387100,3.22138720703125,-1.2112959441691635,1.1061287657767533,0.22847258247844873
1726225670657423000,3.231423095703125,1.6598568732708692,1.4895032292187214,0.029671719359979032
1726225670667459800,3.2414599609375,4.5633729141771795,-1.9751397972613571,0.5428478170394897
1726225670677496000,3.25149609375,2.7428502626538274,-0.9337608592927455,0.6057833619672804
1726225670687532300,3.2615322265625,0.6799304751306772,1.9666735822111368,0.27962489676252006
1726225670697569000,3.271569091796875,-0.8887889141440392,0.7943260851174593,1.4751538013488052
1726225670707605200,3.281605224609375,-1.5617483812183142,-1.3610077822089195,1.2828940304368734
1726225670717641200,3.29164111328125,-3.317138927617669,-1.4007634540140628,0.6272068929418921
1726225670727677200,3.30167724609375,-3.3169384366095063,0.6738736593097447,1.125888820518553
1726225670737714200,3.311714111328125,-2.28162975846529,0.8844891711235046,1.501110518773645
1726225670747750100,3.321750244140625,0.07808511019945144,0.2292284423470497,0.03183141814451664
1726225670757786000,3.3317861328125,2.3904706569343803,-0.7262906597673893,0.012511325722560286
1726225670767823000,3.341822998046875,3.7146710957497358,0.6903361338108778,-0.21103921711854634
1726225670777859000,3.351859130859375,0.5776993501901626,2.3632599939256904,-0.4535814241448417
1726225670787895000,3.36189501953125,-0.5868307511508465,0.6496610090732574,0.6892247385028749
1726225670797932000,3.37193212890625,-3.37498905903995,-2.0213059206306934,1.8065376730516551
1726225670807968300,3.38196826171875,-4.2054233993709085,0.2147930897593498,1.26736021508798
1726225670818004200,3.392004150390625,-3.636103170469403,-0.536633180308342,1.772213232515007
1726225670828041000,3.402041015625,-1.7912006954491138,-0.7078752976328134,1.1424445262610912
1726225670838077200,3.4120771484375,-0.5443167205482721,0.41459143948256966,-0.0051456740590743715
1726225670848113200,3.422113037109375,0.5452747519254684,2.2017186018824577,-0.23647222119653596
1726225670858149000,3.432149169921875,2.902169302472472,1.4532652101457117,-0.42048944801259786
1726225670868186000,3.44218603515625,5.53625114737153,0.11204407842457294,-0.8790350704360753
1726225670878222000,3.45222216796875,3.370823171532154,1.2708090403676033,-1.6309467128679156
1726225670888258000,3.462258056640625,1.3472814546734093,1.5176035345435142,-1.6693576920658348
1726225670898295000,3.472294921875,-3.192712922003865,-0.8216361168473959,-1.1738055869475006
1726225670908331300,3.482331298828125,-4.194315145379305,-1.6125491786509751,-1.344122259990126
1726225670918367200,3.4923671875,-3.4718957740873098,-2.0649135916888715,-0.9046604370146989
1726225670928404000,3.502404052734375,-2.635081961852312,-0.34042730211913586,-1.0774378010824321
1726225670938440200,3.512440185546875,0.5085960033476352,0.5385094955742359,-1.6424954041033981
1726225670948476200,3.52247607421875,2.8327883077323435,-1.6324404585570096,-1.5467171085640787
1726225670958513000,3.532512939453125,4.731999296045303,0.5075497091650962,-2.0270694525934756
1726225670968549000,3.542549072265625,5.121778365832567,2.8464544295132157,-1.3920735132105648
1726225670978585000,3.552585205078125,2.3046873934477565,1.51666011621356,-1.1510013422042131
1726225670988622000,3.5626220703125,-0.2332593052983284,-0.7584060459524392,-1.391239400473982
1726225670998658300,3.572658203125,-6.088310444870591,-0.8518599901974201,-0.23457177613638341
1726225671008694300,3.5826943359375,-6.805445738279819,-0.5988625497281551,-0.6642553516149521
1726225671018730200,3.592730224609375,-4.785986906820535,-3.1593215245336292,-0.3369465473312884
1726225671028767200,3.602767333984375,-2.367182720327377,-3.1430507732123134,-0.1692314350891858
1726225671038803200,3.61280322265625,-0.1373462774634361,0.22493103741407394,-1.0888207803621888
1726225671048839200,3.622839111328125,-2.366931960436702,-0.612514642983675,-0.6208933258809148
1726225671058876200,3.632876220703125,-0.0013210194706916808,-1.6631500695973633,0.23153401587568223
1726225671068912000,3.642912109375,-0.44805882479846476,-1.173694820049405,-0.30815862506851555
1726225671078948000,3.652947998046875,-1.430989080929756,0.6340992828041315,0.7551637760955839
1726225671088985000,3.662985107421875,3.012716420337558,-2.380825461232662,0.15031893708743155
1726225671099021000,3.67302099609375,4.680200135225057,-1.675379436573386,-0.4467573137458414
1726225671109057300,3.683057373046875,5.503308662712573,1.3231015376627444,0.2053345026709139
1726225671119094000,3.693093994140625,3.4180180534273386,1.8795161077618598,-0.9934298767052591
1726225671129130200,3.703130126953125,1.2355828286856412,-0.038923897156119346,-0.763875198078528
1726225671139166200,3.713166259765625,0.4722732286006212,0.13238310209810733,0.22462657457478344
1726225671149203000,3.723202880859375,1.6371294931560754,0.7317027479439974,0.07970350518152117
1726225671159239200,3.7332392578125,-0.09049801704883575,0.380011709010601,-0.5677523950628935
1726225671169275100,3.743275146484375,0.7548533219069242,-0.8280255256235599,-0.2231836092248559
1726225671179311000,3.75331103515625,0.259914672511816,-1.8923036931425332,-0.06261354643180966
1726225671189348000,3.76334814453125,-1.5101298376619814,1.153019696289301,-0.5891126515429467
1726225671199384000,3.773384033203125,-2.1066122142553327,0.320702610951662,-0.22979418647103012
1726225671209420000,3.783419921875,-1.500037482714653,-1.3802028965443371,-0.18160459445007143
1726225671219457000,3.79345703125,-1.4449708445310592,0.45064767224788665,-0.0683804393954575
1726225671229493200,3.8034931640625,-0.5891986493259668,3.1460142991930247,-0.42337665735408664
1726225671239529200,3.813529296875,3.301394830518961,-0.5762070658057927,0.5809259110212326
1726225671249566000,3.82356591796875,2.188486195343733,-1.0126432573497295,0.07295534609556198
1726225671259602200,3.833602294921875,0.3227256412118673,2.058936855366826,-1.002904099754244
1726225671269638100,3.84363818359375,-1.95570152181983,1.0481868644177914,-0.12624715662635863
1726225671279675000,3.8536748046875,-4.007134869688749,-1.4363088146477936,-0.5194326007910073
1726225671289711000,3.863711181640625,-3.6985236785471436,-1.704402701961994,-0.9172381059717386
1726225671299747000,3.8737470703125,-2.884841151052713,0.08916998331546783,0.12950250516049563
1726225671309780700,3.88378076171875,-2.6047610578685996,0.9105477414876222,0.10114391422569752
1726225671319816700,3.893816650390625,-0.4065922574222088,1.2697867115825414,0.04948313896283507
1726225671329853000,3.90385302734375,4.538146118462086,-0.5016974760055541,0.43654096709266305
1726225671339889700,3.9138896484375,4.060254465457797,-1.1508780080854892,0.25669497981294986
1726225671349925600,3.923925537109375,1.3467898717641829,1.5494424418747423,0.20436375794261694
1726225671359961900,3.9339619140625,-0.6302735870361328,0.6543845304638147,0.7860499127466231
1726225671369997800,3.943997802734375,-2.333572127148509,-2.8293285226672884,0.6039699558697641
1726225671380034600,3.95403466796875,-4.205160364520549,-2.1800515444755555,-0.2459659343972802
1726225671390070800,3.96407080078125,-4.323655226519704,-0.817344557133317,-0.3656578241612762
1726225671400106800,3.974106689453125,-0.8737234469592571,-1.8952701417326927,-0.6368661902341991
1726225671410143700,3.984143798828125,0.692771252003312,-2.2873411218494177,-1.3727198473125695
1726225671420180000,3.994179931640625,1.768394989401102,1.3560375925809145,-1.2606621787540613
1726225671430216000,4.0042158203125,0.7643155622571707,2.577646840971708,-0.6790373987484722
1726225671440252700,4.014252685546875,0.9201917681455611,0.9220973095059394,-0.8414720133043825
1726225671450289000,4.024288818359375,-0.0675385817438364,-1.4926479569852351,-0.5259448322292417
1726225671460324900,4.034324951171875,-4.278433106002211,0.2582090376377106,-0.6459771329287439
1726225671470361600,4.044361572265625,-4.625749583113193,2.762235931125283,-0.3940632499124855
1726225671480397800,4.054397705078125,-2.0246189907014367,-0.32650223714113236,-0.6217322609230875
1726225671490433800,4.064433837890625,1.0812100130975246,-2.7420804473251104,-0.3802742324043065
1726225671500470500,4.074470458984375,1.0730354744702577,-0.09379764311611652,-0.582737271292135
1726225671510506800,4.0845068359375,1.332445704591274,2.779414444941282,0.030712241388857364
1726225671520543000,4.09454296875,5.0401510529816145,1.3793202684909105,0.6276753872364759
1726225671530579700,4.104579833984375,4.1507641729444265,-0.5899930145740508,0.4096610704082995
1726225671540615700,4.11461572265625,1.9996435393989085,2.472507719630003,0.8284054648518562
1726225671550652000,4.12465185546875,-1.3452110781401394,2.426555531272292,1.3260159638047218
1726225671560687900,4.13468798828125,-1.9079227025568484,-0.4489496361583471,0.6161344409160315
1726225671570724600,4.144724609375,-1.3273778998076915,-1.5576766017347574,0.20506927586346863
1726225671580760800,4.1547607421875,-0.18006138359606266,0.6066606562584638,-0.12499240732491015
1726225671590796800,4.164796875,0.42621231917142866,1.5546569616526364,-0.5412913083124905
1726225671600833500,4.17483349609375,-0.6083768125265836,0.6738520319998264,-0.9271760010097175
1726225671610869800,4.184869873046875,-0.07282324414849281,1.3384277016103268,0.43875813168548045
1726225671620905700,4.19490576171875,1.5986591849863527,-1.3166636135697365,0.17093823900707064
1726225671630942700,4.204942626953125,0.7725409542888403,-1.5993734707355498,0.7648550028961152
1726225671640978700,4.214978759765625,-0.11004676712751388,0.6497235529154539,1.8812039147183297
1726225671651015000,4.225014892578125,-1.4946628039389849,-1.297516430029273,1.404254218739271
1726225671661051600,4.2350517578125,-0.9497159687936305,-1.7975088556826113,1.3806877574518321
1726225671671087600,4.245087646484375,0.33749709388613697,-0.20109832640588282,1.7833705863453446
1726225671681123800,4.255123779296875,0.613600100132823,0.10004735116064548,0.9725944478169083
1726225671691160600,4.26516064453125,0.6645107876807451,1.0944570326834917,1.2763538150131701
1726225671701196500,4.275196533203125,1.5603040276288986,-0.204253575566411,1.318445528550446
1726225671711232800,4.285232666015625,4.368679778638482,-2.6150638406962154,0.554786603571102
1726225671721269800,4.295269775390625,4.915102531555295,-0.2952981205821037,-0.19371318459063766
1726225671731305700,4.3053056640625,-0.7834189066559076,2.370228663894534,0.5616512651761993
1726225671741342000,4.315342041015625,-0.022929624688625333,-1.0650532435446978,0.6104375079160556
1726225671751378000,4.3253779296875,-4.390023595440388,-3.4626761103212833,0.2595142019521445
1726225671761414700,4.33541455078125,-6.962531904479861,0.49508361082375046,-0.3958511197099462
1726225671771451000,4.345450927734375,-5.099527955579758,-0.6273112300992012,-0.12731533384714275
1726225671781486800,4.35548681640625,-3.1889012547612188,-1.154489184319973,0.008062091228738426
1726225671791523600,4.365523681640625,0.5992471651315688,1.164645836675167,-0.4280207203002646
1726225671801559800,4.375559814453125,3.9739620834052563,0.7345376791089773,0.9659213997937738
1726225671811595800,4.385595703125,2.4965450132995843,-0.18472762184143066,0.9075885263558476
1726225671821632500,4.395632568359375,1.2680804921865463,1.0705454112201929,0.509738560978882
1726225671831668700,4.405668701171875,0.26544600315392014,1.2832646173149347,0.9570729074276983
1726225671841705000,4.415705078125,-2.1297779857873915,-0.7793652473509312,0.3345381710153073
1726225671851741700,4.42574169921875,-2.8573563472777606,-0.3639911330580711,-0.09006554391570389
1726225671861777700,4.435777587890625,-2.4872224736809727,0.6261193899661303,0.08108973537553102
1726225671871814000,4.44581396484375,-1.4551502932399512,0.9888684140086174,0.0801688576709479
1726225671881850600,4.4558505859375,-0.778811705121398,1.5685902099370956,-0.3987978406863287
1726225671891886600,4.465886474609375,1.3460311623513699,1.380167825230956,-0.03911079803034663
1726225671901922800,4.4759228515625,4.532829307353496,0.22670739943683146,0.4005515524858609
1726225671911959600,4.48595947265625,0.6849094325870275,1.9280127199053763,-0.08344415301457046
1726225671921995500,4.49599560546875,-1.008522378027439,1.9929747291594742,-0.7123006397943943
1726225671932031700,4.50603173828125,-4.013779714530706,-1.8852327318429947,-0.24535949293673037
1726225671942067700,4.516067626953125,-6.104532680875063,-1.4589491010010243,-1.0183534516900776
1726225671952104700,4.526104736328125,-5.7297921902656554,0.24122867674231527,-1.1117680868379771
1726225671962140700,4.536140625,-1.9200901102125643,-0.9477198265403508,-0.3690521793073043
1726225671972177000,4.546177001953125,1.863608929055929,-1.9349457340389489,-2.0068958486147226
1726225671982213600,4.556213623046875,2.777121365568042,0.6346925725221634,-2.4724428377002474
1726225671992249600,4.56624951171875,3.0361890658617017,1.9069903901427983,-0.4808836013618856
1726225672002285800,4.576285888671875,1.353291508743167,1.1018670166790485,-0.5507896063568071
1726225672012322600,4.586322509765625,0.578392593151331,0.08628186065852642,0.0065284884532913565
1726225672022358500,4.596358642578125,-1.2956897991240024,-0.34156828884780405,1.449115396989882
1726225672032394800,4.606394775390625,-2.1737942376464603,-0.06799217073023318,1.3138093931823969
1726225672042431700,4.616431640625,-1.8807909500032662,-1.1197206532776356,1.4885595186278222
1726225672052467700,4.6264677734375,-0.7418313432484864,-1.012743210592866,1.5421287578605114
1726225672062504000,4.63650390625,-0.23314473900794982,0.5010726221054792,0.8959189121544361
1726225672072540700,4.646540771484375,-1.0820482174873352,0.8832885631620884,0.7351695472717285
1726225672082576600,4.65657666015625,1.6449012962013483,2.254043832403421,2.470097735878825
1726225672092612900,4.66661279296875,5.52798893046081,-0.7571627678930759,1.6532248879104852
1726225672102649600,4.676649658203125,2.6877269258469343,-1.2131260822057723,0.8039327023744582
1726225672112685600,4.686685546875,0.3584305763214826,2.034596779358387,0.8591301273308694
1726225672122721800,4.6967216796875,-1.3927017281115055,1.7771049500793217,-0.8571472098853439
1726225672132758800,4.7067587890625,-1.4011895704716444,-1.5517916353493928,-0.8634896377146244
1726225672142794800,4.716794677734375,-1.933608347955346,-1.9086913488417863,-0.9346952175334096
1726225672152830700,4.726830810546875,-1.9911089352875946,0.1122159278601408,-1.3107627189628779
1726225672162867000,4.736866943359375,-1.5407424180686473,0.5271785387426614,-0.4166784018244594
1726225672172903700,4.746903564453125,-0.2821352721482515,-0.384998849773407,0.002417600802052766
1726225672182939600,4.756939697265625,0.6501356408476829,-0.5535533354490995,0.518256944607757
1726225672192976000,4.766975830078125,-0.3837017957001924,0.19981237824857234,1.21177364468351
1726225672203012600,4.7770126953125,0.3991799353390932,0.7560638667404651,0.4613974681906402
1726225672213048600,4.787048583984375,-1.3018284480094908,-0.5043588041692972,0.3268625948861241
1726225672223084800,4.797084716796875,0.5783762265384197,0.36828912251293655,-0.03676094696857035
1726225672233121500,4.80712158203125,1.295434947580099,-0.7566618326336145,-0.7415634130273013
1726225672243157500,4.817157470703125,2.0091981342077254,0.4908347212076187,-0.1384340544338338
1726225672253193700,4.82719384765625,0.7476783157110214,0.7820785979628563,-0.44557994052954014
1726225672263230700,4.837230712890625,0.0533171641677618,-0.31864509389996526,-0.39228681482449174
1726225672273266700,4.8472666015625,2.023538794249296,-0.581850040128827,0.3441590359933674
1726225672283302700,4.857302734375,5.193167193263768,-1.811497049024701,0.5141942252134903
1726225672293339600,4.867339599609375,3.1974048792123795,-0.27716508252024646,0.9865274769056588
1726225672303379000,4.87737890625,1.4230752390652894,1.5863970847845077,1.4802863419316707
1726225672313415200,4.887415283203125,-0.12657821521162985,-0.3597340601354837,1.002292105335742
1726225672323452000,4.897451904296875,-2.678016263693571,-0.20701310340762138,1.6642989473715424
1726225672333487900,4.90748779296875,-3.8914883828580376,0.23819617717862127,2.09678932389915
1726225672343524000,4.917524169921875,-3.7366228153169154,-0.05347089342474937,0.9202007551696151
1726225672353560800,4.927560791015625,-1.8031220193892716,0.17182956182360648,0.23296293443394822
1726225672363596800,4.9375966796875,0.5920680672824382,-1.193687806764245,-0.42692905260603875
1726225672373633000,4.947633056640625,1.019848658683896,-0.8827437887609004,-1.1370090572088956
1726225672383669800,4.957669677734375,-0.9824351660907268,0.9711223294377327,-0.8991771102327852
1726225672393705700,4.967705810546875,-0.7635784801542759,0.7446919933766126,-0.9408755136035383
1726225672403742000,4.977741943359375,-1.3064748125106096,-1.2720593326896428,-0.7506655878935009
1726225672413778200,4.987778076171875,-1.6513012263715265,0.43005145894289015,0.039469329144433137
1726225672423815000,4.99781494140625,-0.659891311186552,0.8300438797086477,-0.786130649832636
1726225672433851000,5.007850830078125,0.7114695227324962,-0.5211106170058251,0.30327752022976057
1726225672443887000,5.01788720703125,0.5965759000957012,0.9963234061896801,-0.5668808363927528
1726225672453923800,5.027923828125,0.009266425517201422,1.9724375525653361,-0.7856655165389179
1726225672463959800,5.037959716796875,0.5335843141317367,0.5456593673288822,-0.3949238122645765
1726225672473996000,5.04799609375,2.7021967652261254,0.30179741947352884,-1.2011001288473606
1726225672484032800,5.05803271484375,0.168939685600996,1.1007295370817183,-1.6575198086254297
1726225672494068700,5.06806884765625,-0.6120177993774414,1.9822189418673515,-1.3741209462821482
1726225672504105000,5.07810498046875,-2.8165479515492913,-0.6682125648081302,-1.2410580452263356
1726225672514142000,5.088141845703125,-4.553889046517014,-0.3398573932766914,-0.672268416070193
1726225672524178000,5.098177978515625,-3.106512309888005,-0.4604530269473791,-1.0655670382857323
1726225672534214100,5.108214111328125,-1.810950521057844,-1.3388421276301146,-0.026888737577944993
1726225672544251000,5.1182509765625,-0.9186135590434074,0.7146025600612164,0.5030169611062855
1726225672554286800,5.128286865234375,1.2876269041776656,0.5864782844513654,0.2835548566225916
1726225672564323000,5.138322998046875,1.6117226646989582,-1.0610253032028674,1.4518280169494449
1726225672574359800,5.14835986328125,0.39095863496065136,1.4654682736366986,0.9889267931323498
1726225672584395800,5.158395751953125,0.546243304696679,1.842469110393524,0.814736274331063
1726225672594432000,5.168431884765625,-0.8083686389952898,-1.69031104824543,2.089705941509455
1726225672604469000,5.178468994140625,-3.422064698469639,0.09450608364641666,0.7144422549329698
1726225672614505000,5.1885048828125,-2.2486323287487027,0.9485621225833892,0.6074713881194591
1726225672624541000,5.198541015625,-0.009361702585220337,-1.6672224336028099,0.521309865904972
1726225672634578000,5.208577880859375,0.4283861560791731,-1.2462819173544644,-0.43765597912985826
1726225672644614000,5.21861376953125,-0.2832937945336103,2.5114216799139975,0.3096496673438698
1726225672654649900,5.22864990234375,0.7069494149595499,3.360917863589525,0.7168577916420996
1726225672664686000,5.23868603515625,2.9860230592012402,-0.6157774441719055,0.4128261468430981
1726225672674722800,5.248722900390625,6.227219149345159,-0.5722177039086819,1.002387674664706
1726225672684758800,5.2587587890625,4.158936373484134,1.7009043384522198,0.5691771671690047
1726225672694795000,5.268794921875,0.6418722548931837,3.490159745052457,0.6931145124830305
1726225672704831700,5.278831787109375,-2.7646137661725283,-0.15015315206646918,0.443336180190742
1726225672714868000,5.288867919921875,-5.020450327211618,-2.638166483864188,-0.07159945624088868
1726225672724904000,5.298904052734375,-6.045359191894531,-1.4632769010722637,-0.22050286397458985
1726225672734941000,5.30894091796875,-4.781804068177938,0.06842237884104252,-0.8729149070553481
1726225672744977000,5.318976806640625,-0.5210439815104008,-0.5564841282039881,-0.9257548091001808
1726225672755012900,5.329012939453125,2.927954901114106,-2.3017162686824797,-0.8103928382992744
1726225672765049900,5.3390498046875,2.376789337584376,0.9342471815049648,-0.7142179446578025
1726225672775085800,5.3490859375,0.5333797314703465,3.4595331361204384,0.025433168474771083
1726225672785121800,5.359121826171875,1.503075242975354,-0.11067629720270633,-0.4164966885820031
1726225672795158800,5.36915869140625,-1.4674305136203765,-1.6180612200707196,-0.3328749870434403
1726225672805194800,5.37919482421875,-2.461345689624548,0.9095669137567282,-0.15749792533870785
1726225672815230700,5.389230712890625,-0.9236731805205345,-0.525737692284584,-1.04062000936009
1726225672825268000,5.39926806640625,-0.06258943490386008,-2.0888462559401986,-0.4358136026661843
1726225672835304000,5.409303955078125,-0.24429624761939048,0.1575683967590332,-0.3898679901797324
1726225672845340000,5.41933984375,0.5575614020466804,1.6078712499678134,0.0827834606161341
1726225672855377000,5.429376953125,3.0302532460719345,-1.827235885426402,0.623633710630238
1726225672865412900,5.439412841796875,7.688060347703098,-1.530282398852706,0.37788456078879534
1726225672875448800,5.44944873046875,5.467742259290814,1.2944400913238525,0.7134677108123898
1726225672885485800,5.45948583984375,3.6634751615196466,2.705073197445273,0.026304727144911885
1726225672895521800,5.469521728515625,-0.4195493541508913,-1.3355769883543251,0.9367854678109288
1726225672905557800,5.479557861328125,-6.202667476412653,-1.1835241401463745,1.1998736557923257
1726225672915595000,5.489594970703125,-7.041613039979338,-0.7743366055339574,0.7594311512164771
1726225672925631000,5.499630859375,-5.149008318063617,-0.5247521883785724,0.47385045132208614
1726225672935667000,5.5096669921875,-1.877417674177885,-1.159255960330367,1.21695141264759
1726225672945704000,5.519703857421875,2.095301715689897,-0.3417214335829019,-0.5700751389220357
1726225672955740000,5.529739990234375,4.549048620748519,0.3996814551204443,0.0660716144638136
1726225672965776000,5.53977587890625,2.1377818440228697,0.8643342718452215,1.2045974694438277
1726225672975811800,5.549811767578125,1.3571569519996642,0.8434259238511324,0.6977383728913963
1726225672985848800,5.559848876953125,-1.0618968253403902,-0.7406219674587249,0.9392000546719879
1726225672995884800,5.569884765625,-2.610017663222551,-0.6657628335684538,0.8502877724446356
1726225673005920800,5.579920654296875,-3.004893763887882,-0.5787029742747545,0.29127313938234
1726225673015957800,5.589957763671875,-1.201850654953718,-0.5617115074634552,-0.14589052618592976
1726225673025994000,5.599993896484375,-0.29073943436443805,-0.03264554753899574,0.8446909753508866
1726225673036030000,5.610030029296875,-0.18119710962772367,1.5151280843406916,0.4102269971953705
1726225673046067000,5.62006689453125,2.9983722531646486,1.2020020461231469,0.7608406526882201
1726225673056103000,5.63010302734375,7.155479073134064,-0.38107086267471313,0.41161812276020643
1726225673066139000,5.640138916015625,3.2239415884822606,1.0998585994660854,0.2942105445411056
1726225673076176000,5.65017578125,0.9757435594975947,2.3857559033721683,-0.3420336413372308
1726225673086211800,5.6602119140625,-2.8704128127276896,-0.5102876096963882,0.2526367539307102
1726225673096247800,5.670247802734375,-5.473391663354635,-1.041760630762577,0.3359835475180298
1726225673106284800,5.680284912109375,-6.015273265710473,-1.1230261245638131,-0.4309981652084738
1726225673116320800,5.69032080078125,-3.7473850323498246,-0.6876759746909141,-0.498056343024224
1726225673126356700,5.700356689453125,-0.724866179922223,-0.3116279086142778,0.14681732217464596
1726225673136394000,5.71039404296875,1.3693214370459317,-0.2757359264999628,-0.0847797124672681
1726225673146430000,5.720429931640625,0.3952355816274881,0.42976445869505403,-0.02059161019511521
1726225673156466000,5.7304658203125,-0.4811047698318958,1.3705471794486046,0.9429416523531079
1726225673166503000,5.7405029296875,0.03227612970471382,0.21759178056716919,0.4193269070392474
1726225673176539000,5.750538818359375,-2.1218290726095437,-0.48998190377056594,0.35303945786766705
1726225673186574800,5.760574951171875,-0.8992366584002971,0.631629093298316,1.0388415284454822
1726225673196611800,5.77061181640625,0.44692076067924497,-0.6200093826532364,-0.15091018097884953
1726225673206647800,5.780647705078125,0.17850129467248915,0.28626375025510786,0.009733202778734266
1726225673216683800,5.790683837890625,-1.3555927714228628,1.6946575530171393,0.7999021316841244
1726225673226721000,5.800720947265625,-1.0993541570752858,2.002626354601979,-0.2927878913268447
1726225673236757000,5.810757080078125,2.235487600493431,0.6811462806612253,0.7608509548865259
1726225673246793000,5.82079296875,6.1199453540623185,-0.2424608488857746,1.5227436739109457
1726225673256830000,5.830829833984375,2.9638480522722004,1.599768607532978,1.1438489862315355
1726225673266866000,5.840865966796875,0.7976455849289894,2.690444368112087,1.3927359226420521
1726225673276902000,5.85090185546875,-3.315359058463573,-0.9150047208964824,1.100022046399489
1726225673286939000,5.86093896484375,-6.418028721448779,-2.216427510714531,1.4613304431796073
1726225673296974800,5.870974853515625,-6.016889468735456,-2.139943405970931,1.2511277499504387
1726225673307007200,5.88100732421875,-4.291114892920851,-0.8189403018921613,0.8621011790309101
1726225673317044200,5.891044189453125,-0.8121545872747897,1.0910217975378036,0.23723010862544178
1726225673327080200,5.901080078125,2.668103941488266,-0.6545785917311906,-0.3130724083341658
1726225673337116200,5.9111162109375,4.784391162061691,-0.1693318997889757,-0.5364107697293162
1726225673347153400,5.9211533203125,1.8457576305449008,2.859703202664852,-0.6555959520801902
1726225673357189400,5.931189453125,1.0942840142041443,2.1482845333367586,0.1032966718127951
1726225673367225300,5.941225341796875,-1.106107138466835,-1.7646242386907338,0.3199918323338032
1726225673377261300,5.95126123046875,-3.2341005789250135,-1.29699971267879,1.2718668788574636
1726225673387298300,5.96129833984375,-3.1074919685751197,0.22945114518702028,0.5608222304735332
1726225673397334300,5.971334228515625,-1.6939263161331415,-1.8549743717014788,0.498819144090265
1726225673407370200,5.981370361328125,-1.1263321803718804,-1.3510896147847176,0.7225812838554382
1726225673417407200,5.9914072265625,-0.1012929673075676,2.2185195145577192,-0.9900055282797664
1726225673427443200,6.001443115234375,3.662944415643811,1.1177040527582167,-0.36303869117144494
1726225673437479200,6.011479248046875,9.51320656737387,-0.6052268240630626,0.22031232810486107
1726225673447516400,6.021516357421875,7.362154322889447,1.2382955947756766,-0.524508735011518
1726225673457552400,6.031552490234375,4.1319811465412375,3.553956802180409,0.3905610504778102
1726225673467588400,6.04158837890625,-0.731820821365714,0.6137158354669809,0.7098396565083414
1726225673477625300,6.051625244140625,-5.335265049168467,-2.0549106685906646,-0.11838833288475871
1726225673487661300,6.061661376953125,-7.361790165752172,-2.966502366173267,0.7230763008307665
1726225673497697300,6.071697265625,-6.067862115603685,-1.1316636045277118,0.17636912321569398
1726225673507734300,6.081734375,-2.8938860427737234,-0.5248457118809223,-0.503121809720248
1726225673517770200,6.091770263671875,1.7306652704656122,-1.6844336806446314,-0.4346331607099622
1726225673527806200,6.10180615234375,5.875437509518862,-0.25981764187812806,-0.9704170307125896
1726225673537843200,6.11184326171875,4.862008654749393,3.7953964913249014,-0.4289554438671097
1726225673547879200,6.121879150390625,3.5679660383105274,4.810560791584849,-0.4320144661115482
1726225673557915100,6.1319150390625,1.4011071528851986,0.3692687812000513,0.04877002225741744
1726225673567952400,6.141952392578125,-3.7269951552718874,0.17874094864726064,0.3517949376992881
1726225673577988400,6.15198828125,-6.647912997356057,1.3467840265452862,-0.5869824345812201
1726225673588024300,6.1620244140625,-4.63670235428214,-1.5360212347656488,-0.40099016309883445
1726225673598061300,6.172061279296875,-3.379444869405031,-2.7880238678544758,-0.8789419122599065
1726225673608097300,6.18209716796875,-2.033828717595339,0.8279460306465626,-2.0006056624293325
1726225673618133200,6.19213330078125,3.4425293943494557,1.637740318530798,-1.1498751877184956
1726225673628170200,6.202170166015625,6.336381534853577,-0.8300222523987293,-1.110463580110669
1726225673638206200,6.212206298828125,2.8721546879589557,1.5981436366796493,-0.9913631534337997
1726225673648242200,6.2222421875,1.8961533543080091,2.2477187210351226,-0.5703858123064041
1726225673658279400,6.232279541015625,-1.4059604381352662,-1.0167518617123366,-0.15716094846930354
1726225673668315400,6.2423154296875,-4.224699177727103,-1.4480565355867148,-0.5270210100933909
1726225673678351400,6.252351318359375,-5.5964569020092485,-1.4085101226180792,-0.5247043671814724
1726225673688388400,6.262388427734375,-4.727202709418535,-0.6627496232271194,-0.648298488548398
1726225673698424300,6.27242431640625,-3.4690164192587134,0.3773053726613521,-0.6413922893565148
1726225673708460300,6.282460205078125,0.4451724557071924,1.2236650118768215,-1.375372992169857
1726225673718497300,6.292497314453125,1.3070131571710109,-0.6939455564796925,-0.6685990068424492
1726225673728533200,6.302533203125,0.9355325451403855,-0.32308570669591424,-0.46364868118353186
1726225673738569200,6.3125693359375,0.2461597034037113,0.5078454772412777,-0.05889839836619794
1726225673748606500,6.3226064453125,-0.9711457103133201,-0.8310153550893068,0.9241042654141783
1726225673758642400,6.332642333984375,-1.330107617032528,-1.563051865032315,0.43443610376790165
1726225673768678400,6.342678466796875,-1.5086860685944556,-1.1034943256199359,0.69976432576105
1726225673778715400,6.35271533203125,-0.6403016445755958,0.03679682199954987,0.36863121394887566
1726225673788751400,6.36275146484375,-0.8552128077566623,0.7572574604392052,-0.493430655984953
1726225673798787300,6.372787353515625,-0.21321838778853416,2.059828251248598,0.45556116325259205
1726225673808824300,6.38282421875,2.74678058784008,0.5355418779402971,0.34979280409663915
1726225673818860300,6.3928603515625,2.9856723460674286,-0.5100871186882258,0.8886573236536234
1726225673828896300,6.402896240234375,0.0010270049601793288,2.1944658542752267,0.464200835173577
1726225673838933200,6.412933349609375,-0.3315969299316406,1.928414286443591,-0.4570115081913769
1726225673848969200,6.42296923828125,-0.6612848113715648,-1.4361977554887533,-0.20173925465792417
1726225673859005200,6.433005126953125,-1.7915981703341006,-1.0909382109075785,-0.503852754343301
1726225673869042400,6.44304248046875,-2.014085321727395,0.9873387202233076,-0.7498070713680237
1726225673879078400,6.453078369140625,-0.9779974759042263,0.3008943331539631,0.1050708053458482
1726225673889114400,6.4631142578125,-0.6588228051722049,-0.4168582153707742,-0.01570851432867348
1726225673899151400,6.4731513671875,0.12287760712802409,2.3159113827735185,0.01178374210037291
1726225673909187300,6.483187255859375,2.658083482733369,1.7871160564839839,0.45790918768346306
1726225673919223300,6.493223388671875,2.346296584165096,-0.8799854299634694,0.2845483977045864
1726225673929260300,6.50326025390625,1.6097919888973236,1.1302636746019123,0.621983678400889
1726225673939296300,6.513296142578125,0.2667997558504343,1.8070178577840328,0.38044388988278804
1726225673949332200,6.523332275390625,-0.739422528541088,-0.630299305999279,0.448926036087051
1726225673959369500,6.533369384765625,-1.2484604304373264,-0.9871253697335719,0.572075336295925
1726225673969405400,6.543405517578125,-0.9200175806224345,0.4040419884175062,0.09843702988717705
1726225673979441400,6.55344140625,-1.2195324421167373,-0.07706628854572772,-0.016271007049642502
1726225673989477400,6.563477294921875,-1.386698688304424,1.2043407182037829,0.08255787169933318
1726225673999514400,6.573514404296875,1.314079442295432,1.2977782958358526,0.20642302855998276
1726225674009550300,6.58355029296875,2.798538832128048,-1.6558260103195905,0.15186412070281802
1726225674019587300,6.59358740234375,1.9303192432820795,-0.36924423128068445,0.05353241435363888
1726225674029623300,6.603623291015625,1.5299708486855028,1.393726394984126,0.6117222504969686
1726225674039659300,6.6136591796875,1.150274196973443,-0.5880395424187183,0.052232474203594025
1726225674049695200,6.6236953125,0.8929670766115189,-1.6475737302809952,-0.3647391018811613
1726225674059732500,6.633732421875,0.07926876702606678,-0.2568734051197767,-0.20408852119781076
1726225674069768400,6.6437685546875,-1.1809323700875043,-0.40992929289042945,-0.6888583894085138
1726225674079804400,6.653804443359375,-1.3253121994495392,-0.8758300638496875,-0.7680660008318722
1726225674089841400,6.66384130859375,-0.5962222643524407,-0.7720815200835466,-0.17560944568850098
1726225674099877400,6.67387744140625,1.100042139339447,-0.7243401102215051,0.17338007920123635
1726225674109913300,6.683913330078125,1.2885253143221138,0.059521279504895205,-0.553553481579572
1726225674119950300,6.693950439453125,0.6977081238836049,1.8132646432191133,-0.2799501831941306
1726225674129986300,6.703986328125,0.6329466056376696,-0.5612748696118592,-0.04732398816756904
1726225674140022300,6.714022216796875,-1.9572201096892357,-2.161266179984808,0.08529635675251483
1726225674150059300,6.724059326171875,-3.504959839299321,0.8500187462449074,-0.21498167113400996
1726225674160095200,6.73409521484375,-2.458551674991846,-0.2397773088902235,0.30064130824096497
1726225674170131200,6.744131103515625,-1.008268695527315,-1.4675877500087022,0.04161225945726037
1726225674180168400,6.75416845703125,0.1992904002010822,0.14803601378202438,-0.11693141207471489
1726225674190204400,6.764204345703125,1.8926386241853237,1.6555892789542674,0.20655038126669822
1726225674200240400,6.774240478515625,2.1066683283567427,-1.0847142218261956,0.7170300064038485
1726225674210277400,6.78427734375,0.7243535542249679,-0.8284896360039711,0.25598975415304304
1726225674220313300,6.794313232421875,2.2001228571236133,1.2876029387801884,0.7794068214703351
1726225674230349300,6.804349365234375,-2.5287211897611614,-0.41255730330646034,1.3758069996729492
1726225674240386300,6.81438623046875,-3.380392379388213,-0.28911621707677837,0.3149444127511233
1726225674250422300,6.82442236328125,-4.77077764725089,-2.3223270950347183,1.5840720028378068
1726225674260458200,6.834458251953125,-10.265489162009954,-1.1447767686009407,1.4846017209127544
1726225674270495500,6.84449560546875,-6.645206076484918,-1.780159076952934,0.8739389163408428
1726225674280531500,6.854531494140625,-1.0418547387868164,-1.5950602837115526,-0.3490287609215826
1726225674290567400,6.8645673828125,0.8037532541543245,0.3485013029813766,0.7721049009591341
1726225674300604400,6.8746044921875,6.599748978167772,0.8004384305179119,-0.2867515337720513
1726225674310639600,6.8846396484375,9.444228308215736,1.006310547196865,-0.15127404585517942
1726225674320675600,6.894675537109375,5.070445653480291,2.4005413845717904,0.5111338877948001
1726225674330712800,6.904712890625,7.128900862810015,2.240074928283691,0.7076015952579676
1726225674340748800,6.914748779296875,-1.7128946359753607,0.4332078771471977,0.7453112943187356
1726225674350784800,6.92478466796875,-6.351947352775931,0.9747972185581922,0.36761100405566394
1726225674360821800,6.93482177734375,-5.520684744927287,-2.6385645432710647,0.2773609338859096
1726225674370857700,6.944857666015625,-1.142663137447834,-1.2664707189023494,-0.3712819476533681
1726225674380893700,6.954893798828125,-0.3556576044768095,1.71198219730556,-0.5678688610494137
1726225674390930700,6.9649306640625,1.8899100760042666,1.6405869401335715,-0.2595758324788883
1726225674400966700,6.974966552734375,1.5771657305806874,0.345449514195323,-0.7970872203938663
1726225674411002600,6.985002685546875,0.7147609654933214,3.172465083745122,0.1403421348111704
1726225674421039600,6.99503955078125,0.5365209521055221,2.0247861639618874,1.3305407477527855
1726225674431075800,7.005075927734375,-6.737071290233731,-0.5916524722188711,0.4726972261663526
1726225674441111800,7.01511181640625,-5.585048203766346,-1.2818266934663056,0.9852924552179873
1726225674451148800,7.025148681640625,-3.5937481298208236,-2.435893268460035,0.7553639017775654
1726225674461184800,7.035184814453125,-5.113951617729663,0.232983995488286,0.27454463435616344
1726225674471220700,7.045220703125,2.393061842471361,0.5116963074505329,0.27584636460449546
1726225674481257700,7.0552578125,5.071788884782791,-1.5041794048249721,0.24764742121081798
1726225674491293700,7.065293701171875,4.818122166749835,2.0539333479911086,-0.4491933087211102
1726225674501329700,7.07532958984375,2.794261885461211,2.1802210558235644,0.22304142427518964
1726225674511366700,7.08536669921875,-0.31844460289180276,0.3928764512807131,-0.828202635756135
1726225674521402600,7.095402587890625,-4.190238689720631,-2.175173124784231,-0.39231352016832677
1726225674531438600,7.1054384765625,-4.727850359672308,-0.5260919125497341,-0.3775729740889743
1726225674541475800,7.115475830078125,0.45957507506906986,-1.4124281728446484,-2.0673703371912238
1726225674551511800,7.12551171875,2.5714228518903255,-0.2678793677806854,-1.3948559835359453
1726225674561547800,7.1355478515625,7.586684378287195,1.616969333180785,-0.9003745763890445
1726225674571584800,7.145584716796875,4.937530636462569,2.78689632512927,-1.8551716478392482
1726225674581620700,7.155620849609375,5.237306779241561,3.1820027274191376,-0.7398780172236263
1726225674591656700,7.16565673828125,-1.1142267320364714,-1.708783693525195,-0.001342865976318717
1726225674601693700,7.175693603515625,-5.8477434469074,-2.1278549087703227,-1.0153124765589832
1726225674611729700,7.185729736328125,-9.608126492518187,-4.764800326406956,1.685433797597885
1726225674621765600,7.195765625,-5.782306221356988,-4.184817833715677,1.3946946554943918
1726225674631803000,7.205802978515625,-2.1164654997497796,-3.2596377557635305,-0.10585548945013433
1726225674641838800,7.2158388671875,3.3883553210914132,2.079692058625817,-1.6361654704295099
1726225674651875800,7.225875732421875,8.161209190094471,0.36098610602319237,-1.8935593922920524
1726225674661911800,7.235911865234375,-0.7609341031253337,3.135145699176192,-1.240540451093018
1726225674671947800,7.24594775390625,-2.4840911899179217,3.5225346589565274,-1.106080834981799
1726225674681984800,7.25598486328125,-1.9676321981102227,-0.5686147109806537,0.03186279966346919
1726225674692020700,7.266020751953125,-2.300328613716364,-2.7320664183109997,-0.09110087831281125
1726225674702056700,7.276056640625,0.03400456093251705,-1.125107607012987,-0.12894406756013632
1726225674712092700,7.2860927734375,1.0409650964707136,-0.44239831481873987,1.2728317783668637
1726225674722129700,7.296129638671875,-1.6933014622330664,0.679503774151206,0.9678518563997
1726225674732166000,7.306165771484375,3.0944507006943223,2.358153026175499,-1.2606577948398887
1726225674742201900,7.316201904296875,-0.7834528089255094,0.7036947970777749,1.2586466011479496
1726225674752238800,7.32623876953125,1.4133189842045306,-0.3308826441824436,1.1950516424633562
1726225674762274800,7.33627490234375,-1.4130033423841,-2.3505460583031175,1.864851038071513
1726225674772311800,7.346311767578125,-0.48686231044530864,2.2619787170559165,0.43757885877303776
1726225674782347800,7.35634765625,0.40816929748058317,1.7192542341351509,0.41998467682823537
1726225674792383700,7.3663837890625,7.662365349954366,-4.678492162263393,2.0897367750391362
1726225674802420700,7.376420654296875,1.1015279939830303,-3.073117405286431,0.8749456091653555
1726225674812456700,7.386456787109375,-4.695056928095221,5.817035004910826,-1.3578724067926407
1726225674822492700,7.39649267578125,3.738555244684219,2.4918501334816217,-1.8123657946832477
1726225674832529700,7.40652978515625,1.699516683486104,-2.6841549125790594,-1.1360402852419764
1726225674842566000,7.41656591796875,-3.207930949401855,-1.0610422543376683,1.0961536805335432
1726225674852601900,7.426601806640625,-5.606735134917497,4.968940504726767,0.5698861191559582
1726225674862638600,7.436638671875,-5.017185187935829,1.3908768507719038,-0.5876908751115203
1726225674872674800,7.4466748046875,3.679306352379918,-4.916880062621831,-0.09727598675116896
1726225674882710800,7.456710693359375,2.573730544310808,-3.059837067952752,-0.964140799987316
1726225674892747500,7.46674755859375,-3.088332510074973,4.793564064076542,-2.1365724682331084
1726225674902783700,7.47678369140625,-1.5226011967003346,4.207819354596734,-1.4082219533264637
1726225674912819700,7.48681982421875,3.6849241922616955,-4.137160010483861,-0.7737645777996629
1726225674922856700,7.496856689453125,-3.4334079302608966,0.7027823584079742,-0.9582193740490823
1726225674932892700,7.506892578125,-8.344327623173594,6.901431246829032,-0.41254247106350955
1726225674942929000,7.516928955078125,2.6600521524578333,0.5732780266165733,0.4984419082757085
1726225674952965600,7.526965576171875,6.022916473940015,-7.596845122295617,-0.26250249704793094
1726225674963001900,7.537001953125,1.933874889937043,-0.6956482687443495,-0.627016923327744
1726225674973037800,7.547037841796875,-3.4226685095816847,5.681054170581698,-0.5076408945798874
1726225674983074600,7.557074462890625,-3.5029350554734466,1.8967536582887172,0.36597609633021055
1726225674993110800,7.56711083984375,-0.7042454166978597,-5.910079199311137,-0.5279198586292565
1726225675003146800,7.577146728515625,-0.6310580154120922,-1.3828729925364256,-2.252447503122687
1726225675013183500,7.58718359375,-4.435675339546799,4.550455564936995,-0.054399771772697565
1726225675023219700,7.5972197265625,-0.16163491554558276,3.6980806109547615,-0.6695093996856362
1726225675033256000,7.607255859375,4.5316672778367995,-3.0851947965711353,0.3166455175805837
1726225675043292700,7.617292724609375,3.606610534003377,-1.8975649746716021,-0.03220540255606174
1726225675053328600,7.62732861328125,3.20445304415822,0.5620318254590034,-0.2388639934375882
1726225675063364900,7.63736474609375,-3.2833237517774103,3.7063176934242246,-0.09072298491112887
1726225675073401600,7.647401611328125,-3.1239059277594086,3.119164870712161,0.33972098048068583
1726225675083437600,7.6574375,-2.213233683109283,-3.2876170650571583,1.5968305082544683
1726225675093473800,7.667473876953125,-3.2528134627014396,-6.38488633030355,0.9081533206317574
1726225675103510500,7.677510498046875,-3.58319867875576,-0.10200082331597804,-0.5023346779305488
1726225675113546500,7.68754638671875,1.3166279577344655,3.010398206523061,-0.42248621132038533
1726225675123582700,7.697582763671875,2.911690579533577,-2.145506885316968,-0.7753837034340948
1726225675133619700,7.70761962890625,3.491792899212241,0.05415887568891048,-0.7891956634264439
1726225675143655700,7.71765576171875,1.6484639571189879,3.70227923168838,0.28893216574676334
1726225675153691600,7.727691650390625,-1.755384701180458,5.0811488338023425,-0.6798303026918322
1726225675163728600,7.737728759765625,0.47479894768595693,-0.4611883554846048,-0.1226986703645438
1726225675173764600,7.7477646484375,0.16520809785723686,-6.86766107917428,-0.017435849577933548
1726225675183800600,7.757800537109375,-7.493988558933139,1.1183622244060039,0.9802425514172762
1726225675193837600,7.767837646484375,-5.1653006966948505,7.17648620532751,-0.02266023316271603
1726225675203873500,7.77787353515625,1.142823296445608,-2.1900585592269897,-1.7663989932782946
1726225675213909500,7.787909423828125,8.869661995354294,-8.14463039573729,-1.4791232895016668
1726225675223946800,7.79794677734375,3.121265057861805,-0.14493863228857518,-0.3025781945876777
1726225675233982700,7.807982666015625,-4.140016568958759,5.925494795107841,0.4368298670366406
1726225675244018700,7.818018798828125,-2.1284768400609493,3.8884915391296144,1.080154439629987
1726225675254055700,7.8280556640625,0.9135188662528991,0.6616250031113624,0.40373679492585357
1726225675264091600,7.838091552734375,3.7688925152808426,-4.377573863711953,-0.36920594509690996
1726225675274127600,7.848127685546875,-2.325351411291957,-0.8244839074939488,-2.1395567447409034
1726225675284164600,7.85816455078125,-2.4955261916458604,3.111212450402975,-1.65607881603688
1726225675294200600,7.86820068359375,-1.6825369071125984,0.4774187747955322,-0.6610148353237658
1726225675304236500,7.878236572265625,6.493607986307143,-3.195914932915568,-0.09318265302293002
1726225675314278000,7.88827783203125,2.2639485558241605,-0.9644599489390849,0.0031168899115175007
1726225675324313900,7.89831396484375,-1.1140157196342944,4.332227824553847,0.6927264630135148
1726225675334350000,7.90835009765625,0.5106704715341329,2.6411568978518245,1.3895926561802625
1726225675344387000,7.918386962890625,0.3555138120919466,-1.1111883872538804,0.7694684880409389
1726225675354423000,7.928423095703125,1.5063549952983855,-4.20819987834692,0.5685402575049548
1726225675364459000,7.938458984375,-0.7712041527271271,-0.49410687474608417,-1.8371410472385585
1726225675374496000,7.94849609375,0.13300386434495448,4.279530838111043,-1.919955524047464
1726225675384532000,7.958531982421875,-0.9343009575188159,-1.7724492332279682,-0.3555175384189933
1726225675394568000,7.96856787109375,3.539649459886551,-5.138135041871666,0.6212807908285409
1726225675404605000,7.97860498046875,-4.080443267005681,2.217260454407334,0.6996338312491774
1726225675414641000,7.988640869140625,-3.629736558046937,7.000881801140308,1.128485266752541
1726225675424678100,7.99867822265625,2.2634061195105315,-4.574964567771554,0.48383572916574774
1726225675434714000,8.008714111328125,1.749535975152254,-8.063730228117107,-1.9051161207035183
1726225675444750000,8.01875,-4.434716723647713,0.7172656417906283,-1.4913085250750182
1726225675454787000,8.028787109375,-2.1737655960738658,6.036881870928406,-1.3885463619977234
1726225675464823000,8.038822998046875,1.0805255379647016,-2.3092174380928276,-1.4793632357373834
1726225675474859000,8.04885888671875,4.171825081151724,-4.708140281552076,-1.2252376680210233
1726225675484896000,8.05889599609375,2.026271434083581,1.0561796167373656,-0.10594780737608671
1726225675494932000,8.068931884765625,-5.347603137215971,6.887069543999433,1.3215240592129527
1726225675504968000,8.078968017578125,-0.14069909502267836,1.3509160117834806,0.4489603767480701
1726225675515005000,8.0890048828125,3.821491886568069,-7.077766887900233,1.8589573038578033
1726225675525041200,8.099041259765626,-1.4513222593843935,-1.1586550718277693,0.45327787462100383
1726225675535077000,8.1090771484375,-6.593086597669124,5.1035816148847335,-1.0908075702652336
1726225675545114000,8.119114013671876,-1.2677958300262688,0.7951549371570348,0.15724047997891902
1726225675555150000,8.129150146484376,4.961115510189533,-5.993264262998104,-0.25436726751774547
1726225675565186000,8.13918603515625,0.9900853885829448,-0.12104513100385665,-2.0041198080301283
1726225675575223000,8.14922314453125,-3.3355566278398037,5.9454784294724465,-0.7093851176738739
1726225675585259000,8.159259033203124,2.935023524326086,1.641813267058134,-1.5007634589016436
1726225675595295000,8.169294921875,4.254965136653184,-5.112268194687366,0.34972653392739594
1726225675605332000,8.17933203125,-4.239412762734294,-1.2150912447988986,0.5075814194776117
1726225675615368000,8.189367919921875,-6.946492623826861,5.375260959470272,-0.17901640458777546
1726225675625404000,8.19940380859375,-1.8050737379789352,1.552149362745881,0.7702006747730076
1726225675635441200,8.209441162109375,1.6070704549789427,-5.188789708831906,2.3109487919300795
1726225675645477000,8.21947705078125,2.9425439829587936,-2.057656752428412,0.4948234255176037
1726225675655513000,8.22951318359375,-4.094124001833796,4.1548225084245205,-1.170071003529057
1726225675665550000,8.239550048828125,3.810436824068427,4.0685225275874135,-0.6278915872704237
1726225675675586000,8.2495859375,6.947433119547367,-0.9028583560287952,-0.5982884031020105
1726225675685622000,8.2596220703125,2.2653251048743726,-0.4829278936058283,0.9002508769441395
1726225675695659000,8.269658935546875,-6.052061904403567,1.5006202510386704,1.9493430927038191
1726225675705695000,8.279695068359375,-8.468145726022124,2.07315944198668,0.2521782330408692
1726225675715731000,8.28973095703125,-5.259734884148836,-2.0782775156527755,0.9545729073055088
1726225675725768200,8.299768310546876,1.0367542007774113,-3.7508541697651148,1.2649281656354665
1726225675735804200,8.30980419921875,2.3468846131861207,-0.23009353474378585,0.1018405181877315
1726225675745841200,8.319841064453126,0.9108417559981346,0.20946809534430502,0.04079663222543895
1726225675755877000,8.329877197265626,1.1230033282101153,0.9597796821683645,0.1969463212929666
1726225675765913000,8.3399130859375,2.5373639304220674,2.750415729472041,-0.7044848514769226
1726225675775949000,8.349948974609376,0.3106266226172447,1.8517127395570276,1.4568974291682242
1726225675785986000,8.359986083984374,2.704242591840029,-3.3738229378700253,2.6578862065955997
1726225675796022000,8.37002197265625,-3.708131464847922,-2.460034607025981,0.4733608046416193
1726225675806059000,8.38005908203125,-5.116715237224102,4.424362502893805,0.7524069516681134
1726225675816095000,8.390094970703124,0.2220125196188688,1.9928192463368177,-0.27078451463766395
1726225675826131200,8.400131103515625,5.360949525523186,-6.6351300881505,0.5334346765279769
1726225675836168000,8.41016796875,1.9875369220197199,-3.817532919809222,1.6756591302976012
1726225675846204200,8.4202041015625,-1.7642594970315695,4.580445629531145,0.4036304484745487
1726225675856240000,8.430240234375,-0.8770996453940868,6.5713657642483705,0.06120861153732985
1726225675866276900,8.44027685546875,6.601005700230598,-2.2816917177855967,-0.010246412997879087
1726225675876313000,8.45031298828125,3.4583296055495736,-6.406279246944188,0.5239766739614308
1726225675886349000,8.46034912109375,-1.633161758568883,3.232573807749152,0.34314328307956454
1726225675896385800,8.4703857421875,-3.263538270333409,5.469338004049659,0.628206717634201
1726225675906422000,8.480422119140625,4.267872549021244,-3.801822140458226,-0.012489296553842722
1726225675916458000,8.4904580078125,3.1524031234472987,-6.114140467175841,0.956127004879713
1726225675926495000,8.500494873046875,-5.246743300628662,1.9258727852672337,1.8622822104968129
1726225675936531000,8.510531005859375,-6.547918253165483,6.255556770557165,0.31932598883621394
1726225675946567200,8.520567138671876,-2.780527374619245,-1.3800819005131721,0.38336788757070894
1726225675956604000,8.53060400390625,6.013434359845519,-6.7170671976029865,0.39997620028331876
1726225675966639900,8.540639892578126,0.6591840397000313,-1.6467326032817362,1.9426997091665863
1726225675976676000,8.550676025390626,-4.486059957394003,6.3935051055669785,1.0944643392071127
1726225675986712800,8.560712890625,2.7567116147458552,1.656459047526121,-0.6565433159328997
1726225675996748800,8.570748779296874,9.594571429896353,-5.176352252063155,-0.9472559353556483
1726225676006785000,8.580784912109374,-1.8919909739315508,-0.7496241890817881,1.7891839487992227
1726225676016822000,8.590822021484374,-9.716388129794597,6.2829959816247225,-0.22272976451013235
1726225676026858000,8.60085791015625,-6.534007801234722,0.3260369577169418,-1.0682590538486838
1726225676036894200,8.610894287109375,-0.14426760115921497,-4.490923764038086,0.02493081300978083
1726225676046931000,8.620930908203125,4.8290229154706,-4.820730887943506,0.5158320190157741
1726225676056967000,8.630966796875,-0.9268564867317676,3.6973844453841447,2.793380426451564
1726225676067003100,8.641003173828125,4.229617929428816,2.05477096785903,0.5121932241220027
1726225676077039900,8.651039794921875,5.440283759000897,-3.4644249998152254,-1.0513140565276144
1726225676087075800,8.661075927734375,0.29109014749825,-1.218809388539195,0.6355098071891814
1726225676097112000,8.671112060546875,-9.148497641435265,2.437646834129095,0.43306240426190196
1726225676107148800,8.681148681640625,-4.224519729506969,-0.22841887952983378,-1.3640046259373426
1726225676117184800,8.691184814453125,-6.140649119395017,-1.467306594979763,0.15022702102027832
1726225676127222000,8.701221923828125,0.8457879768073558,-2.602254043483734,-1.952783442416042
1726225676137258000,8.711258056640625,1.3866390670716762,-0.5205722723454237,0.17803057188820093
1726225676147294000,8.7212939453125,3.11099793086946,3.5329648675560947,1.9238053313434123
1726225676157331000,8.7313310546875,4.473618408972024,2.1444073996424673,-0.5464761636044829
1726225676167367000,8.741366943359376,0.6572592091172933,-0.5215390715509652,-0.3928521205570549
1726225676177403000,8.75140283203125,-0.9462409861594439,0.17349135755598544,0.9031483519513159
1726225676187439900,8.76143994140625,-4.735761278927326,1.5156892253547907,-0.2071428307345137
1726225676197475800,8.771475830078124,-5.463568188476562,1.564241951599717,-0.3022761246348731
1726225676207511800,8.78151171875,1.111446745929122,-0.6544798075318337,-0.09135456994608976
1726225676217549000,8.791549072265624,5.834986841186881,-1.8793296452790498,-0.4789404314048588
1726225676227585000,8.8015849609375,2.6159306866586207,2.438679684308171,0.09207298388113268
1726225676237621000,8.81162109375,-1.7280594718813895,5.929713874107599,1.1197496601764112
1726225676247658000,8.821657958984375,-5.305836710110307,-0.8567419170200824,1.7797291611030697
1726225676257694000,8.83169384765625,-6.892242562723159,-4.252749798691273,0.7942826113019138
1726225676267730000,8.84172998046875,-4.2288697414100165,-0.9422931253165006,-0.10534204176897183
1726225676277767000,8.851766845703125,0.859275234889984,2.362128944069147,0.053394289091159584
1726225676287803000,8.861802978515625,2.4857827962666748,-2.111338073733449,-0.6891383023284375
1726225676297838800,8.8718388671875,3.274698546773195,-0.20890520076453684,-1.5235488528139889
1726225676307875800,8.881875732421875,-1.7557359988361596,3.730191320964694,1.0597652201391756
1726225676317911800,8.891911865234375,0.9355132559180259,1.134662201821804,0.7869370708446949
1726225676327947800,8.90194775390625,1.4005050953388214,-3.5281834784984585,-0.6164951639872044
1726225676337985000,8.911985107421875,2.3230787901848555,-2.0846616637319326,0.14052716338871976
1726225676348021000,8.92202099609375,1.6216875938743351,1.4389140287101267,-0.7073289888616651
1726225676358057000,8.932056884765625,0.6583072568655014,2.574306298372149,-1.347341660428047
1726225676368094000,8.942093994140626,1.202813362506032,-0.9380360523939132,-0.0679078169150278
1726225676378130000,8.9521298828125,3.6105846983313556,-0.5342249501228332,-1.5777853237837551
1726225676388167000,8.9621669921875,0.06277414382100105,3.9020986241996285,-1.0177490560561417
1726225676398203000,8.972202880859374,0.19278291800320146,1.6332289785861969,1.806341127566248
1726225676408238800,8.98223876953125,1.7496522950083016,-3.6967274427801367,0.26443311805063857
1726225676418275800,8.99227587890625,-4.105405274304747,-1.0133049361288546,0.9693365419995039
1726225676428312000,9.00231201171875,-0.9764841487318277,1.887522304084897,0.5477689798939973
1726225676438348000,9.01234814453125,-2.609536601707339,-2.1724814014822242,-1.5188910901360213
1726225676448385000,9.022385009765625,-1.5491758998930454,-2.5707699409395457,-0.3542453265260905
1726225676458421000,9.0324208984375,1.4761509956926107,1.5190250917792318,-0.8725001887746154
1726225676468457000,9.04245703125,0.1738812336564064,3.5672201883792876,-1.592743969593197
1726225676478494000,9.052493896484375,2.4246716172218323,-0.636002486076951,-0.6535919187813997
1726225676488530000,9.062530029296875,1.08362467302382,-3.8744180055916306,1.1259648814294487
1726225676498566000,9.07256591796875,4.458121564632654,-2.1873943084537983,1.5351047044426203
1726225676508603000,9.082602783203125,0.3388344799697399,2.256747830665111,1.7785840827211736
1726225676518638800,9.092638916015625,-1.2389292165040968,2.4976836619406937,1.2736417795754968
1726225676528674800,9.1026748046875,0.674445906239748,-2.7297096260517835,-0.07226867900565266
1726225676538712000,9.112712158203125,-4.869280107057095,-2.1076684453099963,-0.4715517459256574
1726225676548748000,9.122748046875,-8.514279116165637,3.3614801736474034,-1.2670578711405396
1726225676558784000,9.132783935546875,-3.210406399604678,0.9564671966195106,-0.3657910220868885
1726225676568821000,9.142821044921876,2.78152573800683,-3.161052293848991,1.0723634204275905
1726225676578857000,9.15285693359375,3.5809500230461357,-3.537220771434903,0.3363935165584087
1726225676588893000,9.162892822265626,5.589750682368874,1.3726590570360422,0.6795003400851041
1726225676598930000,9.172929931640626,5.372124415010213,2.3290017504930494,0.004775909164920449
1726225676608966000,9.1829658203125,5.201639253532886,-2.1919711148500443,0.36484672697409987
1726225676619001900,9.193001953125,-1.5010411067992449,-3.0932302189886567,2.0639479615271092
1726225676629039000,9.2030390625,-5.072448225474357,3.196621619880199,0.8520973060846329
1726225676639075000,9.213074951171874,-3.848877906143665,2.6937480858325955,1.592458430650085
1726225676649112000,9.223112060546875,0.11342764173746109,-2.4412469044476746,1.0074196774825452
1726225676659148000,9.23314794921875,1.5129296975135802,-4.988545953428745,0.18190430804900823
1726225676669184000,9.24318408203125,-1.9443641352474688,2.0493869367331263,0.8413830198466777
1726225676679221000,9.253220947265625,0.5579039318740368,5.656804110944271,0.7628967815004288
1726225676689257000,9.263257080078125,0.5279501076370477,-1.2740958069533108,0.6339778483815491
1726225676699293000,9.27329296875,-1.2718851451665163,-4.030961150956154,1.9684557894527912
1726225676709330000,9.283329833984375,-6.845558552959561,0.47228842616975303,0.5820546593228355
1726225676719366000,9.293365966796875,-7.923542589747905,4.49548420382142,1.0631295089405028
1726225676729402000,9.303402099609375,-0.5184446126669645,1.5138380445301531,0.9072658702727406
1726225676739439000,9.313439208984375,3.088828769159317,-3.8978205084890125,0.6688508627116679
1726225676749475000,9.32347509765625,3.6601480629235503,-0.3994418011456728,0.39687114694006737
1726225676759511000,9.333510986328125,1.2011211716353893,2.4897826795578,0.29842469163741914
1726225676769548000,9.343548095703126,1.7360405337631701,3.5798575516343116,-0.2061814748890698
1726225676779584000,9.353583984375,5.635410609781742,-3.7254829971432684,0.8749100994605571
1726225676789620000,9.363619873046876,-0.4034890307098627,-1.0380687905073165,-0.39229678822923447
1726225676799657000,9.373656982421876,-2.1652157943934203,3.4178403587728736,-0.5930054942630231
1726225676809693000,9.38369287109375,-3.278589124470949,1.7889181374698877,0.6716052029211074
1726225676819729000,9.39372900390625,-2.1473726791888472,-1.7102584422528744,-0.4551685106731951
1726225676829766100,9.40376611328125,-3.3844606517404316,-4.4652287662893535,-0.24229203165750948
1726225676839802000,9.413802001953124,-6.763942930546403,1.9272458271861075,-0.4991559382965788
1726225676849838000,9.423838134765624,-3.3604134211987255,4.434421540093422,-1.6757878712438046
1726225676859875000,9.433875,2.9429946493357417,-3.1900819889783856,0.3882442979680374
1726225676869911000,9.4439111328125,5.579211752697825,-3.8937662646621463,-0.5466925463015213
1726225676879947000,9.453947021484375,4.720381338965892,4.0448546517521144,0.7957192930415272
1726225676889984000,9.46398388671875,7.827666971313953,1.2829746944576501,1.9922157274857162
1726225676900020000,9.47402001953125,2.2457740167081353,-2.606805130916834,-0.35956681380979716
1726225676910057000,9.484056884765625,-5.182351784738898,2.1579390813887116,-0.013407982301339506
1726225676920093200,9.49409326171875,-4.59556078107655,-0.4330635002404451,-0.08469623543489724
1726225676930129200,9.504129150390625,-7.492236162307858,-1.3456231660723685,0.21037172965314238
1726225676940166000,9.514165771484375,-4.885585345169901,-0.23553601805865762,0.8695913155905902
1726225676950202000,9.5242021484375,0.22211130381822586,0.26419921796321866,0.4818528847854584
1726225676960238000,9.534238037109375,6.474270248630643,-1.2969500283181667,0.32680027023963626
1726225676970274800,9.54427490234375,-0.7147685642778873,-0.2633738730549812,2.6846736757561565
1726225676980311000,9.55431103515625,0.3995955304026603,0.7467717222601175,2.137535906437784
1726225676990347000,9.564346923828126,-1.8581763826131819,0.2712047128111124,0.9308143575120716
1726225677000383700,9.5743837890625,1.142646186313033,1.1522755999237297,0.6251754601795226
1726225677010420000,9.584419921875,1.3675947593837976,-0.16070026504397392,0.5481902375133708
1726225677020456000,9.5944560546875,2.805760015553236,1.5015169076174497,-0.22955796656236052
1726225677030493000,9.604492919921874,2.5101918458580967,1.4917740967601536,0.14921867509479633
1726225677040529000,9.61452880859375,2.781559055754542,-0.17830489531755447,-1.5150028505258262
1726225677050565000,9.624565185546874,1.2564783171981573,-2.1732535548985004,0.08454328249604441
1726225677060601900,9.634601806640624,-1.427514682817459,0.41759412842988963,1.115547824572399
1726225677070637800,9.644637939453125,-2.9198078350156544,3.0437691457271576,-0.3736235058108344
1726225677080674000,9.654674072265625,0.5280383704423904,-1.5079384650975465,-1.1875128444563596
1726225677090710800,9.664710693359375,-3.225395294421911,-3.974185955289006,0.6834878753513097
1726225677100746800,9.674746826171875,-3.0037919401258226,0.8527601539075375,0.577226435448788
1726225677110783000,9.684782958984375,-3.241430483421683,4.259798548159003,-0.11751257296353577
1726225677120820000,9.694820068359375,-0.5062888954490423,-0.5591448718458414,-0.40134536974467333
1726225677130856000,9.70485595703125,3.5649089888274665,-4.662940372866392,-1.2938999930977821
1726225677140893000,9.714892822265625,-1.7844576509296892,1.0883388420641422,-0.9261286108486354
1726225677150929000,9.724928955078125,1.0091045618295669,5.595300717711448,-0.8886356232784688
1726225677160964900,9.73496484375,4.340523359212279,-1.9694898086756467,-1.5378123559661208
1726225677171001900,9.745001953125,2.381215337333083,-5.223398665398359,-0.08976909998608752
1726225677181037800,9.755037841796875,-2.2874901749312877,0.9455255313664674,-1.1427120911560953
1726225677191073800,9.76507373046875,-4.928425538986921,1.4415081368565559,-0.9051761314518749
1726225677201110800,9.77511083984375,-2.927952563026547,-5.112459333345294,1.2954140509225427
1726225677211146800,9.785146728515626,-4.9454514925897115,-4.058015162098408,0.1461453777298331
1726225677221183000,9.795182861328126,-5.372754529607295,4.586232980760932,-0.2489369495647028
1726225677231220000,9.805219970703124,0.018245850786566733,3.545247426024079,0.936828868561238
1726225677241256000,9.815255859375,5.0897407210588455,-3.8976971743702884,0.23590587428435683
1726225677251292000,9.8252919921875,2.61885972584784,-2.9186048889666796,0.8066650499477982
1726225677261329000,9.835328857421874,-1.0301023416727781,6.475248153752088,-0.25951347129978236
1726225677271364900,9.84536474609375,5.619072638443112,5.563928843370079,-0.1846091100282967
1726225677281400800,9.85540087890625,7.161495556944608,-4.693771564459801,-0.4958856479216367
1726225677291437800,9.865437744140625,-0.4125754234850406,-4.057275741907954,-0.8648625335030257
1726225677301473800,9.875473876953125,-9.733258016052842,7.490958397457003,-0.7832727761834859
1726225677311506000,9.885505859375,-2.154460591623187,2.6537837397128343,0.7913647510938346
1726225677321542700,9.895542724609374,2.655219909995794,-6.267432501789927,-0.755388013305515
1726225677331578600,9.90557861328125,0.6092530108392238,-2.970878097039461,-0.5665692862255498
1726225677341614800,9.91561474609375,-2.116286051529646,7.506706001687049,-2.3995893445439633
1726225677351651600,9.925651611328124,-1.9603490553647278,3.9300872858434914,-0.14330796234682203
1726225677361687600,9.9356875,-0.7862135058104991,-1.9027625433146953,0.23055333427526056
1726225677371724500,9.945724609375,-0.9702852940917015,0.8424597091674804,-0.6072915015079081
1726225677381760500,9.955760498046875,-1.1456173110783099,4.693910096147656,-0.9364541169647127
1726225677391796500,9.96579638671875,3.1340637491583823,0.08171791374385357,-0.1221633944440633
1726225677401833700,9.975833740234375,-0.197836109739542,-3.7945313989281653,-0.6959078695286065
1726225677411869700,9.98586962890625,-2.4788047739475965,-0.2484650577366352,0.1305602705851197
1726225677421905700,9.99590576171875,-5.727900092908739,4.096827415573597,-1.350374452252686
1726225677431942700,10.005942626953125,-0.7926900083482264,-2.003835145869851,0.8719752150524407
1726225677441978600,10.015978515625,3.3275703052610157,-5.523043290752172,-0.06095116617754101
1726225677452014600,10.0260146484375,2.26741886228323,1.4666519304633139,-0.2969460339196026
1726225677462051600,10.036051513671875,1.634119789946079,3.9604485218375918,0.9214315390735864
1726225677472087600,10.046087646484375,-2.7053672119557857,-1.1857295412361621,0.9368322295621037
1726225677482123500,10.05612353515625,-0.5843295819848775,-3.4343682997256515,0.41903351358324287
1726225677492160800,10.066160888671876,-7.519046427822112,1.6842016254544256,-0.5856281704280525
1726225677502196700,10.07619677734375,-2.327978837186098,3.253692583623528,-1.035636010402441
1726225677512232700,10.086232666015626,5.32819116525948,-4.845300681054592,0.10490523952059447
1726225677522269700,10.096269775390626,5.838502740353346,-2.0333909106999632,-1.491551686181128
1726225677532305700,10.1063056640625,3.1390953135848045,3.7830595723211764,-0.009531944585591555
1726225677542341600,10.116341552734376,1.6099638383328914,3.5452632081151005,-0.608926920690015
1726225677552378600,10.126378662109374,2.8700866495132447,-3.4036849921703336,-0.37142267129831014
1726225677562414600,10.13641455078125,0.15464286470115185,-0.8085901727914809,0.2822749728798866
1726225677572450600,10.146450439453124,-5.486165804731845,3.795874630230665,-0.8014422007329761
1726225677582487600,10.156487548828125,-0.9643559040427208,-1.047531030857563,1.2211908768482505
1726225677592523800,10.166523681640625,-3.7397289646387097,-4.1148306897759435,1.3556110377319157
1726225677602560800,10.176560791015625,-3.138343033912778,-0.807681825774908,1.8856892434388397
1726225677612596700,10.1865966796875,-1.9731348871797323,3.3369793541193005,1.494192556078732
1726225677622632700,10.1966328125,-2.0673995632857083,2.916798716327548,-0.012072422848641871
1726225677632669700,10.206669677734375,6.5186535802364345,-2.2432424524039027,0.5945920328021049
1726225677642705700,10.21670556640625,4.5282723747014995,-2.0496926416814327,-0.9475221850764006
1726225677652741600,10.22674169921875,-1.2698089234143495,4.000705128902196,-1.136533694782108
1726225677662778600,10.236778564453125,2.7563141398608684,3.250841870367527,0.4930432641025632
1726225677672814600,10.246814697265625,-0.46187867583632464,-0.7056050146132707,0.9987968105658889
1726225677682850600,10.2568505859375,-3.0998949375748635,-1.3503952027797699,1.3264622462674975
1726225677692887800,10.2668876953125,-4.818675708979368,-0.7996504950106144,1.5862404329180717
1726225677702923800,10.276923828125,2.240215213537216,-0.48328971265554427,1.4531199564561248
1726225677712959700,10.286959716796876,0.5551601861238479,-1.0871388186246156,0.5973661006253213
1726225677722996700,10.296996826171876,1.3309341309845446,1.1178460915774107,1.035477970296517
1726225677733032700,10.30703271484375,0.6183984403252601,-0.6124217040032148,0.5629360808223486
1726225677743068700,10.317068603515626,2.875730792880058,0.5414817893832922,0.20158724243398754
1726225677753105700,10.327105712890624,6.756344145980477,2.290147411441803,-0.09325487800892442
1726225677763141600,10.3371416015625,3.197362209114432,-0.14524024558365345,0.699655531624332
1726225677773179000,10.347178955078125,-0.8325380346119403,-0.6358399889916181,0.8574875477556139
1726225677783214800,10.35721484375,-12.122584179127216,0.8950199174880981,-0.19271927818246185
1726225677793250800,10.367250732421875,-6.29415275093317,-1.848304976940155,1.169194951346889
1726225677803287800,10.377287841796875,0.08550795367658137,-5.886963696661591,0.7236293316036463
1726225677813323800,10.38732373046875,3.35520182403028,2.0780261712402104,-1.7479793933600187
1726225677823359700,10.39735986328125,8.659081554853916,2.4295073668152094,-0.8485423900820315
1726225677833396700,10.407396728515625,6.5397466371476645,-2.2655016304850575,0.8228130516722798
1726225677843432700,10.4174326171875,1.1734627648591995,0.8648878140747547,-1.1000094061136245
1726225677853468700,10.42746875,-7.233769935038685,3.1269933723807335,1.1129163800902664
1726225677863505700,10.437505615234375,-6.191551039114594,-1.0708242281615734,0.27805636880416423
1726225677873541600,10.447541748046875,-7.811239568126201,-5.060681799834966,0.7285790629655122
1726225677883577600,10.45757763671875,-2.3440181178390977,-1.6785025370299815,1.8385322093360126
1726225677893614800,10.46761474609375,-0.6031646308362484,3.196387226602435,1.7262524224594233
1726225677903650800,10.47765087890625,1.3362778301000595,1.6901994045644997,1.169832591663301
1726225677913686800,10.487686767578126,5.493839408099651,-4.42862425199151,2.0326739946022627
1726225677923723800,10.497723876953126,5.551024353611469,1.9974603501409292,-0.7046282054703682
1726225677933759700,10.507759765625,1.3419248960763215,6.495560873940587,-0.369525495907478
1726225677943795700,10.517795654296876,-1.5652145960241555,3.0545261020630594,1.0058129729382692
1726225677953832700,10.527832763671874,-0.32298867606222625,-6.068111706450582,0.2884895000131801
1726225677963868700,10.53786865234375,-7.594559057185053,-0.4315408207178116,-0.36225711233969776
1726225677973904600,10.547904541015624,-9.705092828798293,4.290495884239673,-1.014371761642769
1726225677983942000,10.55794189453125,-0.5689011267066002,-2.264777407863736,0.10835399173498153
1726225677993977900,10.567977783203125,-0.3734054426133632,-4.2540415920674794,0.42896797455511987
1726225678004014800,10.578014892578125,-0.35369068831801415,2.9612644655197857,0.2546102459607646
1726225678014050800,10.58805078125,3.146083857297897,4.805874095073342,0.8282553888566792
1726225678024086800,10.598086669921875,5.106466230410337,0.03758943368196487,0.3610098522249609
1726225678034123800,10.608123779296875,5.66488103441596,-3.7602515281856057,0.2868304076945409
1726225678044159700,10.61815966796875,-2.870335071316361,1.9025901093572377,0.7413315770328045
1726225678054195700,10.62819580078125,-3.622149463918805,3.8835423922896384,-0.14443221713639795
1726225678064232700,10.638232666015625,-3.147832746791839,-1.8704595256030558,0.4858309946361929
1726225678074269000,10.64826904296875,-2.211945981386304,-5.225310051977634,-0.07165398117341101
1726225678084305000,10.658304931640625,-7.120459197679161,1.9360136555314063,-0.7282590372309088
1726225678094341600,10.668341552734375,-0.05203472314178943,3.205278973588347,-0.7374883456081152
1726225678104377900,10.6783779296875,4.033259491026401,-2.3828560902774334,0.556165600306727
1726225678114413800,10.688413818359376,3.7961440948218104,-3.1836703683704135,0.4651491488743573
1726225678124450600,10.698450439453126,-0.6928828956842422,2.473857380673289,-1.8424474830836057
1726225678134486800,10.70848681640625,1.1449474489927292,1.664087058186531,-1.445363058719039
1726225678144522800,10.718522705078126,2.199054935631156,-3.415995023167133,-0.8309976733021438
1726225678154559500,10.7285595703125,-4.10472956700027,-0.48697979934513563,0.7744163197066635
1726225678164595700,10.738595703125,-5.984786942031979,4.367161190769076,1.1167232250273227
1726225678174631700,10.748631591796874,0.7173837152123451,2.1215105081796644,-0.33388843840230253
1726225678184668700,10.758668701171874,5.1972839809328315,-3.6360523170650003,0.023072357627563177
1726225678194705000,10.768704833984375,2.9899545534312724,-1.0562690485864876,-1.1286907261967658
1726225678204741600,10.77874169921875,0.08928396508395671,4.753180615761876,-1.4569988437160848
1726225678214777600,10.788777587890625,3.7384172975182532,1.2618915744185446,-0.5388517331406474
1726225678224813800,10.798813720703125,3.7677515285521745,-5.9840206338346,-0.6431283193688839
1726225678234850600,10.8088505859375,-2.749468804010749,-0.9771259537667035,0.4505837036335841
1726225678244886500,10.818886474609375,-0.7599643813103437,4.470048149269819,0.06351425813119858
1726225678254922800,10.8289228515625,0.26471593531370163,0.3512731057822704,-0.6652145520359277
1726225678264959700,10.838959716796875,-1.1780559378683566,-1.6098521946519613,1.8548012070916593
1726225678274995700,10.84899560546875,0.5636719938814639,1.402756673657894,-0.276391723527573
1726225678285031700,10.85903173828125,1.969267105835676,0.6297083543688059,-0.2468893693851307
1726225678295068700,10.869068603515625,-1.6717822888642548,-1.0324655636727809,-0.010085048423707485
1726225678305104600,10.879104736328125,-0.40917525965273377,0.21742051565349102,-0.864176743195951
1726225678315141000,10.88914111328125,2.282013789346814,-0.8945704201549292,-0.7248492287874221
1726225678325178000,10.89917822265625,2.733820568501949,-2.511016021722555,-0.3565300764624029
1726225678335214000,10.909214111328126,-1.9487433732450008,-0.9276116890132426,-0.5052832255378366
1726225678345250000,10.91925,-6.3366749648422,-0.23327041121423242,1.0415060714796185
1726225678355287300,10.929287353515624,-4.361113727298378,0.6220902805805206,0.8714483416341244
1726225678365323300,10.9393232421875,-3.0120787069559096,-0.6753922471791506,1.017238622315973
1726225678375359200,10.949359130859374,0.484280477258563,-2.103790142571926,0.18452230852767823
1726225678385396200,10.959396240234375,3.7492134168207643,-2.9290765986204144,1.1744478303737937
1726225678395432200,10.96943212890625,-0.4690834926486015,4.012963721972704,0.10295344786569476
1726225678405469200,10.97946923828125,2.454749360099435,2.677581379407644,-1.213795944291353
1726225678415505200,10.989505126953125,3.0536399668782948,-4.327434745058417,-0.622106720258668
1726225678425541000,10.999541015625,1.1490519617021082,-3.1450130131959915,1.0349794461898505
1726225678435578400,11.009578369140625,-1.2204478033959865,5.022560451233387,-0.30096155317127704
1726225678445614300,11.0196142578125,1.6444903773128985,1.8518787437736988,0.20083328226152805
1726225678455650300,11.029650390625,4.0798903092980385,-3.7634254820466038,1.050304294963181
1726225678465687300,11.039687255859375,-0.8248334515839815,-0.5187579163998365,0.8056463013593107
1726225678475723300,11.04972314453125,-2.10960204372108,5.391791823032498,0.7095201422303915
1726225678485759200,11.05975927734375,-1.5819886206924914,1.9979443342655896,0.8104809549741446
1726225678495796200,11.069796142578125,0.07141220830678939,-2.0666946298867463,-0.4561554393513128
1726225678505832200,11.079832275390626,-1.7548451874762772,-0.9963578929811715,-0.5103652780424803
1726225678515868200,11.0898681640625,-5.477464027360082,2.8802918171852827,-1.3978765004009008
1726225678525905200,11.0999052734375,-6.718959294959903,1.7534797443419694,-0.7935185681268573
1726225678535941000,11.109941162109376,-0.4314087187707424,-3.1868057437866923,0.0930103651959449
1726225678545977300,11.119977294921876,-1.4746674791365861,-2.4139006323605776,-0.5323011789860204
1726225678556014300,11.130014404296874,-0.43396366395056246,3.139957483372092,0.38039913742560894
1726225678566050300,11.14005029296875,4.103108103278279,4.59839629676342,0.10698127860967069
1726225678576087300,11.15008740234375,7.079828496605157,-0.9489747950375079,1.6503303355127572
1726225678586123300,11.160123291015625,-0.17315876460075377,-0.5146183323770761,2.208156964366883
1726225678596159200,11.1701591796875,-6.5482835793465375,4.428780319336057,1.6402087544709443
1726225678606196200,11.1801962890625,-2.678504339471459,0.8493804483413696,0.9720868636209518
1726225678616232200,11.190232177734375,-0.9740490305393934,-3.1196950320661068,-0.6037554728688672
1726225678626268200,11.20026806640625,-3.2807799125134944,-1.7324837180644272,-0.9689926239326596
1726225678636305400,11.210305419921875,-0.6664385408729314,1.3752993424117563,-0.8214445397980511
1726225678646341400,11.22034130859375,4.361345197966695,-0.3089443686187267,-1.4713820277251302
1726225678656377300,11.23037744140625,1.8016735741466283,0.5797843397706747,-0.9764473238527774
1726225678666414300,11.240414306640625,-2.167590122309327,2.01756381149292,0.03502886247895658
1726225678676450300,11.2504501953125,-3.2804847289592027,0.3671323536932468,-0.015619009414315222
1726225678686486300,11.260486328125,3.3743852479279037,-5.178274160036445,1.2982237015157938
1726225678696523300,11.270523193359375,2.4971482398897407,-3.7844016345798965,-1.8360019602060318
1726225678706559200,11.280559326171876,-4.993890237066149,3.997411348053813,-0.7011081415854394
1726225678716595200,11.29059521484375,-0.1462087983548641,3.5467432175397873,-0.30417331829201427
1726225678726632400,11.300632568359376,2.241398285841942,-1.585959862411022,-0.7935607998333871
1726225678736668400,11.31066845703125,-1.4623779064059257,-3.1620962499439713,0.5157385320460424
1726225678746704400,11.320704345703126,-1.9237801969021557,-0.8521814772367476,1.4863386277079582
1726225678756741400,11.330741455078124,-3.6881174353450534,0.4635778809696436,0.681930124515295
1726225678766777300,11.34077734375,-1.3011714454054832,0.43351942731440063,1.0189106471814215
1726225678776814300,11.350814453125,1.4971300708353519,-1.35349083070755,0.12028517948202788
1726225678786850300,11.360850341796874,3.486705220684409,0.20443419283032416,-0.5156702891154215
1726225678796886300,11.37088623046875,4.016805784353614,0.8895879555672407,-0.5101798384729772
1726225678806923300,11.38092333984375,-0.551588757377863,0.8490355804264544,-0.3884159282078966
1726225678816959200,11.390959228515625,-4.026292574623227,4.207016806042194,0.28086448502745476
1726225678826995200,11.4009951171875,-0.05089490545690059,-0.04120762417912483,1.2605861909084022
1726225678837032200,11.4110322265625,1.93837512396574,-7.429451497092843,1.6752683774143455
1726225678847068400,11.421068359375,1.2174117967009543,-2.7350474799484013,1.555366571226716
1726225678857104400,11.4311044921875,2.1182056214153766,3.25736338109076,0.5317386131998151
1726225678867141000,11.44114111328125,4.587236020323634,0.996597546955943,0.7346347097426652
1726225678877177300,11.45117724609375,6.500861902958154,-3.451592406249046,0.4084703627863899
1726225678887213300,11.46121337890625,-1.511796309569478,1.8574328707695007,0.5161077672172337
1726225678897250000,11.47125,-2.988078822687268,5.095832023671269,1.4963155395820735
1726225678907286300,11.481286376953125,-0.7867576956897974,0.04015548477768898,0.47489634364582595
1726225678917322200,11.491322265625,4.242520665621758,-3.4714743338048457,0.2229792822917923
1726225678927359200,11.501359130859376,-1.7272540007174013,0.45821430810987945,-0.6210996621079743
1726225678937395500,11.5113955078125,-2.9784342115074396,2.4252935485124585,-2.0250489065513015
1726225678947431400,11.521431396484376,-0.6533125173181294,-2.5010434937626123,0.6167309455044567
1726225678957468200,11.53146826171875,-3.8215865791141983,-4.800076222449541,0.37515751044508067
1726225678967504400,11.54150439453125,-2.9682004022628066,0.42748657689094544,-1.237364159144461
1726225678977541000,11.551541015625,1.3053291496068238,2.0867712032318115,0.912347776646912
1726225678987577000,11.5615771484375,0.8226724741578102,-0.9778086753338575,0.9020661827377975
1726225678997613300,11.57161328125,6.476874878171086,0.7169581832766533,-0.7120557981878519
1726225679007650000,11.581650146484375,5.306662639540433,0.6516010372251272,0.4234088060580194
1726225679017686000,11.59168603515625,1.5969710857689379,0.2568050160586834,-0.5631289730459451
1726225679027722200,11.60172216796875,-4.020473074689507,-0.02726911519765854,0.2857204371586442
1726225679037759200,11.61175927734375,-4.297455786380172,-0.393490199264884,1.148586390016973
1726225679047795200,11.621795166015625,-0.5700999811023474,-1.7843308096796273,-0.43485345239713785
1726225679057831200,11.6318310546875,-0.23553192640542983,-0.5370896919041872,-0.9386405941583216
1726225679067868200,11.6418681640625,1.713423628285527,2.7240906171262265,-0.19978629395924508
1726225679077904100,11.651904052734375,2.644755799126625,1.1912795765787363,0.6738502784341573
1726225679087940000,11.661940185546875,-2.5288328334420918,-0.23157880486547947,0.035563115486130115
1726225679097977000,11.67197705078125,-3.2808576539248224,0.051584641286730765,-0.45866585126966236
1726225679108013000,11.682012939453125,-2.852399601653218,-1.29446347219944,0.7358052148267626
1726225679118049000,11.692049072265625,-1.4751806893557309,-0.4633031556814909,-0.9330513227839022
1726225679128086300,11.702086181640626,-6.331594885098934,3.158264124435186,-0.3896383461423218
1726225679138122200,11.712122314453126,4.240883419808745,1.1032283681601285,-0.1934358289539814
1726225679148159200,11.7221591796875,3.698620124658942,-2.5411165609538555,-2.1390058328598736
1726225679158195200,11.7321953125,-2.213059495586157,2.2741876257658005,-0.1745969076450914
1726225679168231200,11.742231201171874,-4.950022453767061,3.083334263396263,-1.0883497287843376
1726225679178268200,11.75226806640625,-3.421562009644508,-2.7394255489021537,-0.6134287621539086
1726225679188304100,11.76230419921875,-4.247206193089485,-3.344146177008748,-0.6740867906037717
1726225679198340000,11.772340087890624,-6.592806611683964,2.284705512648821,-0.5330878358516842
1726225679208377000,11.782377197265625,0.008282090654969215,2.0146891328394414,-0.24141689279079437
1726225679218413300,11.792413330078125,0.07136135490238667,-2.761636796188354,-0.20284955398738383
1726225679228449300,11.80244921875,4.082463374656439,-0.8089905702859163,-0.2660539059191942
1726225679238486300,11.812486328125,-0.3309212226271629,0.9516139113694428,0.021848551453649997
1726225679248522200,11.822522216796875,1.0786422084361313,2.1533663666456935,-0.682471830176562
1726225679258558200,11.83255810546875,-3.7068157060742375,-0.7162170095205307,-0.3658385875556618
1726225679268595200,11.84259521484375,-2.3765654657006263,0.4736486086070537,-0.6368186247654258
1726225679278631200,11.852631103515625,4.923254858350753,-3.6981302953153845,-1.4821335772335529
1726225679288667100,11.862667236328125,2.1656442489385603,-1.0414110866725443,-1.1309474921476095
1726225679298704100,11.8727041015625,3.0118992587357756,2.3555934048205613,-0.41904345045536756
1726225679308740000,11.882739990234375,1.9065180964559316,2.4217542684704063,0.4058199578754604
1726225679318777300,11.89277734375,4.6503988712012765,0.861151550155878,1.057874803282693
1726225679328813300,11.902813232421876,3.7441888666570184,0.7298357850283383,0.4565452789191156
1726225679338849300,11.912849365234376,0.9374439317196607,4.499859350165725,0.17229527963921426
1726225679348886300,11.92288623046875,-0.44831542990803713,4.114707940179109,0.22936492820829152
1726225679358922200,11.932922119140626,-0.5886380928337573,-2.667761996182799,1.2619418433010576
1726225679368958200,11.942958251953126,-0.5692717135846614,-4.5316456505268805,-0.6066819182422012
1726225679378995500,11.952995361328124,-2.8854695120841263,-0.10412731395065784,-1.1102571708183735
1726225679389031400,11.963031494140624,0.2624602653414011,3.718398591840267,-1.1204683298397808
1726225679399067400,11.9730673828125,4.975813313105702,1.631628557652235,-0.02665675545297563
1726225679409104400,11.9831044921875,0.7782505641072988,-0.9778145205527543,0.20581402981616556
1726225679419140400,11.993140380859375,-3.2223844221681355,1.964619572290778,0.5761584043584763
1726225679429176300,12.00317626953125,-10.47965798239112,1.7721598948925732,0.4160653844926506
1726225679439213300,12.01321337890625,-3.509329724946618,-5.467818831658363,0.5844126571584493
1726225679449249300,12.023249267578125,-2.8162217883348464,-8.574041803210973,0.5813770888548344
1726225679459285200,12.03328515625,-1.8750515295684336,3.5139725823163985,0.44817361028455194
1726225679469322500,12.043322509765625,8.527412738505005,7.5934624941200015,0.8042593770455568
1726225679479358500,12.0533583984375,15.066923813331126,-4.85278197672069,-0.8294269168540835
1726225679489394400,12.06339453125,7.170483165520429,-4.901830377528071,-3.646364452242851
1726225679499431400,12.073431396484375,-2.09677003467679,4.130176142945885,-3.248161837503314
1726225679509467400,12.08346728515625,-3.4902936005651948,2.7924440223842857,-0.4839738224621862
1726225679519504400,12.09350439453125,-3.8197733922123907,-4.54731375977993,0.41109015336334703
1726225679529540400,12.103540283203126,-3.3516999533891676,-5.358700285291672,0.7158492721866816
1726225679539576300,12.113576416015626,-3.0790508869886395,0.46129181585907936,1.4887418894574045
1726225679549613300,12.12361328125,-1.883510730355978,1.5218033243209124,-0.0905254165124148
1726225679559649300,12.133649169921876,-2.3906103576660156,-2.464851067396998,0.6273910173371434
1726225679569685200,12.143685302734376,1.2449994763284922,-3.7327211317032574,0.6909292773984372
1726225679579722500,12.153722412109374,1.0538801076233386,0.8715092780411243,-1.0376564103141426
1726225679589758500,12.163758544921874,-2.1896388725101947,3.623042613366246,-0.09162219877317547
1726225679599794400,12.17379443359375,1.4319213933438062,-2.820052744799852,2.621224701413512
1726225679609831400,12.18383154296875,-1.3936433928757905,-2.8646897589057683,0.3752461020439863
1726225679619867400,12.193867431640625,-7.11813046247065,3.6593472679346797,-0.14090579657591878
1726225679629903400,12.2039033203125,-5.611889448940754,3.383115666872263,0.07755995381418615
1726225679639940400,12.2139404296875,2.6591426363974806,-2.3614637581586835,0.6417783660646528
1726225679649976300,12.223976318359375,0.7941969057798385,0.12287994521558283,0.20518745888303963
1726225679660012300,12.23401220703125,-1.4872224248051642,5.693799085864424,-0.938658422075957
1726225679670049500,12.244049560546875,-1.3373258778482675,2.507160515338182,-0.043182248720340426
1726225679680085500,12.25408544921875,-1.014740521889925,-0.2531003163218498,-0.9759015265382825
1726225679690122200,12.264122314453125,1.4167863680541515,-0.7228004795640707,0.7943217012032866
1726225679700158500,12.274158447265625,-0.39825405266582964,2.686865925103426,0.7787973843351006
1726225679710194400,12.2841943359375,0.45570729372501373,1.6547352924734353,-0.02073474499285221
1726225679720231200,12.294231201171876,0.3946434609532356,-1.5907102718085049,0.331677813148126
1726225679730267400,12.304267333984376,3.38004341982007,1.7389397623360157,-0.09224847744535654
1726225679740303400,12.314303466796876,3.053908262425661,3.178319070470333,-0.44693800407499074
1726225679750340000,12.324340087890626,0.5895592993319034,0.11029577345252037,0.7216283670447766
1726225679760376300,12.334376220703126,-1.7978198213279246,-1.5892746860474347,0.8925678481608629
1726225679770412300,12.344412353515626,1.2788865483611822,-2.4215917713850734,2.440095104064047
1726225679780449300,12.35444921875,0.2027238817811012,-3.871585997036099,1.2393353130869567
1726225679790485500,12.364485595703124,-5.262677951863408,1.8292022170633075,-0.17250121400747448
1726225679800521500,12.374521484375,-5.667536517360806,4.422105079355836,0.2977086888551712
1726225679810558200,12.38455810546875,-2.980157966560125,2.793254754245281,-0.7036744118768722
1726225679820594400,12.394594482421875,2.5631290707975625,-4.326284405979514,-0.8354474192526191
1726225679830630400,12.40463037109375,2.4301871657729146,-2.8073218580424784,-0.8157543653324246
1726225679840667100,12.414667236328125,-0.8743699281692504,2.1132482912689445,0.25459596170708537
1726225679850703400,12.424703369140625,-2.5274013393342494,6.0066691034942865,0.4708010006235912
1726225679860740400,12.434740234375,4.377234256494045,-2.4945003557294605,2.475510408577323
1726225679870776300,12.4447763671875,2.2042291233986613,-5.673678088855743,0.8407587504684925
1726225679880812300,12.454812255859375,-0.29125790528059003,0.07265957801938057,0.10644363720216787
1726225679890849300,12.464849365234375,-1.3789286388248205,2.1555016251087187,0.4209953151755035
1726225679900885200,12.47488525390625,7.219073885688185,-4.734696280044317,-0.912937266972661
1726225679910921200,12.484921142578125,1.8841466901719568,-2.267259287807345,-0.5608820709019899
1726225679920958200,12.494958251953125,-2.9515666628479957,3.9530315235793587,2.121693609661609
1726225679930994200,12.504994140625,0.31175065821111203,1.8725643889278172,1.96460218276456
1726225679941030100,12.515030029296875,1.6351555627346037,-2.3353093262046576,2.784577234531939
1726225679951067100,12.525067138671876,-0.756403473958373,-4.227532355326414,1.8818970115490257
1726225679961103400,12.535103271484376,-0.34681437280774113,0.6181780755728483,0.39685806826278563
1726225679971139300,12.545139404296876,-3.854007085725665,2.378416062003374,0.8768080420363694
1726225679981176300,12.55517626953125,-0.06561375116109848,0.5769096611171961,0.37583986668605357
1726225679991212300,12.56521240234375,6.049156830611825,-2.4968074636280537,-1.0363779878761619
1726225680001248300,12.575248291015624,3.6136551918178794,-0.9531301611512899,0.24185731176836414
1726225680011285200,12.58528515625,-2.6961411184489728,4.466751445811987,2.209202235636115
1726225680021321200,12.5953212890625,-1.5290958194166422,-0.018355156379938124,2.4039006318718195
1726225680031358200,12.605358154296875,1.6826000354766846,-5.281145336446166,2.3363082741141317
1726225680041394200,12.615394287109375,-5.955399519506097,-2.22387022793591,3.3466911853164434
1726225680051430100,12.62543017578125,-3.0700545105844737,3.1727158436357974,0.7228348202250897
1726225680061467400,12.63546728515625,0.31472412106394765,1.7437778500169514,0.9628535366557538
1726225680071503400,12.64550341796875,2.2728052314966916,0.928528803858161,0.9812182645816355
