time,seconds_elapsed,z,y,x
1726225667445806300,0.019806396484375,0.49318966269493103,0.310435026884079,-0.0332016721367836
1726225667455842300,0.02984228515625,0.5244336128234863,0.29256173968315125,0.01229097880423069
1726225667465878300,0.039878173828125,0.548987865447998,0.2574099004268646,-0.10406200587749481
1726225667475914200,0.049914306640625,0.5934967398643494,0.22554941475391388,0.02244933322072029
1726225667485951200,0.059951171875,0.5697388648986816,0.2947406768798828,0.1340201050043106
1726225667495987200,0.0699873046875,0.612011194229126,0.2730926275253296,0.12849244475364685
1726225667506023200,0.080023193359375,0.5311314463615417,0.3188273012638092,-0.1983889490365982
1726225667516060200,0.09006005859375,0.4564737379550934,0.3885808289051056,-0.11970239132642746
1726225667526096100,0.10009619140625,0.44365373253822327,0.2992751896381378,0.01802033558487892
1726225667536132000,0.110132080078125,0.3743172585964203,0.26467165350914,-0.1844792366027832
1726225667546168000,0.12016796875,0.3786596655845642,0.17078696191310883,-0.0559646412730217
1726225667556205300,0.130205322265625,0.34534433484077454,0.13752062618732452,-0.13382215797901154
1726225667566241300,0.1402412109375,0.2766730487346649,0.20221666991710663,-0.09404930472373962
1726225667576277200,0.15027734375,0.2845935821533203,0.1563439816236496,0.0142153799533844
1726225667586314200,0.160314208984375,0.16788509488105774,0.14500391483306885,-0.10691630840301514
1726225667596350200,0.17035009765625,0.13821321725845337,0.1235249862074852,-0.08098990470170975
1726225667606386200,0.18038623046875,0.12034674733877182,0.07233823835849762,0.05797671899199486
1726225667616422100,0.190422119140625,0.04319816827774048,0.04416065663099289,-0.11257610470056534
1726225667626459100,0.200459228515625,0.00596188148483634,0.025759808719158173,0.1324819028377533
1726225667636495000,0.2104951171875,-0.08905784040689468,-0.026255188509821892,-0.17665570974349976
1726225667646531000,0.220531005859375,-0.16412140429019928,-0.13321134448051453,-0.1269253045320511
1726225667656568300,0.230568359375,-0.15623924136161804,-0.12123803049325943,-0.05077114701271057
1726225667666604300,0.240604248046875,0.042721789330244064,-0.15031267702579498,0.0798301175236702
1726225667676640300,0.25064013671875,-0.16639894247055054,-0.021815164014697075,0.12804532051086426
1726225667686676200,0.26067626953125,-0.0526999905705452,-0.00914737768471241,0.046648550778627396
1726225667696713200,0.270713134765625,-0.0008692839182913303,0.07840670645236969,0.10701975226402283
1726225667706749200,0.280749267578125,-0.07869260758161545,0.11870699375867844,0.16819122433662415
1726225667716785200,0.29078515625,-0.01613415963947773,-0.009351905435323715,0.2078278511762619
1726225667726821000,0.300821044921875,-0.11280591785907745,0.06723535060882568,-0.1325189173221588
1726225667736858000,0.310858154296875,0.07466251403093338,-0.06463319808244705,-0.42666637897491455
1726225667746894000,0.32089404296875,0.15335385501384735,0.15849502384662628,-0.3257816731929779
1726225667756930000,0.330929931640625,0.3692472577095032,0.18640148639678955,0.2563273012638092
1726225667766967300,0.34096728515625,0.3036908209323883,0.2025907039642334,0.2648504078388214
1726225667777003300,0.351003173828125,0.36755555868148804,0.21594886481761932,-0.043455518782138824
1726225667787039200,0.361039306640625,0.38223180174827576,0.18535979092121124,0.003769508097320795
1726225667797075200,0.3710751953125,0.18364785611629486,0.3359663486480713,-0.20216181874275208
1726225667807112200,0.3811123046875,0.31568339467048645,0.37336522340774536,-0.26069608330726624
1726225667817148200,0.391148193359375,0.32172903418540955,0.3247244358062744,-0.06764008104801178
1726225667827184000,0.40118408203125,0.39419257640838623,0.27342313528060913,0.16690215468406677
1726225667837221000,0.41122119140625,0.4005442261695862,0.26702356338500977,0.03662244603037834
1726225667847257000,0.421257080078125,0.24555036425590515,0.3347260355949402,-0.33141106367111206
1726225667857293000,0.43129296875,0.33248499035835266,0.2225576788187027,-0.05117567628622055
1726225667867329000,0.4413291015625,0.1892000287771225,0.20685170590877533,0.17121770977973938
1726225667877366300,0.4513662109375,0.1505863219499588,0.13360998034477234,-0.025371255353093147
1726225667887402200,0.46140234375,0.09141039848327637,0.08736564964056015,-0.233941912651062
1726225667897438200,0.471438232421875,0.04074802249670029,0.05563994497060776,-0.2937847375869751
1726225667907475200,0.48147509765625,0.17743705213069916,0.007781144231557846,0.05665256828069687
1726225667917511200,0.49151123046875,0.11301705241203308,0.1096838042140007,0.2923748195171356
1726225667927547100,0.501547119140625,0.06009257957339287,0.07491117715835571,0.1575528234243393
1726225667937583000,0.5115830078125,-0.03671065717935562,0.01923566684126854,-0.04529004171490669
1726225667947620000,0.5216201171875,0.13745255768299103,-0.21447709202766418,0.3268567621707916
1726225667957656000,0.531656005859375,-0.16208940744400024,-0.19731515645980835,0.33090052008628845
1726225667967692000,0.541692138671875,-0.28734925389289856,-0.2621767222881317,-0.43280431628227234
1726225667977728300,0.551728271484375,-0.4244559705257416,-0.1455875188112259,-0.463120698928833
1726225667987765200,0.56176513671875,-0.4288877546787262,-0.20814529061317444,0.15776507556438446
1726225667997801200,0.57180126953125,-0.4874509572982788,-0.1626875251531601,0.5691640377044678
1726225668007837200,0.581837158203125,-0.5667964220046997,-0.33895882964134216,0.06291699409484863
1726225668017874200,0.591874267578125,-0.5612722039222717,-0.3654192090034485,-0.3782801032066345
1726225668027910100,0.60191015625,-0.5569919347763062,-0.4130720794200897,0.0958002507686615
1726225668037946000,0.611946044921875,-0.5541990995407104,-0.4152180552482605,0.4467063248157501
1726225668047982300,0.621982421875,-0.5368267297744751,-0.41792353987693787,0.13237449526786804
1726225668058019000,0.63201904296875,-0.49705085158348083,-0.38576215505599976,-0.03956211358308792
1726225668068055000,0.642054931640625,-0.39465704560279846,-0.3886411786079407,0.21598030626773834
1726225668078091300,0.65209130859375,-0.28542590141296387,-0.3268702030181885,0.11983592808246613
1726225668088128000,0.6621279296875,-0.17610637843608856,-0.2737334966659546,0.13617464900016785
1726225668098164000,0.6721640625,-0.09404213726520538,-0.23487795889377594,0.14073318243026733
1726225668108200200,0.6822001953125,-0.048364926129579544,-0.1386665403842926,-0.07104209065437317
1726225668118236400,0.692236328125,0.07701563090085983,-0.1234055683016777,-0.17662391066551208
1726225668128273200,0.702273193359375,0.13894988596439362,-0.08861729502677917,0.06041264533996582
1726225668138309000,0.71230908203125,0.27095532417297363,-0.040239110589027405,-0.15140533447265625
1726225668148345300,0.722345458984375,0.373442679643631,0.0193952564150095,-0.10073019564151764
1726225668158382000,0.732382080078125,0.44867804646492004,0.031284671276807785,-0.03977443650364876
1726225668168418000,0.74241796875,0.5455932021141052,0.0897083654999733,-0.03327718377113342
1726225668178454300,0.752454345703125,0.5544937252998352,0.14837221801280975,0.028573933988809586
1726225668188490200,0.762490234375,0.5330191850662231,0.12810921669006348,0.029930807650089264
1726225668198527000,0.77252685546875,0.5198935270309448,0.13701669871807098,0.055745892226696014
1726225668208563200,0.782563232421875,0.5676632523536682,0.19443045556545258,0.05130726844072342
1726225668218599200,0.79259912109375,0.5865253806114197,0.22870028018951416,-0.27972763776779175
1726225668228636200,0.80263623046875,0.5730960965156555,0.23087793588638306,-0.004266225732862949
1726225668238672400,0.81267236328125,0.5414665341377258,0.3181007206439972,-0.2957074046134949
1726225668248708400,0.822708251953125,0.586633563041687,0.2617766559123993,-0.09654206782579422
1726225668258744300,0.832744384765625,0.4672003388404846,0.2411813884973526,0.12943993508815765
1726225668268781300,0.84278125,0.41978809237480164,0.2076943814754486,-0.3696810007095337
1726225668278817300,0.8528173828125,0.37297025322914124,0.16324515640735626,-0.009534824639558792
1726225668288853200,0.862853271484375,0.2950654625892639,0.1622423529624939,0.13789677619934082
1726225668298890200,0.87289013671875,0.19250738620758057,0.13500913977622986,0.13653963804244995
1726225668308930000,0.882929931640625,0.06452173739671707,0.13328221440315247,0.11997361481189728
1726225668318966000,0.892966064453125,0.10763458907604218,0.07644689083099365,0.08510804176330566
1726225668329002000,0.903001953125,0.09320967644453049,0.0894373282790184,0.2205299437046051
1726225668339039000,0.9130390625,0.1376168131828308,0.10618168860673904,0.3020370602607727
1726225668349075000,0.923074951171875,0.18195226788520813,0.1197538822889328,-0.15645696222782135
1726225668359111000,0.93311083984375,0.21984000504016876,0.17909444868564606,-0.3533942699432373
1726225668369148000,0.94314794921875,0.3162652850151062,0.028455398976802826,0.031055457890033722
1726225668379183900,0.953183837890625,0.29023662209510803,0.11260543018579483,-0.1528720259666443
1726225668389219800,0.9632197265625,0.317480206489563,0.13272613286972046,-0.06511884182691574
1726225668399255800,0.973255859375,0.24410054087638855,0.16278895735740662,0.10011405497789383
1726225668409293000,0.98329296875,0.2238226681947708,0.20881278812885284,0.10210313647985458
1726225668419329000,0.9933291015625,0.2328646332025528,0.23071914911270142,0.15473465621471405
1726225668429365000,1.003364990234375,0.1965809017419815,0.2577797770500183,0.06361185759305954
1726225668439402000,1.013402099609375,0.2844313979148865,0.23696666955947876,0.04302961379289627
1726225668449438000,1.02343798828125,0.2795710563659668,0.2531888484954834,-0.040729179978370667
1726225668459474000,1.033473876953125,0.27318504452705383,0.28613242506980896,-0.18757028877735138
1726225668469510000,1.043510009765625,0.295704185962677,0.3241422474384308,-0.2731524705886841
1726225668479547000,1.053546875,0.20867101848125458,0.3327908515930176,-0.24254103004932404
1726225668489582800,1.063582763671875,0.2431127279996872,0.2745451331138611,-0.28205808997154236
1726225668499618800,1.073618896484375,0.22567914426326752,0.2911318242549896,-0.009962935000658035
1726225668509655800,1.08365576171875,0.2630949914455414,0.3148585259914398,0.052008770406246185
1726225668519692000,1.093692138671875,0.2906177043914795,0.28522419929504395,0.10250789672136307
1726225668529728000,1.10372802734375,0.16052308678627014,0.3348347246646881,0.17927289009094238
1726225668539764000,1.113763916015625,0.147309809923172,0.33441925048828125,-0.09175887703895569
1726225668549801000,1.123801025390625,0.13707700371742249,0.3578280806541443,0.08609162271022797
1726225668559837000,1.1338369140625,0.13017354905605316,0.30913910269737244,0.061513569205999374
1726225668569873000,1.143872802734375,0.06447646766901016,0.3447185456752777,-0.19255419075489044
1726225668579910000,1.153909912109375,0.09022098034620285,0.3169415295124054,-0.13462911546230316
1726225668589945900,1.16394580078125,0.039452698081731796,0.3178846836090088,-0.06279532611370087
1726225668599981800,1.17398193359375,0.0692843645811081,0.22457285225391388,-0.15769468247890472
1726225668610017800,1.184017822265625,-0.03264312073588371,0.21311739087104797,0.04083267226815224
1726225668620054800,1.1940546875,-0.06022734194993973,0.1687387377023697,0.1401858925819397
1726225668630090800,1.2040908203125,-0.12401282042264938,0.1034482792019844,0.007474283222109079
1726225668640127000,1.214126953125,-0.27644070982933044,0.11173763871192932,0.09789925813674927
1726225668650164000,1.2241640625,-0.33991044759750366,0.1229167953133583,0.22255706787109375
1726225668660200000,1.234199951171875,-0.3791630268096924,-0.022537343204021454,0.4101666510105133
1726225668670236000,1.24423583984375,-0.46623194217681885,0.026605091989040375,0.06775088608264923
1726225668680272000,1.25427197265625,-0.4583180844783783,0.05214507132768631,-0.33696916699409485
1726225668690308900,1.264308837890625,-0.4824373722076416,-0.10698086023330688,0.009229062125086784
1726225668700344800,1.2743447265625,-0.514006495475769,-0.09639852494001389,0.02652869001030922
1726225668710380800,1.284380859375,-0.4807993769645691,-0.0358167327940464,-0.13482174277305603
1726225668720417800,1.294417724609375,-0.501740574836731,-0.07716283947229385,0.21356472373008728
1726225668730453800,1.304453857421875,-0.5866442918777466,-0.09306497871875763,0.19489072263240814
1726225668740489700,1.31448974609375,-0.5838873982429504,-0.03157418221235275,0.04348842799663544
1726225668750525700,1.324525634765625,-0.6445698738098145,0.0052389539778232574,0.2402898222208023
1726225668760563000,1.33456298828125,-0.6896374821662903,-0.038101594895124435,0.3026788830757141
1726225668770599000,1.344598876953125,-0.7362662553787231,-0.029025137424468994,-0.09010779857635498
1726225668780635000,1.354634765625,-0.7043451070785522,0.00022329436615109444,-0.04882800579071045
1726225668790672000,1.364671875,-0.5642192959785461,-0.04785316064953804,0.12192520499229431
1726225668800707800,1.374707763671875,-0.48304033279418945,-0.12442862242460251,-0.12332502752542496
1726225668810743800,1.384743896484375,-0.39864209294319153,-0.16321855783462524,0.03401457145810127
1726225668820779800,1.39477978515625,-0.3031128942966461,-0.08452694863080978,0.1420867145061493
1726225668830816800,1.404816650390625,-0.26395151019096375,-0.06332791596651077,-0.05030428618192673
1726225668840852700,1.414852783203125,-0.2602933645248413,-0.0017084958963096142,0.10093769431114197
1726225668850888700,1.424888671875,-0.2602088451385498,-0.0022376012057065964,0.42017441987991333
1726225668860926000,1.434926025390625,-0.2695077955722809,0.002717742696404457,0.18703784048557281
1726225668870962000,1.4449619140625,-0.24565455317497253,0.024313250556588173,-0.24954810738563538
1726225668880998000,1.454997802734375,-0.2025211900472641,-0.07703174650669098,-0.20569169521331787
1726225668891033900,1.465033935546875,-0.2889932692050934,-0.0790419727563858,0.0942649319767952
1726225668901070800,1.47507080078125,-0.2678597569465637,-0.045028071850538254,-0.5428518652915955
1726225668911106800,1.48510693359375,-0.2366073727607727,-0.045107174664735794,-0.46730929613113403
1726225668921142800,1.495142822265625,-0.1687532216310501,-0.03539835661649704,0.11312159895896912
1726225668931179800,1.5051796875,-0.21876999735832214,-0.04651985317468643,0.21397003531455994
1726225668941215700,1.5152158203125,-0.17137637734413147,0.010324790142476559,0.14968611299991608
1726225668951251700,1.525251708984375,-0.18475499749183655,-0.03028048574924469,-0.02953646518290043
1726225668961289000,1.5352890625,-0.2652711570262909,-0.025451909750699997,0.021918736398220062
1726225668971325000,1.545324951171875,-0.2206582874059677,-0.05483251065015793,0.515841007232666
1726225668981361000,1.55536083984375,-0.3398211598396301,-0.06316261738538742,0.17233611643314362
1726225668991396900,1.56539697265625,-0.44493967294692993,-0.15079458057880402,-0.262987345457077
1726225669001433900,1.575433837890625,-0.410645067691803,-0.19556072354316711,-0.19411134719848633
1726225669011469800,1.5854697265625,-0.41417622566223145,-0.16817118227481842,0.32808607816696167
1726225669021505800,1.595505859375,-0.414797306060791,-0.1921287178993225,0.19502098858356476
1726225669031542800,1.605542724609375,-0.4072282314300537,-0.28866976499557495,-0.20671218633651733
1726225669041578800,1.615578857421875,-0.39982038736343384,-0.2705291211605072,0.14119678735733032
1726225669051614700,1.62561474609375,-0.33463358879089355,-0.29777172207832336,0.31643974781036377
1726225669061650700,1.635650634765625,-0.42494484782218933,-0.2704010605812073,0.1660608947277069
1726225669071688000,1.64568798828125,-0.4623781442642212,-0.27734413743019104,0.17086778581142426
1726225669081724000,1.655723876953125,-0.46463170647621155,-0.2962970435619354,-0.07394995540380478
1726225669091759900,1.665759765625,-0.42765358090400696,-0.2496626377105713,-0.15890653431415558
1726225669101796900,1.675796875,-0.3649076521396637,-0.2784695327281952,-0.02958422526717186
1726225669111832800,1.685832763671875,-0.3205392062664032,-0.32607606053352356,0.0019790753722190857
1726225669121868800,1.695868896484375,-0.28739723563194275,-0.29782605171203613,0.16707028448581696
1726225669131904800,1.70590478515625,-0.25541460514068604,-0.26487454771995544,0.06371334940195084
1726225669141941800,1.715941650390625,-0.3323027193546295,-0.20183728635311127,0.11899019032716751
1726225669151977700,1.725977783203125,-0.3079475462436676,-0.2109038531780243,0.3288835287094116
1726225669162013700,1.736013671875,-0.18625520169734955,-0.2742663323879242,0.26567313075065613
1726225669172050700,1.74605078125,-0.12618030607700348,-0.2587222456932068,-0.13884642720222473
1726225669182086700,1.756086669921875,-0.031209057196974754,-0.2732551097869873,-0.12256572395563126
1726225669192123000,1.766122802734375,0.007907025516033173,-0.2080405056476593,0.09155862033367157
1726225669202159900,1.776159912109375,0.058471400290727615,-0.20181110501289368,-0.1647258847951889
1726225669212195800,1.78619580078125,0.07004492729902267,-0.207747220993042,-0.05082160234451294
1726225669222231800,1.796231689453125,0.12656545639038086,-0.09578580409288406,0.0410502627491951
1726225669232267800,1.806267822265625,0.18082740902900696,-0.1031852513551712,-0.010816646739840508
1726225669242304800,1.8163046875,0.12656603753566742,-0.03335930034518242,0.05432160943746567
1726225669252340700,1.8263408203125,0.2265031337738037,-0.008836852386593819,-0.07398669421672821
1726225669262376700,1.836376708984375,0.26480790972709656,0.021640896797180176,0.05503307282924652
1726225669272413700,1.84641357421875,0.2930809259414673,-0.033993661403656006,0.21995724737644196
1726225669282449700,1.85644970703125,0.3867959678173065,-0.07114875316619873,-0.03460713475942612
1726225669292485600,1.866485595703125,0.3132214844226837,-0.10433609783649445,0.06947934627532959
1726225669302518300,1.876518310546875,0.27762675285339355,-0.1051076129078865,0.08497148752212524
1726225669312555300,1.88655517578125,0.27596238255500793,-0.039584703743457794,-0.06976085901260376
1726225669322591200,1.89659130859375,0.27491843700408936,-0.030153119936585426,-0.11933400481939316
1726225669332627200,1.906627197265625,0.2489696592092514,-0.030210915952920914,-0.10282225906848907
1726225669342664200,1.916664306640625,0.2775709331035614,-0.04047020897269249,0.08390900492668152
1726225669352700200,1.9267001953125,0.3114038407802582,-0.056391049176454544,0.18451473116874695
1726225669362736000,1.936736083984375,0.31252264976501465,-0.10591785609722137,0.08479584753513336
1726225669372773400,1.9467734375,0.26864540576934814,-0.1582089066505432,-0.03239690512418747
1726225669382809300,1.956809326171875,0.25663214921951294,-0.1475658416748047,0.15280091762542725
1726225669392845300,1.96684521484375,0.27701619267463684,-0.16804282367229462,0.0466119647026062
1726225669402881300,1.97688134765625,0.23777852952480316,-0.11009349673986435,-0.23378826677799225
1726225669412918300,1.986918212890625,0.3083275258541107,-0.16608712077140808,0.029774440452456474
1726225669422954200,1.996954345703125,0.2589237689971924,-0.12243019789457321,0.0494309663772583
1726225669432990200,2.006990234375,0.31061944365501404,-0.0299176387488842,-0.08136475086212158
1726225669443027200,2.017027099609375,0.32484471797943115,0.037757810205221176,-0.03310587629675865
1726225669453063200,2.027063232421875,0.32031866908073425,0.06606608629226685,0.04713501036167145
1726225669463099100,2.03709912109375,0.3741872012615204,0.04257061332464218,0.15096473693847656
1726225669473136400,2.047136474609375,0.3912976086139679,0.18926352262496948,-0.15347327291965485
1726225669483172400,2.05717236328125,0.48280036449432373,0.14259321987628937,-0.3493650257587433
1726225669493208300,2.067208251953125,0.47094792127609253,0.12517182528972626,-0.06322243064641953
1726225669503244300,2.077244384765625,0.5157029032707214,0.13677947223186493,-0.2931693494319916
1726225669513281300,2.08728125,0.5587418079376221,0.2058340311050415,-0.4247412085533142
1726225669523317200,2.097317138671875,0.6030251383781433,0.15379825234413147,-0.23561470210552216
1726225669533353200,2.107353271484375,0.5941967964172363,0.18477562069892883,-0.17396079003810883
1726225669543390200,2.11739013671875,0.6542870402336121,0.2070428431034088,-0.18924786150455475
1726225669553426200,2.12742626953125,0.6884527206420898,0.25145357847213745,-0.16666650772094727
1726225669563462100,2.137462158203125,0.7133029103279114,0.2819958031177521,0.02616100385785103
1726225669573498400,2.147498291015625,0.7654135227203369,0.22334271669387817,-0.06653086841106415
1726225669583535400,2.157535400390625,0.7491189241409302,0.36544740200042725,-0.20791436731815338
1726225669593571300,2.1675712890625,0.7492273449897766,0.39694979786872864,-0.4652957022190094
1726225669603607300,2.177607177734375,0.6594623327255249,0.4300220012664795,-0.6084688305854797
1726225669613644300,2.187644287109375,0.6165684461593628,0.27429842948913574,-0.5196661949157715
1726225669623680300,2.19768017578125,0.6871810555458069,0.35753047466278076,-0.19624899327754974
1726225669633716200,2.20771630859375,0.7289073467254639,0.43172815442085266,0.3865739107131958
1726225669643753200,2.217753173828125,0.66583651304245,0.2653828561306,0.4778798520565033
1726225669653789200,2.2277890625,0.6106846332550049,0.4447283446788788,0.39519965648651123
1726225669663825200,2.2378251953125,0.5515749454498291,0.32367143034935,0.22451500594615936
1726225669673861400,2.247861328125,0.4777827858924866,0.4461943209171295,0.2760520577430725
1726225669683898000,2.257898193359375,0.6861927509307861,0.4702211022377014,-0.13518448173999786
1726225669693934300,2.267934326171875,0.5357980728149414,0.34480470418930054,0.3889739215373993
1726225669703970600,2.277970458984375,0.5010978579521179,0.29477617144584656,0.9249606132507324
1726225669714007300,2.28800732421875,0.4132753908634186,0.4742806851863861,0.6536974906921387
1726225669724043300,2.298043212890625,0.3596870005130768,0.45330509543418884,0.0020992248319089413
1726225669734079500,2.30807958984375,0.32071396708488464,0.37085720896720886,0.06216352805495262
1726225669744116200,2.3181162109375,0.2211221307516098,0.41954538226127625,0.16151221096515656
1726225669754152200,2.328152099609375,0.32787013053894043,0.3680509626865387,-0.15710265934467316
1726225669764188400,2.3381884765625,0.23732052743434906,0.41985052824020386,0.006101182196289301
1726225669774224400,2.348224365234375,0.24990534782409668,0.34848085045814514,0.058542400598526
1726225669784261000,2.35826123046875,0.1611829400062561,0.3133905231952667,0.15246570110321045
1726225669794297300,2.36829736328125,0.06405067443847656,0.3455702066421509,-0.08670731633901596
1726225669804333300,2.378333251953125,0.03330874443054199,0.3210560977458954,-0.16188089549541473
1726225669814370300,2.388370361328125,-0.07775852829217911,0.2831902503967285,0.1350552886724472
1726225669824406300,2.39840625,-0.0786522850394249,0.23639187216758728,-0.05503849312663078
1726225669834442500,2.4084423828125,-0.13022036850452423,0.2481924593448639,-0.13850727677345276
1726225669844479200,2.418479248046875,-0.1299319565296173,0.16432125866413116,0.0015172120183706284
1726225669854515200,2.42851513671875,-0.15699930489063263,0.06953608989715576,0.16859783232212067
1726225669864551400,2.438551513671875,-0.252628892660141,0.016708828508853912,0.13615892827510834
1726225669874587400,2.44858740234375,-0.26617488265037537,0.04499175399541855,-0.12772612273693085
1726225669884624100,2.4586240234375,-0.31098178029060364,-0.004319068044424057,0.06175778806209564
1726225669894660400,2.468660400390625,-0.4335092306137085,0.009131092578172684,0.1468789279460907
1726225669904696300,2.4786962890625,-0.4407293200492859,-0.000823004636913538,-0.29455360770225525
1726225669914733300,2.4887333984375,-0.5332061648368835,-0.032811239361763,0.020629215985536575
1726225669924769300,2.498769287109375,-0.4933341145515442,-0.04910712316632271,0.38114771246910095
1726225669934805500,2.508805419921875,-0.49239233136177063,-0.04940547049045563,0.22743244469165802
1726225669944842200,2.51884228515625,-0.558305025100708,-0.0718468576669693,0.11191384494304657
1726225669954878200,2.528878173828125,-0.5382357835769653,-0.1529412567615509,0.5415098667144775
1726225669964914400,2.53891455078125,-0.6473734378814697,-0.14538507163524628,0.6762160658836365
1726225669974950400,2.548950439453125,-0.6745187640190125,-0.13217982649803162,0.05927891284227371
1726225669984987100,2.558987060546875,-0.70197993516922,-0.0714845210313797,-0.32409536838531494
1726225669995023400,2.5690234375,-0.6382364630699158,-0.20620472729206085,-0.016847696155309677
1726225670005059300,2.579059326171875,-0.5353769063949585,-0.23437511920928955,0.18635521829128265
1726225670015096300,2.589096435546875,-0.4891257882118225,-0.13504339754581451,-0.13948418200016022
1726225670025132500,2.599132568359375,-0.38686224818229675,-0.10415791720151901,0.09582927823066711
1726225670035168500,2.60916845703125,-0.4042174220085144,-0.0852537453174591,0.24624431133270264
1726225670045205200,2.619205322265625,-0.4389439821243286,0.018391162157058716,-0.2332668900489807
1726225670055241500,2.629241455078125,-0.41600802540779114,0.12024310231208801,-0.2976895272731781
1726225670065277400,2.63927734375,-0.40908461809158325,0.055029481649398804,-0.06387996673583984
1726225670075314200,2.649314208984375,-0.34932267665863037,0.03485427796840668,0.000020277220755815506
1726225670085350400,2.659350341796875,-0.2281416654586792,0.03787083923816681,-0.5958375334739685
1726225670095386400,2.669386474609375,-0.1630011796951294,0.01502169668674469,-0.534346342086792
1726225670105422300,2.67942236328125,-0.08737485110759735,0.09389280527830124,0.0964164212346077
1726225670115459300,2.689459228515625,-0.07885003089904785,0.08856038749217987,0.11678236722946167
1726225670125495600,2.69949560546875,-0.08606346696615219,0.015129313804209232,-0.07578681409358978
1726225670135531500,2.709531494140625,-0.0826491266489029,0.051577404141426086,-0.30658257007598877
1726225670145568300,2.719568359375,-0.11781191825866699,0.09903892129659653,-0.09691908210515976
1726225670155604500,2.7296044921875,-0.06180094555020332,0.061219263821840286,0.32940757274627686
1726225670165640400,2.739640380859375,-0.11100710183382034,0.07567250728607178,0.014933781698346138
1726225670175677200,2.74967724609375,-0.10515491664409637,0.09393701702356339,-0.16229769587516785
1726225670185713400,2.75971337890625,-0.0497308075428009,0.030076544731855392,0.23004105687141418
1726225670195749400,2.769749267578125,-0.07997395098209381,0.0052536968141794205,0.365482360124588
1726225670205785300,2.779785400390625,-0.09216217696666718,-0.043161772191524506,0.07704552263021469
1726225670215822300,2.789822265625,-0.1714908480644226,-0.10973825305700302,-0.10183900594711304
1726225670225858300,2.7998583984375,-0.19910356402397156,-0.10203985869884491,0.15352271497249603
1726225670235894500,2.80989453125,-0.1886155754327774,-0.11633685231208801,0.20506651699543
1726225670245931300,2.81993115234375,-0.2820110619068146,-0.12555032968521118,-0.131483793258667
1726225670255967500,2.829967529296875,-0.298022985458374,-0.14755941927433014,0.019862022250890732
1726225670266003500,2.84000341796875,-0.28402459621429443,-0.09855139255523682,0.6448867321014404
1726225670276040200,2.850040283203125,-0.3104549050331116,-0.07009956240653992,0.5146588087081909
1726225670286076400,2.860076416015625,-0.40900278091430664,-0.1944873034954071,-0.11161517351865768
1726225670296112400,2.8701123046875,-0.4513787627220154,-0.15905220806598663,-0.22619104385375977
1726225670306153000,2.880153076171875,-0.4802554249763489,-0.2041352540254593,0.03961028531193733
1726225670316189000,2.89018896484375,-0.47278347611427307,-0.17891445755958557,0.08534747362136841
1726225670326225200,2.90022509765625,-0.41247299313545227,-0.16231630742549896,0.09658361971378326
1726225670336261000,2.91026123046875,-0.3862535357475281,-0.18814395368099213,0.34003204107284546
1726225670346297900,2.9202978515625,-0.3503040671348572,-0.25053223967552185,0.3922904431819916
1726225670356334000,2.930333984375,-0.354343056678772,-0.15417569875717163,0.2112559825181961
1726225670366370000,2.9403701171875,-0.338313490152359,-0.3173696994781494,-0.1102520078420639
1726225670376407000,2.950406982421875,-0.41906994581222534,-0.266304075717926,-0.08416913449764252
1726225670386443300,2.960443359375,-0.2830553650856018,-0.31022441387176514,-0.0575399249792099
1726225670396479200,2.970479248046875,-0.29609355330467224,-0.24284178018569946,-0.2602802813053131
1726225670406516000,2.980515869140625,-0.26270735263824463,-0.2828270196914673,-0.1836070865392685
1726225670416552200,2.99055224609375,-0.2841247320175171,-0.23980651795864105,0.05404262989759445
1726225670426588200,3.000588134765625,-0.2826211154460907,-0.2049470692873001,0.03893451765179634
1726225670436625000,3.010625,-0.2397758811712265,-0.19630925357341766,-0.06457245349884033
1726225670446661000,3.0206611328125,-0.20761793851852417,-0.24811120331287384,0.05918251350522041
1726225670456697000,3.030697021484375,-0.15422536432743073,-0.292266845703125,0.05522600933909416
1726225670466733000,3.040733154296875,-0.12425094842910767,-0.26060134172439575,-0.34096047282218933
1726225670476770000,3.05077001953125,-0.11965908855199814,-0.19563819468021393,-0.3129056990146637
1726225670486806300,3.06080615234375,-0.047492217272520065,-0.2598973512649536,-0.1226143017411232
1726225670496842200,3.07084228515625,-0.09022019803524017,-0.22240860760211945,-0.2583819329738617
1726225670506879000,3.08087890625,-0.04333018884062767,-0.2688312232494354,-0.21074727177619934
1726225670516915200,3.090915283203125,-0.054049551486968994,-0.1934700906276703,-0.10669828951358795
1726225670526951200,3.100951171875,-0.041842684149742126,-0.14931994676589966,0.06392697989940643
1726225670536988000,3.11098779296875,0.03598908707499504,-0.1339603066444397,-0.04327117279171944
1726225670547024100,3.121024169921875,0.06141481548547745,-0.08765192329883575,-0.12859831750392914
1726225670557060000,3.13106005859375,0.12688100337982178,-0.08651583641767502,-0.13859544694423676
1726225670567097000,3.14109716796875,0.20933885872364044,-0.10771246999502182,-0.026867583394050598
1726225670577133000,3.151133056640625,0.24598440527915955,-0.0887874960899353,0.02260930836200714
1726225670587169300,3.161169189453125,0.32915493845939636,-0.07575079053640366,-0.1675904542207718
1726225670597205200,3.171205322265625,0.339902400970459,-0.032596271485090256,0.13835082948207855
1726225670607242000,3.181241943359375,0.3796849548816681,0.032086052000522614,0.04146236553788185
1726225670617278200,3.1912783203125,0.4391844570636749,0.06450719386339188,-0.03485306352376938
1726225670627314200,3.201314208984375,0.4401458501815796,0.10663600265979767,0.04186142235994339
1726225670637351000,3.211350830078125,0.5338848829269409,0.12124483287334442,-0.029279455542564392
1726225670647387100,3.22138720703125,0.5515424609184265,0.165339857339859,0.27155786752700806
1726225670657423000,3.231423095703125,0.5856830477714539,0.23992519080638885,0.08323327451944351
1726225670667459800,3.2414599609375,0.6202381253242493,0.2558900713920593,-0.324393630027771
1726225670677496000,3.25149609375,0.6494879126548767,0.2912319302558899,-0.17453399300575256
1726225670687532300,3.2615322265625,0.7043493390083313,0.25271520018577576,-0.054255254566669464
1726225670697569000,3.271569091796875,0.681400716304779,0.27060794830322266,-0.14607615768909454
1726225670707605200,3.281605224609375,0.745136559009552,0.32556387782096863,-0.2351972460746765
1726225670717641200,3.29164111328125,0.690605878829956,0.36598387360572815,-0.09384140372276306
1726225670727677200,3.30167724609375,0.6764825582504272,0.3707501292228699,-0.04423069953918457
1726225670737714200,3.311714111328125,0.6770819425582886,0.38111287355422974,0.06311684846878052
1726225670747750100,3.321750244140625,0.6525321006774902,0.3790806233882904,-0.06204267218708992
1726225670757786000,3.3317861328125,0.665808379650116,0.4234589636325836,-0.30208662152290344
1726225670767823000,3.341822998046875,0.6548888683319092,0.40936073660850525,-0.22505921125411987
1726225670777859000,3.351859130859375,0.5687348246574402,0.40796327590942383,-0.01432579942047596
1726225670787895000,3.36189501953125,0.6030603051185608,0.36808136105537415,-0.35495927929878235
1726225670797932000,3.37193212890625,0.5155947804450989,0.3361174464225769,-0.1813894659280777
1726225670807968300,3.38196826171875,0.5015620589256287,0.2651732563972473,-0.034713733941316605
1726225670818004200,3.392004150390625,0.4229666292667389,0.20911134779453278,-0.05291950702667236
1726225670828041000,3.402041015625,0.31958696246147156,0.15606358647346497,-0.06275482475757599
1726225670838077200,3.4120771484375,0.2991876006126404,0.06770317256450653,0.01811661571264267
1726225670848113200,3.422113037109375,0.14828944206237793,0.014226099476218224,0.16387061774730682
1726225670858149000,3.432149169921875,0.012527820654213428,0.08278000354766846,0.028580866754055023
1726225670868186000,3.44218603515625,-0.12536878883838654,0.07383683323860168,-0.14859630167484283
1726225670878222000,3.45222216796875,-0.28078338503837585,0.10120625793933868,-0.03226384148001671
1726225670888258000,3.462258056640625,-0.25966453552246094,-0.010164739564061165,-0.18969660997390747
1726225670898295000,3.472294921875,-0.3716041147708893,-0.06938576698303223,0.05235850438475609
1726225670908331300,3.482331298828125,-0.3714757561683655,-0.09784670174121857,0.033634085208177567
1726225670918367200,3.4923671875,-0.379901647567749,-0.12968015670776367,0.0401163212954998
1726225670928404000,3.502404052734375,-0.46141302585601807,-0.1580638587474823,0.362324982881546
1726225670938440200,3.512440185546875,-0.4539451599121094,-0.19163279235363007,0.12480758875608444
1726225670948476200,3.52247607421875,-0.5392012000083923,-0.18873926997184753,-0.0042446693405508995
1726225670958513000,3.532512939453125,-0.5587475299835205,-0.16922618448734283,-0.08339042961597443
1726225670968549000,3.542549072265625,-0.5386362075805664,-0.19728711247444153,0.008543487638235092
1726225670978585000,3.552585205078125,-0.5943166017532349,-0.15219023823738098,-0.13031554222106934
1726225670988622000,3.5626220703125,-0.5103433728218079,-0.21057870984077454,-0.3784331977367401
1726225670998658300,3.572658203125,-0.5753451585769653,-0.22936028242111206,0.09554015845060349
1726225671008694300,3.5826943359375,-0.5267294049263,-0.2632615268230438,0.29853934049606323
1726225671018730200,3.592730224609375,-0.46769416332244873,-0.2200159877538681,0.10946228355169296
1726225671028767200,3.602767333984375,-0.4618634283542633,-0.2023584395647049,0.2577047348022461
1726225671038803200,3.61280322265625,-0.4678327143192291,-0.24605314433574677,0.26853689551353455
1726225671048839200,3.622839111328125,-0.5344527959823608,-0.2381795197725296,0.34000256657600403
1726225671058876200,3.632876220703125,-0.4849492013454437,-0.18298664689064026,0.016571421176195145
1726225671068912000,3.642912109375,-0.524783730506897,-0.23588475584983826,0.4230760633945465
1726225671078948000,3.652947998046875,-0.5049464702606201,-0.18007127940654755,0.6062036156654358
1726225671088985000,3.662985107421875,-0.3783802390098572,-0.20686879754066467,0.15187710523605347
1726225671099021000,3.67302099609375,-0.412136435508728,-0.21015502512454987,0.07444147765636444
1726225671109057300,3.683057373046875,-0.3641979396343231,-0.24089162051677704,0.10274981707334518
1726225671119094000,3.693093994140625,-0.33455947041511536,-0.23962102830410004,0.07649573683738708
1726225671129130200,3.703130126953125,-0.3254905939102173,-0.22620853781700134,0.0867057666182518
1726225671139166200,3.713166259765625,-0.23731492459774017,-0.24629350006580353,0.07181856781244278
1726225671149203000,3.723202880859375,-0.24645088613033295,-0.18664775788784027,0.03684647008776665
1726225671159239200,3.7332392578125,-0.18314966559410095,-0.2393452376127243,0.2945125997066498
1726225671169275100,3.743275146484375,-0.23121653497219086,-0.15593956410884857,-0.16825929284095764
1726225671179311000,3.75331103515625,-0.1581035554409027,-0.049781717360019684,-0.14510424435138702
1726225671189348000,3.76334814453125,-0.12834486365318298,-0.047134801745414734,0.23557306826114655
1726225671199384000,3.773384033203125,-0.10121581703424454,-0.03182031959295273,0.09754838049411774
1726225671209420000,3.783419921875,0.05600417032837868,-0.07912231981754303,-0.10838188230991364
1726225671219457000,3.79345703125,0.035932257771492004,0.0025262401904910803,0.27466917037963867
1726225671229493200,3.8034931640625,0.18515796959400177,0.007462675683200359,0.43172991275787354
1726225671239529200,3.813529296875,0.17136505246162415,-0.015819422900676727,-0.22937339544296265
1726225671249566000,3.82356591796875,0.1695149540901184,0.02183740772306919,-0.1664239764213562
1726225671259602200,3.833602294921875,0.2174113541841507,0.028966719284653664,0.07167793065309525
1726225671269638100,3.84363818359375,0.14678779244422913,0.04605089873075485,0.015547284856438637
1726225671279675000,3.8536748046875,0.1857796311378479,0.03939052298665047,0.031700968742370605
1726225671289711000,3.863711181640625,0.1388949453830719,0.07891689240932465,0.055573541671037674
1726225671299747000,3.8737470703125,0.12762612104415894,0.1050812304019928,0.113663449883461
1726225671309780700,3.88378076171875,0.15891292691230774,0.05459780991077423,0.3059830963611603
1726225671319816700,3.893816650390625,0.06166071817278862,0.010857857763767242,0.3617030382156372
1726225671329853000,3.90385302734375,0.08532264083623886,0.013769226148724556,-0.12462157011032104
1726225671339889700,3.9138896484375,0.03768971189856529,-0.006779479794204235,-0.10828646272420883
1726225671349925600,3.923925537109375,0.031063232570886612,-0.050863850861787796,0.1558341383934021
1726225671359961900,3.9339619140625,0.01307679433375597,-0.09743770956993103,-0.08591166883707047
1726225671369997800,3.943997802734375,-0.014687192626297474,-0.004566087853163481,-0.185329869389534
1726225671380034600,3.95403466796875,0.024224665015935898,-0.09157077968120575,0.1341007947921753
1726225671390070800,3.96407080078125,-0.06150728464126587,-0.1020820140838623,0.12680213153362274
1726225671400106800,3.974106689453125,-0.08706242591142654,-0.09618997573852539,-0.18741026520729065
1726225671410143700,3.984143798828125,-0.10707181692123413,-0.056974925100803375,-0.0626390352845192
1726225671420180000,3.994179931640625,-0.12715353071689606,-0.09586533904075623,-0.12627001106739044
1726225671430216000,4.0042158203125,-0.11248963326215744,-0.10965491831302643,0.02725963294506073
1726225671440252700,4.014252685546875,-0.12600605189800262,-0.13072626292705536,-0.2216055542230606
1726225671450289000,4.024288818359375,-0.10811307281255722,-0.08761021494865417,-0.4044573903083801
1726225671460324900,4.034324951171875,-0.10092946141958237,-0.15555144846439362,0.06902869045734406
1726225671470361600,4.044361572265625,-0.11607938259840012,-0.14580374956130981,0.23421896994113922
1726225671480397800,4.054397705078125,-0.13869021832942963,-0.1252826303243637,0.20434807240962982
1726225671490433800,4.064433837890625,-0.18651632964611053,-0.10121110826730728,-0.12680350244045258
1726225671500470500,4.074470458984375,-0.1406041532754898,-0.12278951704502106,0.0568561777472496
1726225671510506800,4.0845068359375,-0.16750448942184448,-0.22732843458652496,0.38890814781188965
1726225671520543000,4.09454296875,-0.1658371090888977,-0.1802784651517868,-0.19719353318214417
1726225671530579700,4.104579833984375,-0.13525816798210144,-0.16124485433101654,-0.21543805301189423
1726225671540615700,4.11461572265625,-0.08483508229255676,-0.17963212728500366,-0.05445508286356926
1726225671550652000,4.12465185546875,-0.03300703689455986,-0.18691055476665497,0.09254740923643112
1726225671560687900,4.13468798828125,0.009703202173113823,-0.15289649367332458,-0.06677065044641495
1726225671570724600,4.144724609375,0.03098292276263237,-0.1155129075050354,-0.02717823162674904
1726225671580760800,4.1547607421875,0.11964297294616699,-0.055452439934015274,0.13425621390342712
1726225671590796800,4.164796875,0.16320934891700745,0.03373948857188225,-0.10829011350870132
1726225671600833500,4.17483349609375,0.2120891511440277,0.054787568747997284,0.22723044455051422
1726225671610869800,4.184869873046875,0.2442137897014618,0.10670189559459686,0.15453866124153137
1726225671620905700,4.19490576171875,0.34291043877601624,0.13885962963104248,-0.17414768040180206
1726225671630942700,4.204942626953125,0.363770455121994,0.15586870908737183,0.07777829468250275
1726225671640978700,4.214978759765625,0.48829400539398193,0.20479342341423035,0.05430706590414047
1726225671651015000,4.225014892578125,0.5674830675125122,0.19407740235328674,-0.05370195955038071
1726225671661051600,4.2350517578125,0.5319594144821167,0.20917366445064545,0.018213938921689987
1726225671671087600,4.245087646484375,0.6261075139045715,0.24093984067440033,-0.045471563935279846
1726225671681123800,4.255123779296875,0.5887241363525391,0.285631388425827,-0.07347509264945984
1726225671691160600,4.26516064453125,0.5767737030982971,0.28988179564476013,0.14743384718894958
1726225671701196500,4.275196533203125,0.6269312500953674,0.16542045772075653,0.014131415635347366
1726225671711232800,4.285232666015625,0.5100336670875549,0.3208654224872589,-0.4801028072834015
1726225671721269800,4.295269775390625,0.5911254286766052,0.21900132298469543,-0.36436760425567627
1726225671731305700,4.3053056640625,0.4104911983013153,0.2814479172229767,0.047113947570323944
1726225671741342000,4.315342041015625,0.4472215473651886,0.25140464305877686,-0.47875654697418213
1726225671751378000,4.3253779296875,0.4492871165275574,0.27958357334136963,-0.3736133277416229
1726225671761414700,4.33541455078125,0.4058590531349182,0.2988663613796234,0.14944475889205933
1726225671771451000,4.345450927734375,0.3615190088748932,0.19397614896297455,0.042862389236688614
1726225671781486800,4.35548681640625,0.298916220664978,0.21026009321212769,0.055062007158994675
1726225671791523600,4.365523681640625,0.2607264816761017,0.19656984508037567,0.22254925966262817
1726225671801559800,4.375559814453125,0.15359996259212494,0.15269945561885834,-0.08635301142930984
1726225671811595800,4.385595703125,0.06119200959801674,0.07686381787061691,-0.16104242205619812
1726225671821632500,4.395632568359375,-0.033762507140636444,0.07498595118522644,-0.024016916751861572
1726225671831668700,4.405668701171875,-0.053866177797317505,0.023848196491599083,-0.1368768811225891
1726225671841705000,4.415705078125,-0.08654548972845078,-0.03598889335989952,-0.09526769071817398
1726225671851741700,4.42574169921875,-0.11290305852890015,-0.09773455560207367,-0.026875056326389313
1726225671861777700,4.435777587890625,-0.10597531497478485,-0.12413327395915985,-0.01794564351439476
1726225671871814000,4.44581396484375,-0.13329482078552246,-0.14736029505729675,0.01978069543838501
1726225671881850600,4.4558505859375,-0.16902153193950653,-0.2070859968662262,0.15966317057609558
1726225671891886600,4.465886474609375,-0.2668636739253998,-0.18662971258163452,0.04226677119731903
1726225671901922800,4.4759228515625,-0.35659560561180115,-0.18374773859977722,-0.3187645673751831
1726225671911959600,4.48595947265625,-0.4157622456550598,-0.2007877081632614,0.14637382328510284
1726225671921995500,4.49599560546875,-0.3753350079059601,-0.23028239607810974,-0.008457394316792488
1726225671932031700,4.50603173828125,-0.39003247022628784,-0.21207329630851746,-0.09841338545084
1726225671942067700,4.516067626953125,-0.33664411306381226,-0.26425686478614807,0.27815505862236023
1726225671952104700,4.526104736328125,-0.2934867739677429,-0.2706596255302429,0.3844048082828522
1726225671962140700,4.536140625,-0.26146796345710754,-0.188936248421669,0.26148319244384766
1726225671972177000,4.546177001953125,-0.24526210129261017,-0.1469765454530716,0.07956346869468689
1726225671982213600,4.556213623046875,-0.2211725115776062,-0.055663205683231354,0.16034181416034698
1726225671992249600,4.56624951171875,-0.11519920825958252,-0.03151765465736389,0.16948817670345306
1726225672002285800,4.576285888671875,-0.08260183781385422,-0.014733333140611649,0.11582241952419281
1726225672012322600,4.586322509765625,-0.014183096587657928,-0.017420995980501175,-0.04544982686638832
1726225672022358500,4.596358642578125,0.08970150351524353,0.023111823946237564,0.1414116472005844
1726225672032394800,4.606394775390625,0.16334590315818787,0.03693362697958946,0.10469625145196915
1726225672042431700,4.616431640625,0.2220953404903412,0.0053804488852620125,-0.00028773723170161247
1726225672052467700,4.6264677734375,0.2346327006816864,0.030592327937483788,0.11688575148582458
1726225672062504000,4.63650390625,0.2950691878795624,0.14411313831806183,0.02676008827984333
1726225672072540700,4.646540771484375,0.3520539104938507,0.10576841980218887,0.3005703091621399
1726225672082576600,4.65657666015625,0.2869851887226105,0.1378442943096161,0.3286469280719757
1726225672092612900,4.66661279296875,0.38755226135253906,0.10224661231040955,-0.19829465448856354
1726225672102649600,4.676649658203125,0.36072686314582825,0.1280813217163086,-0.19029609858989716
1726225672112685600,4.686685546875,0.3179069459438324,0.07829033583402634,0.08564361929893494
1726225672122721800,4.6967216796875,0.33608031272888184,0.06914886832237244,0.024546444416046143
1726225672132758800,4.7067587890625,0.24054501950740814,0.10742409527301788,-0.12251304090023041
1726225672142794800,4.716794677734375,0.2608512341976166,0.1399875283241272,0.06025497242808342
1726225672152830700,4.726830810546875,0.18751047551631927,0.17225652933120728,0.008839715272188187
1726225672162867000,4.736866943359375,0.135147824883461,0.16385909914970398,0.09191600978374481
1726225672172903700,4.746903564453125,0.15817803144454956,0.14154979586601257,-0.020733576267957687
1726225672182939600,4.756939697265625,0.142990842461586,0.11907593905925751,-0.002126382663846016
1726225672192976000,4.766975830078125,0.11999978125095367,0.08908341825008392,0.145448699593544
1726225672203012600,4.7770126953125,0.13711968064308167,0.10813546925783157,-0.07971010357141495
1726225672213048600,4.787048583984375,0.12791979312896729,0.1165183037519455,0.24163544178009033
1726225672223084800,4.797084716796875,0.14666204154491425,0.1672736406326294,-0.03256285935640335
1726225672233121500,4.80712158203125,0.20298364758491516,0.18008264899253845,-0.023135533556342125
1726225672243157500,4.817157470703125,0.18526923656463623,0.21098673343658447,0.06863003969192505
1726225672253193700,4.82719384765625,0.24636054039001465,0.18860313296318054,-0.031290967017412186
1726225672263230700,4.837230712890625,0.21901404857635498,0.20627491176128387,0.15862348675727844
1726225672273266700,4.8472666015625,0.22615770995616913,0.2092834860086441,0.0007526255212724209
1726225672283302700,4.857302734375,0.2198348045349121,0.2658713161945343,-0.33690956234931946
1726225672293339600,4.867339599609375,0.14677684009075165,0.25281837582588196,-0.08041731268167496
1726225672303379000,4.87737890625,0.237709179520607,0.18644098937511444,-0.31913140416145325
1726225672313415200,4.887415283203125,0.15181531012058258,0.20064416527748108,-0.33054545521736145
1726225672323452000,4.897451904296875,0.17187675833702087,0.08309705555438995,-0.11561932414770126
1726225672333487900,4.90748779296875,0.15275952219963074,0.07893693447113037,-0.14710243046283722
1726225672343524000,4.917524169921875,0.08187653869390488,0.0587967224419117,0.005724032409489155
1726225672353560800,4.927560791015625,0.06685284525156021,-0.02459404245018959,-0.012214753776788712
1726225672363596800,4.9375966796875,-0.10602826625108719,0.020076440647244453,-0.24320940673351288
1726225672373633000,4.947633056640625,-0.14469099044799805,0.012451011687517166,-0.09824156016111374
1726225672383669800,4.957669677734375,-0.22488537430763245,-0.039678122848272324,0.07762344181537628
1726225672393705700,4.967705810546875,-0.3774954080581665,-0.05607707053422928,-0.2178470939397812
1726225672403742000,4.977741943359375,-0.35591042041778564,-0.1282893866300583,-0.005592773202806711
1726225672413778200,4.987778076171875,-0.44808802008628845,-0.12331301718950272,0.0966491773724556
1726225672423815000,4.99781494140625,-0.41839587688446045,-0.18868526816368103,-0.12151369452476501
1726225672433851000,5.007850830078125,-0.4648725390434265,-0.19131620228290558,-0.04808128625154495
1726225672443887000,5.01788720703125,-0.46888551115989685,-0.20353923738002777,0.03492790833115578
1726225672453923800,5.027923828125,-0.4528442323207855,-0.21535460650920868,0.022346068173646927
1726225672463959800,5.037959716796875,-0.4455968141555786,-0.2246953696012497,-0.023947324603796005
1726225672473996000,5.04799609375,-0.4239213466644287,-0.19971251487731934,-0.2716498076915741
1726225672484032800,5.05803271484375,-0.39067497849464417,-0.13558760285377502,0.10454034060239792
1726225672494068700,5.06806884765625,-0.29223522543907166,-0.0010638763196766376,-0.1914721429347992
1726225672504105000,5.07810498046875,-0.23594537377357483,-0.05475220829248428,-0.13114726543426514
1726225672514142000,5.088141845703125,-0.22975139319896698,-0.006267232820391655,0.13986799120903015
1726225672524178000,5.098177978515625,-0.08384282141923904,0.05332517623901367,-0.11870983242988586
1726225672534214100,5.108214111328125,0.027528434991836548,0.15472476184368134,0.027880141511559486
1726225672544251000,5.1182509765625,0.0780409500002861,0.13593469560146332,0.23417800664901733
1726225672554286800,5.128286865234375,0.15498898923397064,0.1139359250664711,-0.10926856100559235
1726225672564323000,5.138322998046875,0.21269972622394562,0.1470649242401123,-0.186997190117836
1726225672574359800,5.14835986328125,0.2952824831008911,0.20877808332443237,0.1900840550661087
1726225672584395800,5.158395751953125,0.39665457606315613,0.2088724970817566,-0.12511847913265228
1726225672594432000,5.168431884765625,0.4252649247646332,0.2996000051498413,-0.3057146370410919
1726225672604469000,5.178468994140625,0.4819927513599396,0.288029283285141,0.19909511506557465
1726225672614505000,5.1885048828125,0.5095268487930298,0.34406378865242004,0.1615956872701645
1726225672624541000,5.198541015625,0.47126996517181396,0.3365606665611267,-0.15338605642318726
1726225672634578000,5.208577880859375,0.46031612157821655,0.33783605694770813,-0.07472773641347885
1726225672644614000,5.21861376953125,0.44658756256103516,0.32328563928604126,0.30024266242980957
1726225672654649900,5.22864990234375,0.3931048810482025,0.33989259600639343,0.17436569929122925
1726225672664686000,5.23868603515625,0.3777095675468445,0.27211540937423706,-0.012383375316858292
1726225672674722800,5.248722900390625,0.27352750301361084,0.22398731112480164,-0.29395991563796997
1726225672684758800,5.2587587890625,0.2142861932516098,0.17236872017383575,-0.058625366538763046
1726225672694795000,5.268794921875,0.1466972976922989,0.1332109272480011,-0.016976721584796906
1726225672704831700,5.278831787109375,0.03112121671438217,0.15597200393676758,-0.12334766983985901
1726225672714868000,5.288867919921875,-0.024033650755882263,0.15037883818149567,-0.010560664348304272
1726225672724904000,5.298904052734375,-0.06338375806808472,0.14597918093204498,0.15254539251327515
1726225672734941000,5.30894091796875,-0.12721121311187744,0.08488652855157852,0.32800057530403137
1726225672744977000,5.318976806640625,-0.1800403743982315,0.005358078517019749,0.10684990137815475
1726225672755012900,5.329012939453125,-0.26104044914245605,0.007383944932371378,-0.2603619396686554
1726225672765049900,5.3390498046875,-0.28069591522216797,-0.03410785272717476,0.1037551760673523
1726225672775085800,5.3490859375,-0.3258165121078491,-0.03365778177976608,0.2682964503765106
1726225672785121800,5.359121826171875,-0.4013180136680603,-0.062149278819561005,-0.23394785821437836
1726225672795158800,5.36915869140625,-0.3670237064361572,-0.10341096669435501,-0.00453250203281641
1726225672805194800,5.37919482421875,-0.31680673360824585,-0.12378653883934021,0.27228689193725586
1726225672815230700,5.389230712890625,-0.29934412240982056,-0.11083158850669861,-0.025888320058584213
1726225672825268000,5.39926806640625,-0.2818751335144043,-0.07695591449737549,-0.014768557623028755
1726225672835304000,5.409303955078125,-0.23515820503234863,-0.02034110389649868,0.29033568501472473
1726225672845340000,5.41933984375,-0.17224225401878357,-0.09423620253801346,0.24218103289604187
1726225672855377000,5.429376953125,-0.19166575372219086,-0.07593975961208344,0.059092432260513306
1726225672865412900,5.439412841796875,-0.17264673113822937,-0.13873590528964996,-0.3045165538787842
1726225672875448800,5.44944873046875,-0.16409558057785034,-0.1261838972568512,-0.011459656059741974
1726225672885485800,5.45948583984375,-0.15558934211730957,-0.08494620770215988,-0.3329714238643646
1726225672895521800,5.469521728515625,-0.12873004376888275,-0.039372604340314865,-0.5074521899223328
1726225672905557800,5.479557861328125,-0.08789855986833572,-0.032333556562662125,-0.0529852993786335
1726225672915595000,5.489594970703125,-0.12189114838838577,-0.024166442453861237,0.14331550896167755
1726225672925631000,5.499630859375,-0.04805247485637665,-0.06524115800857544,0.13727127015590668
1726225672935667000,5.5096669921875,-0.06132007762789726,-0.04574762284755707,0.1579456627368927
1726225672945704000,5.519703857421875,-0.04724261164665222,-0.015986818820238113,0.12198437005281448
1726225672955740000,5.529739990234375,0.0066128941252827644,-0.05845890939235687,-0.09131326526403427
1726225672965776000,5.53977587890625,-0.003968770615756512,-0.050939466804265976,0.036580268293619156
1726225672975811800,5.549811767578125,-0.00705990195274353,-0.05498747155070305,-0.1090693473815918
1726225672985848800,5.559848876953125,-0.00516522629186511,0.007945911027491093,-0.0878136157989502
1726225672995884800,5.569884765625,0.050867415964603424,-0.026792893186211586,0.06482918560504913
1726225673005920800,5.579920654296875,0.04595787823200226,-0.015000415965914726,0.016718652099370956
1726225673015957800,5.589957763671875,0.07149253040552139,0.0004887939430773258,-0.025641053915023804
1726225673025994000,5.599993896484375,0.1052364781498909,0.036172136664390564,0.06048630550503731
1726225673036030000,5.610030029296875,0.15055148303508759,-0.06565675139427185,0.2489400953054428
1726225673046067000,5.62006689453125,0.07702218741178513,0.005303798243403435,0.0872485563158989
1726225673056103000,5.63010302734375,0.081270731985569,-0.04405895993113518,-0.34310391545295715
1726225673066139000,5.640138916015625,0.00205916166305542,-0.0375022292137146,-0.11827810108661652
1726225673076176000,5.65017578125,0.06798331439495087,-0.11461485922336578,-0.17227450013160706
1726225673086211800,5.6602119140625,0.025898784399032593,-0.08041277527809143,-0.18886931240558624
1726225673096247800,5.670247802734375,0.010107038542628288,-0.08306875079870224,-0.0178376417607069
1726225673106284800,5.680284912109375,0.02570037916302681,-0.06708472222089767,0.08068999648094177
1726225673116320800,5.69032080078125,-0.036912668496370316,-0.06012322008609772,0.06271446496248245
1726225673126356700,5.700356689453125,-0.00793281476944685,-0.13020382821559906,0.08227390795946121
1726225673136394000,5.71039404296875,-0.05178922042250633,-0.06367113441228867,-0.04930249601602554
1726225673146430000,5.720429931640625,-0.05454975366592407,-0.06158989667892456,0.07525981962680817
1726225673156466000,5.7304658203125,0.017512187361717224,-0.07006833702325821,0.05019441619515419
1726225673166503000,5.7405029296875,-0.052093371748924255,-0.0287815872579813,-0.1331174075603485
1726225673176539000,5.750538818359375,0.053336381912231445,-0.06705068051815033,0.2384454905986786
1726225673186574800,5.760574951171875,0.08083810657262802,-0.00832340493798256,-0.03084164299070835
1726225673196611800,5.77061181640625,0.1264985352754593,0.02838960289955139,-0.14274926483631134
1726225673206647800,5.780647705078125,0.2140532284975052,-0.008725028485059738,0.005995366256684065
1726225673216683800,5.790683837890625,0.18723253905773163,0.060613032430410385,0.07323219627141953
1726225673226721000,5.800720947265625,0.28993961215019226,0.03792450949549675,0.22819174826145172
1726225673236757000,5.810757080078125,0.2801820635795593,0.12888796627521515,0.04215318337082863
1726225673246793000,5.82079296875,0.3386870324611664,0.14684642851352692,-0.27258843183517456
1726225673256830000,5.830829833984375,0.3488920032978058,0.1451348215341568,-0.027174929156899452
1726225673266866000,5.840865966796875,0.4194032549858093,0.15464939177036285,-0.15175075829029083
1726225673276902000,5.85090185546875,0.4411138892173767,0.11949005722999573,-0.10696385055780411
1726225673286939000,5.86093896484375,0.4042847156524658,0.14482514560222626,0.07391837984323502
1726225673296974800,5.870974853515625,0.46201273798942566,0.18050138652324677,-0.0032296704594045877
1726225673307007200,5.88100732421875,0.4284374415874481,0.23171555995941162,0.2225176990032196
1726225673317044200,5.891044189453125,0.4643605649471283,0.13936246931552887,0.28304019570350647
1726225673327080200,5.901080078125,0.432428240776062,0.24424238502979279,-0.07491537183523178
1726225673337116200,5.9111162109375,0.46199119091033936,0.2944818437099457,-0.19709347188472748
1726225673347153400,5.9211533203125,0.44531962275505066,0.27174875140190125,0.18386518955230713
1726225673357189400,5.931189453125,0.3748758137226105,0.36089858412742615,-0.08971495181322098
1726225673367225300,5.941225341796875,0.481266587972641,0.3599693775177002,-0.2075139880180359
1726225673377261300,5.95126123046875,0.4240267276763916,0.2861201763153076,0.14797966182231903
1726225673387298300,5.96129833984375,0.4478697180747986,0.3113277554512024,0.0704706609249115
1726225673397334300,5.971334228515625,0.48174113035202026,0.31318506598472595,-0.08512399345636368
1726225673407370200,5.981370361328125,0.42676740884780884,0.3706226646900177,0.16670289635658264
1726225673417407200,5.9914072265625,0.46133819222450256,0.26916661858558655,0.3597301244735718
1726225673427443200,6.001443115234375,0.3743467628955841,0.38768163323402405,0.22381478548049927
1726225673437479200,6.011479248046875,0.3441654145717621,0.3346293270587921,-0.32507815957069397
1726225673447516400,6.021516357421875,0.25755083560943604,0.31903302669525146,-0.2462293654680252
1726225673457552400,6.031552490234375,0.20538805425167084,0.23296205699443817,-0.22048857808113098
1726225673467588400,6.04158837890625,0.13850891590118408,0.3050101697444916,-0.27294614911079407
1726225673477625300,6.051625244140625,0.17934876680374146,0.2445521503686905,-0.15016163885593414
1726225673487661300,6.061661376953125,0.06107208505272865,0.20480984449386597,0.005804964806884527
1726225673497697300,6.071697265625,0.05856125429272652,0.17522399127483368,0.19199268519878387
1726225673507734300,6.081734375,0.03189774975180626,0.0775333046913147,0.1889866590499878
1726225673517770200,6.091770263671875,-0.13109862804412842,0.09827399998903275,-0.011834856122732162
1726225673527806200,6.10180615234375,-0.1636294722557068,0.0018370584584772587,-0.29290086030960083
1726225673537843200,6.11184326171875,-0.3405022621154785,0.03751809149980545,0.0862610936164856
1726225673547879200,6.121879150390625,-0.4174278676509857,0.04214351996779442,-0.09856005758047104
1726225673557915100,6.1319150390625,-0.5240363478660583,0.027399461716413498,-0.4257645606994629
1726225673567952400,6.141952392578125,-0.5192883610725403,-0.11824791133403778,-0.06817661970853806
1726225673577988400,6.15198828125,-0.4459342062473297,-0.14904098212718964,0.23188839852809906
1726225673588024300,6.1620244140625,-0.46120110154151917,-0.15607565641403198,0.02432476356625557
1726225673598061300,6.172061279296875,-0.4965990483760834,-0.20690660178661346,0.04982613027095795
1726225673608097300,6.18209716796875,-0.5585626363754272,-0.2696945369243622,0.4586924910545349
1726225673618133200,6.19213330078125,-0.6626927852630615,-0.15158335864543915,0.1697525680065155
1726225673628170200,6.202170166015625,-0.7344176173210144,-0.16465114057064056,-0.22696977853775024
1726225673638206200,6.212206298828125,-0.6841161251068115,-0.26370739936828613,0.006888515781611204
1726225673648242200,6.2222421875,-0.6598271131515503,-0.27200478315353394,-0.21509148180484772
1726225673658279400,6.232279541015625,-0.5722938179969788,-0.21941694617271423,-0.2338515818119049
1726225673668315400,6.2423154296875,-0.4305131733417511,-0.24689483642578125,-0.07643603533506393
1726225673678351400,6.252351318359375,-0.45378971099853516,-0.23688030242919922,-0.01804089918732643
1726225673688388400,6.262388427734375,-0.40131017565727234,-0.2296273559331894,0.0031828167848289013
1726225673698424300,6.27242431640625,-0.4159117639064789,-0.16183152794837952,0.2115245759487152
1726225673708460300,6.282460205078125,-0.4605872333049774,-0.14275527000427246,0.06104796752333641
1726225673718497300,6.292497314453125,-0.4616410434246063,-0.10312583297491074,-0.01296953670680523
1726225673728533200,6.302533203125,-0.42742079496383667,-0.11364645510911942,0.07487617433071136
1726225673738569200,6.3125693359375,-0.3502253293991089,-0.16558875143527985,0.008604736998677254
1726225673748606500,6.3226064453125,-0.25614020228385925,-0.15007410943508148,-0.06218111142516136
1726225673758642400,6.332642333984375,-0.13758692145347595,-0.1310090720653534,-0.032048776745796204
1726225673768678400,6.342678466796875,-0.14018894731998444,-0.16244155168533325,-0.012465408071875572
1726225673778715400,6.35271533203125,-0.16466259956359863,-0.12092925608158112,-0.09483591467142105
1726225673788751400,6.36275146484375,-0.11411315202713013,-0.06326596438884735,0.1385510116815567
1726225673798787300,6.372787353515625,-0.12260118126869202,-0.06705430895090103,0.22682814300060272
1726225673808824300,6.38282421875,-0.10399919748306274,-0.08500630408525467,-0.16619698703289032
1726225673818860300,6.3928603515625,-0.051412951201200485,-0.07607752084732056,-0.1389339417219162
1726225673828896300,6.402896240234375,0.027540018782019615,-0.06097398325800896,0.17707061767578125
1726225673838933200,6.412933349609375,0.06270067393779755,-0.03432266414165497,0.0048642284236848354
1726225673848969200,6.42296923828125,0.06473136693239212,0.042192425578832626,-0.1638249307870865
1726225673859005200,6.433005126953125,0.13963356614112854,0.13250261545181274,0.08845604956150055
1726225673869042400,6.44304248046875,0.1573818176984787,0.1934857815504074,0.08630131185054779
1726225673879078400,6.453078369140625,0.21006233990192413,0.1915706992149353,-0.06502801924943924
1726225673889114400,6.4631142578125,0.24800147116184235,0.18469814956188202,0.04840613156557083
1726225673899151400,6.4731513671875,0.26192179322242737,0.20007950067520142,0.2714775502681732
1726225673909187300,6.483187255859375,0.37866073846817017,0.21344074606895447,-0.06381800025701523
1726225673919223300,6.493223388671875,0.3288455009460449,0.19695551693439484,-0.07565415650606155
1726225673929260300,6.50326025390625,0.32398051023483276,0.21809233725070953,0.09928180277347565
1726225673939296300,6.513296142578125,0.38619357347488403,0.16232441365718842,0.011914405971765518
1726225673949332200,6.523332275390625,0.280911922454834,0.17562274634838104,-0.1335691660642624
1726225673959369500,6.533369384765625,0.29131290316581726,0.2069322019815445,0.08455011993646622
1726225673969405400,6.543405517578125,0.2595842182636261,0.24293670058250427,-0.07652852684259415
1726225673979441400,6.55344140625,0.1839970350265503,0.20218420028686523,-0.062160514295101166
1726225673989477400,6.563477294921875,0.13302910327911377,0.08435670286417007,0.33284956216812134
1726225673999514400,6.573514404296875,0.05160081759095192,0.07848895341157913,-0.004670141730457544
1726225674009550300,6.58355029296875,0.04274670034646988,0.08471722900867462,-0.13621556758880615
1726225674019587300,6.59358740234375,-0.022076766937971115,0.0027347456198185682,0.10395682603120804
1726225674029623300,6.603623291015625,-0.09119351208209991,-0.04947968199849129,0.024786407127976418
1726225674039659300,6.6136591796875,-0.11648742109537125,-0.09727969765663147,-0.1316109150648117
1726225674049695200,6.6236953125,-0.19975946843624115,-0.08359518647193909,-0.10729197412729263
1726225674059732500,6.633732421875,-0.221716970205307,-0.08606313914060593,-0.042932163923978806
1726225674069768400,6.6437685546875,-0.2430364489555359,-0.1125529408454895,-0.11658623814582825
1726225674079804400,6.653804443359375,-0.2943238615989685,-0.09278163313865662,-0.07358657568693161
1726225674089841400,6.66384130859375,-0.22184361517429352,-0.15408244729042053,-0.004967508837580681
1726225674099877400,6.67387744140625,-0.28828656673431396,-0.18151460587978363,-0.3090778589248657
1726225674109913300,6.683913330078125,-0.31141334772109985,-0.18712325394153595,-0.05398799479007721
1726225674119950300,6.693950439453125,-0.27657413482666016,-0.15370377898216248,-0.04100055992603302
1726225674129986300,6.703986328125,-0.27202701568603516,-0.1300673931837082,-0.3932047486305237
1726225674140022300,6.714022216796875,-0.2156766653060913,-0.12159720808267593,-0.13540302217006683
1726225674150059300,6.724059326171875,-0.1435074806213379,-0.12562569975852966,0.0413583442568779
1726225674160095200,6.73409521484375,-0.1682908535003662,-0.09340199083089828,-0.052606768906116486
1726225674170131200,6.744131103515625,-0.10393863916397095,-0.06354397535324097,-0.11755762249231339
1726225674180168400,6.75416845703125,-0.06014029309153557,-0.04981937259435654,0.12337535619735718
1726225674190204400,6.764204345703125,-0.02318587154150009,-0.06186137720942497,-0.006158310454338789
1726225674200240400,6.774240478515625,0.04631064459681511,-0.01707073487341404,-0.21845778822898865
1726225674210277400,6.78427734375,0.11244379729032516,-0.0024319589138031006,-0.015692198649048805
1726225674220313300,6.794313232421875,0.15034537017345428,0.06506852060556412,-0.3680188059806824
1726225674230349300,6.804349365234375,0.22617216408252716,0.09986072778701782,0.05222230777144432
1726225674240386300,6.81438623046875,0.20954552292823792,0.1029028594493866,-0.17018306255340576
1726225674250422300,6.82442236328125,0.22138243913650513,0.08535353094339371,-0.3061511814594269
1726225674260458200,6.834458251953125,0.4493301510810852,0.16989904642105103,0.37914061546325684
1726225674270495500,6.84449560546875,0.38568103313446045,0.23180606961250305,0.40094074606895447
1726225674280531500,6.854531494140625,0.45163342356681824,0.0876678079366684,0.28656357526779175
1726225674290567400,6.8645673828125,0.24632596969604492,0.1659916341304779,0.5272772908210754
1726225674300604400,6.8746044921875,0.17616072297096252,0.16529574990272522,0.2785484194755554
1726225674310639600,6.8846396484375,0.1628926694393158,0.14828836917877197,-0.12008319050073624
1726225674320675600,6.894675537109375,0.15356920659542084,0.1024084985256195,0.08619141578674316
1726225674330712800,6.904712890625,0.16637402772903442,0.08271864056587219,-0.5779988169670105
1726225674340748800,6.914748779296875,0.08388182520866394,0.022803112864494324,-0.3460649251937866
1726225674350784800,6.92478466796875,0.21682126820087433,0.08825065940618515,0.19549064338207245
1726225674360821800,6.93482177734375,0.16086052358150482,0.12659165263175964,0.2558610141277313
1726225674370857700,6.944857666015625,0.180421382188797,0.08824704587459564,0.09632118791341782
1726225674380893700,6.954893798828125,0.05725017935037613,0.04451688006520271,0.27434712648391724
1726225674390930700,6.9649306640625,-0.031673118472099304,0.07126621901988983,-0.08229348063468933
1726225674400966700,6.974966552734375,-0.04680759832262993,0.029349125921726227,0.0692017674446106
1726225674411002600,6.985002685546875,-0.05945521593093872,0.04150912165641785,0.12406369298696518
1726225674421039600,6.99503955078125,-0.016575394198298454,-0.005953736137598753,-0.13086846470832825
1726225674431075800,7.005075927734375,-0.08324458450078964,-0.09390723705291748,0.421296626329422
1726225674441111800,7.01511181640625,-0.026384763419628143,-0.07657405734062195,0.24066638946533203
1726225674451148800,7.025148681640625,0.021239379420876503,-0.19096340239048004,0.18230924010276794
1726225674461184800,7.035184814453125,-0.09281235933303833,-0.261290580034256,0.810050368309021
1726225674471220700,7.045220703125,-0.03767120838165283,-0.19049735367298126,0.4191274344921112
1726225674481257700,7.0552578125,-0.19914186000823975,-0.0845930203795433,0.06863761693239212
1726225674491293700,7.065293701171875,-0.12387659400701523,-0.09530680626630783,0.02669328823685646
1726225674501329700,7.07532958984375,-0.164194718003273,-0.0648769959807396,0.230716735124588
1726225674511366700,7.08536669921875,-0.17109595239162445,-0.09055592119693756,-0.11400365829467773
1726225674521402600,7.095402587890625,-0.0851203203201294,-0.16664962470531464,0.046364713460206985
1726225674531438600,7.1054384765625,-0.08942265063524246,-0.16843967139720917,0.26552993059158325
1726225674541475800,7.115475830078125,-0.08483162522315979,-0.09925208240747452,0.10068371891975403
1726225674551511800,7.12551171875,-0.041863154619932175,-0.0691235288977623,0.17953982949256897
1726225674561547800,7.1355478515625,-0.10676731914281845,-0.009535565972328186,-0.2333340346813202
1726225674571584800,7.145584716796875,-0.09836461395025253,0.0047928146086633205,0.16440348327159882
1726225674581620700,7.155620849609375,-0.06133095920085907,-0.05062942951917648,-0.29826322197914124
1726225674591656700,7.16565673828125,-0.14060837030410767,0.07767654955387115,-0.26047369837760925
1726225674601693700,7.175693603515625,0.04835702106356621,0.0030798057559877634,-0.11769069731235504
1726225674611729700,7.185729736328125,-0.056601233780384064,-0.001117287203669548,0.27293169498443604
1726225674621765600,7.195765625,0.10444410890340805,-0.014659460633993149,-0.1693221628665924
1726225674631803000,7.205802978515625,0.0026106685400009155,-0.010023522190749645,0.1809021234512329
1726225674641838800,7.2158388671875,-0.07318396121263504,0.0873459130525589,0.12678375840187073
1726225674651875800,7.225875732421875,0.02125735767185688,0.12175748497247696,-0.7617043256759644
1726225674661911800,7.235911865234375,-0.047916654497385025,0.11124678701162338,-0.3242409825325012
1726225674671947800,7.24594775390625,0.1221611350774765,0.04746977984905243,0.19625675678253174
1726225674681984800,7.25598486328125,0.03516445308923721,0.11175262928009033,0.10274944454431534
1726225674692020700,7.266020751953125,0.0708317682147026,0.10068279504776001,0.01004246436059475
1726225674702056700,7.276056640625,-0.0034552421420812607,0.15660810470581055,-0.11648564785718918
1726225674712092700,7.2860927734375,-0.007824553176760674,0.019991526380181313,0.026402296498417854
1726225674722129700,7.296129638671875,-0.09093781560659409,0.09581118822097778,0.1160336434841156
1726225674732166000,7.306165771484375,-0.03196471929550171,0.07568783313035965,-0.14587637782096863
1726225674742201900,7.316201904296875,-0.0909167155623436,0.046646598726511,0.4025411903858185
1726225674752238800,7.32623876953125,-0.0562882274389267,0.03243594616651535,-0.189274862408638
1726225674762274800,7.33627490234375,0.025278538465499878,0.037641625851392746,-0.03772103041410446
1726225674772311800,7.346311767578125,0.02202807553112507,-0.03185313194990158,0.36229437589645386
1726225674782347800,7.35634765625,-0.048751555383205414,0.024242093786597252,0.5214284062385559
1726225674792383700,7.3663837890625,-0.011152257211506367,-0.07450883835554123,-0.6385642886161804
1726225674802420700,7.376420654296875,-0.039697084575891495,-0.083856001496315,-0.8905821442604065
1726225674812456700,7.386456787109375,0.008338941261172295,-0.06826064735651016,0.3000655174255371
1726225674822492700,7.39649267578125,-0.04681379348039627,0.012702378444373608,0.27697643637657166
1726225674832529700,7.40652978515625,-0.0405612513422966,0.038283564150333405,-0.425466924905777
1726225674842566000,7.41656591796875,-0.10029435902833939,-0.10377557575702667,-0.5607088804244995
1726225674852601900,7.426601806640625,-0.16693468391895294,-0.03438614308834076,0.23505200445652008
1726225674862638600,7.436638671875,-0.17594921588897705,-0.06324096024036407,0.8754444718360901
1726225674872674800,7.4466748046875,-0.11733296513557434,-0.11918056011199951,-0.11976955831050873
1726225674882710800,7.456710693359375,-0.0986277237534523,-0.22250960767269135,-0.9006230235099792
1726225674892747500,7.46674755859375,-0.2281714677810669,-0.08932583034038544,-0.2238456755876541
1726225674902783700,7.47678369140625,-0.23429247736930847,-0.012745307758450508,0.6023534536361694
1726225674912819700,7.48681982421875,-0.3670661449432373,-0.05230127274990082,-0.31447169184684753
1726225674922856700,7.496856689453125,-0.31690123677253723,-0.07760609686374664,-0.6395600438117981
1726225674932892700,7.506892578125,-0.23022779822349548,-0.07631556689739227,0.7331658601760864
1726225674942929000,7.516928955078125,-0.3176511228084564,-0.14968779683113098,0.9854950308799744
1726225674952965600,7.526965576171875,-0.25793105363845825,-0.35611021518707275,-0.3677169680595398
1726225674963001900,7.537001953125,-0.22154907882213593,-0.2349015176296234,-1.1357206106185913
1726225674973037800,7.547037841796875,-0.24226661026477814,-0.08818607777357101,-0.18709240853786469
1726225674983074600,7.557074462890625,-0.14091043174266815,-0.1366843730211258,0.48780637979507446
1726225674993110800,7.56711083984375,-0.22280320525169373,-0.005729068070650101,0.12444008886814117
1726225675003146800,7.577146728515625,-0.11769436299800873,-0.09520169347524643,-0.3438184857368469
1726225675013183500,7.58718359375,-0.12776462733745575,0.048411380499601364,0.3903326094150543
1726225675023219700,7.5972197265625,-0.06515078246593475,0.11445938050746918,0.6340571045875549
1726225675033256000,7.607255859375,-0.006351767107844353,-0.11400844901800156,-0.08663541078567505
1726225675043292700,7.617292724609375,0.00996834971010685,0.005934469867497683,-0.516257107257843
1726225675053328600,7.62732861328125,0.14339706301689148,0.0008108955807983875,-0.4022916257381439
1726225675063364900,7.63736474609375,0.07609525322914124,0.08812875300645828,0.04817274585366249
1726225675073401600,7.647401611328125,0.17012017965316772,0.1807958036661148,0.3618616759777069
1726225675083437600,7.6574375,0.31288692355155945,0.12829317152500153,-0.17678503692150116
1726225675093473800,7.667473876953125,0.28854817152023315,0.10774432122707367,-0.24527689814567566
1726225675103510500,7.677510498046875,0.34392330050468445,0.15729136765003204,0.3324042856693268
1726225675113546500,7.68754638671875,0.3400419056415558,0.10048603266477585,0.1600469946861267
1726225675123582700,7.697582763671875,0.22453740239143372,0.10198432952165604,-0.21988648176193237
1726225675133619700,7.70761962890625,0.20478379726409912,0.17015157639980316,-0.4094296097755432
1726225675143655700,7.71765576171875,0.1718415468931198,0.16456186771392822,-0.12617819011211395
1726225675153691600,7.727691650390625,0.05062823370099068,0.1066657155752182,0.3329383432865143
1726225675163728600,7.737728759765625,-0.0150309382006526,0.11279311776161194,-0.0019706664606928825
1726225675173764600,7.7477646484375,-0.003589368425309658,-0.05179799348115921,-0.8194162249565125
1726225675183800600,7.757800537109375,-0.11400589346885681,-0.014182442799210548,-0.28012025356292725
1726225675193837600,7.767837646484375,-0.07394524663686752,-0.03621262311935425,0.8637062907218933
1726225675203873500,7.77787353515625,-0.27605947852134705,0.030819406732916832,1.2198114395141602
1726225675213909500,7.787909423828125,-0.30666548013687134,-0.15251080691814423,-0.3583751320838928
1726225675223946800,7.79794677734375,-0.3141612112522125,-0.09961589425802231,-1.0769637823104858
1726225675233982700,7.807982666015625,-0.34807828068733215,-0.07629206776618958,-0.35103780031204224
1726225675244018700,7.818018798828125,-0.17923040688037872,-0.13460198044776917,0.6460922956466675
1726225675254055700,7.8280556640625,-0.25139254331588745,-0.181062713265419,0.648712694644928
1726225675264091600,7.838091552734375,-0.26827406883239746,-0.267569899559021,-0.2703063488006592
1726225675274127600,7.848127685546875,-0.21312052011489868,-0.18262748420238495,-0.34904253482818604
1726225675284164600,7.85816455078125,-0.3171081840991974,-0.061064571142196655,0.3153865933418274
1726225675294200600,7.86820068359375,-0.3266317844390869,-0.03661381080746651,0.5887599587440491
1726225675304236500,7.878236572265625,-0.2542326748371124,-0.03611233830451965,-0.3744484484195709
1726225675314278000,7.88827783203125,-0.1375473141670227,-0.11750948429107666,-0.449441134929657
1726225675324313900,7.89831396484375,-0.08913718163967133,-0.17383107542991638,0.09128950536251068
1726225675334350000,7.90835009765625,-0.073458731174469,-0.2629326283931732,0.25150296092033386
1726225675344387000,7.918386962890625,-0.06167184188961983,-0.24219167232513428,-0.04838041961193085
1726225675354423000,7.928423095703125,-0.11799396574497223,-0.15127910673618317,-0.3249373733997345
1726225675364459000,7.938458984375,-0.16465413570404053,-0.12337742745876312,0.0019712522625923157
1726225675374496000,7.94849609375,-0.24934403598308563,-0.0611128993332386,0.22246745228767395
1726225675384532000,7.958531982421875,-0.22004739940166473,-0.016690311953425407,0.07823305577039719
1726225675394568000,7.96856787109375,-0.12427853047847748,-0.15788006782531738,-0.8494361042976379
1726225675404605000,7.97860498046875,-0.17919477820396423,-0.14437197148799896,-0.26399528980255127
1726225675414641000,7.988640869140625,-0.04201330244541168,-0.1962796151638031,0.8241581916809082
1726225675424678100,7.99867822265625,-0.10290355235338211,-0.16641280055046082,0.5056601166725159
1726225675434714000,8.008714111328125,-0.03749240189790726,-0.29117801785469055,-0.6919241547584534
1726225675444750000,8.01875,-0.1742371916770935,-0.20912545919418335,-0.45405328273773193
1726225675454787000,8.028787109375,-0.14539070427417755,-0.18743471801280975,0.4938232898712158
1726225675464823000,8.038822998046875,-0.33979108929634094,-0.05820854380726814,0.5167219042778015
1726225675474859000,8.04885888671875,-0.2474309653043747,-0.09777620434761047,-0.45944514870643616
1726225675484896000,8.05889599609375,-0.18879827857017517,-0.3123247027397156,-0.8364906907081604
1726225675494932000,8.068931884765625,-0.2938191890716553,-0.21167293190956116,0.3414127826690674
1726225675504968000,8.078968017578125,-0.21416804194450378,-0.26463040709495544,0.7557074427604675
1726225675515005000,8.0890048828125,-0.17683708667755127,-0.3123133182525635,-0.3533762991428375
1726225675525041200,8.099041259765626,-0.09498482197523117,-0.4441312849521637,-0.8690513372421265
1726225675535077000,8.1090771484375,-0.29310303926467896,-0.3130037486553192,0.3033948242664337
1726225675545114000,8.119114013671876,-0.289215087890625,-0.324942946434021,0.908608078956604
1726225675555150000,8.129150146484376,-0.3360293507575989,-0.4202529191970825,-0.1350192278623581
1726225675565186000,8.13918603515625,-0.2487037628889084,-0.3120098114013672,-0.5879209041595459
1726225675575223000,8.14922314453125,-0.24153131246566772,-0.23963738977909088,0.36741766333580017
1726225675585259000,8.159259033203124,-0.3313980996608734,-0.25887179374694824,0.4415408968925476
1726225675595295000,8.169294921875,-0.19851528108119965,-0.28749892115592957,-0.5809059143066406
1726225675605332000,8.17933203125,-0.09561712294816971,-0.2600395977497101,-0.6516069769859314
1726225675615368000,8.189367919921875,-0.13745753467082977,-0.2016819417476654,0.3915077745914459
1726225675625404000,8.19940380859375,-0.058781106024980545,-0.23884129524230957,0.7863706946372986
1726225675635441200,8.209441162109375,-0.03764427453279495,-0.3004966676235199,0.10309446603059769
1726225675645477000,8.21947705078125,0.10424149036407471,-0.2757548391819,-0.566815197467804
1726225675655513000,8.22951318359375,0.1630309820175171,-0.24565929174423218,0.33347460627555847
1726225675665550000,8.239550048828125,0.14320534467697144,-0.09629003703594208,0.40851449966430664
1726225675675586000,8.2495859375,0.20103731751441956,-0.03224318102002144,-0.2305770367383957
1726225675685622000,8.2596220703125,0.3158182203769684,-0.2249860018491745,-0.7778142690658569
1726225675695659000,8.269658935546875,0.2774321436882019,-0.03723390772938728,-0.1795245260000229
1726225675705695000,8.279695068359375,0.46446675062179565,-0.04992973059415817,0.6025936603546143
1726225675715731000,8.28973095703125,0.34112557768821716,-0.015096407383680344,0.6435993313789368
1726225675725768200,8.299768310546876,0.4388103485107422,-0.014994941651821136,0.024468930438160896
1726225675735804200,8.30980419921875,0.4509095549583435,0.10736463963985443,-0.016841759905219078
1726225675745841200,8.319841064453126,0.4784327745437622,-0.012094110250473022,0.13914304971694946
1726225675755877000,8.329877197265626,0.4555806517601013,0.0754350796341896,-0.18419888615608215
1726225675765913000,8.3399130859375,0.5063719749450684,0.10347843170166016,0.14209188520908356
1726225675775949000,8.349948974609376,0.4249725937843323,0.15503939986228943,0.30273425579071045
1726225675785986000,8.359986083984374,0.5131093859672546,0.08896477520465851,-0.609836757183075
1726225675796022000,8.37002197265625,0.5948582887649536,0.014497778378427029,-0.35881856083869934
1726225675806059000,8.38005908203125,0.5030055642127991,0.07073734700679779,0.5004357099533081
1726225675816095000,8.390094970703124,0.4876275062561035,0.2792297303676605,0.8159872889518738
1726225675826131200,8.400131103515625,0.5579448342323303,0.1563919484615326,-0.2642960250377655
1726225675836168000,8.41016796875,0.5572709441184998,0.22220195829868317,-0.7812680006027222
1726225675846204200,8.4202041015625,0.5355744361877441,0.0911717563867569,-0.15860305726528168
1726225675856240000,8.430240234375,0.4545116424560547,0.17876306176185608,0.8331989645957947
1726225675866276900,8.44027685546875,0.5828433036804199,0.2511267364025116,0.2207890897989273
1726225675876313000,8.45031298828125,0.5573059916496277,0.3359431028366089,-0.7371141314506531
1726225675886349000,8.46034912109375,0.5396063327789307,0.1048600971698761,-0.5456453561782837
1726225675896385800,8.4703857421875,0.48331913352012634,0.2746089994907379,0.6055569052696228
1726225675906422000,8.480422119140625,0.5466099381446838,0.4529331922531128,0.19482794404029846
1726225675916458000,8.4904580078125,0.65315842628479,0.19692830741405487,-0.9051184058189392
1726225675926495000,8.500494873046875,0.4220828413963318,0.16790810227394104,-0.702653706073761
1726225675936531000,8.510531005859375,0.5683525800704956,0.3842317461967468,0.5290359258651733
1726225675946567200,8.520567138671876,0.4482264518737793,0.43179500102996826,1.1163597106933594
1726225675956604000,8.53060400390625,0.5781867504119873,0.19013795256614685,-0.23905546963214874
1726225675966639900,8.540639892578126,0.47880128026008606,0.2779330611228943,-0.8266393542289734
1726225675976676000,8.550676025390626,0.38334861397743225,0.22355085611343384,0.27727413177490234
1726225675986712800,8.560712890625,0.27405568957328796,0.35662686824798584,0.7980896234512329
1726225675996748800,8.570748779296874,0.44296523928642273,0.22829918563365936,-0.690232515335083
1726225676006785000,8.580784912109374,0.34775564074516296,0.1373375803232193,-1.1763110160827637
1726225676016822000,8.590822021484374,0.2609858214855194,0.3377189040184021,-0.1331779956817627
1726225676026858000,8.60085791015625,0.2768675684928894,0.06877132505178452,0.9641572833061218
1726225676036894200,8.610894287109375,0.18894706666469574,0.3327796161174774,0.6939630508422852
1726225676046931000,8.620930908203125,0.14673569798469543,0.23210759460926056,-0.19780917465686798
1726225676056967000,8.630966796875,0.08298184722661972,0.14269787073135376,0.18054933845996857
1726225676067003100,8.641003173828125,0.016093365848064423,0.11777999997138977,0.09191401302814484
1726225676077039900,8.651039794921875,0.014031074941158295,0.12393032014369965,-0.7320463061332703
1726225676087075800,8.661075927734375,0.15221130847930908,0.007135533727705479,-0.7654287219047546
1726225676097112000,8.671112060546875,0.09466405212879181,0.19129382073879242,0.17116250097751617
1726225676107148800,8.681148681640625,0.08151495456695557,0.13963595032691956,0.23610687255859375
1726225676117184800,8.691184814453125,-0.04773339256644249,0.27588409185409546,0.3962869346141815
1726225676127222000,8.701221923828125,-0.032425276935100555,0.15695159137248993,0.13000492751598358
1726225676137258000,8.711258056640625,-0.07845500111579895,0.12898437678813934,0.04467805474996567
1726225676147294000,8.7212939453125,-0.0828833058476448,0.11277318000793457,0.1261018067598343
1726225676157331000,8.7313310546875,-0.12547363340854645,0.11307861655950546,-0.18656015396118164
1726225676167367000,8.741366943359376,-0.087131567299366,0.07888335734605789,-0.0543813481926918
1726225676177403000,8.75140283203125,-0.03605836257338524,0.08866377919912338,-0.1567663550376892
1726225676187439900,8.76143994140625,0.023351967334747314,0.13209539651870728,0.13959527015686035
1726225676197475800,8.771475830078124,0.06674066931009293,0.06110400706529617,0.3985340893268585
1726225676207511800,8.78151171875,-0.006541265640407801,0.13981586694717407,0.1160414069890976
1726225676217549000,8.791549072265624,-0.03862981125712395,0.10456891357898712,-0.4286946952342987
1726225676227585000,8.8015849609375,-0.0872543454170227,0.2594543695449829,-0.34461337327957153
1726225676237621000,8.81162109375,0.07596276700496674,0.23841199278831482,0.24694085121154785
1726225676247658000,8.821657958984375,0.13771668076515198,0.16584831476211548,0.06857512891292572
1726225676257694000,8.83169384765625,0.15205545723438263,0.11849511414766312,0.057630449533462524
1726225676267730000,8.84172998046875,0.14507077634334564,0.13958682119846344,0.47845518589019775
1726225676277767000,8.851766845703125,0.08825234323740005,0.11554820090532303,0.4463084042072296
1726225676287803000,8.861802978515625,-0.003263189224526286,0.31408554315567017,-0.04254703223705292
1726225676297838800,8.8718388671875,0.05780511721968651,0.16482068598270416,-0.14966119825839996
1726225676307875800,8.881875732421875,-0.016037942841649055,0.15533584356307983,0.5643469095230103
1726225676317911800,8.891911865234375,0.06972815841436386,0.16410161554813385,0.34035277366638184
1726225676327947800,8.90194775390625,0.0469735786318779,0.08980553597211838,-0.09556274861097336
1726225676337985000,8.911985107421875,-0.035842038691043854,0.1142323836684227,-0.05290167033672333
1726225676348021000,8.92202099609375,-0.04209327697753906,0.12956605851650238,0.15424005687236786
1726225676358057000,8.932056884765625,-0.14066153764724731,0.04541748762130737,0.14572013914585114
1726225676368094000,8.942093994140626,-0.25540223717689514,0.0579785518348217,-0.2083045095205307
1726225676378130000,8.9521298828125,-0.23685450851917267,0.11434929817914963,-0.422568678855896
1726225676388167000,8.9621669921875,-0.3019549548625946,-0.03254374861717224,0.22909006476402283
1726225676398203000,8.972202880859374,-0.3145246207714081,0.06153995916247368,0.16915518045425415
1726225676408238800,8.98223876953125,-0.2790294587612152,-0.04982704669237137,-0.49851953983306885
1726225676418275800,8.99227587890625,-0.3126069903373718,-0.17011134326457977,0.1397954225540161
1726225676428312000,9.00231201171875,-0.3513732850551605,-0.09528743475675583,0.06983418017625809
1726225676438348000,9.01234814453125,-0.33527836203575134,-0.09677226096391678,-0.0829409807920456
1726225676448385000,9.022385009765625,-0.4318040907382965,-0.1100398600101471,-0.06182291358709335
1726225676458421000,9.0324208984375,-0.3935530483722687,-0.08323288708925247,0.097535140812397
1726225676468457000,9.04245703125,-0.3235854208469391,-0.0017819711938500404,0.38727426528930664
1726225676478494000,9.052493896484375,-0.3317843973636627,-0.0499408021569252,-0.005830774083733559
1726225676488530000,9.062530029296875,-0.32515180110931396,-0.18622992932796478,-0.1742086112499237
1726225676498566000,9.07256591796875,-0.29887428879737854,-0.09349587559700012,-0.501511812210083
1726225676508603000,9.082602783203125,-0.20524075627326965,-0.1793239563703537,0.0970887690782547
1726225676518638800,9.092638916015625,-0.20055244863033295,-0.21727213263511658,0.10864486545324326
1726225676528674800,9.1026748046875,-0.1843676120042801,-0.14624562859535217,-0.5339751243591309
1726225676538712000,9.112712158203125,-0.06784692406654358,-0.0278153233230114,-0.45161375403404236
1726225676548748000,9.122748046875,0.024853458628058434,0.14387866854667664,0.30236098170280457
1726225676558784000,9.132783935546875,-0.016472676768898964,0.18156468868255615,0.807900071144104
1726225676568821000,9.142821044921876,0.0689745768904686,0.07778343558311462,0.23486532270908356
1726225676578857000,9.15285693359375,0.0538419671356678,0.10555408149957657,-0.312336802482605
1726225676588893000,9.162892822265626,0.20768877863883972,0.0410991907119751,0.042108919471502304
1726225676598930000,9.172929931640626,0.23386836051940918,0.11263199150562286,0.021094171330332756
1726225676608966000,9.1829658203125,0.23135699331760406,0.09399545937776566,-0.7280229330062866
1726225676619001900,9.193001953125,0.272165447473526,0.12085514515638351,-0.5772428512573242
1726225676629039000,9.2030390625,0.24035051465034485,0.23285944759845734,0.04141189530491829
1726225676639075000,9.213074951171874,0.24813133478164673,0.08294106274843216,0.4958244860172272
1726225676649112000,9.223112060546875,0.3204100430011749,0.262116938829422,-0.09550244361162186
1726225676659148000,9.23314794921875,0.31609418988227844,0.1511075645685196,-0.6623687148094177
1726225676669184000,9.24318408203125,0.26449599862098694,0.18147186934947968,-0.14934194087982178
1726225676679221000,9.253220947265625,0.30570879578590393,0.23754332959651947,0.2673690915107727
1726225676689257000,9.263257080078125,0.24452424049377441,0.11714794486761093,-0.1890178918838501
1726225676699293000,9.27329296875,0.10948172211647034,0.023416364565491676,-0.5888107419013977
1726225676709330000,9.283329833984375,0.08048602938652039,0.11014619469642639,-0.1261155605316162
1726225676719366000,9.293365966796875,0.066088005900383,0.09876666963100433,0.6774850487709045
1726225676729402000,9.303402099609375,0.08301745355129242,0.05371450260281563,0.6847856044769287
1726225676739439000,9.313439208984375,-0.026239410042762756,-0.06049685180187225,0.0805155485868454
1726225676749475000,9.32347509765625,0.044593486934900284,-0.19761715829372406,-0.42226797342300415
1726225676759511000,9.333510986328125,-0.12750929594039917,-0.1385708749294281,0.303113728761673
1726225676769548000,9.343548095703126,-0.10081697255373001,-0.0703904926776886,0.6417874097824097
1726225676779584000,9.353583984375,-0.18403348326683044,-0.09346947818994522,-0.39798256754875183
1726225676789620000,9.363619873046876,-0.19054916501045227,-0.1403573602437973,-0.3816153109073639
1726225676799657000,9.373656982421876,-0.22454315423965454,-0.18504349887371063,0.1277613639831543
1726225676809693000,9.38369287109375,-0.2893061637878418,-0.16187132894992828,0.4912666380405426
1726225676819729000,9.39372900390625,-0.22525978088378906,-0.13773885369300842,-0.10289841145277023
1726225676829766100,9.40376611328125,-0.1589239090681076,-0.19129635393619537,-0.2778443992137909
1726225676839802000,9.413802001953124,-0.09611324220895767,-0.11752749234437943,0.3905882239341736
1726225676849838000,9.423838134765624,-0.15067368745803833,-0.15403729677200317,1.044411063194275
1726225676859875000,9.433875,-0.11995057761669159,0.05010980740189552,0.5006075501441956
1726225676869911000,9.4439111328125,-0.045608699321746826,0.09834524989128113,-0.03415653854608536
1726225676879947000,9.453947021484375,0.007945774123072624,0.03585130721330643,0.40703248977661133
1726225676889984000,9.46398388671875,0.11748451739549637,0.047754570841789246,-0.4681791663169861
1726225676900020000,9.47402001953125,0.2670513689517975,-0.0841277465224266,-0.7734594941139221
1726225676910057000,9.484056884765625,0.2548455595970154,0.06959976255893707,-0.09177492558956146
1726225676920093200,9.49409326171875,0.4014091193675995,0.1592964231967926,0.01456235721707344
1726225676930129200,9.504129150390625,0.37552693486213684,0.3473310172557831,0.1326671540737152
1726225676940166000,9.514165771484375,0.342045396566391,0.1524372547864914,0.43318596482276917
1726225676950202000,9.5242021484375,0.3154774308204651,0.32844316959381104,0.4270108938217163
1726225676960238000,9.534238037109375,0.4941374957561493,0.28112533688545227,-0.24637039005756378
1726225676970274800,9.54427490234375,0.4143750071525574,0.24328795075416565,0.10269252955913544
1726225676980311000,9.55431103515625,0.509251058101654,0.22602494060993195,0.007444110698997974
1726225676990347000,9.564346923828126,0.4322936534881592,0.22613972425460815,0.17765925824642181
1726225677000383700,9.5743837890625,0.35811716318130493,0.24720773100852966,-0.04425876587629318
1726225677010420000,9.584419921875,0.35745590925216675,0.2619485855102539,0.0926508828997612
1726225677020456000,9.5944560546875,0.35452359914779663,0.171396404504776,-0.040995195508003235
1726225677030493000,9.604492919921874,0.20401345193386078,0.1983041912317276,-0.013305241242051125
1726225677040529000,9.61452880859375,0.2603530287742615,0.1942649632692337,-0.1687340885400772
1726225677050565000,9.624565185546874,0.1445595920085907,0.28200438618659973,-0.40374472737312317
1726225677060601900,9.634601806640624,0.18865178525447845,0.039563313126564026,-0.015859797596931458
1726225677070637800,9.644637939453125,0.14515118300914764,0.23882101476192474,0.1074160635471344
1726225677080674000,9.654674072265625,0.13454799354076385,0.1892702728509903,-0.18312819302082062
1726225677090710800,9.664710693359375,0.06454493850469589,0.0409412644803524,-0.23369203507900238
1726225677100746800,9.674746826171875,-0.07626466453075409,0.08320512622594833,-0.001513442024588585
1726225677110783000,9.684782958984375,-0.011530939489603043,0.02608351781964302,0.5149608850479126
1726225677120820000,9.694820068359375,-0.17102131247520447,0.11843299865722656,0.2414001077413559
1726225677130856000,9.70485595703125,-0.15934841334819794,0.06762734055519104,-0.4832518696784973
1726225677140893000,9.714892822265625,-0.1715690940618515,0.03601942956447601,0.07481114566326141
1726225677150929000,9.724928955078125,-0.2846836745738983,0.1518954187631607,0.5888675451278687
1726225677160964900,9.73496484375,-0.2828637957572937,0.052800022065639496,0.03664309158921242
1726225677171001900,9.745001953125,-0.2611880600452423,0.058695726096630096,-0.6259626150131226
1726225677181037800,9.755037841796875,-0.2806151509284973,0.005391443148255348,-0.19737882912158966
1726225677191073800,9.76507373046875,-0.2464875429868698,-0.039450064301490784,0.2870035767555237
1726225677201110800,9.77511083984375,-0.33217284083366394,0.002830253215506673,-0.2885986864566803
1726225677211146800,9.785146728515626,-0.21788567304611206,-0.03918138146400452,-0.20341934263706207
1726225677221183000,9.795182861328126,-0.2796141505241394,0.003971458878368139,0.5556803941726685
1726225677231220000,9.805219970703124,-0.36186134815216064,0.038927845656871796,0.7733602523803711
1726225677241256000,9.815255859375,-0.390524685382843,-0.13615939021110535,-0.11547339707612991
1726225677251292000,9.8252919921875,-0.3601827621459961,-0.08470205217599869,-0.6218093037605286
1726225677261329000,9.835328857421874,-0.31194382905960083,-0.08665437251329422,0.33976849913597107
1726225677271364900,9.84536474609375,-0.31959667801856995,-0.04576792195439339,0.6916236877441406
1726225677281400800,9.85540087890625,-0.3331536054611206,-0.42054182291030884,-0.5497292876243591
1726225677291437800,9.865437744140625,-0.3611500859260559,-0.007541724480688572,-1.403163194656372
1726225677301473800,9.875473876953125,-0.28876057267189026,-0.11602505296468735,-0.030878126621246338
1726225677311506000,9.885505859375,-0.2762290835380554,0.005009753629565239,0.9749336242675781
1726225677321542700,9.895542724609374,-0.2562672793865204,-0.22304284572601318,0.27686673402786255
1726225677331578600,9.90557861328125,-0.3258911073207855,-0.024816038087010384,-0.5822789072990417
1726225677341614800,9.91561474609375,-0.11346718668937683,-0.19468888640403748,-0.2333293855190277
1726225677351651600,9.925651611328124,-0.2683803141117096,-0.0858265832066536,0.2670000195503235
1726225677361687600,9.9356875,-0.1973181664943695,-0.029982570558786392,-0.1059836819767952
1726225677371724500,9.945724609375,-0.2053593099117279,-0.0649445503950119,0.04906954988837242
1726225677381760500,9.955760498046875,-0.19911609590053558,-0.09107223153114319,0.585067093372345
1726225677391796500,9.96579638671875,-0.21008379757404327,-0.08044914901256561,-0.060196079313755035
1726225677401833700,9.975833740234375,-0.1909615397453308,-0.154161736369133,-0.23795881867408752
1726225677411869700,9.98586962890625,-0.20453566312789917,0.014422478154301643,-0.21053917706012726
1726225677421905700,9.99590576171875,0.011728504672646523,-0.018496699631214142,0.6032565832138062
1726225677431942700,10.005942626953125,-0.10253947973251343,0.0574641078710556,0.5285943150520325
1726225677441978600,10.015978515625,-0.09954690933227539,-0.08394529670476913,-0.2686668932437897
1726225677452014600,10.0260146484375,-0.0977063998579979,-0.004116241354495287,-0.22084718942642212
1726225677462051600,10.036051513671875,-0.0029055417980998755,-0.02244662120938301,0.10083048045635223
1726225677472087600,10.046087646484375,-0.10517013072967529,-0.015122929587960243,0.01631106808781624
1726225677482123500,10.05612353515625,-0.0014964067377150059,-0.07164186984300613,-0.708464503288269
1726225677492160800,10.066160888671876,-0.031800515949726105,0.16905036568641663,0.23592941462993622
1726225677502196700,10.07619677734375,0.05149908736348152,-0.10537716746330261,0.9246308207511902
1726225677512232700,10.086232666015626,-0.05518314987421036,0.055228229612112045,0.29543641209602356
1726225677522269700,10.096269775390626,0.01652403362095356,-0.08982864022254944,-0.6257811188697815
1726225677532305700,10.1063056640625,-0.06499053537845612,-0.02478332817554474,-0.2737985849380493
1726225677542341600,10.116341552734376,-0.030957583338022232,-0.053110748529434204,0.1511078178882599
1726225677552378600,10.126378662109374,-0.10164985805749893,-0.013705817982554436,-0.6124385595321655
1726225677562414600,10.13641455078125,-0.0876549482345581,-0.050337597727775574,-0.7418282628059387
1726225677572450600,10.146450439453124,-0.1188882365822792,-0.03537888824939728,0.1947873830795288
1726225677582487600,10.156487548828125,-0.15382935106754303,-0.04914824292063713,-0.1000606045126915
1726225677592523800,10.166523681640625,-0.0779244601726532,-0.08306945860385895,-0.26541867852211
1726225677602560800,10.176560791015625,-0.06461533904075623,0.002386352512985468,-0.2647305428981781
1726225677612596700,10.1865966796875,0.08716752380132675,-0.02042894810438156,0.24381683766841888
1726225677622632700,10.1966328125,0.017511367797851562,-0.15556840598583221,0.6895387768745422
1726225677632669700,10.206669677734375,0.07847751677036285,-0.09113749116659164,-0.31245797872543335
1726225677642705700,10.21670556640625,0.1376461535692215,0.014773668721318245,-0.7138484120368958
1726225677652741600,10.22674169921875,0.07490554451942444,0.08023816347122192,0.04726305231451988
1726225677662778600,10.236778564453125,0.15967170894145966,0.04658841714262962,-0.01087228860706091
1726225677672814600,10.246814697265625,0.12988318502902985,0.15301711857318878,-0.2569243907928467
1726225677682850600,10.2568505859375,0.27250197529792786,0.12167873233556747,0.08256003260612488
1726225677692887800,10.2668876953125,0.2535082995891571,0.05349408835172653,0.3885015845298767
1726225677702923800,10.276923828125,0.24132245779037476,0.12076745927333832,-0.20330724120140076
1726225677712959700,10.286959716796876,0.3052508533000946,0.11383339017629623,0.060189906507730484
1726225677722996700,10.296996826171876,0.3324466645717621,0.12517936527729034,0.01718997210264206
1726225677733032700,10.30703271484375,0.3797931671142578,0.009349703788757324,-0.06206969544291496
1726225677743068700,10.317068603515626,0.2711870074272156,0.12086550146341324,-0.02334761992096901
1726225677753105700,10.327105712890624,0.27961698174476624,0.1244189515709877,-0.1448301076889038
1726225677763141600,10.3371416015625,0.1436634510755539,0.13856004178524017,-0.37550827860832214
1726225677773179000,10.347178955078125,0.2178649753332138,0.06333399564027786,-0.7934887409210205
1726225677783214800,10.35721484375,0.2090490609407425,0.2219773530960083,0.28252434730529785
1726225677793250800,10.367250732421875,0.18625560402870178,0.018884412944316864,0.6075274348258972
1726225677803287800,10.377287841796875,0.1376105099916458,-0.017877593636512756,0.12528544664382935
1726225677813323800,10.38732373046875,0.05617690831422806,0.09239138662815094,0.14692816138267517
1726225677823359700,10.39735986328125,0.1365996152162552,0.04922250285744667,-0.27180060744285583
1726225677833396700,10.407396728515625,0.03688821196556091,0.10945548117160797,-0.5636780261993408
1726225677843432700,10.4174326171875,0.10234444588422775,-0.054616011679172516,-0.48310405015945435
1726225677853468700,10.42746875,0.03366418927907944,0.1358114629983902,0.04406493529677391
1726225677863505700,10.437505615234375,0.11175685375928879,0.19742289185523987,0.11982334405183792
1726225677873541600,10.447541748046875,0.04662605747580528,0.07917241007089615,0.059271588921546936
1726225677883577600,10.45757763671875,0.1065170168876648,0.026413360610604286,-0.0675487294793129
1726225677893614800,10.46761474609375,0.22441542148590088,0.09538337588310242,0.5193960070610046
1726225677903650800,10.47765087890625,0.22457090020179749,0.03147092089056969,0.5077717900276184
1726225677913686800,10.487686767578126,0.10073365271091461,-0.011281601153314114,-0.20007407665252686
1726225677923723800,10.497723876953126,0.08560485392808914,0.003318691160529852,-0.5772455334663391
1726225677933759700,10.507759765625,0.0337429940700531,0.10911595821380615,0.06445164978504181
1726225677943795700,10.517795654296876,0.15936700999736786,0.00457758130505681,0.3460322618484497
1726225677953832700,10.527832763671874,0.08316172659397125,-0.003264895174652338,-0.6864600777626038
1726225677963868700,10.53786865234375,0.23135462403297424,0.02232499048113823,-0.3739238381385803
1726225677973904600,10.547904541015624,0.1318402886390686,0.1196046695113182,0.6443512439727783
1726225677983942000,10.55794189453125,0.07872401922941208,0.07417814433574677,0.5772566199302673
1726225677993977900,10.567977783203125,0.06106966361403465,0.07056156545877457,-0.026844456791877747
1726225678004014800,10.578014892578125,0.062234994024038315,-0.009737392887473106,0.21653082966804504
1726225678014050800,10.58805078125,0.06367389112710953,-0.14808063209056854,0.6131676435470581
1726225678024086800,10.598086669921875,-0.02123020589351654,0.020104508846998215,-0.03580950200557709
1726225678034123800,10.608123779296875,-0.0029009992722421885,-0.0648612529039383,-0.6801613569259644
1726225678044159700,10.61815966796875,-0.15082760155200958,-0.003275246825069189,-0.18679437041282654
1726225678054195700,10.62819580078125,0.020476769655942917,-0.027630919590592384,0.47262829542160034
1726225678064232700,10.638232666015625,-0.11384382843971252,0.04078449308872223,0.26595091819763184
1726225678074269000,10.64826904296875,-0.021725617349147797,-0.11496088653802872,-0.2643182873725891
1726225678084305000,10.658304931640625,-0.07552198320627213,-0.07122854143381119,0.4414444863796234
1726225678094341600,10.668341552734375,-0.1189192607998848,-0.028977761045098305,0.7177679538726807
1726225678104377900,10.6783779296875,-0.05618014186620712,-0.07447044551372528,0.07682717591524124
1726225678114413800,10.688413818359376,-0.07010580599308014,-0.0745876207947731,-0.39343807101249695
1726225678124450600,10.698450439453126,-0.1388353854417801,-0.08829692751169205,0.2515968382358551
1726225678134486800,10.70848681640625,-0.17768104374408722,-0.01599130779504776,0.2789493501186371
1726225678144522800,10.718522705078126,-0.0797773003578186,0.027085259556770325,-0.4088558256626129
1726225678154559500,10.7285595703125,-0.10640837997198105,-0.07788802683353424,-0.10372521728277206
1726225678164595700,10.738595703125,-0.08395703881978989,-0.1688837707042694,0.6363766193389893
1726225678174631700,10.748631591796874,-0.08571525663137436,-0.12116073071956635,0.6952338218688965
1726225678184668700,10.758668701171874,-0.10638115555047989,-0.1908641904592514,-0.18160048127174377
1726225678194705000,10.768704833984375,-0.0853954404592514,-0.1273411363363266,-0.4232645332813263
1726225678204741600,10.77874169921875,-0.1706225723028183,-0.08502838015556335,0.5055617690086365
1726225678214777600,10.788777587890625,-0.1756460815668106,-0.000274882186204195,0.23113982379436493
1726225678224813800,10.798813720703125,-0.16228288412094116,0.01398242637515068,-0.5605236887931824
1726225678234850600,10.8088505859375,-0.11067135632038116,-0.2011977881193161,-0.20098203420639038
1726225678244886500,10.818886474609375,-0.12260240316390991,-0.1677551567554474,0.14409376680850983
1726225678254922800,10.8289228515625,-0.0718982145190239,-0.16303230822086334,-0.12397442013025284
1726225678264959700,10.838959716796875,-0.06991121172904968,-0.09046614915132523,0.03940973058342934
1726225678274995700,10.84899560546875,-0.1167018860578537,-0.05161276459693909,0.13918983936309814
1726225678285031700,10.85903173828125,-0.10429897904396057,-0.061427000910043716,-0.1884108930826187
1726225678295068700,10.869068603515625,-0.08134173601865768,-0.08293949067592621,0.01534808799624443
1726225678305104600,10.879104736328125,-0.01247888058423996,-0.05863085389137268,0.12057214975357056
1726225678315141000,10.88914111328125,0.027315670624375343,-0.009379682131111622,-0.24588601291179657
1726225678325178000,10.89917822265625,-0.031747281551361084,0.11167412996292114,-0.31874650716781616
1726225678335214000,10.909214111328126,0.11384214460849762,-0.0456361286342144,-0.09313256293535233
1726225678345250000,10.91925,0.028425823897123337,0.04188721999526024,0.10552198439836502
1726225678355287300,10.929287353515624,0.13966844975948334,-0.006513070780783892,0.08438181132078171
1726225678365323300,10.9393232421875,0.09862873703241348,-0.024555066600441933,0.3099369704723358
1726225678375359200,10.949359130859374,0.03403270244598389,0.08583775162696838,0.020561080425977707
1726225678385396200,10.959396240234375,0.1450105458498001,0.06198054924607277,-0.3860969543457031
1726225678395432200,10.96943212890625,0.02514406107366085,0.015750203281641006,0.3639882206916809
1726225678405469200,10.97946923828125,0.018850816413760185,0.06517508625984192,0.26950058341026306
1726225678415505200,10.989505126953125,0.09068266302347183,0.017266681417822838,-0.4318127930164337
1726225678425541000,10.999541015625,0.08934221416711807,0.07266046851873398,-0.560416042804718
1726225678435578400,11.009578369140625,0.09741479158401489,0.09558841586112976,0.27391207218170166
1726225678445614300,11.0196142578125,0.04946994408965111,0.14656198024749756,0.1547253131866455
1726225678455650300,11.029650390625,0.09816450625658035,0.029038812965154648,-0.752140998840332
1726225678465687300,11.039687255859375,0.07405615597963333,0.029213234782218933,-0.6162439584732056
1726225678475723300,11.04972314453125,0.17007429897785187,0.054751086980104446,0.09859909862279892
1726225678485759200,11.05975927734375,0.15742690861225128,0.11331304162740707,0.11881644278764725
1726225678495796200,11.069796142578125,0.2073257565498352,0.00033668987452983856,-0.3808964490890503
1726225678505832200,11.079832275390626,0.11881054937839508,0.0954231396317482,-0.4931420087814331
1726225678515868200,11.0898681640625,0.18545375764369965,0.13754530251026154,0.03685793653130531
1726225678525905200,11.0999052734375,0.15235768258571625,0.17052654922008514,0.5431382656097412
1726225678535941000,11.109941162109376,0.14502467215061188,0.1938832700252533,-0.13394832611083984
1726225678545977300,11.119977294921876,0.1799324005842209,0.08463158458471298,-0.17872798442840576
1726225678556014300,11.130014404296874,0.0631818175315857,0.17362670600414276,0.38919270038604736
1726225678566050300,11.14005029296875,0.12147592008113861,0.23631903529167175,0.3163004219532013
1726225678576087300,11.15008740234375,0.11361346393823624,0.10036013275384903,-0.6744942665100098
1726225678586123300,11.160123291015625,0.18198911845684052,0.10872359573841095,-0.7167513370513916
1726225678596159200,11.1701591796875,0.29860731959342957,0.11552157998085022,0.3693925738334656
1726225678606196200,11.1801962890625,0.24997085332870483,0.14422042667865753,0.6090776920318604
1726225678616232200,11.190232177734375,0.2544662654399872,0.1597527712583542,-0.15371371805667877
1726225678626268200,11.20026806640625,0.2463093400001526,0.22818702459335327,0.21085281670093536
1726225678636305400,11.210305419921875,0.18304648995399475,0.26560017466545105,0.35064080357551575
1726225678646341400,11.22034130859375,0.15379159152507782,0.3048706352710724,-0.10165826231241226
1726225678656377300,11.23037744140625,0.1569194793701172,0.26585373282432556,-0.1407683789730072
1726225678666414300,11.240414306640625,0.13098587095737457,0.37032198905944824,0.30013468861579895
1726225678676450300,11.2504501953125,0.31122541427612305,0.1855204552412033,0.5930783748626709
1726225678686486300,11.260486328125,0.18167562782764435,0.23010173439979553,-0.29258671402931213
1726225678696523300,11.270523193359375,0.22802981734275818,0.0957668200135231,-0.8360755443572998
1726225678706559200,11.280559326171876,0.13665255904197693,0.301160991191864,0.19238662719726562
1726225678716595200,11.29059521484375,0.11591238528490067,0.4024934768676758,0.5585761070251465
1726225678726632400,11.300632568359376,0.13928522169589996,0.2578360438346863,0.0221695676445961
1726225678736668400,11.31066845703125,0.06823688000440598,0.2696053385734558,-0.1636469066143036
1726225678746704400,11.320704345703126,0.1292884349822998,0.26609909534454346,-0.023410793393850327
1726225678756741400,11.330741455078124,0.07807903736829758,0.23892152309417725,0.21679674088954926
1726225678766777300,11.34077734375,0.0471651554107666,0.1260785311460495,0.105533167719841
1726225678776814300,11.350814453125,0.05758317559957504,0.14999157190322876,0.025402378290891647
1726225678786850300,11.360850341796874,-0.028596466407179832,0.20531995594501495,0.10094176977872849
1726225678796886300,11.37088623046875,-0.02821323834359646,0.2176722288131714,-0.2638207674026489
1726225678806923300,11.38092333984375,-0.15650036931037903,0.24034669995307922,-0.043259523808956146
1726225678816959200,11.390959228515625,-0.06029927730560303,0.2112751007080078,0.6822182536125183
1726225678826995200,11.4009951171875,-0.04264960438013077,0.14456680417060852,0.5436777472496033
1726225678837032200,11.4110322265625,-0.06418711692094803,0.04198875650763512,-0.18380224704742432
1726225678847068400,11.421068359375,-0.05717144161462784,0.07506965100765228,-0.10099323093891144
1726225678857104400,11.4311044921875,-0.10001024603843689,0.03010244481265545,0.44071289896965027
1726225678867141000,11.44114111328125,-0.11693771183490753,0.1457875519990921,0.009519079700112343
1726225678877177300,11.45117724609375,-0.03693928197026253,0.11167354136705399,-0.809816300868988
1726225678887213300,11.46121337890625,-0.1269771307706833,0.07958463579416275,-0.3042040765285492
1726225678897250000,11.47125,-0.036930859088897705,0.1188068762421608,0.5305203795433044
1726225678907286300,11.481286376953125,-0.10606029629707336,0.16888976097106934,0.515055239200592
1726225678917322200,11.491322265625,-0.09302971512079239,0.000011263415217399597,-0.39099186658859253
1726225678927359200,11.501359130859376,-0.05379138141870499,0.05010499432682991,-0.21944661438465118
1726225678937395500,11.5113955078125,-0.08192367851734161,0.07463430613279343,0.3787022829055786
1726225678947431400,11.521431396484376,-0.1816137284040451,0.057066548615694046,-0.11714575439691544
1726225678957468200,11.53146826171875,-0.1799849420785904,0.055561598390340805,-0.0711124837398529
1726225678967504400,11.54150439453125,-0.22336845099925995,0.13174156844615936,0.31135913729667664
1726225678977541000,11.551541015625,-0.1315447837114334,-0.057321563363075256,0.10383099317550659
1726225678987577000,11.5615771484375,-0.17811259627342224,-0.05100693926215172,0.07551253587007523
1726225678997613300,11.57161328125,-0.21829970180988312,-0.09904184192419052,-0.09172040224075317
1726225679007650000,11.581650146484375,-0.22308345139026642,-0.08867331594228745,-0.17521549761295319
1726225679017686000,11.59168603515625,-0.2777208685874939,-0.06399033963680267,-0.27670347690582275
1726225679027722200,11.60172216796875,-0.3183290958404541,-0.11659618467092514,0.03128328174352646
1726225679037759200,11.61175927734375,-0.42447683215141296,-0.15299734473228455,0.06255225092172623
1726225679047795200,11.621795166015625,-0.4923704266548157,-0.12505929172039032,-0.3323298394680023
1726225679057831200,11.6318310546875,-0.38029104471206665,-0.13689064979553223,0.16436326503753662
1726225679067868200,11.6418681640625,-0.39171501994132996,-0.19431926310062408,-0.12661166489124298
1726225679077904100,11.651904052734375,-0.3490605056285858,-0.2908601760864258,-0.3956660330295563
1726225679087940000,11.661940185546875,-0.40494537353515625,-0.23094987869262695,-0.07524758577346802
1726225679097977000,11.67197705078125,-0.38303235173225403,-0.30771520733833313,0.011094756424427032
1726225679108013000,11.682012939453125,-0.44728729128837585,-0.20658937096595764,-0.32281962037086487
1726225679118049000,11.692049072265625,-0.40494436025619507,-0.39409613609313965,-0.40479010343551636
1726225679128086300,11.702086181640626,-0.4495173692703247,-0.46442022919654846,0.7163344025611877
1726225679138122200,11.712122314453126,-0.49405020475387573,-0.298208087682724,0.2311679869890213
1726225679148159200,11.7221591796875,-0.4621696472167969,-0.31254008412361145,-0.5510129332542419
1726225679158195200,11.7321953125,-0.5214278697967529,-0.3348129093647003,-0.4616955518722534
1726225679168231200,11.742231201171874,-0.4006761610507965,-0.3764994442462921,0.38495054841041565
1726225679178268200,11.75226806640625,-0.5094143748283386,-0.3576540946960449,-0.007704081013798714
1726225679188304100,11.76230419921875,-0.2504306435585022,-0.3897634744644165,-0.19652794301509857
1726225679198340000,11.772340087890624,-0.42311611771583557,-0.339922696352005,0.47880229353904724
1726225679208377000,11.782377197265625,-0.4625546336174011,-0.33169394731521606,0.4232809841632843
1726225679218413300,11.792413330078125,-0.38239586353302,-0.28048884868621826,0.17465941607952118
1726225679228449300,11.80244921875,-0.27148565649986267,-0.2798346281051636,-0.10021375864744186
1726225679238486300,11.812486328125,-0.20482729375362396,-0.3466480076313019,0.42272719740867615
1726225679248522200,11.822522216796875,-0.24602532386779785,-0.33484911918640137,-0.1943136304616928
1726225679258558200,11.83255810546875,-0.20230713486671448,-0.2768119275569916,0.32763370871543884
1726225679268595200,11.84259521484375,-0.19593645632266998,-0.15608292818069458,0.6766301989555359
1726225679278631200,11.852631103515625,-0.10848677903413773,-0.24314139783382416,-0.1618863046169281
1726225679288667100,11.862667236328125,-0.1395663321018219,-0.18232418596744537,-0.047497354447841644
1726225679298704100,11.8727041015625,-0.040377162396907806,-0.19793324172496796,0.09298492968082428
1726225679308740000,11.882739990234375,-0.02897202968597412,-0.22321008145809174,0.015541148371994495
1726225679318777300,11.89277734375,-0.027070000767707825,-0.23190823197364807,-0.28262636065483093
1726225679328813300,11.902813232421876,-0.002627575071528554,-0.2528875470161438,-0.21871349215507507
1726225679338849300,11.912849365234376,-0.11717306077480316,-0.13591669499874115,0.06871722638607025
1726225679348886300,11.92288623046875,0.04833315312862396,-0.2465328425168991,0.14712156355381012
1726225679358922200,11.932922119140626,-0.046541694551706314,-0.18032798171043396,-0.19514469802379608
1726225679368958200,11.942958251953126,0.11715906113386154,-0.23045235872268677,-0.39312973618507385
1726225679378995500,11.952995361328124,0.07434394955635071,-0.19769920408725739,0.18790917098522186
1726225679389031400,11.963031494140624,0.07555799186229706,-0.1016615629196167,0.2716639041900635
1726225679399067400,11.9730673828125,0.19363082945346832,-0.12865883111953735,-0.24407190084457397
1726225679409104400,11.9831044921875,0.07644398510456085,-0.10353997349739075,-0.40886518359184265
1726225679419140400,11.993140380859375,0.09364906698465347,-0.17381305992603302,-0.1748310923576355
1726225679429176300,12.00317626953125,-0.0058064269833266735,-0.21787796914577484,0.7080182433128357
1726225679439213300,12.01321337890625,0.07220394909381866,-0.2056761533021927,0.32614946365356445
1726225679449249300,12.023249267578125,0.228346049785614,-0.14745745062828064,-0.21269255876541138
1726225679459285200,12.03328515625,0.17236186563968658,-0.14761298894882202,0.6020917296409607
1726225679469322500,12.043322509765625,0.20702733099460602,-0.10581209510564804,1.1118643283843994
1726225679479358500,12.0533583984375,0.0843283161520958,-0.2101113349199295,-0.43751034140586853
1726225679489394400,12.06339453125,0.13906127214431763,0.04179073125123978,-1.272930383682251
1726225679499431400,12.073431396484375,0.05625960975885391,-0.034639064222574234,-0.6019611954689026
1726225679509467400,12.08346728515625,0.12119045108556747,-0.0797317624092102,0.24608635902404785
1726225679519504400,12.09350439453125,0.12846434116363525,0.04892980679869652,0.12192153930664062
1726225679529540400,12.103540283203126,0.2515524625778198,-0.010243799537420273,-0.25483423471450806
1726225679539576300,12.113576416015626,0.2600993514060974,-0.051241565495729446,0.060453422367572784
1726225679549613300,12.12361328125,0.19891397655010223,-0.1268400400876999,0.10617662966251373
1726225679559649300,12.133649169921876,0.19435064494609833,-0.03460492566227913,-0.05702534690499306
1726225679569685200,12.143685302734376,0.21989701688289642,0.04126358404755592,-0.47235384583473206
1726225679579722500,12.153722412109374,0.13187821209430695,0.13457302749156952,-0.12191302329301834
1726225679589758500,12.163758544921874,0.2258366048336029,0.01784343086183071,0.310299813747406
1726225679599794400,12.17379443359375,0.30564117431640625,0.0486263781785965,-0.44536465406417847
1726225679609831400,12.18383154296875,0.43302977085113525,-0.13867990672588348,-0.7664598226547241
1726225679619867400,12.193867431640625,0.35820719599723816,0.01072423905134201,0.0000959574244916439
1726225679629903400,12.2039033203125,0.3863443434238434,0.04598411172628403,0.7505865097045898
1726225679639940400,12.2139404296875,0.3008906841278076,0.04045885428786278,0.008182409219443798
1726225679649976300,12.223976318359375,0.1719752848148346,0.12427149713039398,-0.38900867104530334
1726225679660012300,12.23401220703125,0.2454761266708374,0.04903639107942581,0.14174120128154755
1726225679670049500,12.244049560546875,0.24888841807842255,0.11930008977651596,0.25160831212997437
1726225679680085500,12.25408544921875,0.3090105950832367,0.15249532461166382,0.0037990426644682884
1726225679690122200,12.264122314453125,0.36754146218299866,0.219699889421463,-0.004018720705062151
1726225679700158500,12.274158447265625,0.40404409170150757,0.17082954943180084,0.3523830771446228
1726225679710194400,12.2841943359375,0.39340075850486755,0.1499050110578537,0.11451882869005203
1726225679720231200,12.294231201171876,0.40193405747413635,0.10379291325807571,0.05287463963031769
1726225679730267400,12.304267333984376,0.25482890009880066,0.19186249375343323,0.17792031168937683
