time,seconds_elapsed,z,y,x
1726225920266189000,0.03318896484375,-0.4565221172392368,-0.21689619951844213,-0.24314821009542792
1726225920276184000,0.04318408203125,-0.3192243550926447,-0.02376461420804262,-0.38630635217539966
1726225920286180000,0.05318017578125,-0.0030307459980249405,0.16816110244393348,-0.46525198819432406
1726225920296175000,0.063175048828125,0.170621939599514,0.21861644743978975,-0.3609207491694018
1726225920306170000,0.073170166015625,0.20308803891837596,0.31277737091034646,-0.35042500105295327
1726225920316166100,0.083166259765625,-0.0949181715786457,-0.12013298459500074,0.19129238718450067
1726225920326161200,0.0931611328125,-0.20993279024660585,0.06514671817123889,0.07013418772760778
1726225920336156200,0.10315625,-0.3553285186529159,0.22453122444152832,-0.1858100467832759
1726225920346152200,0.113152099609375,-0.7894809831738472,-0.030289632062613963,-0.13982424841690808
1726225920356147000,0.12314697265625,-1.0108224716633558,-0.25795857000797984,-0.18021829119082539
1726225920366142000,0.133141845703125,-0.7734060466855764,-0.305422624233365,-0.38757286497987803
1726225920376138200,0.14313818359375,0.06524433332681656,0.10932400581091642,-0.8385258768498897
1726225920386133200,0.15313330078125,0.38543431858122346,0.31042525482624767,-1.1340149899594485
1726225920396128300,0.163128173828125,0.30651626468896864,0.24673925685733555,-1.2584458178788422
1726225920406124000,0.1731240234375,-0.31484102544188497,-0.5580123606845736,-0.6652925857082009
1726225920416119000,0.183119140625,-0.8472323303967714,-1.2437149894759059,0.1466826994769275
1726225920426114000,0.193114013671875,-0.90376319591403,-1.342998078265786,0.49112683602198953
1726225920436110000,0.203110107421875,-0.3739852883279323,-0.5509533820837735,-0.05571918380819261
1726225920446105000,0.21310498046875,0.16254267804026604,0.05722147812992334,-0.5953158900972455
1726225920456100000,0.22310009765625,0.521815550404787,0.366154740832746,-0.6999636477254331
1726225920466096000,0.23309619140625,0.8682979147791862,0.4978907771989703,-0.5356765371706337
1726225920476091100,0.243091064453125,0.978742156791687,0.6033510933190583,-0.3652579381234944
1726225920486086100,0.253086181640625,0.9031938715934753,0.3410916112467646,0.2120225290674716
1726225920496082200,0.263082275390625,1.3744301583617924,0.35122137559503314,-0.012907996889948843
1726225920506077000,0.273076904296875,1.3723486759126187,0.309604001571238,-0.11658150265850126
1726225920516072000,0.283072021484375,0.843827490389347,0.25063831012248994,0.27208405292890964
1726225920526068200,0.293068115234375,0.5387099865823984,0.7282610830575227,0.20872648319676518
1726225920536063200,0.303063232421875,0.2352104393661022,1.2313447527244685,0.2309106232803315
1726225920546058200,0.313058349609375,0.2770171984821558,1.5814441385522484,0.23991613283902405
1726225920556054000,0.323053955078125,0.4375251558244228,1.477008197043836,0.3692196813613176
1726225920566049000,0.333049072265625,0.9998024804770946,1.5870432737335562,0.2597257258109748
1726225920576044000,0.3430439453125,1.9144290157109498,1.864636518537998,-0.16213555854409933
1726225920586040000,0.3530400390625,2.2053046436756847,1.882773648253083,-0.26178200075365604
1726225920596035000,0.36303515625,1.9154665420651436,1.837610856707394,-0.3844049755334854
1726225920606030000,0.373030029296875,2.146077378681302,2.3183862484544515,-0.552603195117414
1726225920616026000,0.383026123046875,2.2640607840269804,3.015024405018985,-0.8099354499205946
1726225920626021000,0.393021240234375,2.0468764152169228,3.201844030703604,-1.3257006142452359
1726225920636016000,0.40301611328125,1.8112848675787447,2.2968477858632803,-3.543307690133154
1726225920646011100,0.41301123046875,2.241763027501106,0.7497571678116918,-4.835525136971474
1726225920656007200,0.423007080078125,3.2235704170823096,1.5505170853689312,-4.239919250951707
1726225920666002000,0.433001953125,3.3931291113644835,3.558332533046603,-2.478538816487789
1726225920675997000,0.442996826171875,3.113973731809854,4.143001137727499,-2.217627826415002
1726225920685993200,0.4529931640625,3.4585219132512806,4.172484714104235,-3.282662072998285
1726225920695988200,0.46298828125,4.081422925692796,4.586372389231622,-3.3218414062201975
1726225920705983200,0.472983154296875,4.505695801234245,4.8933925117895,-2.467649173682928
1726225920715979000,0.48297900390625,4.695493565946817,5.445824441993236,-1.4079086495935915
1726225920725974000,0.49297412109375,5.090346285736561,6.231738672596216,0.05076163446605205
1726225920735969000,0.502968994140625,5.161890595990419,6.984927276161312,1.5619564710110425
1726225920745965000,0.512965087890625,5.157351198995113,8.06273946351409,2.865508674073219
1726225920755959000,0.522958984375,4.633106375616789,8.921851032274962,3.7482857805818317
1726225920765955300,0.532955322265625,3.212928027036786,9.870242474466561,3.868555251038074
1726225920775950000,0.5429501953125,1.59680888094455,10.79845972815752,3.533953294071555
1726225920785945000,0.552945068359375,0.29688802012205123,11.607585322999954,2.69360955414474
1726225920795941000,0.562941162109375,-0.8833475998729466,12.485310406816005,2.3247481847018
1726225920805936000,0.57293603515625,-1.7304469515398144,12.801266700023412,2.3839573295176026
1726225920815931100,0.58293115234375,-2.0878394169852137,13.347345754069089,2.8185230510145423
1726225920825926100,0.592926025390625,-2.4206626738414165,14.12076173762679,3.3397102403879164
1726225920835922000,0.602921875,-2.209291082963347,15.367700073063373,2.881969979530573
1726225920845917000,0.6129169921875,-1.6011116927050053,15.909996101438999,2.0371412031441927
1726225920855912200,0.622912109375,-1.5808008722126483,16.49550700216293,0.9618360301762818
1726225920865908200,0.632908203125,-2.447334115406871,16.852199794906376,-0.09617138651013374
1726225920875903200,0.6429033203125,-3.6852123615533112,16.436217777848242,-1.1747025357872247
1726225920885898200,0.652898193359375,-4.458378754264116,16.24629024927616,-2.35050397272706
1726225920895894000,0.66289404296875,-5.724434462624788,17.19237633713484,-4.6544268115431064
1726225920905889000,0.672888916015625,-7.640752068561315,17.48379907758832,-8.072879749256373
1726225920915884000,0.682884033203125,-9.754832134479283,17.184880428421497,-11.83224981843233
1726225920925879000,0.692879150390625,-11.777803942495584,16.465847192436456,-15.607307286083698
1726225920935875000,0.702875,-13.271590548121928,13.318618841278552,-16.294584616845846
1726225920945870000,0.7128701171875,-12.670541886526346,11.7542371889472,-18.593559477865696
1726225920955865000,0.722864990234375,-12.297440395295618,9.777213477635383,-21.596444824540615
1726225920965860600,0.732860595703125,-12.653533468580246,7.493479440367222,-25.10391050918102
1726225920975855600,0.742855712890625,-12.445209867095947,4.851445175158977,-28.90915736339092
1726225920985850600,0.7528505859375,-10.214386751282214,1.935417443203926,-32.09385707480907
1726225920995846400,0.762846435546875,-6.598088351479173,-0.969911200082302,-32.87657163258791
1726225921005841400,0.77284130859375,-2.4908894717559216,-1.163361057561636,-33.055863200855256
1726225921015836700,0.782836669921875,1.8618907269611953,-0.7140735677510499,-32.79027282079458
1726225921025832700,0.792832763671875,3.689044779323041,-0.43562896681427954,-29.028488676214216
1726225921035827700,0.80282763671875,4.2540415920674794,1.5646850191920996,-26.379624857246874
1726225921045822700,0.81282275390625,4.98331331347227,3.2172645949363705,-23.601378287041186
1726225921055817700,0.822817626953125,5.566500739684701,5.101333543696999,-20.13430072689056
1726225921065813500,0.8328134765625,5.689706848114729,6.259657191613316,-16.71293511660099
1726225921075808500,0.84280859375,5.7824903457522385,6.707006991359591,-14.01007199642062
1726225921085803500,0.852803466796875,5.771792426127195,6.54115475037992,-11.856985615760088
1726225921095799800,0.8627998046875,6.0628738057971,5.655334038391709,-10.27234092760086
1726225921105794600,0.872794677734375,7.165658521842956,4.704105911469459,-9.320708311530947
1726225921115789600,0.88278955078125,7.644508790746331,3.4391070186853407,-8.222264839559793
1726225921125784600,0.89278466796875,8.025151198875903,3.0096260531067847,-6.2405947637468575
1726225921135780600,0.902780517578125,6.9382327450037,3.118666273540258,-2.641644681368768
1726225921145775600,0.912775634765625,5.6341503805875774,2.5058599541336295,-1.7211324490971862
1726225921155770600,0.9227705078125,6.077340138044953,2.0471639999866484,-1.0930044957876204
1726225921165766700,0.9327666015625,6.243700328546762,2.877567360657453,-0.5080573664262891
1726225921175761700,0.94276171875,6.788210525840521,2.7486796994596716,-0.20659750834405421
1726225921185756700,0.952756591796875,4.7873429976046085,4.076899895310402,1.8097639416217803
1726225921195752700,0.962752685546875,3.4251123956024645,4.5460582067608835,3.4018142298623917
1726225921205747700,0.972747802734375,4.293308603572846,4.155209461915493,2.5477985229358078
1726225921215742500,0.982742431640625,6.0690861044406885,4.512613617798686,2.2203800477325917
1726225921225737500,0.992737548828125,5.306447535485029,6.166413675248623,3.0966344744741914
1726225921235733500,1.0027333984375,3.1446962023317813,8.754624580332637,5.544531484460831
1726225921245728500,1.012728515625,-2.158999988618493,12.566313450288773,10.008948349845408
1726225921255723800,1.022723876953125,-2.2602421025216577,10.893654963111876,8.94176978470981
1726225921265719600,1.032719482421875,-1.1147145155534148,8.276473984131217,7.737211624363065
1726225921275714600,1.042714599609375,0.3739209909200668,5.813406877541541,7.228613282927871
1726225921285709600,1.05270947265625,2.219082993659377,2.2994804724544284,5.190987511137128
1726225921295704600,1.06270458984375,6.73628978446722,0.4229863428622484,2.0639321794360876
1726225921305700600,1.07270068359375,7.612288190621137,1.0239829820096493,1.3115361875534057
1726225921315695600,1.082695556640625,9.404501277983188,0.967964157667756,1.0020336005300283
1726225921325690600,1.092690673828125,9.451630108904839,4.405754248535633,1.340616736087203
1726225921335686700,1.102686767578125,7.28398621058166,6.34558892365992,2.788493238931894
1726225921345681700,1.112681640625,4.72493534900844,5.767955624443292,3.3213264424353834
1726225921355676700,1.1226767578125,2.4867390740782023,5.911552778995037,3.645930152478814
1726225921365671700,1.132671630859375,1.4056388049654662,4.3038399344593286,1.8414871136188506
1726225921375667500,1.14266748046875,0.7691729391604661,2.3517282538250086,-0.09548281972408294
1726225921385662500,1.152662353515625,0.12454532114453613,2.0101570423677564,-0.8581061911106109
1726225921395657500,1.162657470703125,-1.151505200073123,3.010451398015022,-0.9229770149499177
1726225921405653800,1.17265380859375,-3.093483316966891,2.3032830796077848,-1.2894716552615164
1726225921415648800,1.182648681640625,-4.7079169941902155,1.3479630071967839,-1.5775678816407919
1726225921425643800,1.192643798828125,-5.295259201994538,1.978278972069919,-1.628364587420225
1726225921435638800,1.202638671875,-6.034605158168077,3.1034102522194384,-0.5440075084686279
1726225921445634600,1.212634521484375,-6.747422003856301,2.411892507408559,0.7907821289002895
1726225921455629600,1.222629638671875,-6.75616937393546,1.2816069132357835,0.4884142160624265
1726225921465624600,1.23262451171875,-5.835839658623933,0.05436024347990751,-0.9979694198310375
1726225921475620600,1.24262060546875,-4.607637587839365,0.04306260439604521,-1.8489754235476255
1726225921485615600,1.25261572265625,-3.6642063984036444,0.41004736631214617,-2.8045354421943425
1726225921495610600,1.262610595703125,-4.061394867664576,0.9840879017338157,-2.517920394283533
1726225921505605600,1.272605712890625,-4.383910665518045,1.5114920659258961,-1.0831547174245117
1726225921515601700,1.2826015625,-3.541107257479429,1.8064388888522982,-0.013988193342089653
1726225921525596700,1.2925966796875,-2.7085622086048127,2.3312977524757383,1.1636626708567142
1726225921535591700,1.302591796875,-1.9293664726018904,3.194975313977897,2.2775819443792105
1726225921545587500,1.31258740234375,-0.7805085721671581,4.213775340391695,3.2556682676106687
1726225921555582500,1.32258251953125,-0.2780301749169826,5.155498264604806,4.18751715580225
1726225921565577500,1.332577392578125,-0.2133949133992195,5.87225069617629,5.412721213814616
1726225921575572500,1.342572509765625,0.5908160213947296,6.658017627263069,6.37445904431343
1726225921585568800,1.35256884765625,1.2745324448049067,7.338805596005916,6.731512487062812
1726225921595563800,1.362563720703125,1.2482646156042814,7.833329819381237,6.900661431500315
1726225921605558500,1.37255859375,0.8589467335879802,8.661642345252632,6.1880316328167915
1726225921615553500,1.382553466796875,1.6249455727569757,9.621463528475164,5.401638678786158
1726225921625549600,1.392549560546875,3.9257343513309952,9.997379492604733,3.616541560909152
1726225921635544600,1.402544677734375,6.058494567799568,9.929606517583132,0.9404413599699735
1726225921645539600,1.41253955078125,6.747873254755139,9.002814328259229,-0.43305297884643074
1726225921655535600,1.42253564453125,6.095789402449131,8.360193300825356,-0.28104806143343447
1726225921665530600,1.432530517578125,5.089552505010366,8.054853094178437,0.6468044505983591
1726225921675525600,1.442525634765625,4.334564158546924,8.51664292268753,1.9202502692103385
1726225921685520600,1.452520751953125,0.5939809151664376,10.32590417548418,3.284075446927547
1726225921695516700,1.4625166015625,-1.5082821639686823,11.682214739787577,3.8295793314337727
1726225921705511700,1.47251171875,-1.0284680184692143,11.812634432858228,2.941157497036457
1726225921715506400,1.48250634765625,3.2312843524605035,10.597510454833508,-1.0302540251031518
1726225921725502500,1.49250244140625,3.1809014881789683,8.819688880917429,-2.3363807548284528
1726225921735497700,1.502497802734375,0.18891864379048345,7.667367688286304,-4.5353149866893885
1726225921745492700,1.51249267578125,-2.2740908873930574,7.555012644216418,-8.10145585539937
1726225921755487700,1.52248779296875,-5.4876019750148055,6.258327404314279,-11.553881789863109
1726225921765483500,1.5324833984375,-7.078223399496078,4.750591183790564,-15.155960525655745
1726225921775478500,1.542478515625,-6.538752949935198,3.604994330978393,-16.781589550632237
1726225921785473500,1.5524736328125,-3.632438802742958,2.123640505945682,-17.774511039423942
1726225921795468500,1.562468505859375,-0.6411310811370611,-0.14071136998236178,-17.871430613952874
1726225921805464600,1.572464599609375,3.0684219409465787,-0.9503191953837871,-19.90785928491354
1726225921815459600,1.58245947265625,6.861915228998661,-2.6457413030326364,-21.218345671153067
1726225921825454600,1.59245458984375,8.239974683773518,-5.152869669666886,-20.801941629290578
1726225921835450600,1.60245068359375,9.342173708885907,-6.569900367870926,-20.46925748864412
1726225921845445600,1.612445556640625,11.214068820250034,-7.218797406834364,-20.590499019002912
1726225921855440600,1.622440673828125,12.687327017110585,-6.457785562297701,-19.65264767552614
1726225921865435600,1.632435546875,12.913458662486075,-4.877919925108552,-16.725777062517402
1726225921875431400,1.642431396484375,11.33616024543643,-2.8364404004991055,-12.861037570375203
1726225921885426400,1.652426513671875,9.4127412830621,-0.48146249722838397,-9.535317861416935
1726225921895421400,1.66242138671875,8.085513605380058,0.9968068057924508,-6.342694955784082
1726225921905416400,1.67241650390625,6.929294236266613,2.636342775568366,-3.6617692343845962
1726225921915412700,1.682412841796875,6.205507668274641,3.1899311823308465,-1.0620419328995048
1726225921925407700,1.69240771484375,5.752364087557792,2.9296079290181396,0.6759045806154609
1726225921935402800,1.70240283203125,5.611226601117849,3.5103824488699433,1.2777613437235356
1726225921945398500,1.7123984375,7.746406153687834,3.0441841562688348,-2.1278668914690613
1726225921955393500,1.7223935546875,4.857290394055843,1.838884822165966,0.6611848581284284
1726225921965388500,1.732388427734375,0.16471242329478264,3.7029473402082917,5.546527042192221
1726225921975383600,1.742383544921875,-0.06609364363253116,3.4694366904973983,5.671497822207212
1726225921985379600,1.752379638671875,0.7309732646256685,2.85836406301558,4.993053786242008
1726225921995374300,1.762374267578125,0.8997732494950293,3.1246225515961643,3.848347744789719
1726225922005369300,1.772369384765625,-1.0587632034897803,4.900942488777638,5.519549018895626
1726225922015364400,1.7823642578125,-2.0340099193811416,5.727794294446706,8.244585392439365
1726225922025360600,1.792360595703125,1.9325094468027353,4.848444824299216,7.969512898284196
1726225922035355600,1.802355712890625,2.48255594317466,4.5238101345956325,8.391604922655224
1726225922045350700,1.8123505859375,3.4926761117875573,4.995542095926404,7.148261981362104
1726225922055346400,1.822346435546875,1.534758375222981,2.8463468774855136,3.5294022066384554
1726225922065341400,1.832341552734375,1.2313339390695095,1.7716805869430303,0.5330272647708654
1726225922075336400,1.84233642578125,1.5333470471203325,1.096467203462124,-1.15662093565166
1726225922085331500,1.85233154296875,1.4007979408055542,2.941858338782191,-1.8047826460778713
1726225922095327500,1.862327392578125,1.4960828998699784,4.343081227001548,-1.2269161226272582
1726225922105322200,1.872322265625,0.3989806133747101,4.460194279253483,-0.08029694103002548
1726225922115317500,1.8823173828125,-1.1491712041676043,4.536220411096513,0.9912906727194786
1726225922125312500,1.8923125,-0.3600885726615786,4.408246942134201,2.596857152876258
1726225922135308500,1.90230859375,0.026565058581531045,3.276248114302754,3.1217198158919808
1726225922145303600,1.912303466796875,-0.3534329141646623,2.373591126064956,2.756626274549961
1726225922155298600,1.922298583984375,-0.5897244267657399,2.415582009576261,2.39580558822155
1726225922165293600,1.93229345703125,-0.27316563762053847,3.124918319672346,1.7146294969439506
1726225922175289300,1.942289306640625,0.20044424641132352,3.9907644573852417,2.251955335691571
1726225922185284400,1.952284423828125,0.5922276417583227,4.575318495775759,2.4083389065802097
1726225922195279400,1.962279296875,0.28462650444209575,3.001039134286344,3.5025235520631073
1726225922205275600,1.972275634765625,0.04200315847098827,1.7567364080503582,4.2585786509752275
1726225922215270400,1.9822705078125,-0.47275947774760424,1.2913795347094534,4.603518462082743
1726225922225265400,1.992265380859375,-1.0463691474713384,0.3473123854577541,5.428609103298187
1726225922235260400,2.002260498046875,-1.4843923159457741,0.06346797130405903,5.801107367938757
1726225922245256400,2.01225634765625,-1.4787603014081716,-0.5178472312957048,5.817762150141596
1726225922255251500,2.02225146484375,-1.402997496676445,-0.8351923485130072,5.238118095624446
1726225922265246500,2.03224658203125,-1.4158990638256073,-1.7735744378656149,4.480199540928006
1726225922275241500,2.042241455078125,-1.1589385649442672,-2.9711557449370622,3.1756156567305323
1726225922285237500,2.052237548828125,-0.7314309452652931,-3.68832961679101,2.328563943597674
1726225922295232500,2.062232421875,-0.763228862999007,-3.9308904189199207,2.1600544661074874
1726225922305227500,2.0722275390625,-0.969423562695831,-3.9869390538781877,2.048830471894145
1726225922315222500,2.082222412109375,-1.0613714862920343,-3.777433549132943,2.1903870605289937
1726225922325218600,2.092218505859375,-0.7767071340575814,-3.2816286382973194,1.468321324980259
1726225922335213300,2.10221337890625,-0.25800445497632024,-2.2326836489886044,0.8548930742830038
1726225922345208300,2.112208251953125,-0.9451885544970631,-0.6698556558400393,-0.1299120358094573
1726225922355203300,2.122203369140625,-1.364912096171081,6.508837704142928,-1.3521911462858318
1726225922365199600,2.13219970703125,0.4910501175239682,11.776762324488162,0.5681159676782787
1726225922375194600,2.142194580078125,2.1175731687307358,11.322132889127731,3.196698776769638
1726225922385189600,2.152189697265625,1.4700307592466473,8.63066736127436,2.7858438934668897
1726225922395185400,2.162185302734375,0.5908744735836983,5.805072764438391,1.0889250444542615
1726225922405180400,2.172180419921875,0.5886372160509228,4.2105438111245626,-0.16809943538457153
1726225922415175400,2.182175537109375,-0.17920827389806507,4.428240221109986,-2.311934295836091
1726225922425170400,2.19217041015625,-0.4347638744175434,4.661952530872822,-3.90485639847517
1726225922435166500,2.20216650390625,-0.7526128495037555,4.730300090911984,-3.117093325135112
1726225922445161500,2.212161376953125,-1.74171039609313,3.4963913329184053,-3.2084137644827364
1726225922455156500,2.222156494140625,-2.634535433885455,2.94096518933475,-3.633263270868361
1726225922465151500,2.2321513671875,-2.7429408635467287,3.093849227669835,-2.3296003009080883
1726225922475147500,2.2421474609375,-2.2516426164805887,2.6624469386398792,0.10035305610895157
1726225922485142500,2.252142578125,-1.6059496342554687,2.446487143188715,1.5885983942210673
1726225922495137500,2.262137451171875,-1.3605167838215828,3.184286454442143,3.4608500639379023
1726225922505132500,2.272132568359375,-1.7869184880852698,2.727735111108422,3.2887183042973276
1726225922515128300,2.28212841796875,-1.4876178538635372,0.6493892063945531,1.9073586389333008
1726225922525123300,2.292123291015625,-0.13748597819507122,-0.5151280354648828,0.5758744728505611
1726225922535118600,2.30211865234375,1.5873583310320973,-0.7697656443566083,-0.28633564644753934
1726225922545113600,2.312113525390625,5.059455472910404,-0.6018997254669666,-0.29587445916533467
1726225922555109400,2.322109375,6.916532954370975,-0.828243552288413,-0.8869424094945192
1726225922565104400,2.3321044921875,6.148077223569154,-0.36299160062670704,-0.8897071980327367
1726225922575099400,2.342099365234375,4.659131920494139,-0.13272797001302242,-0.7946218531936406
1726225922585094400,2.352094482421875,3.3526752281621097,-0.5314397033184767,-0.3585930734068155
1726225922595090400,2.36209033203125,2.280163777565956,-0.6059264967650174,-0.033006197544932364
1726225922605085400,2.37208544921875,1.4386162148073314,-0.6680886461675166,0.06915829190015793
1726225922615080400,2.38208056640625,1.2619105713799594,-0.7916776164352893,0.1720686312764883
1726225922625075500,2.392075439453125,1.0562044589176773,-0.7284855394631624,0.30568799717128275
1726225922635071500,2.402071533203125,0.665775400789082,-0.7320686586469412,0.11599369283318518
1726225922645066500,2.41206640625,0.14770780474096537,-0.6366606577247381,0.1291378365665674
1726225922655061500,2.4220615234375,-0.12779285169839857,-0.6741852094769477,0.24519231967628
1726225922665057500,2.4320576171875,-0.4379200003609061,-0.584457592278719,-0.02421732641160488
1726225922675052300,2.44205224609375,-0.8449860127747059,-0.5126052389889956,-0.04244154988825321
1726225922685047300,2.45204736328125,-1.1621616186439991,-0.47452246883213517,0.17808803769648074
1726225922695042300,2.462042236328125,-1.207714578551054,-0.4753174186021089,0.4958142631858587
1726225922705038600,2.47203857421875,-1.148543427658081,-0.5607552296519279,0.4636988770008087
1726225922715033600,2.48203369140625,-0.9849310745596885,-0.723122551125288,0.29814181957542896
1726225922725028600,2.492028564453125,-0.847882026477158,-0.9855705415070056,-0.13804945729672907
1726225922735023600,2.502023681640625,-1.2040654083937405,-1.0088327591508626,-1.0606593924999237
1726225922745019400,2.512019287109375,-1.7910934356823562,-0.497867104062438,-2.357071076157689
1726225922755014400,2.522014404296875,-1.7192115640372037,0.7558218746781349,-1.7060352715998888
1726225922765009400,2.532009521484375,-1.289216803717613,2.0139391912549733,-1.1697136414587497
1726225922775004400,2.54200439453125,-1.3594079457968473,2.27215582767725,-0.8448743690937757
1726225922785000400,2.55200048828125,-1.498539937633276,2.631693488457799,-0.5397469284147024
1726225922794995500,2.561995361328125,-1.5323638813018798,2.3019927475363016,-0.25546412284374237
1726225922804990500,2.571990478515625,-1.5280249753147364,2.0536896023631095,-0.5283201099932193
1726225922814985500,2.5819853515625,-0.28404548968374727,1.5490192480266094,0.12820552415251732
1726225922824981500,2.5919814453125,-0.16123831744343042,0.9788625683009624,-0.35259587881863114
1726225922834976500,2.6019765625,-0.11975713701993226,0.6855506531000137,-0.6550491318523883
1726225922844971500,2.611971435546875,0.05860182657241821,0.6939718599647283,-0.4792354688286781
1726225922854966500,2.621966552734375,0.18941139574348925,0.5502408499002457,-0.5140782341510057
1726225922864962600,2.631962646484375,0.18573358401358125,0.6274579450935125,-0.5508943453729153
1726225922874957600,2.64195751953125,0.36725685685575005,0.8780454018115997,-0.246277776825428
1726225922884952600,2.65195263671875,0.5650310072749852,0.7831950347721576,-0.2962883006632328
1726225922894947600,2.661947509765625,0.717527507597208,0.6820072814047337,-0.37473055373728276
1726225922904943400,2.671943359375,0.7730494883328676,0.46573652030825613,-0.5276449872106314
1726225922914938400,2.6819384765625,0.6344704542040824,0.15307809960246085,-0.9039695321410894
1726225922924933400,2.691933349609375,0.5649132261142135,0.018655016109347344,-1.138515370118618
1726225922934928400,2.701928466796875,0.4329471803843975,0.09660977792739868,-1.2285282339990138
1726225922944924400,2.71192431640625,0.26697774276584385,0.30488895574808117,-1.110458319413662
1726225922954919700,2.721919677734375,0.14289105210900305,0.5488029260516166,-0.884865018698573
1726225922964915500,2.73191552734375,0.04283931703418493,0.7288526192098855,-0.7176923427700996
1726225922974910500,2.741910400390625,-0.0006520341679453849,0.8441568684741854,-0.6273404561936855
1726225922984906800,2.75190673828125,-0.10650193412750959,0.7571227281436324,-0.7722814265698194
1726225922994901800,2.76190185546875,-0.25814415570795535,0.5633782716318965,-1.0387146871954203
1726225923004896800,2.771896728515625,-0.3263695506721735,0.34637831947803494,-1.3626847755104303
1726225923014891500,2.7818916015625,-0.3898267083212733,0.3450514547884464,-1.4201748414486646
1726225923024887600,2.791887451171875,-0.43724195496886964,0.45602965754717584,-1.5217401959568262
1726225923034882600,2.801882568359375,-0.450911876142025,0.7100622862830758,-1.4262158751785754
1726225923044877600,2.811877685546875,-0.4325996821209788,1.1496785691678524,-1.0109019666403531
1726225923054873600,2.82187353515625,-0.3655105977103114,1.5346625136330723,-0.6004302374362945
1726225923064868600,2.83186865234375,-0.3099954851068556,1.6458590353175997,-0.33321137939095496
1726225923074863600,2.841863525390625,-0.3028071810379624,1.6692223752483724,-0.11477145756185055
1726225923084858600,2.851858642578125,-0.3453109825074672,1.5477712937921284,-0.15450784014463423
1726225923094853600,2.861853515625,-0.4043148140095174,1.3395356628522277,-0.35469781953394414
1726225923104849700,2.871849609375,-0.4005111839428544,1.203769932578504,-0.4272136051684618
1726225923114844700,2.8818447265625,-0.3585213233448565,1.0871160222709177,-0.5449252078354359
1726225923124839400,2.89183935546875,-0.3133553169287741,1.129824114140868,-0.571909660872817
1726225923134835500,2.90183544921875,-0.2759912164352834,1.2734417269587517,-0.5300695840090512
1726225923144830700,2.911830810546875,-0.17592362620420754,1.3641972258999944,-0.330874460875988
1726225923154825700,2.92182568359375,-0.08860884230136871,1.408290342387557,-0.27712299694418907
1726225923164820700,2.93182080078125,0.009236687966063618,1.359529526349902,-0.2950555439978838
1726225923174816500,2.94181640625,0.15051789372563362,1.2401447297737003,-0.2874211035966873
1726225923184811500,2.9518115234375,0.33628830261826514,1.1247259142190218,-0.5306447535485029
1726225923194806500,2.961806640625,0.5169699370045214,1.2945461820468305,-0.36482933744788165
1726225923204801500,2.971801513671875,0.6016658801784739,1.2637322338491677,-0.25569559351205823
1726225923214797600,2.981797607421875,0.6149672237675636,1.0297975135073065,-0.45958559646308417
1726225923224792600,2.99179248046875,0.5489058019042015,0.9712105922430753,-0.6641448769778013
1726225923234787600,3.00178759765625,0.4215525106668472,1.255725160743296,-0.7460182735443115
1726225923244782600,3.011782470703125,0.3053495224645361,1.6323624248847364,-0.6786001033097505
1726225923254778600,3.021778564453125,0.27054825819637623,1.7464841863662004,-0.7649953612148761
1726225923264773600,3.031773681640625,0.2824234049072489,1.8082374627068638,-0.7520049467384815
1726225923274768600,3.0417685546875,0.18921908804178236,2.0496780286341902,-0.4819797991007566
1726225923284763600,3.051763671875,-0.04061961342440918,2.105755889686942,-0.33781858092546463
1726225923294759400,3.061759521484375,-0.14353048252370207,2.0069564927607773,-0.21998598222732543
1726225923304754400,3.07175439453125,-0.26799274676097556,1.9271713006451725,0.003251110750436783
1726225923314749400,3.08174951171875,-0.3611035949230194,1.9421268777146934,0.35405484545528887
1726225923324744700,3.09174462890625,-0.4285059830665588,1.8959692299127577,0.4965753106862306
1726225923334740700,3.10174072265625,-0.4473953924536705,1.624636799068749,0.3433259461700916
1726225923344735700,3.11173583984375,-0.4065653694152832,1.2863456321954727,0.23669863209724426
1726225923354730500,3.12173046875,-0.3955611603200435,0.8422270694553852,0.05972060146927833
1726225923364725500,3.1317255859375,-0.3242319541215896,0.5009285374596715,-0.02904021652340889
1726225923374721500,3.141721435546875,-0.23260697886943815,0.23384236588329074,-0.02592354580760002
1726225923384716500,3.151716552734375,-0.08848258557319641,0.0449865581959486,0.10277122316658496
1726225923394711600,3.161711669921875,0.09614216041564941,-0.12769611332565545,0.3404547746479511
1726225923404706800,3.171706787109375,0.309941562962532,-0.26433541156351564,0.6841431243896484
1726225923414702600,3.18170263671875,0.49389410877823825,-0.23491642485558986,0.9647703300625086
1726225923424697600,3.191697509765625,0.5738923591226339,-0.20469547411501407,0.9495423657923936
1726225923434692600,3.201692626953125,0.6907675109654665,-0.352762175296247,0.9343021265625953
1726225923444687600,3.2116875,0.7730781299054622,-0.5181681338131428,1.075612631481886
1726225923454683600,3.22168359375,0.912019567605853,-0.5754977484926581,1.1536936500281094
1726225923464678400,3.231678466796875,1.0458750803440808,-0.5989519815772771,1.1449293288141489
1726225923474673400,3.24167333984375,1.2436094832748175,-0.6226292097628117,0.8834224186748265
1726225923484668400,3.25166845703125,1.449609610247612,-0.5582239576086402,0.501664158257842
1726225923494663700,3.26166357421875,1.7023405087351797,-0.3544575810372829,0.09976853421926497
1726225923504659700,3.27165966796875,1.9164263270080089,-0.17871902907639742,-0.3424748822987079
1726225923514654700,3.28165478515625,2.0610808816581963,-0.02995937719494104,-0.7415566179603338
1726225923524649700,3.291649658203125,2.1057997288286683,0.15296207200735806,-1.0489882439285516
1726225923534644500,3.30164453125,2.043268746113777,0.3603270575925708,-1.2704039666980504
1726225923544640500,3.311640625,1.8523206423223018,0.6548641306743025,-1.5006646747022867
1726225923554635500,3.321635498046875,1.6206126581192015,1.0594137763530016,-1.5988894866108894
1726225923564630500,3.331630615234375,1.378493170017004,1.4237453934118152,-1.6835487145036458
1726225923574625500,3.34162548828125,1.162434005844593,1.8054723819077014,-1.5651695878386496
1726225923584621600,3.35162158203125,0.9618249242603778,2.4134347684144974,-1.1628729817837475
1726225923594616600,3.361616455078125,0.7749871783971786,2.973420474998653,-0.7115308975309134
1726225923604611600,3.371611572265625,0.5166097984552384,3.4171474080726503,-0.2688987739562988
1726225923614606600,3.381606689453125,0.0013454963248223065,3.5984584994688626,-0.12255787365436553
1726225923624602600,3.3916025390625,-0.4869396134652197,3.1427018136441704,-0.5894599306106567
1726225923634597600,3.40159765625,-0.8690414266228675,2.5711504646897314,-1.1895739417046307
1726225923644592600,3.411592529296875,-1.0149136134345085,2.1964538132220506,-1.5182786573261022
1726225923654587400,3.42158740234375,-1.103559865136817,2.029685918702185,-1.622174500608444
1726225923664583700,3.431583740234375,-1.1187059963423758,1.9430624049991367,-1.6363456493020057
1726225923674578700,3.44157861328125,-1.0778173749845474,1.7349729045316575,-1.8134072665601968
1726225923684573700,3.45157373046875,-0.9362906700313091,1.5035601038828492,-1.8986755662620067
1726225923694568700,3.461568603515625,-0.851383093400672,1.363634623581171,-1.845790948292613
1726225923704564500,3.471564453125,-0.7237001318175346,1.2099024439841508,-1.7730676573872566
1726225923714559500,3.4815595703125,-0.5476012221116572,1.205067863434553,-1.2853905234277248
1726225923724554500,3.491554443359375,-0.42050154030919074,1.3257955990523098,-0.7180506546884775
1726225923734549500,3.501549560546875,-0.3312777079146355,1.2391200629010797,-0.3903694368958473
1726225923744545800,3.5115458984375,-0.25799758684411644,1.011803007133305,-0.15871932035982608
1726225923754540800,3.521540771484375,-0.25546543801799415,0.8464794662028551,0.14619009365439414
1726225923764535600,3.53153564453125,-0.2691850435517728,0.6714274352014065,0.3102864308774471
1726225923774530600,3.541530517578125,-0.3027040129244327,0.4624196508452296,0.46109074032902714
1726225923784526600,3.551526611328125,-0.2776912252862006,0.3332061186939478,0.542319409251213
1726225923794521600,3.561521484375,-0.2305787609774619,0.18167875566482544,0.5782067151904106
1726225923804516600,3.5715166015625,-0.2137992564164102,-0.14258300907313823,0.4249146805763244
1726225923814511600,3.58151171875,-0.1777286297995597,-0.41440030082464213,0.15465221705138682
1726225923824507600,3.591507568359375,-0.1437595055066049,-0.6151835699319839,-0.016458967369794845
1726225923834502700,3.601502685546875,-0.055302785027027124,-0.5987602583974599,-0.05670388399660587
1726225923844497700,3.61149755859375,0.10443535698652266,-0.46093291941881176,0.10430734669268131
1726225923854492700,3.62149267578125,0.3996376159787178,-0.16202654521167278,0.4577671488642692
1726225923864488700,3.63148876953125,0.7254315587200224,0.12271511004269123,0.7267121000498533
1726225923874483700,3.641483642578125,0.9998189932204783,0.2349450664281845,0.736200059363246
1726225923884478500,3.651478515625,1.3048597785294056,0.37524844013154507,0.9426514372348784
1726225923894473500,3.661473388671875,1.430911777909845,0.22926117557287215,0.624890724954009
1726225923904469500,3.671469482421875,1.3078956390939651,0.14149813644587994,0.2938496753394604
1726225923914464800,3.68146484375,1.0753566108942032,0.0994277579575777,0.19166297406256197
1726225923924459800,3.691459716796875,0.8697488442398608,0.30594869393408297,0.26248832239210607
1726225923934454800,3.701454833984375,0.6365409768678247,0.5041834476023912,0.31871114487349983
1726225923944449500,3.711449462890625,0.4495454100944102,0.5641641613125801,0.06773556562066078
1726225923954445600,3.721445556640625,0.3027577889382839,0.6554203032523394,-0.2656225287646055
1726225923964440600,3.731440673828125,0.12733137166649103,0.871597540846467,-0.34148002604246136
1726225923974434800,3.741434814453125,-0.06819120043367147,1.063068207207322,-0.632736762279272
1726225923984429800,3.751429931640625,-0.20230156471580266,1.247646191444993,-0.7252361822783947
1726225923994425900,3.76142578125,-0.3940188993141055,1.3825485828876494,-0.8814385513812303
1726225924004421000,3.771421142578125,-0.5935980533286929,1.4195979183435439,-1.1015203951984642
1726225924014416000,3.781415771484375,-0.6743196495115756,1.4708113882303238,-1.1774795992851257
1726225924024411000,3.791410888671875,-0.6316396146923303,1.3777923282712696,-1.387652043506503
1726225924034407000,3.801406982421875,-0.5518152596101165,1.2285948694944382,-1.5857652166217564
1726225924044402000,3.81140185546875,-0.4737704814210534,1.1136351958841084,-1.8328414503484964
1726225924054397000,3.82139697265625,-0.3900784911252558,1.0243243427932263,-2.049097013875842
1726225924064392000,3.831391845703125,-0.29017858561128373,1.1275631834715605,-2.0209119528770447
1726225924074387700,3.8413876953125,-0.2405059154257178,1.2416273695468902,-2.094969122734666
1726225924084382700,3.8513828125,-0.16036913339346645,1.2926163830280304,-2.151239876011014
1726225924094378000,3.8613779296875,-0.045671325589716434,1.425916599971056,-2.0549784731298684
1726225924104373000,3.871373046875,0.01811228753477335,1.543393224838376,-1.9144132336199282
1726225924114369000,3.881369140625,-0.00758037212640047,1.5793541805356741,-1.893755060994625
1726225924124363800,3.89136376953125,-0.08567541919797658,1.4100409854471683,-1.9802397507488727
1726225924134358800,3.90135888671875,-0.24797055221796035,1.2245809576779603,-2.124071883100271
1726225924144353800,3.911353759765625,-0.3471943120360374,1.1939274607390165,-2.118930428558588
1726225924154348800,3.921348876953125,-0.27071108407527206,1.4656997443050146,-1.81112587762475
1726225924164344800,3.9313447265625,-0.12616583501845596,1.7110177361875771,-1.4404735331118106
1726225924174339800,3.94133984375,0.017613105840981004,1.8463135108619928,-1.1070254223555325
1726225924184335000,3.951335205078125,0.07592237920761108,1.762139436137676,-1.0053922633081673
1726225924194329900,3.961329833984375,0.16556465620994568,1.6391577841132878,-0.9296955095499754
1726225924204326000,3.971325927734375,0.21550825229138135,1.4956336947977542,-0.6908119346290826
1726225924214321000,3.98132080078125,0.21933014866709707,1.3027210129350424,-0.5537386288881302
1726225924224316000,3.99131591796875,0.17825608773976565,1.05374683663249,-0.5265303039669991
1726225924234311000,4.001310791015625,0.08647183027267455,0.74119070725739,-0.4502706556290388
1726225924244306700,4.011306640625,-0.0004474515065550804,0.3087392014354467,-0.47970308634042735
1726225924254301700,4.0213017578125,-0.09412263728678226,-0.043210780695080754,-0.4801426468014717
1726225924264297000,4.031296875,-0.26137802306264635,-0.20794307773411272,-0.3094762835383415
1726225924274292000,4.0412919921875,-0.2909294039785862,-0.023685411491990088,0.1759936957657337
1726225924284288000,4.0512880859375,-0.27142858469486236,0.19734511135220525,0.7318237439751625
1726225924294283000,4.061282958984375,-0.3147022014930844,0.2863327238380909,1.0953209560364485
1726225924304278000,4.071278076171875,-0.4124921291157603,0.1536994463711977,1.2396581153005362
1726225924314272800,4.081272705078125,-0.6517939294487237,-0.09437748883068561,1.215433774626255
1726225924324267800,4.091267822265625,-0.9450120288863778,-0.3712771984130144,1.1146388199687003
1726225924334263800,4.101263916015625,-1.1009992939338087,-0.5244651881307363,1.0827736091524363
1726225924344258800,4.1112587890625,-1.2268094473823905,-0.4299889151006937,1.1637591169685124
1726225924354254000,4.121254150390625,-1.2755866300329566,-0.1782113718152046,1.4226198965132235
1726225924364249000,4.1312490234375,-1.2370450101926922,0.14090601577162742,1.678732838654518
1726225924374244900,4.141244873046875,-1.2162959444135426,0.39060558373928067,1.7498282360970974
1726225924384239900,4.151239990234375,-1.190308393459022,0.27254911315739155,1.3459212722361087
1726225924394235000,4.16123486328125,-1.2797326437965035,-0.1110433769494295,0.6104051034837961
1726225924404230000,4.17122998046875,-1.369069215850532,-0.5156003291517496,-0.14401976387798784
1726225924414226000,4.181225830078125,-1.2296081381902098,-0.7090507711529731,-0.661073798969388
1726225924424221000,4.191220947265625,-0.8951616640463471,-0.5111491949617862,-0.7127817743748426
1726225924434215700,4.201215576171875,-0.4744768761247396,-0.12607318829894065,-0.5752899509608745
1726225924444211000,4.2112109375,-0.03791238202601671,0.20863164452016353,-0.46075405572056766
1726225924454207000,4.22120703125,0.08523118256181478,0.379521295145154,-0.5417997692912817
1726225924464202000,4.231201904296875,0.04036971205025911,0.4361854316532612,-0.6452718342036008
1726225924474197000,4.241197021484375,-0.042620998108386994,0.5109224004685878,-0.6121563310652971
1726225924484192000,4.25119189453125,-0.06631313160210847,0.5750292541980743,-0.49417117215394973
1726225924494186800,4.261186767578125,0.02135959889292717,0.6861497880369425,-0.3595475976526737
1726225924504182800,4.271182861328125,0.07025017879009246,0.7688824317812919,-0.28234745359420776
1726225924514177800,4.281177734375,0.013698270484805106,0.7283598672568797,-0.157415836545825
1726225924524172800,4.2911728515625,0.05942220304459333,0.7572416783481836,0.10628361520171165
1726225924534168000,4.30116796875,0.06304156258553266,0.940847018161416,0.5345429300308228
1726225924544163800,4.311163818359375,0.05512742846012115,1.1601397574275731,1.0783061083495615
1726225924554158800,4.321158935546875,0.0009156535401940346,1.2539701337695122,1.4046353270113467
1726225924564153900,4.33115380859375,-0.15388561659306288,1.0585831707477569,1.4371674773037433
1726225924574148900,4.34114892578125,-0.4414522661402821,0.5529822575628757,1.162083292710781
1726225924584145000,4.351144775390625,-0.6850628695830703,0.018629297146201134,0.701594609928131
1726225924594140000,4.361139892578125,-0.7893322223529219,-0.3807306709349155,0.36019875503778453
1726225924604135000,4.371135009765625,-0.6431988273218274,-0.6776409028887749,0.1489589738458395
1726225924614129700,4.381129638671875,-0.41665246366560454,-0.8331190493702888,0.009757423904538154
1726225924624126000,4.3911259765625,-0.16085019490867852,-0.9052093030691146,-0.06504618040621281
1726225924634121000,4.401120849609375,0.1215524960041046,-0.9711229139596224,-0.10448796395659446
1726225924644116000,4.411115966796875,0.31841829940676686,-1.0184417144954203,-0.1657937887907028
1726225924654111000,4.421111083984375,0.3684957510009408,-0.9557330371260643,-0.23316636631786822
1726225924664106000,4.43110595703125,0.21938275563716886,-0.8923948296815156,-0.3146919723600149
1726225924674101800,4.441101806640625,0.047782618655264376,-0.757429309874773,-0.26466566643118855
1726225924684096800,4.4510966796875,0.011562135238945483,-0.43273382989466186,-0.09250175808668136
1726225924694091800,4.461091796875,0.08685732245892286,-0.0992927334010601,0.08858487690389155
1726225924704086800,4.471086669921875,0.15079232675284146,0.19153671733438968,0.30093758777379986
1726225924714083000,4.4810830078125,0.07958820823878049,0.3676455639123916,0.49810851160287856
1726225924724077800,4.491077880859375,-0.15891864232420921,0.3176338710308075,0.6818459533631801
1726225924734072800,4.50107275390625,-0.3857403157904744,0.41378596831858155,0.8377297580361366
1726225924744067800,4.51106787109375,-0.5437880204990506,0.6070563775777816,1.0920388656258582
1726225924754064000,4.52106396484375,-0.7118576452672482,0.7061930436342955,1.2720651779085397
1726225924764059000,4.531058837890625,-1.023595736257732,0.4509931246846914,1.080015834876895
1726225924774054000,4.541053955078125,-1.2556570639431477,0.13444587984681128,0.762332279485464
1726225924784049000,4.551048828125,-1.2642732088580726,-0.0305079509884119,0.6345341670900583
1726225924794044000,4.5610439453125,-1.1899006894409656,-0.21798925545215606,0.6486053625404834
1726225924804040000,4.5710400390625,-1.2587561990022658,-0.43646424859464167,0.6455640951484442
1726225924814035000,4.581034912109375,-1.4305945286542177,-0.5397282237142325,0.6995335857450962
1726225924824030000,4.591030029296875,-1.5446812188223003,-0.541172577303648,0.8413608080148697
1726225924834025000,4.60102490234375,-1.5726690036833286,-0.32552550106346606,1.0384434690386057
1726225924844020700,4.611020751953125,-1.515684549179673,0.005796703580021858,1.2171920164704322
1726225924854015700,4.621015625,-1.4040607419937847,0.2847100910723209,1.2853817555993794
1726225924864010800,4.6310107421875,-1.3319991298675535,0.28753216275572774,1.2225608500272034
1726225924874005800,4.641005859375,-1.4969810177534817,0.06968260803520679,1.0428986948817969
1726225924884000800,4.651000732421875,-1.656134637877345,-0.037509938704967494,0.9600620062410831
1726225924893997000,4.6609970703125,-1.7449930710256099,0.029377485653758046,1.024641738179326
1726225924903992000,4.670991943359375,-1.877669310851395,0.07281856797337531,1.1927578324377537
1726225924913986800,4.68098681640625,-2.029249573111534,-0.2141840179502964,1.0638432832330464
1726225924923981800,4.69098193359375,-2.1524062894418834,-0.5095294848054647,0.876468946275115
1726225924933977900,4.700977783203125,-2.1012632544428107,-0.5326449874550104,1.0120832853794097
1726225924943972900,4.710972900390625,-1.9792104077011345,-0.6135510002940893,1.0749515372246503
1726225924953967900,4.7209677734375,-1.8394082615181802,-0.801380095282197,0.9299076909959316
1726225924963963000,4.730962890625,-1.6722472760275005,-0.9893015447288751,0.72145900182724
1726225924973959000,4.740958984375,-1.4568416073277592,-1.0119576131731272,0.6337514922797679
1726225924983954000,4.750953857421875,-1.1693322409257292,-0.8364099076092243,0.7044862397164106
1726225924993949000,4.760948974609375,-0.7978750097706914,-0.5667302124083042,0.7818149785906076
1726225925003944000,4.77094384765625,-0.512934324812889,-0.5237526559472083,0.6860667859286069
1726225925013940000,4.78093994140625,-0.3435755370169878,-0.5903969191998243,0.49191374861598014
1726225925023934700,4.790934814453125,-0.1647708754837513,-0.6590531067967415,0.33348259754776954
1726225925033929700,4.8009296875,0.08795154743641614,-0.5555658443152904,0.18767185859978197
1726225925043924700,4.8109248046875,0.37558395569622516,-0.416821390491724,0.109091658359766
1726225925053919700,4.820919677734375,0.6002034429430961,-0.35751463052034377,0.038784780946373935
1726225925063916000,4.830916015625,0.5473965663850308,-0.4361649733871221,-0.1714618975549936
1726225925073911000,4.8409111328125,0.48112668940275904,-0.5237000489771366,-0.37762335256934165
1726225925083906000,4.850906005859375,0.5038298118591308,-0.5186784214228392,-0.5820037693858147
1726225925093900800,4.86090087890625,0.46380935163795944,-0.40806466806232927,-0.635472909244895
1726225925103896800,4.870896728515625,0.4132359332203865,-0.23724048388898372,-0.5091688347995281
1726225925113891800,4.880891845703125,0.36546383595913645,-0.11767010161280632,-0.4194318652510643
1726225925123886800,4.890886962890625,0.2840130487188697,-0.04214928894340992,-0.3071761899024248
1726225925133881900,4.9008818359375,0.19273235685974358,0.06901625308096408,-0.1802899316549301
1726225925143876900,4.910876953125,0.0539773816421628,0.10360299781560897,-0.2685819630920887
1726225925153873000,4.920872802734375,-0.06722001731395721,0.11974983049631117,-0.41924481824636456
1726225925163868000,4.930867919921875,-0.008536357676982879,0.16178104601800442,-0.4180734363794327
1726225925173863000,4.94086279296875,0.031445816360414026,0.11614917565584182,-0.5259925438284874
1726225925183858000,4.95085791015625,0.12727671886980532,0.10401742383539676,-0.6176759712696075
1726225925193854000,4.96085400390625,0.28543957439064976,0.16641045938432217,-0.6277034442871808
1726225925203849000,4.970848876953125,0.5486085725232959,0.31770752078890796,-0.5820785881876945
1726225925213843700,4.98084375,0.7445218975067138,0.5359779312700033,-0.5171943203449249
1726225925223838700,4.990838623046875,0.9492387066707014,0.7641764460474252,-0.4672609533965587
1726225925233833700,5.000833740234375,1.027107543770969,0.8264169213831424,-0.3782178113311529
1726225925243830000,5.010830078125,0.9128189012899994,0.8534604111313819,-0.35728549793958664
1726225925253825000,5.020824951171875,0.73039224986732,0.7282797877579927,-0.49984161900579926
1726225925263820000,5.030820068359375,0.5937184648379683,0.44476329038441176,-0.5684288330197333
1726225925273815000,5.04081494140625,0.5075131765469908,0.10984159994423388,-0.7034083813518285
1726225925283810800,5.050810791015625,0.5555345723941922,-0.04358604374825954,-0.7107412084579467
1726225925293805800,5.060805908203125,0.8071127937152981,0.018445172750949857,-0.42549803342223164
1726225925303800800,5.07080078125,1.0590832292243837,0.04979541978240013,-0.32303134616017337
1726225925313795800,5.0807958984375,1.1388181524574756,-0.02543605455160141,-0.35758009697198867
1726225925323790800,5.090790771484375,1.0978902220025657,-0.043736265873909,-0.2610609199374914
1726225925333787000,5.100786865234375,1.0982017721697688,0.008571428990364074,-0.1842243484944105
1726225925343782000,5.110781982421875,1.176037291522324,0.0489513701736927,-0.21347616194188593
1726225925353777000,5.12077685546875,1.3896280197545885,0.17496376819610596,-0.34200025052428246
1726225925363772000,5.13077197265625,1.5083093442365527,0.06291852072775364,-0.8456681498199701
1726225925373768000,5.140767822265625,1.3652739152207969,-0.2861561982274055,-1.5707126089185475
1726225925383763000,5.150762939453125,1.4081345673039554,-0.28346739753484723,-1.6110539716571568
1726225925393757700,5.1607578125,1.4145952877506613,0.11042729087769984,-1.4013555746883153
1726225925403752700,5.170752685546875,1.2390119263514876,0.6354723247230053,-0.9776461782485246
1726225925413749000,5.1807490234375,1.1788003264948725,1.25626788931787,-0.5148667541801929
1726225925423744000,5.190743896484375,0.9449746194854378,1.6081524049967526,-0.4037070573747158
1726225925433739000,5.200739013671875,0.39807460444569587,1.5068664519518613,-0.5092594356924295
1726225925443734000,5.210734130859375,-0.012999766826629637,1.4908014523357151,-0.7372644737243652
1726225925453729000,5.22072900390625,-0.14753274043500422,1.6197025575369595,-0.7420096224248409
1726225925463724800,5.230724853515625,-0.028334990863502024,1.9076742807537317,-0.6998106491208076
1726225925473719800,5.2407197265625,0.1969882607385516,2.14604406093359,-0.6390905152201652
1726225925483714800,5.25071484375,-0.03523673307597637,2.087584857702255,-0.8831436017334461
1726225925493709800,5.260709716796875,-0.6551449934422969,1.6516373264580964,-1.1962392448127268
1726225925503705900,5.270705810546875,-1.1552654293894766,1.5147405463278292,-1.2200807236492632
1726225925513700900,5.280700927734375,-1.1319833380013704,1.9961323164075613,-0.8014747878283262
1726225925523695900,5.29069580078125,-0.930483152796328,2.6550959913551804,-0.14707038362026215
1726225925533691000,5.30069091796875,-0.9290794234782457,2.9844822595000267,0.2902712323307991
1726225925543686000,5.310685791015625,-1.3993775526136158,2.7139456552088257,0.26315526186823845
1726225925553682000,5.320681884765625,-2.0112562357813117,1.8384446771830318,-0.1750572916984558
1726225925563677000,5.330677001953125,-2.390365442994237,1.2031015317976474,-0.4662427162647247
1726225925573672000,5.340671875,-2.3008029532298444,1.0044482604563236,-0.1806125877380371
1726225925583666700,5.350666748046875,-1.9859633890926838,1.0616484035372733,0.20407763447761534
1726225925593663000,5.3606630859375,-1.8680688310742377,0.9014052346110344,0.34875673904716964
1726225925603658000,5.370657958984375,-1.722489562794566,0.7095856086820364,0.5844622684538364
1726225925613653000,5.380653076171875,-1.30183020157516,0.4209481150329113,0.5319254410088062
1726225925623648000,5.39064794921875,-0.910643310816586,-0.07474281403422355,0.3056874126493931
1726225925633643000,5.40064306640625,-0.8220829838320612,-0.6627133828699588,-0.034433015477657314
1726225925643638800,5.410638671875,-0.5950099659532309,-1.1155670407295226,-0.5012883106827736
1726225925653633800,5.4206337890625,-0.32445465696156023,-1.5013666854918002,-0.796128166103363
1726225925663628800,5.43062890625,-0.20701368792951105,-1.8983353745222091,-0.8284101410269736
1726225925673623800,5.440623779296875,-0.29715163949429985,-2.05753108022213,-0.7679109564006328
1726225925683620000,5.4506201171875,-0.3374912486672401,-2.199183530446887,-0.7573223423689603
1726225925693614800,5.46061474609375,-0.3103244248002767,-2.4026678752064705,-0.7552846990615129
1726225925703609900,5.47060986328125,-0.15975041697323322,-2.5442139424473047,-0.9735749832868575
1726225925713604900,5.48060498046875,-0.0376402870863676,-2.583402628019452,-1.033065867653489
1726225925723600000,5.490599853515625,0.07200666706860065,-2.55237269898355,-1.036732573467493
1726225925733596000,5.500595947265625,0.3381558500558138,-2.4863690717220304,-0.9243144010335207
1726225925743591000,5.5105908203125,0.7506529476076365,-2.3611095378935336,-0.6693722562372684
1726225925753586000,5.5205859375,0.9475772031992673,-2.3234376866251227,-0.6588923632770777
1726225925763580700,5.53058056640625,0.8566489780396223,-2.013719411024451,-0.5525292530983686
1726225925773577000,5.540576904296875,0.6740420016139745,-1.5146587132632732,-0.1234393326640129
1726225925783572000,5.550572021484375,0.6558698005855083,-0.860683348122239,0.19083295297920702
1726225925793567000,5.56056689453125,0.785090931521356,-0.07970248226821422,0.4253682695627212
1726225925803562000,5.57056201171875,0.7717161939024925,0.9696610247135162,0.8515537007272242
1726225925813557000,5.580556884765625,0.42100861304849385,2.080054462197423,1.1676479411005973
1726225925823552800,5.590552734375,0.20146131449937818,2.844893171545863,1.2726491152763366
1726225925833547800,5.6005478515625,-0.2793205069884658,2.803749260252714,0.5887000521540642
1726225925843542800,5.610542724609375,-0.7288304073780775,2.537876556119323,-0.005932312658429146
1726225925853537800,5.620537841796875,-0.8978981032729149,2.3403812226414678,-0.4597323114573955
1726225925863534000,5.6305341796875,-0.882418210068345,2.167813994193077,-0.41325054626762864
1726225925873528800,5.64052880859375,-0.5784057448938489,2.2861416829317807,-0.1640828932195902
1726225925883523800,5.65052392578125,-0.4792535890072584,2.357925647160411,0.11795885542631149
1726225925893518800,5.660518798828125,-0.5074298821777105,2.267918043977022,0.4293687373757362
1726225925903513900,5.670513916015625,-0.8344219486624002,2.093875482279062,0.5279021768420934
1726225925913510000,5.680510009765625,-1.0477245076030492,1.8002274669915437,0.37158465692698955
1726225925923505000,5.6905048828125,-0.9270011558994651,1.472659061923623,0.33208266762197014
1726225925933500000,5.7005,-0.5470750793457031,1.3451082022875547,0.40761633977293965
1726225925943495000,5.710494873046875,-0.03856237036734819,1.4856372014403343,0.6127396839112043
1726225925953491000,5.720490966796875,0.6282432502523064,1.6309131028592585,0.8291174125134945
1726225925963486000,5.73048583984375,1.8875658509656785,1.514319690567255,0.7736170590877532
1726225925973481200,5.740481201171875,2.6973279901459812,0.8988298311650752,-0.13247428751289844
1726225925983476200,5.750476318359375,2.507388771136105,-0.08457681030631065,-1.259981356883049
1726225925993471200,5.76047119140625,2.3074103886708617,-0.775303404739499,-1.7461919254213571
1726225926003467000,5.770467041015625,2.171428385297954,-0.887808086413145,-1.6797984220594167
1726225926013462000,5.7804619140625,1.9709496520951388,-0.8936755171418189,-1.1571809076219797
1726225926023457000,5.79045703125,1.3937895233482123,-1.0277513946324586,-0.8219371456205844
1726225926033452000,5.8004521484375,0.9390084045574069,-1.187339314520359,-0.4954851773619651
1726225926043448300,5.8104482421875,0.8032035113170742,-1.116148055487871,-0.10141279429495334
1726225926053443000,5.820443115234375,0.7130839721918105,-1.0524299088150262,0.027524551263451574
1726225926063438000,5.83043798828125,0.6638064388036727,-1.086933066919446,0.005529577076435089
1726225926073433000,5.84043310546875,0.7455448108136653,-1.0610048449367284,-0.19821780253350735
1726225926083428000,5.850427978515625,1.090907231247425,-0.7398918996185064,-0.22223288437128066
1726225926093424000,5.860424072265625,1.315605044427514,-0.5607096369445324,-0.26773966704905033
1726225926103419100,5.870419189453125,1.3724872076004744,-0.4287818773984909,-0.31857553579509257
1726225926113414100,5.8804140625,1.2334247738689184,-0.5719418095767498,-0.6078174250781536
1726225926123409200,5.8904091796875,0.8467585754051804,-0.7196084055244922,-0.8617489315271377
1726225926133404000,5.90040380859375,0.3907745105654001,-0.7245125441789627,-0.999714217671752
1726225926143400200,5.910400146484375,0.09499620525091886,-0.6370896967917681,-0.8898743712931871
1726225926153395200,5.920395263671875,-0.03233750450313091,-0.44975393827855586,-0.641949996304512
1726225926163390200,5.93039013671875,-0.10704553948491811,-0.4235398850917816,-0.6416986518919467
1726225926173385200,5.94038525390625,-0.13010054411888122,-0.2480553078919649,-0.350449514439702
1726225926183381000,5.950381103515625,-0.23358605303466318,-0.09070318423211574,-0.18061551034748552
1726225926193376000,5.9603759765625,-0.3295239230498671,-0.09463643202781677,-0.16729542552530766
1726225926203371000,5.97037109375,-0.4932222008660435,-0.1435696820229292,-0.3446598251223564
1726225926213366000,5.980365966796875,-0.577375817324221,-0.08490414256453514,-0.3850917887538671
1726225926223361000,5.990361083984375,-0.7153121696352959,-0.042055765441060065,-0.27988369382917877
1726225926233357300,6.000357421875,-1.052173303705454,-0.06360182681679726,-0.37560149135291576
1726225926243352000,6.01035205078125,-1.348401106353104,-0.030133856979012486,-0.27382453992068767
1726225926253347000,6.02034716796875,-1.5617942661866544,0.07899813339114188,-0.07395429400503635
1726225926263342000,6.030342041015625,-1.6163172990128396,0.048284430697560304,-0.13526713310182092
1726225926273338000,6.040338134765625,-1.6006760777667164,0.07740238863229751,-0.08934475536048411
1726225926283333000,6.0503330078125,-1.5657552787721156,0.21882687532007694,0.09260112680792808
1726225926293328100,6.060328125,-1.502234115976095,0.3493494442433119,0.11416881549358367
1726225926303323100,6.0703232421875,-1.5755650173857807,0.43479310051202774,0.06310322964489459
1726225926313318000,6.08031787109375,-1.5479580485358833,0.5276385574698448,0.17830431079566478
1726225926323314200,6.090314208984375,-1.4814683913230895,0.6227215642213821,0.4035492364645004
1726225926333309200,6.10030908203125,-1.343412212024629,0.5900865380764008,0.4737415475875139
1726225926343304200,6.11030419921875,-1.2307450332656502,0.5406804098725319,0.48671968710422514
1726225926353299200,6.12029931640625,-1.2482099628075956,0.33060148915350435,0.43874271492064
1726225926363294200,6.130294189453125,-1.2589876696705817,0.04851707040965557,0.4892056587010622
1726225926373290000,6.1402900390625,-1.3896338649734854,-0.273501299315691,0.510484009051323
1726225926383285000,6.150284912109375,-1.3756141074493526,-0.6755635120928287,0.47245326134264465
1726225926393280000,6.160280029296875,-1.2271490546002983,-0.940749987527728,0.5201859033763409
1726225926403275000,6.17027490234375,-1.0769590776547788,-1.0092752422213553,0.9489648581653832
1726225926413271300,6.180271240234375,-0.9373460243031382,-1.1538427031099796,0.9814531693160533
1726225926423266000,6.19026611328125,-0.6021159985661506,-1.307439858150482,0.7393623227864503
1726225926433261000,6.200260986328125,-0.1016542018353939,-1.3251438571453094,0.439947414535284
1726225926443256000,6.210256103515625,0.29476825148910285,-1.0672434470653533,0.3888403276324272
1726225926453251000,6.2202509765625,0.5626616477951407,-0.7177905424475669,0.24907705215513704
1726225926463247000,6.2302470703125,0.7765542815834283,-0.37699966771304605,0.1518167013645172
1726225926473242000,6.2402421875,0.8590358731761574,-0.056795653933286665,0.14554419696629048
1726225926483237000,6.250237060546875,0.7146203879788517,0.09653554364740848,0.22967969324588774
1726225926493232000,6.260232177734375,0.5321791235089302,0.07543079629838466,0.18928689258098602
1726225926503228200,6.270228271484375,0.652106648659706,-0.14482991121709346,0.1509147840887308
1726225926513223200,6.28022314453125,0.9764715815111994,-0.3457090419143438,0.16155249795913695
1726225926523218200,6.29021826171875,1.2508546320974827,-0.5086778364121913,0.27690029410421846
1726225926533213200,6.300213134765625,1.3595206123910843,-0.5335597642123698,0.47513387872874735
1726225926543208200,6.310208251953125,1.3974597362935541,-0.49925475902855393,0.6935387292444706
1726225926553204000,6.320203857421875,1.4639678059458732,-0.48038463886380195,0.8046411429047584
1726225926563199000,6.330198974609375,1.4164102282181381,-0.27210955269634723,0.8036556389987468
1726225926573194000,6.340194091796875,1.37080699942857,-0.019454057532548905,0.6567080049753189
1726225926583189000,6.35018896484375,1.4284256601825356,0.13134265313446522,0.35547640269100667
1726225926593184000,6.36018408203125,1.5865876389205456,0.29817747541069983,0.16525544413030147
1726225926603180300,6.37018017578125,1.6762594342783093,0.471298246088624,-0.13438918122351168
1726225926613175000,6.380175048828125,1.6432164118543267,0.6116027888357639,-0.5120879371166229
1726225926623170000,6.390170166015625,1.4313935700774192,0.7845224839836359,-0.7019599361091852
1726225926633165000,6.4001650390625,1.224707360536605,1.0081605589777232,-0.9445850356459617
1726225926643161000,6.4101611328125,1.1137409943461418,1.3042887006431818,-1.0117407555520535
1726225926653156000,6.420156005859375,0.9470584400221704,1.4403174657672644,-0.8994751433312892
1726225926663151000,6.430151123046875,0.6960419442370533,1.3852356300145388,-0.9049556205689907
1726225926673146000,6.44014599609375,0.48941637884229416,1.2481225767850874,-1.0146633650004864
1726225926683141000,6.45014111328125,0.390412983776629,1.1155723014265297,-1.120939381417632
1726225926693137200,6.46013720703125,0.3003732318893075,0.9926087695807218,-1.269647595372796
1726225926703132200,6.470132080078125,0.25455928295850755,0.793731626355648,-1.4254583348095415
1726225926713127200,6.480127197265625,0.2378662145718932,0.618266338378191,-1.617085068514943
1726225926723122200,6.4901220703125,0.38866935497969385,0.6843120512157678,-1.8262872063994406
1726225926733117200,6.5001171875,0.5516904641866683,1.1128460913330316,-1.7521259916454552
1726225926743113000,6.510113037109375,0.5750722165569663,1.6102707123249769,-1.424748725235462
1726225926753108000,6.52010791015625,0.40348932297080753,1.8363865756094455,-1.2085627198129891
1726225926763103000,6.53010302734375,0.21072335610240697,1.9963298848062752,-1.0105910009950398
1726225926773098000,6.540097900390625,0.23042641995996235,2.201194285747409,-0.8583370772570371
1726225926783093200,6.55009326171875,0.029020342779159543,2.1176789671927687,-0.8104460297912359
1726225926793089000,6.560089111328125,-0.41941140698492524,1.8185475520581007,-0.9969149423420428
1726225926803084000,6.570083984375,-0.780154351902008,1.2978455158531665,-1.062667225190997
1726225926813079000,6.5800791015625,-1.2108882401511072,0.8759031290858984,-1.2950585154831409
1726225926823074000,6.590073974609375,-1.4121008405864237,0.9828595289826393,-1.1760662253558636
1726225926833070000,6.600070068359375,-1.631313208092749,1.0421440771222115,-1.1730401555329562
1726225926843065000,6.610065185546875,-1.676608686107397,1.0996902571618556,-0.9655039050340651
1726225926853060000,6.62006005859375,-1.8780095025911927,1.0852852997124194,-0.8279770103067159
1726225926863055000,6.63005517578125,-1.9122741757646202,0.9721855747550725,-0.585809591409564
1726225926873050000,6.640050048828125,-1.7850693530872463,0.9727326872438192,-0.19666472787261008
1726225926883046100,6.650046142578125,-1.7679729645967484,0.6816811181902885,0.18898411024212836
1726225926893041200,6.660041259765625,-1.7698688613459468,0.458582556900382,0.5707961466729641
1726225926903036200,6.6700361328125,-1.8420865408167242,0.32809564381241796,1.103499586316943
1726225926913031200,6.68003125,-2.0903332796275613,0.1936532710969448,1.1796961062908171
1726225926923026200,6.690026123046875,-2.353096619568765,0.13418518308401106,1.5088520728111265
1726225926933022000,6.70002197265625,-2.4716879276797172,0.2456891632825136,1.894782650476694
1726225926943017000,6.710016845703125,-2.2410586786240336,0.44780163516700267,2.131039384025335
1726225926953012000,6.720011962890625,-1.7625377878054975,0.863881851902604,2.311072126048803
1726225926963007200,6.73000732421875,-1.0390399736270308,0.9967606285631656,2.220498121154308
1726225926973003000,6.7400029296875,-0.20055501330941913,0.8869634522825479,2.013057732245326
1726225926982998000,6.749998046875,0.5750730933398008,0.8375427110314368,1.6834493457823991
1726225926992993000,6.759992919921875,1.1628677210867404,0.8356804242908954,1.3597230030953884
1726225927002988000,6.769988037109375,1.4624804899975656,0.9599187983781099,1.1169716468304396
1726225927012983000,6.779983154296875,1.580491952393949,1.3088883033931256,0.7546253583699465
1726225927022979000,6.78997900390625,1.6688450663685799,1.7516776633560656,0.4574941771417856
1726225927032974000,6.79997412109375,1.5714423844978211,2.0120102690190076,0.048397243422269816
1726225927042969000,6.809968994140625,1.3296981594488024,1.8649901542812586,-0.5625035346239805
1726225927052964000,6.819964111328125,1.0200652240440249,1.4847399603396654,-1.0648018991321324
1726225927062958800,6.829958740234375,0.9403110115885734,0.9813502934634685,-1.4164023371726273
1726225927072955100,6.839955078125,0.7805936201021075,0.6589706892102957,-1.621277844029665
1726225927082950100,6.8499501953125,0.7562275328695773,0.578237694850564,-1.58219671048522
1726225927092945200,6.859945068359375,1.046652494457364,0.48218613532781596,-1.4872352842867373
1726225927102940200,6.869940185546875,1.3112740294858813,0.4453536574929952,-1.2789134363681076
1726225927112936000,6.87993603515625,1.01848935302943,0.32524609960019585,-1.2682073334366082
1726225927122931000,6.889930908203125,0.6741264650270342,0.06630407151281834,-1.474507320138812
1726225927132926000,6.899926025390625,0.3431906293526292,-0.23104338281452655,-1.7804840711235999
1726225927142921000,6.9099208984375,0.156071143938601,-0.43666532412469383,-2.151799263459444
1726225927152916000,6.919916015625,-0.01962327661961317,-0.4618383438259363,-2.1890280471354724
1726225927162912300,6.929912353515625,-0.026109423768520355,-0.5270850152403116,-2.0502993754029273
1726225927172907000,6.939906982421875,0.07918956431001424,-0.6065121876984835,-1.882050010153651
1726225927182902000,6.949902099609375,0.1413689571082592,-0.7390203774809837,-1.6413070711016653
1726225927192897000,6.95989697265625,0.3314990225151181,-0.9164929136276244,-1.4822498970896005
1726225927202892000,6.96989208984375,0.42444209462851284,-1.1073106690376997,-1.498925722080469
1726225927212888000,6.97988818359375,0.2601435128316283,-1.3875497521758078,-1.2477069817215203
1726225927222883000,6.989883056640625,0.1804234949067235,-1.3918155929267406,-1.0317612147957087
1726225927232878000,6.999878173828125,0.1377715171381831,-1.2073995212525128,-0.9971195250034331
1726225927242872800,7.009872802734375,0.14761311219483614,-1.050665821751952,-0.7579226463496684
1726225927252867800,7.019867919921875,0.13259002284705637,-0.9789841488540172,-0.5640221224933862
1726225927262864100,7.029864013671875,0.2169073054343462,-0.9204425280362367,-0.3745072663754225
1726225927272859100,7.039859130859375,0.2893073557347059,-0.8347609713584184,-0.061847092103958126
1726225927282854100,7.049854248046875,0.5313192918092012,-0.5788304000467062,0.3629793256670236
1726225927292849200,7.05984912109375,0.6482862135887145,-0.40039632539153097,0.6340969447165727
1726225927302845000,7.069844970703125,0.32678748382329936,-0.2970762361705303,1.0104320110410452
1726225927312840000,7.07983984375,0.42761926335990424,0.13761515753269193,1.2175018130719661
1726225927322835000,7.0898349609375,0.6755769560962915,1.0560042601704598,1.7735598248183726
1726225927332830000,7.099829833984375,0.6822931126087903,2.2597148637771607,2.5839444798111915
1726225927342825000,7.109824951171875,0.46186581635475155,3.3435499646812676,3.263215614250302
1726225927352821000,7.119821044921875,-0.039570378366112706,4.146320637539029,4.2820401905834675
1726225927362816000,7.12981591796875,-0.45463235796988005,4.590850703689456,4.918257196193933
1726225927372811000,7.13981103515625,-1.0190595541328191,4.587164708653092,4.981152920567989
1726225927382806000,7.149805908203125,-1.5153496181368826,4.237157677283883,4.906040104177594
1726225927392801000,7.159801025390625,-2.11377903714478,3.274946968576312,4.5399610589295625
1726225927402797000,7.169797119140625,-2.670703310331702,1.9868489397555589,4.044357808145881
1726225927412792000,7.1797919921875,-2.7787779006034135,0.9387579369276762,3.223964969357848
1726225927422787000,7.189787109375,-2.7615952951341867,0.33410160622894763,2.6031851868540046
1726225927432781800,7.19978173828125,-2.7491595919311047,0.07010697092711925,2.0678759486258027
1726225927442776800,7.20977685546875,-2.5726959405660628,-0.14463117377460002,1.5281711057871579
1726225927452773000,7.219773193359375,-2.417729835259914,-0.4698357723206281,0.6938070247918366
1726225927462768000,7.22976806640625,-2.4218863704174756,-0.831479465469718,0.21184709943532942
1726225927472763100,7.23976318359375,-2.292256366419792,-1.2529133181929588,-0.1114180554807186
1726225927482758100,7.249758056640625,-1.9697019901216029,-1.6307026749789715,-0.4902724111497402
1726225927492753200,7.259753173828125,-1.8603291767328975,-2.0658231077492237,-0.8388865268558263
1726225927502749000,7.2697490234375,-1.7474504010498522,-2.547834471032023,-1.2022376084446906
1726225927512744000,7.279743896484375,-1.5968588575661182,-3.2268308801829813,-1.479417888534069
1726225927522739000,7.289739013671875,-1.4698592020720243,-3.7861937786936757,-1.8582891953378915
1726225927532734000,7.29973388671875,-1.3881839584261177,-4.238837008672952,-2.2884727562278506
1726225927542730000,7.30972998046875,-1.243666181898117,-4.569235668730736,-2.430776363837719
1726225927552725000,7.31972509765625,-1.2670014647781849,-4.9042701718956225,-2.5157407121568918
1726225927562720000,7.329719970703125,-1.2086790396690368,-5.062717689576745,-2.4215824190348387
1726225927572715000,7.339715087890625,-1.0080442391216755,-5.009436181244253,-2.2718857785642146
1726225927582710000,7.3497099609375,-0.8143383610546588,-4.6916310452997685,-2.0695155325263737
1726225927592706000,7.3597060546875,-0.753628456287086,-4.052368096122145,-1.4242746779829263
1726225927602701000,7.369701171875,-0.7534405324995517,-3.205512197822332,-0.9649848495960235
1726225927612695800,7.37969580078125,-0.9820984814822673,-2.2867981010138987,-0.30363574081659317
1726225927622690800,7.38969091796875,-1.0406102916836737,-1.2244523628622292,0.7476274623066187
1726225927632685800,7.399685791015625,-0.9722738375604152,-0.02485387074947357,1.7704495838433503
1726225927642682000,7.40968212890625,-1.0074030186086893,0.9886106398552655,2.4159125567048787
1726225927652677000,7.419677001953125,-1.295755850097537,1.8447627742886543,2.809877680005133
1726225927662672100,7.429672119140625,-1.5536124210357665,2.769519658392668,3.3732609200730916
1726225927672667100,7.439667236328125,-1.7933195872992276,3.7761721508949995,4.206314502991735
1726225927682662000,7.449661865234375,-2.2458242855906487,4.413479289829731,5.12412229861021
1726225927692658000,7.459657958984375,-2.144568143162131,4.453700241059065,5.5341597280502315
1726225927702653000,7.46965283203125,-1.620199401143193,3.9820255628734826,5.162472195270658
1726225927712648000,7.47964794921875,-1.351918759085238,2.829769836694002,4.01047132063508
1726225927722643000,7.489642822265625,-0.974430138811469,2.102180953809619,3.088776746711135
1726225927732639000,7.499638916015625,-0.23037761238217352,1.7738766356825828,2.4355659362018107
1726225927742634000,7.509634033203125,0.5632534762084483,1.487226516458392,1.7485703449904917
1726225927752629000,7.51962890625,0.911023542305827,0.9207008867114782,1.0009230089396237
1726225927762624000,7.5296240234375,1.134085863238573,0.2425748306542635,0.11915361816883087
1726225927772619000,7.539618896484375,1.3617854885831475,-0.4354430888533592,-0.6093032797217369
1726225927782615000,7.549614990234375,1.678943851056695,-0.9565700724720955,-0.9759574945092201
1726225927792610000,7.559610107421875,1.9447417363882065,-1.2463128970146178,-1.303880119842291
1726225927802604800,7.569604736328125,1.5368269981905818,-1.8532056084632873,-1.7348276508420706
1726225927812599800,7.579599853515625,1.2740315095454453,-2.437361587446928,-1.9339935478806494
1726225927822595000,7.589594970703125,1.2575211042493581,-2.8296155229151245,-2.1117109986990688
1726225927832591000,7.599591064453125,1.1745482220083474,-3.141346891903877,-2.093713569715619
1726225927842586000,7.609586181640625,1.0952449681907892,-3.2777339689463374,-2.06933549978435
1726225927852581000,7.6195810546875,0.9942428005233407,-3.3032226304680106,-1.9387842892885208
1726225927862576000,7.629576171875,1.0706760518625378,-3.029278848081827,-1.6526631623744963
1726225927872571000,7.63957080078125,1.3352432263553142,-2.474174776059389,-1.1627870570659637
1726225927882567000,7.64956689453125,1.5057494306206702,-1.7666519451260565,-0.503451041674614
1726225927892562000,7.65956201171875,1.2987705217435954,-1.2988415411531924,-0.06961188088655472
1726225927902557000,7.669556884765625,0.768595139272511,-1.0829694239854812,0.1969739399522543
1726225927912552200,7.67955224609375,0.3284560015574097,-0.7293693365603685,0.5206926838546991
1726225927922547200,7.689547119140625,0.16069062043279408,-0.11287819116115569,0.7972218065589666
1726225927932543000,7.69954296875,0.24749942757487295,0.6614210049718618,1.1048585997104645
1726225927942538000,7.7095380859375,0.3176528679922223,1.4342162262827156,1.2213169874459504
1726225927952533000,7.719532958984375,0.39050738406181335,1.7358184154450893,1.1249632301062344
1726225927962528000,7.729528076171875,0.691646631887555,1.750750027117133,0.9232517402380704
1726225927972522000,7.73952197265625,1.120191193398833,1.6466513547390698,0.44278819091916083
1726225927982518300,7.749518310546875,1.565739496681094,1.4590040460586546,-0.1404056650340557
1726225927992513300,7.75951318359375,1.8969640861690042,1.3719623069435358,-0.525385225585103
1726225928002508300,7.76950830078125,2.07397952619791,1.32743635199666,-0.7625608275443315
1726225928012503000,7.7795029296875,2.284566980960965,1.3493319574624298,-0.7970026108503341
1726225928022499000,7.7894990234375,2.341569847904146,1.4747311920225619,-0.7959533940583468
1726225928032494000,7.799494140625,2.222995783188939,1.7302970216751097,-0.7203776363313198
1726225928042489000,7.809489013671875,1.940626410023868,2.0188737250477073,-0.5696376242876052
1726225928052484000,7.819484130859375,1.4161711587652563,2.04570620239377,-0.4892448216676712
1726225928062479000,7.82947900390625,0.8353875788241625,1.7498323277503252,-0.4451882377982139
1726225928072475100,7.83947509765625,0.39586832657307386,1.1327958234280346,-0.4294926560163498
1726225928082470100,7.84947021484375,0.025669278785586357,0.2736819165796041,-0.5880126544117927
1726225928092465200,7.859465087890625,0.06197159526646137,-0.0740261901974678,-0.6491384465038776
1726225928102460200,7.869460205078125,0.2167284417361021,-0.06628770489990711,-0.5606009158730506
1726225928112455200,7.879455078125,0.32884967705011364,-0.14275719659626482,-0.5648831232368946
1726225928122451000,7.889450927734375,0.12397066306173801,-0.4798673369914293,-0.5886679034501314
1726225928132446000,7.899446044921875,-0.2314893730163574,-1.172167464351654,-0.8282295237630605
1726225928142441000,7.90944091796875,-0.5156073434144258,-1.7710855436593294,-1.1683306626677512
1726225928152436000,7.91943603515625,-0.5800035354793072,-1.76198278427124,-1.1031348446577787
1726225928162431000,7.929430908203125,-0.17263532524853945,-1.0294874246448278,-0.6838315742224454
1726225928172427300,7.93942724609375,0.02908230209946632,-0.3038549365252256,-0.22648586564064024
1726225928182422300,7.94942236328125,0.11297989796996116,0.23691782780587672,-0.1040156702697277
1726225928192417000,7.9594169921875,0.0009045476242899894,0.5442126756519079,-0.013249942195415495
1726225928202412000,7.969412109375,-0.3265741333335638,0.23393325903713702,-0.5147592021524906
1726225928212407000,7.979406982421875,-0.11639438258856534,0.3825409352272749,-0.6426748034477233
1726225928222403000,7.989403076171875,0.06172784963846206,0.5470581282109022,-0.7493272519618273
1726225928232398000,7.999398193359375,-0.16779957565516232,0.29687516064047814,-1.2096207044333218
1726225928242393000,8.00939306640625,-0.13267156365066765,0.39130525644123554,-1.4121686451256275
1726225928252388000,8.01938818359375,-0.019099837267398834,0.8548059805214404,-1.2996826681524514
1726225928262383000,8.029383056640626,-0.013522329396009444,1.1316460688710213,-1.250130409476161
1726225928272379100,8.039379150390625,-0.1016413423538208,1.1263204899340868,-1.416328102892637
1726225928282374100,8.0493740234375,-0.3591717500776052,1.1590408562749623,-1.3646499381035566
1726225928292369200,8.059369140625,-0.580363600963354,1.240663492950797,-0.9908499432146549
1726225928302364200,8.0693642578125,-0.8757131594717502,1.3849749332517385,-0.6248147371083498
1726225928312359200,8.079359130859375,-1.2630533116742968,1.4737012644529341,-0.49270577577650543
1726225928322355000,8.08935498046875,-1.6275746060863137,1.5566753157377242,-0.5056523511111736
1726225928332350000,8.099349853515625,-1.7803265424743293,1.684956243214011,-0.5745435165077447
1726225928342345000,8.109344970703125,-1.8454571862936018,1.5110750095576047,-0.5585024822890758
1726225928352340000,8.119340087890626,-1.8807021026760338,1.1672329305589197,-0.4648001162409782
1726225928362335200,8.129335205078124,-1.6588281147450208,0.75271630987823,-0.40638884380459783
1726225928372331300,8.139331298828125,-1.6378282890751956,0.35348026043772696,-0.5534083740204573
1726225928382326000,8.149325927734376,-1.8404729681402443,0.16007424210011958,-0.8235422427296638
1726225928392321000,8.159321044921874,-1.9433423909842966,-0.03594166647493839,-0.9174813401430845
1726225928402316000,8.16931591796875,-1.7487988930493592,-0.08253039917051792,-0.7204080314695834
1726225928412312000,8.17931201171875,-1.4840221674591303,0.07082593285143375,-0.5690127703875303
1726225928422307000,8.18930712890625,-1.1927432193905114,0.3370399977684021,-0.6534229919552803
1726225928432302000,8.199302001953125,-0.9732201784998178,0.531793339061737,-0.7589303620874881
1726225928442297000,8.209297119140626,-0.6536468638390303,0.7085159336239099,-0.7902233259737491
1726225928452292000,8.2192919921875,-0.4113835833519697,0.7639601729482411,-0.6232137316524982
1726225928462288100,8.2292880859375,-0.1354214468806982,0.4785983399689197,-0.5894242747753858
1726225928472283100,8.239283203125,0.4386585437685251,0.13555413334965705,-0.9123527450829744
1726225928482278100,8.249278076171874,2.0530589032441378,0.07943184863328934,-0.8388409341484308
1726225928492273200,8.259273193359375,4.16185430675745,0.1888034929782152,-0.4301718704521656
1726225928502268200,8.26926806640625,4.857812079842389,-0.09509002101421356,-0.18188333832621573
1726225928512264000,8.279263916015625,4.2594218238011,-0.6478332091242075,-0.08890519489943981
1726225928522259000,8.289259033203125,2.919675733068585,-1.1874527117669582,-0.2656301275491714
1726225928532254000,8.29925390625,1.9467007615014909,-1.6693173600554465,-0.2944108163535595
1726225928542249200,8.309249267578124,1.187376723921299,-2.1026029786139726,-0.1349731185913086
1726225928552244200,8.319244140625,0.6576897094890475,-2.170622621873021,-0.14135902023613453
1726225928562240000,8.329239990234376,0.21541443652808664,-1.8320967694610357,0.06646189242303371
1726225928572235000,8.339235107421874,-0.24862960064858197,-1.384774442243576,0.3714379419326782
1726225928582230000,8.34922998046875,-0.5172749843657016,-0.8759785324096679,0.809668031156063
1726225928592225000,8.35922509765625,-0.7650257563531399,-0.5333662874668836,0.8918851265937089
1726225928602220000,8.369219970703124,-1.0652674708172678,-0.3203261788547039,0.9568775309860705
1726225928612216000,8.379216064453125,-0.9218664233595132,-0.013752046498656273,1.2509049009799957
1726225928622211000,8.389211181640626,-0.40633302196413273,0.4112923979371786,1.5181068078905342
1726225928632206000,8.3992060546875,0.4857303838059306,0.7746715365767478,1.71893859231472
1726225928642201000,8.409201171875,1.1013017840117216,0.8489999245911836,1.6183359453588724
1726225928652196000,8.419196044921875,1.4047873027026652,0.7345522921562194,1.4614292273789644
1726225928662192000,8.429192138671874,1.6375839589253067,0.48578562112450596,1.4269108717054129
1726225928672187100,8.439187255859375,1.7355194324985146,0.11456278324723243,1.3407979378730057
1726225928682182100,8.44918212890625,1.379007841540873,-0.35629882498979565,1.2839677971482275
1726225928692177200,8.45917724609375,0.9161129743993282,-0.8373024725347756,1.26673083114326
1726225928702172200,8.469172119140625,0.6033212827026844,-1.3641910884201527,1.1605530144035816
1726225928712168200,8.479168212890626,0.41859746025353667,-1.8663035749673842,1.205235621216893
1726225928722163200,8.4891630859375,0.3566737957820296,-2.318810611346364,0.8000742733806371
1726225928732158200,8.499158203125,0.38862726940363646,-2.4194535903126,0.6792150203377008
1726225928742153200,8.5091533203125,0.3031868280053139,-2.5503929233431815,0.6210930862367153
1726225928752148200,8.519148193359374,0.09356675696969032,-2.7583658116936682,0.5447732321441173
1726225928762144000,8.52914404296875,0.08075257584303618,-2.751501186621189,0.5554518625468016
1726225928772139000,8.539138916015625,-0.05726794762015342,-2.7180910844504833,0.5750830302119255
1726225928782134000,8.549134033203124,-0.12321283043175935,-2.5483365753352643,0.5747182885527611
1726225928792129000,8.55912890625,-0.2945221677735448,-2.113995894765854,0.7237228551059961
1726225928802124000,8.5691240234375,-0.31405279767364264,-1.6094634875953198,0.9688193131923675
1726225928812120300,8.579120361328124,-0.180732122464478,-1.2442530418753623,1.103967788350582
1726225928822115000,8.589114990234375,0.010093231730163096,-0.9560223754614591,0.9754290867209434
1726225928832110000,8.599110107421875,0.14774141474962232,-0.5452765054911375,1.0633937858998774
1726225928842105000,8.60910498046875,0.5030255097389221,-0.11450842271149157,0.8826946889221667
1726225928852100000,8.61910009765625,0.684184917704761,0.20675942090749738,0.9702870476573705
1726225928862096100,8.62909619140625,0.8265159978434443,0.7304121236115694,0.9638158058166504
1726225928872091100,8.639091064453124,0.8800447589352727,1.2661381259471178,0.865896114334464
1726225928882086100,8.649086181640625,0.5435936669707297,1.7622884892195463,0.7374556123822927
1726225928892081000,8.659080810546875,-0.0025490999609231947,2.0969243484556674,0.586025864508748
1726225928902076000,8.669075927734376,-0.400696477381885,2.069720115187764,0.5683189429044723
1726225928912072200,8.679072265625,-0.6555591272011398,1.7178975588291883,0.4761491932511329
1726225928922067200,8.689067138671875,-0.8438999711036682,1.5954688645124435,0.12132920864224433
1726225928932062200,8.699062255859374,-1.0362027043744921,1.4167729240506886,-0.2748088747829199
1726225928942057200,8.70905712890625,-1.071643435589969,1.2000544191867113,-0.4508224442929029
1726225928952052200,8.71905224609375,-0.9123445617765188,1.0945949798494576,-0.7037427278727293
1726225928962048000,8.729048095703124,-0.7535922159299254,0.9363023604691028,-1.017325277686119
1726225928972043800,8.739043701171875,-0.6617614889726042,0.7360235337525606,-1.265167819610238
1726225928982038800,8.749038818359375,-0.2917874821126461,0.5976712941169738,-1.512480784702301
1726225928992033800,8.75903369140625,-0.1126513966679573,0.5334855299323797,-1.7733856372952461
1726225929002028800,8.76902880859375,-0.09335252969712018,0.624193390339613,-1.7185013699412346
1726225929012024600,8.779024658203125,-0.09320902957320212,0.7430670225232839,-1.3847417090177536
1726225929022019600,8.78901953125,-0.5182192794784903,0.5990180325508118,-1.3584867392987012
1726225929032014600,8.7990146484375,-0.7667083026126027,0.5307587353169918,-1.42863170414865
1726225929042009900,8.809009765625,-0.7976277570113539,0.715032183650136,-1.2404033807098864
1726225929052004900,8.8190048828125,-0.7312894909679889,0.9150754480451345,-0.9382423886209725
1726225929062000600,8.829000732421875,-0.6014192484736443,0.977110171675682,-0.4639700951576233
1726225929071995600,8.83899560546875,-0.33062428550720213,0.8335235385179519,-0.1533376273214817
1726225929081990700,8.84899072265625,-0.22165070056915281,0.6820727478563785,-0.06242576877474784
1726225929091985700,8.858985595703125,0.18674159201234578,0.7534995692104101,0.0781523302167654
1726225929101981700,8.868981689453125,0.8308192479953169,0.995219244340062,0.11687690540850162
1726225929111976700,8.878976806640624,1.3440569396689532,1.0531453636080026,-0.02923836944401264
1726225929121971700,8.8889716796875,1.9048691602051258,0.83776073769629,-0.4466793531388044
1726225929131966700,8.898966796875,2.132197614149749,0.46661739479601383,-1.0207353783905506
1726225929141961700,8.908961669921876,2.0516659875810146,0.07358896782398223,-1.4637486102372408
1726225929151957800,8.918957763671875,2.008545807778835,-0.1140104100614786,-1.737543924063444
1726225929161952800,8.928952880859375,2.0039359758958217,-0.127355629324913,-1.8153396959275006
1726225929171947800,8.93894775390625,1.9650991725012659,0.05979483574926853,-1.761059824207425
1726225929181942800,8.94894287109375,1.8810162831917403,0.3182435273617506,-1.8280214828461407
1726225929191937800,8.958937744140625,1.7290119503006338,0.38389293435811994,-2.001995070961118
1726225929201933600,8.96893359375,1.398972771205008,0.20255144782364368,-2.24546714271605
1726225929211928600,8.978928466796875,1.0224871904939412,0.012992168042063712,-2.3048685952335597
1726225929221923800,8.988923828125,0.7243599839657545,0.014473931032419203,-2.0503473061978816
1726225929231918800,8.9989189453125,0.46378041780442,0.1586836645245552,-1.6855618078917265
1726225929241913900,9.008913818359375,0.3385030560582876,0.6250695886522531,-1.271277826923132
1726225929251908900,9.018908935546875,0.15155571234077214,1.1018909820765257,-0.7749380785584449
1726225929261904600,9.028904541015624,-0.14338964928090572,1.1831786877095698,-0.49538522411882874
1726225929271899600,9.038899658203125,-0.4854547817349434,1.059651676762104,-0.6009323417395352
1726225929281894700,9.048894775390625,-0.7293786889106035,1.0751999590277672,-0.5203747039467096
1726225929291889700,9.0588896484375,-0.4934215228304267,1.4347539864212273,-0.21005612436532972
1726225929301885700,9.0688857421875,-0.20224018991738557,1.7523960407584904,0.058066989043354986
1726225929311880700,9.078880615234375,-0.11417349166870117,1.7820383148282766,0.13815876289010048
1726225929321875700,9.088875732421876,0.02235474741011858,1.5920727923333644,0.15525310555398464
1726225929331870700,9.09887060546875,0.16400252145975827,1.3472393690973519,0.0939157165378332
1726225929341865700,9.10886572265625,0.4756675472140312,1.4178355848461388,0.05851707089841365
1726225929351861800,9.11886181640625,0.9152128106892108,1.6515128232955931,0.02321837850213051
1726225929361856800,9.128856689453125,1.1017536194324493,1.7870470829010008,-0.27141221808195115
1726225929371851800,9.138851806640625,1.169504090361297,1.8633318656802176,-0.3629454233974218
1726225929381846800,9.1488466796875,1.1381716712474823,1.5326801076442003,-0.45850306192338464
1726225929391841500,9.158841552734375,0.8784194958209991,1.0893120710104702,-0.6430874759018421
1726225929401837800,9.168837890625,1.2900681598499417,0.7084978134453296,-0.5319242719650268
1726225929411832800,9.178832763671876,1.4228069435179234,0.6589496464222669,-0.34187750092744823
1726225929421827800,9.188827880859375,0.6855696500614286,0.9717828391730785,-0.5708826559126376
1726225929431822800,9.19882275390625,-0.34647242750227447,0.8803671227574348,-0.7360247027963399
1726225929441817900,9.20881787109375,-1.183822246310115,0.9153530959427356,-0.544587354183197
1726225929451813600,9.218813720703125,-1.4093518341392277,1.145572302892804,-0.1623825190424919
1726225929461808600,9.22880859375,-1.4685329219043255,1.2559049012243746,0.4677893611848354
1726225929471803600,9.2388037109375,-1.5536580137431621,1.0154559766829012,0.7800567367464304
1726225929481798700,9.248798583984374,-1.534901875346899,0.5573696788668632,0.798211402118206
1726225929491793700,9.258793701171875,-1.6603247830435632,-0.04000818526148796,0.6563432633161544
1726225929501789700,9.268789794921876,-1.7119737217381596,-0.47948973585069177,0.6230699392676353
1726225929511784700,9.27878466796875,-1.601047833688557,-0.6913064401477574,0.6730927380651235
1726225929521779700,9.28877978515625,-1.6082795385077595,-0.9587316344201564,0.5643512083172798
1726225929531774700,9.298774658203126,-1.4826304208397865,-1.388469205108285,0.2164887877613306
1726225929541769700,9.308769775390624,-1.3891294225826858,-1.7768664651483297,-0.27530104221403595
1726225929551765800,9.318765869140625,-1.3199293373674152,-1.8980659099310635,-0.2878589104920625
1726225929561760800,9.3287607421875,-0.8050660903185606,-1.4486457336515188,0.05326572624146938
1726225929571755500,9.338755615234374,-0.19796002838015556,-0.7822089463442563,0.5184796839803457
1726225929581750500,9.34875048828125,0.4479033419758081,-0.21879238852858543,1.086239239436388
1726225929591745500,9.35874560546875,0.43285716401338575,0.06302548823356628,1.6532488533079623
1726225929601741800,9.368741943359375,0.05504530313462019,0.2135784532725811,2.5268489661484956
1726225929611736800,9.37873681640625,-0.33700668002068995,0.1270645374238491,3.1102398059785363
1726225929621731800,9.38873193359375,-0.7946639387696981,-0.028882980135083197,3.2184879992514848
1726225929631726800,9.398726806640624,-1.083230705270171,-0.10891805535852908,3.1087703179478643
1726225929641721600,9.4087216796875,-1.200713175356388,-0.04062777846455574,3.285187207561731
1726225929651716600,9.418716552734375,-1.276835461050272,-0.41408699709177016,2.959712559902668
1726225929661712600,9.428712646484374,-1.5282815804243086,-1.1216337934225797,2.414897242182493
1726225929671707600,9.438707763671875,-1.7098516150176524,-1.7862047868579625,2.0521715990155935
1726225929681702700,9.44870263671875,-1.5391723922729492,-2.308722348052263,1.8363339686393736
1726225929691698000,9.458697998046874,-1.449885504579544,-2.528753922986984,1.784527209034562
1726225929701693700,9.468693603515625,-1.5470102462917565,-2.5710025806516406,1.7903227435708045
1726225929711688700,9.478688720703126,-1.6866671387851238,-2.373591418325901,2.0046844561755655
1726225929721683700,9.48868359375,-1.9215297876268624,-2.2054700633704662,2.0275474453687665
1726225929731678700,9.4986787109375,-2.0693810924917457,-2.029981979039311,1.7521365130394697
1726225929741673700,9.508673828125,-2.0009230578154322,-1.9362766903817652,1.5454600942403076
1726225929751668700,9.518668701171874,-2.2173902182668446,-2.157504197102785,1.108656238427758
1726225929761664500,9.52866455078125,-2.3177479505509138,-2.5880010617256164,0.5601438197553158
1726225929771659500,9.538659423828125,-2.1697969847038387,-2.939954550987482,0.10170505523979663
1726225929781654800,9.54865478515625,-1.8767203395634888,-3.0572213324964044,-0.20944997516572475
1726225929791649800,9.55864990234375,-1.3045797925442457,-2.7457483221828936,-0.1465665257513523
1726225929801645800,9.568645751953126,-0.7667384054899216,-2.343851529100537,-0.30897417923510073
1726225929811640800,9.578640869140624,-0.620250497932732,-2.030163180825114,-0.6060574296683072
1726225929821635800,9.5886357421875,-0.6347387497514486,-1.7223597989350556,-0.6847241391479969
1726225929831630600,9.598630615234375,-0.3063093439400196,-1.1326496929556131,-0.4886164606362581
1726225929841625600,9.60862548828125,0.009561609071493149,-0.3700830201923847,-0.19060615848600862
1726225929851620600,9.61862060546875,0.17340718640387057,0.3691507077783346,0.11396832448542117
1726225929861616600,9.62861669921875,0.32542613234221934,0.9381962113916873,0.21608429861366749
1726225929871612000,9.63861181640625,0.33177462458610535,1.120643028819561,-0.01977788265943527
1726225929881607000,9.64860693359375,0.3017895284280181,1.1510527801305055,-0.16771920389533043
1726225929891602000,9.658601806640625,0.5839759462416172,1.5482137768626212,-0.09113982208371162
1726225929901596700,9.6685966796875,1.0374848531395195,2.1851146730840205,-0.026259645894169806
1726225929911592700,9.6785927734375,0.9392787459313869,2.5519424908727406,-0.18877075975239277
1726225929921587700,9.688587646484375,0.630534283798933,2.7243887232899664,-0.3117272773355245
1726225929931582700,9.698582763671874,0.5325783519595861,2.9009575885951517,-0.39244975030124185
1726225929941577700,9.70857763671875,0.4736822186157107,3.1763936553657053,-0.37866964675188064
1726225929951572700,9.71857275390625,0.3923258316606283,3.5610341932207343,-0.17421908730864524
1726225929961568800,9.72856884765625,0.20200258176922797,3.7279093475073575,0.007971125009655952
1726225929971563800,9.738563720703125,0.01940583447664976,3.7306829038739204,0.20751696127653121
1726225929981558800,9.748558837890625,0.10156126285493373,3.676792323732376,0.38573300926685333
1726225929991553800,9.7585537109375,0.258764041171968,3.521757829365134,0.3698158936887979
1726225930001548800,9.768548828125,0.23839783723056315,3.153042590394616,0.183749716719985
1726225930011544800,9.778544921875,0.06915595381259917,2.3594594325989484,-0.24239187530279158
1726225930021539600,9.78853955078125,-0.1721563095599413,1.34612410133183,-0.8834522292912006
1726225930031534600,9.79853466796875,-0.32342999008893963,0.5248877974569797,-1.2585644758224486
1726225930041529600,9.808529541015625,-0.29815877071022984,-0.09609832127392291,-1.4503671506166458
1726225930051524900,9.81852490234375,-0.2586825003683567,-0.5620622205972671,-1.5917875456511974
1726225930061521000,9.82852099609375,-0.04424655348360538,-0.8463654844343662,-1.6468746421009302
1726225930071516000,9.838515869140625,0.3756996910303831,-1.1350398029625415,-1.5027736296802758
1726225930081510700,9.8485107421875,0.7428817290842533,-1.4553776722550391,-1.3923077603578566
1726225930091505700,9.858505615234375,0.8756625983282923,-1.8040356271028517,-1.3868933340936898
1726225930101500700,9.868500732421875,0.7830404287323355,-2.1496412086427212,-1.4079139102905989
1726225930111496700,9.87849658203125,0.8265434703722596,-2.428915246140957,-1.2373375633984804
1726225930121491700,9.88849169921875,1.0668646768808365,-2.4719185215651986,-0.8808709806263446
1726225930131486700,9.89848681640625,1.38901018011719,-2.313582647565007,-0.46959436478018757
1726225930141482000,9.90848193359375,1.4579527834400534,-2.259671024635434,-0.1917144119888544
1726225930151476700,9.918476806640625,1.3306158588156103,-2.307149984169006,-0.09017536096572876
1726225930161472800,9.92847265625,1.2178455119431018,-2.3727824400305746,0.14016075036227701
1726225930171467800,9.9384677734375,1.2564715951964258,-2.454396308878064,0.20315701250135898
1726225930181462800,9.948462890625,1.3828212623491882,-2.481097268798947,0.18631342972815035
1726225930191457800,9.958457763671875,1.4993427784487605,-2.2092501664310693,0.1325941145002842
1726225930201452800,9.968452880859376,1.5655957042962312,-1.5447019693493842,0.5421972441762686
1726225930211448600,9.978448486328125,1.5281684754386544,-0.8799959513574838,0.6726835727423429
1726225930221443600,9.988443603515625,1.3450100026100873,-0.19369535667300222,0.5459428604453802
1726225930231438800,9.99843896484375,1.2388304323047399,0.3332061186939478,0.6480693559676408
1726225930241433900,10.008433837890625,1.2198442845448851,0.5170622183978557,0.6396773751974105
1726225930251428900,10.018428955078125,0.8781225587010383,0.4751093288093805,0.3365022376298904
1726225930261425000,10.0284248046875,0.5280579519256949,0.5380190817087889,-0.005203998383879661
1726225930271419600,10.038419677734375,0.3196820357322693,0.8394184417754411,-0.04679799153208732
1726225930281414700,10.04841455078125,0.5215560226857662,1.3922598295629023,0.221010649099946
1726225930291409700,10.05840966796875,0.7222323242872953,1.7755495373308658,0.3488467554181814
1726225930301404700,10.06840478515625,0.5610822696492076,1.8168787420630454,0.3484668161898851
1726225930311400700,10.078400634765625,0.2662564427539706,1.9929735601156948,0.5841343516737222
1726225930321396000,10.08839599609375,0.07251900050491095,2.0099720411896707,0.737346891310811
1726225930331391000,10.098390869140625,-0.22277269033640623,1.972413587167859,0.868126649865508
1726225930341385700,10.1083857421875,-0.389405852560699,2.0240005665421483,1.0516460649609565
1726225930351380700,10.118380615234376,-0.38960079061090946,1.8381547543257475,0.887740866395831
1726225930361376800,10.128376708984375,-0.5456885934233665,1.158204405450821,0.33750819980204105
1726225930371371800,10.138371826171875,-0.703810240150988,0.341585239982605,-0.05528875650167465
1726225930381366800,10.14836669921875,-0.7951683811604976,-0.2753565717935562,-0.2738531814932823
1726225930391361800,10.15836181640625,-0.7577771003991365,-0.6731862615674734,-0.4498205737739801
1726225930401356800,10.168356689453125,-0.658733081062138,-0.6886281608492135,-0.5140688818007707
1726225930411351800,10.178351806640626,-0.644738165718317,-0.5921931549668312,-0.5288695605695247
1726225930421347800,10.188347900390625,-0.5677408507555722,-0.644572161501646,-0.7322142045974731
1726225930431342800,10.1983427734375,-0.8074886412903666,-0.8115729879945516,-0.9165116183280945
1726225930441337900,10.208337890625,-0.9039484893530607,-0.7672761656284331,-0.7357862178653478
1726225930451332900,10.218332763671874,-0.9404957205057144,-0.6925847895205021,-0.6320651466280222
1726225930461328600,10.22832861328125,-0.9014993426352739,-0.5944254440635443,-0.4762842178076505
1726225930471323600,10.23832373046875,-1.0625707790791987,-0.5174468338012695,-0.2895171990931034
1726225930481318700,10.248318603515624,-1.1791776353746652,-0.41397243080139157,-0.12944178794920444
1726225930491313700,10.258313720703125,-1.5919623176962137,-0.6598194149941206,-0.2957166382551193
1726225930501308700,10.26830859375,-1.7166171636298297,-0.8504770114064216,-0.1656079108297825
1726225930511303700,10.2783037109375,-1.6984575298219917,-0.9968068057924508,-0.28371406577229497
1726225930521299700,10.2882998046875,-1.7475623369917272,-0.985965093782544,-0.576173163536191
1726225930531294700,10.298294677734376,-1.649683269780874,-0.7336258249610662,-0.5310778842687607
1726225930541289700,10.308289794921874,-1.4047750277429818,-0.42079380125403404,-0.42695349292755125
1726225930551284700,10.31828466796875,-1.1188780649736523,-0.16395722101330756,-0.33966450105309487
1726225930561279700,10.32827978515625,-0.9681623105883598,0.04183247807919979,-0.4694400510013103
1726225930571275800,10.33827587890625,-0.9562702127426862,0.10823416474759578,-0.6079419282406568
1726225930581270800,10.348270751953125,-0.7650269253969192,-0.08122574631273746,-0.7762006458401679
1726225930591265800,10.358265869140626,-0.6682549426451325,-0.13385901986956594,-0.8305185114830732
1726225930601260500,10.368260498046874,-0.6656289780557155,-0.22941315126419065,-0.997780034738779
1726225930611255800,10.378255859375,-0.2807707057967782,-0.3083820585608482,-1.0097305847734213
1726225930621251800,10.388251953125,-0.17462357645630835,-0.3205290079504251,-0.9560960252195596
1726225930631246800,10.398246826171874,-0.22476386415362357,-0.4559615607470274,-0.9029822746694087
1726225930641241900,10.408241943359375,-0.439658368460834,-0.7018874553948641,-0.8697077815771103
1726225930651236900,10.41823681640625,-0.7115969485044479,-0.5982850421011447,-0.7743202389210462
1726225930661231900,10.42823193359375,-0.646523003308475,-0.23403262775838374,-0.44537937645614145
1726225930671227600,10.4382275390625,-0.5726423590615392,0.06286708280146122,-0.08003916687667369
1726225930681222700,10.44822265625,-0.6542015751123428,0.41034897960722444,0.35001696824133394
1726225930691217700,10.4582177734375,-0.5143894920572638,0.577398321416974,0.7251151862472295
1726225930701213000,10.468212890625,-0.25577128909677266,0.5525614018023014,0.8864128326624632
1726225930711208000,10.4782080078125,0.09563274958878755,-0.022606384083628653,0.70969082262218
1726225930721203700,10.48820361328125,0.25156068566441536,-0.48706338597536086,0.5314473021030426
1726225930731198700,10.49819873046875,0.3586497720301151,-0.5719950010687113,0.4544301133960485
1726225930741193700,10.50819384765625,0.44869215426594017,-0.33625264678299427,0.6375362715154886
1726225930751188700,10.518188720703124,0.5316182747557759,-0.3066846069931984,0.9286416165828705
1726225930761183700,10.528183837890625,0.2706666604116559,-0.5608697959423065,1.0864824005424976
1726225930771179800,10.5381796875,-0.14548399121165276,-0.6609317601501942,0.9944085124790668
1726225930781174800,10.5481748046875,-0.4979731947854161,-0.8979477876335382,0.9328700479328632
1726225930791169800,10.558169677734375,-0.6848541952684521,-1.0305629449218512,0.8540192140579224
1726225930801164800,10.568164794921875,-0.3400406408891082,-0.6568365997910499,1.1547715083926915
1726225930811159800,10.578159912109374,0.008473521573841571,-0.3954401642888784,1.5639666417896747
1726225930821155800,10.58815576171875,0.5202931631430984,-0.14190554820299148,1.65198511698246
1726225930831150800,10.59815087890625,1.022575453299284,-0.011266659423708915,1.3696458466947077
1726225930841145900,10.608145751953124,0.9081035632058978,0.016859364864230154,1.068706505355239
1726225930851140900,10.618140869140625,0.8423603404462336,0.3026081513345241,0.9762234519690275
1726225930861135600,10.628135498046875,1.2330965648278593,0.8092202873885631,0.7571592607617378
1726225930871130600,10.638130615234376,1.6352461636275053,1.6286118401795624,0.6647399202615022
1726225930881127000,10.648126953125,2.3176886215791104,2.6101333985567092,0.6650830346107482
1726225930891122000,10.658121826171875,2.908777322435379,3.2436107500702143,0.7287228553503752
1726225930901117000,10.668116943359376,2.8286709355413913,2.7505010696679353,0.7388210555166006
1726225930911112000,10.67811181640625,2.3030784969463944,1.7878689206779002,0.4306371498763561
1726225930921106700,10.688106689453125,1.5582082243934272,0.9009124826580286,0.04497311419248581
1726225930931102700,10.698102783203124,1.206618015486002,0.28918051448464394,-0.22618542138934133
1726225930941097700,10.70809765625,1.176960543847084,-0.020887305206060407,-0.28070962325930593
1726225930951092700,10.7180927734375,1.0534501917734742,-0.23489479754567144,-0.428843252196908
1726225930961087700,10.728087646484376,1.2840525528222322,-0.24504618920385837,-0.7079419331282377
1726225930971082800,10.738082763671875,0.8274363275587558,-0.42379882828891274,-1.2475731262087821
1726225930981079800,10.748079833984375,0.5432490913167596,-0.39536885261833665,-1.0529033715456724
1726225930991074800,10.75807470703125,0.5980407119512557,-0.15856266849339007,-0.6345189695209265
1726225931001069800,10.76806982421875,0.3298500862643122,-0.39862405502200127,-0.5138730669677257
1726225931011064800,10.77806494140625,0.21586714873164892,-0.5979863514155149,-0.5046399591982365
1726225931021059800,10.788059814453124,0.23156185373067856,-0.8515805887341499,-0.2785556600958109
1726225931031055600,10.7980556640625,0.5088160758391023,-1.2471265514850616,-0.48096214649081226
1726225931041050600,10.808050537109375,0.5482227880761027,-1.5837252352267503,-0.5555307730019092
1726225931051045600,10.818045654296874,0.4754810847312212,-1.6896107910215854,-0.42307928184270854
1726225931061040600,10.82804052734375,0.32523324011862276,-1.6308137341380118,-0.2865343838900328
1726225931071035600,10.83803564453125,0.15703063662052152,-1.3581284273803234,-0.4046849624961614
1726225931081031700,10.84803173828125,0.34973932034373284,-0.7534218277990817,0.3422796519875526
1726225931091026700,10.858026611328125,0.5772402082458138,-0.23344109160602092,1.1104624110668897
1726225931101021700,10.868021728515625,0.40613720713108775,-0.26742344070672985,1.4169447734862566
1726225931111016700,10.8780166015625,0.47971506903916594,-0.40112756227552887,1.4519740012913942
1726225931121011700,10.88801171875,0.6622086482182145,-0.5206961909860373,1.3619552921921014
1726225931131007700,10.8980078125,1.0185960282742976,-0.7415688929200172,1.2896399975657462
1726225931141002800,10.908002685546874,1.0589230702266097,-0.6194786367774009,1.2018944940954446
1726225931150997800,10.917997802734375,1.1010858031734823,-0.2603115628749132,1.0766694470584393
1726225931160992500,10.927992431640625,1.3052417635843157,-0.15576280864179134,0.9695487965106964
1726225931170987500,10.937987548828126,1.0810901861101387,-0.049236616855859755,0.8401040859520434
1726225931180983800,10.94798388671875,0.8851596177309751,0.12525778026282786,0.7464730315744876
1726225931190978800,10.957978759765625,0.413080158136785,0.12831716783344746,0.7039870580226183
1726225931200973800,10.967973876953126,0.4690782319515943,0.43965982976555823,0.7767921819925308
1726225931210968800,10.97796875,0.7321586750179528,0.9081839349657297,0.82638418815732
1726225931220963800,10.9879638671875,0.40859775202572346,1.0819891807764768,0.9512684589326381
1726225931230959600,10.997959716796874,-0.3184469409793615,1.1620827081888914,0.8049953631699085
1726225931240954600,11.00795458984375,-0.946861748406291,1.2407090856581926,0.5348661706358194
1726225931250949600,11.01794970703125,-0.9926073082759976,1.3925135120630263,0.2689794379770756
1726225931260944600,11.027944580078126,-0.6965516473248601,1.5342261680424212,-0.015498597905039786
1726225931270940000,11.03793994140625,-0.7329290748685598,1.362127726149559,-0.3730290105164051
1726225931280935000,11.047934814453125,-0.9563748421609402,0.9353168565630913,-0.9092156161010265
1726225931290930700,11.0579306640625,-1.0774506605640053,0.8004103734672069,-0.852111919131875
1726225931300925700,11.06792578125,-0.6961006886869668,0.9983341614902019,-0.6689853027462959
1726225931310920700,11.077920654296875,-0.45341041495949025,1.2743226014465092,-0.339190453800559
1726225931320915700,11.087915771484376,-0.1872393124014139,1.4835615642100572,-0.02074701995253563
1726225931330910700,11.09791064453125,-0.034223756641149516,1.2251613879144192,-0.3854576994568109
1726225931340906500,11.107906494140625,0.17307108631730078,1.0997165606468915,-0.8664543327391148
1726225931350901800,11.11790185546875,0.3544242632895708,1.175640108898282,-1.1111474707216025
1726225931360896800,11.127896728515625,-0.0022270283997058867,1.0656114619493484,-1.195720773896575
1726225931370891800,11.137891845703125,-0.6173866329342127,0.5314993245512247,-1.3457909238547086
1726225931380886800,11.14788671875,-1.1400076545029878,-0.0018815759629011153,-1.6493039150744675
1726225931390882800,11.1578828125,-1.4686246918410062,-0.13536708634495734,-1.4034551773160695
1726225931400877800,11.1678779296875,-1.6943462951108812,-0.06317220322787762,-1.5612632280498742
1726225931410872600,11.17787255859375,-1.7252929297775028,0.013874211573600768,-1.916263829922676
1726225931420867600,11.18786767578125,-1.477161049517989,0.324027955982089,-2.199759869030118
1726225931430862600,11.197862548828125,-1.36696552156955,0.8011363496541977,-1.900974490854144
1726225931440859000,11.20785888671875,-1.2124001060187817,1.376724991300702,-1.5379069023817777
1726225931450854000,11.21785400390625,-0.869368758881092,1.7250854245066642,-1.439717161786556
1726225931460849000,11.227848876953125,-0.9647536711886524,1.7446359281510113,-1.502529299530387
1726225931470844000,11.237843994140626,-1.3991130564585328,1.9383885679692028,-1.4934218639671801
1726225931480838700,11.247838623046874,-1.6013734123811125,2.165660031029582,-1.4111276116400957
1726225931490834700,11.257834716796875,-1.5195628519177435,2.069426100677252,-1.332843179476261
1726225931500829700,11.26782958984375,-1.525010011407733,1.8655968880027531,-1.0060919360101221
1726225931510824700,11.27782470703125,-1.5999766973257064,1.7066490195840596,-0.6372282284796238
1726225931520819700,11.28781982421875,-1.66174809384495,1.2640233257502316,-0.6690525227636098
1726225931530814700,11.297814697265625,-1.8203741829633713,0.6776122613161802,-0.7343897950708865
1726225931540809700,11.307809814453124,-1.714210979270935,0.5338607929855584,-0.6094844815075398
1726225931550805800,11.3178056640625,-1.3969763366907835,0.6141910517632961,-0.3975274919569492
1726225931560800800,11.32780078125,-0.9868237564384936,0.5428086540728807,-0.3422100938826799
1726225931570795800,11.337795654296874,-0.5454851798057556,0.5154033452749252,-0.03013677958846092
1726225931580790800,11.347790771484375,-0.6493412755995989,0.10434592513740062,0.04935702836513519
1726225931590785800,11.357785888671875,-0.7876607820093632,-0.2337514727294445,0.15877251185178756
1726225931600781600,11.367781494140624,-0.9675868487879633,-0.23321897328794,0.8404232349038123
1726225931610776600,11.377776611328125,-1.0965355925232172,-0.25453297947347164,1.5241192000478505
1726225931620771600,11.387771484375,-1.1536188312262297,-0.45625557525753974,2.0829045909315345
1726225931630766600,11.3977666015625,-1.2470581624239683,-0.5399474194228648,2.4908061773866415
1726225931640761600,11.40776171875,-1.1892834343254566,-0.5590133544206619,2.5709172404557465
1726225931650758000,11.4177578125,-0.5371393762648106,-0.6035527533710002,2.715164967870712
1726225931660753000,11.4277529296875,-0.2872998153045773,-0.938646293246746,2.6151678855925797
1726225931670747600,11.43774755859375,-0.21553134090602397,-1.2358441099703312,2.817923331555724
1726225931680742700,11.44774267578125,0.3590823182284832,-1.5423773257941007,3.1899057556286454
1726225931690737700,11.457737548828124,0.9717565356880425,-2.240799150905013,3.0547651715159416
1726225931700733700,11.467733642578125,1.812000906893611,-3.0562223845869303,2.5043606554865834
1726225931710728700,11.477728759765625,2.327560904034972,-3.9144565859913825,2.164071592794359
1726225931720723700,11.4877236328125,2.601348911337554,-4.6493929090291255,1.9420488440424202
1726225931730718700,11.49771875,2.805029947713017,-5.218982017999887,1.652419416746497
1726225931740713700,11.507713623046875,2.607088331772387,-5.5221232532978055,1.4991747284054755
1726225931750709800,11.517709716796874,2.407184183587134,-5.634439718922972,1.3871405868530273
1726225931760704800,11.527704833984375,2.220435285051167,-5.6491118028759955,1.0416220990747214
1726225931770699800,11.53769970703125,1.9256889531329273,-5.552782010933757,0.7651502595156431
1726225931780694800,11.54769482421875,1.5906880599766968,-5.100855989313125,0.8741068933188915
1726225931790689800,11.557689697265625,1.280178926259279,-4.424191822502017,0.8863730851739644
1726225931800684800,11.567684814453125,0.6646171706646681,-3.9388878474146125,0.9837596926927566
1726225931810680600,11.5776806640625,0.397897202052176,-3.1013702708244324,1.2846791602879761
1726225931820675600,11.587675537109375,0.4198112199574709,-1.9589543861359358,1.6593278809607028
1726225931830670800,11.5976708984375,0.32517975636571644,-1.036355556848645,1.8860867183238266
1726225931840665900,11.607665771484376,0.18677520202100276,-0.39831951911747454,1.9450363354206084
1726225931850660900,11.617660888671875,0.3313976079672575,0.25483167015910146,1.8193951087981461
1726225931860656600,11.62765673828125,0.6561673222273587,1.1493290250778199,1.6627689613252876
1726225931870651600,11.637651611328126,1.017254550537467,2.203614206370711,1.6092437073647976
1726225931880646700,11.647646728515625,1.1351108223721385,2.946776505962014,1.5833102246850728
1726225931890641700,11.6576416015625,0.8482473526582122,3.110110042119026,1.2422317651808261
1726225931900636700,11.66763671875,0.5050067466840148,2.8621529339045284,0.5064268426150084
1726225931910632700,11.6776328125,0.49105333239436144,2.7338030328452585,-0.18619535630643366
1726225931920627700,11.687627685546875,0.4805296002924442,2.860381248056888,-0.5187251831740141
1726225931930622700,11.697622802734376,0.4426198486149311,3.2756898958981036,-0.6328448988288641
1726225931940617700,11.70761767578125,0.5825163950830697,3.849340847480297,-0.6485194378226995
1726225931950612700,11.71761279296875,0.764510792568326,4.116158723509312,-0.7255430562704801
1726225931960608800,11.72760888671875,0.4357353497982025,3.8341993924498556,-0.7318605688542127
1726225931970603800,11.737603759765625,-0.03078326079845428,3.1392402750134467,-1.0107377159893511
1726225931980597000,11.747596923828125,-0.5932350652351975,2.2928169229120017,-1.2691203566282987
1726225931990592000,11.757592041015625,-0.9786036251038313,1.7298399255573749,-1.25076636929214
1726225932000587000,11.7675869140625,-1.0689715860322118,1.4775556017935274,-1.1259797136723995
1726225932010582300,11.777582275390625,-1.117265369080007,1.0609078143030404,-1.1309165855526924
1726225932020578000,11.787578125,-1.2672066319614648,0.2818213838934898,-1.4256231699824333
1726225932030573000,11.797572998046874,-1.4874720156520604,-0.4960322898507118,-1.956506992983818
1726225932040568000,11.807568115234375,-1.8740946672350167,-0.8508569506347179,-2.286173247113824
1726225932050563000,11.81756298828125,-1.583863766914606,-0.1915396399438381,-2.1502929505497215
1726225932060558000,11.82755810546875,-1.0990309164702892,0.44620647493004795,-2.2574334748417137
1726225932070554000,11.83755419921875,-0.6855790024116635,0.7951724728137254,-2.2120237227976323
1726225932080549000,11.847549072265625,-0.32355098612010474,0.5565946028411388,-2.203447033110261
1726225932090543900,11.8575439453125,-0.3486725678950548,0.06026303778290748,-2.4770722510665655
1726225932100539100,11.8675390625,-0.48614101043343544,-0.20220424182116983,-2.669502702370286
1726225932110534100,11.8775341796875,-0.6591033756792545,-0.24811668269038198,-2.6546295428872106
1726225932120530200,11.8875302734375,-0.5566951406061649,0.08561082952916621,-2.0992682812333108
1726225932130525200,11.897525146484375,-0.34169513009786606,0.4508703750878572,-1.7890192597568033
1726225932140520200,11.907520263671875,-0.012896890974044799,0.7671306196779012,-1.7107617155998944
1726225932150515200,11.91751513671875,0.04878273560851812,1.0714987664222717,-1.5357921021848917
1726225932160510000,11.927510009765625,0.057652563023567194,1.1950725391209125,-1.3372411221742628
1726225932170506000,11.937506103515625,-0.010808978784084319,1.0028910941421985,-1.0916033968180416
1726225932180501000,11.9475009765625,-0.28344693926870823,0.8483312315493822,-0.7651619499534368
1726225932190496300,11.957496337890625,-0.3736702310293913,0.6573264291346073,-0.6760492497831583
1726225932200491300,11.9674912109375,-0.5271668483048677,0.3439747654676437,-0.559201570469141
1726225932210486300,11.977486328125,-0.5872323176890611,0.13560323318839074,-0.6309282515525817
1726225932220482000,11.98748193359375,-0.3115484136372804,0.18994038805365562,-0.5527706606388092
1726225932230477000,11.99747705078125,0.06115910983979702,0.26958091100156306,-0.16588263611793516
1726225932240472000,12.00747216796875,0.3673685005366802,0.0609159487336874,0.0228004453510046
1726225932250467000,12.017467041015625,0.4490858297586441,-0.027359716090559958,0.23532091400325297
1726225932260462000,12.027462158203125,0.3558808918386698,0.3365992682635784,0.6910656171292067
1726225932270457000,12.03745703125,0.3446604096442461,0.7395230663061142,1.1562778213024139
1726225932280453000,12.047453125,0.22275252433121204,0.8079664879351854,1.477334652519226
1726225932290448100,12.0574482421875,0.23669278687834738,0.693983550402522,1.6569155591219662
1726225932300443100,12.067443115234376,0.30806963161081075,0.38612405441105363,1.7492659260392187
1726225932310438100,12.077438232421875,-0.10010784917622804,-0.2193985377281904,1.242625732934475
1726225932320433200,12.08743310546875,-0.08929390195608139,-0.5105675956815481,0.6467693792849779
1726225932330429200,12.09742919921875,-0.06410802277326584,-0.7359031222432851,0.29631928032338617
1726225932340424000,12.107423828125,-0.26193419564068315,-0.6213865162253379,0.5985159282475709
1726225932350419000,12.1174189453125,0.23936931261122224,-0.34255379275381564,0.7297820090144872
1726225932360414000,12.1274140625,0.5136304903835058,-0.34410043767392634,0.11638006180226802
1726225932370409000,12.137408935546874,0.2809726581096649,-0.6738683986127376,-0.08572656486332415
1726225932380405200,12.1474052734375,0.11788345210254192,-0.6057137307971716,0.3456932598233223
1726225932390400300,12.157400146484376,-0.4842150108069181,-0.7251853288739919,0.5256774865299463
1726225932400395300,12.167395263671875,-0.9580787234693765,-0.9686363578408956,0.5884048685997724
1726225932410390000,12.17739013671875,-1.438186298957467,-1.2536620907336473,0.8424953650027514
1726225932420385000,12.187385009765626,-1.3249620708376169,-1.511156258100271,0.876998523107171
1726225932430381000,12.197381103515625,-0.9811191150560975,-1.7468717243790626,0.3561895193964243
1726225932440376000,12.2073759765625,-0.6920441067725419,-1.7477309715569018,0.03066401833295822
1726225932450371000,12.21737109375,-0.25132278525531293,-1.4717466232538223,0.021947627913951873
1726225932460366000,12.227365966796874,0.16671090363562105,-1.1495675100088119,-0.19937223326563833
1726225932470361000,12.237361083984375,0.3035901481091976,-1.0580652843534946,-0.09648936641812324
1726225932480356000,12.247356201171876,0.5308768087387085,-1.179454114228487,-0.4266162237972021
1726225932490352000,12.25735205078125,0.5375923807293176,-1.0962462541878222,-0.9310399098962545
1726225932500347100,12.26734716796875,0.6302607275545596,-0.8269839076161384,-1.3794921179264783
1726225932510342100,12.277342041015626,0.6388496922016144,-0.3906605287969112,-1.1546370683580636
1726225932520337200,12.287337158203124,0.47595542424470183,-0.2050514479458332,-0.9556716623276471
1726225932530332200,12.297332275390625,0.16780308278650044,-0.2943663926899433,-0.8572954592496156
1726225932540328000,12.307327880859376,-0.12536913168281316,-0.4503974968791008,-0.8171534184753895
1726225932550323000,12.317322998046874,-0.4785559621319174,-0.5892962644815445,-0.8605681973099708
1726225932560318000,12.32731787109375,-0.6217971428528428,-0.5894353806912899,-0.8320423600494861
1726225932570313200,12.337313232421875,-0.49941637933105226,-0.4368395116478204,-0.7246236033380031
1726225932580308200,12.34730810546875,-0.35336803223490715,-0.11148001480102539,-0.5621235953956842
1726225932590304300,12.35730419921875,-0.41770898698121306,0.24395254874825475,-0.5397749854654074
1726225932600299000,12.367299072265626,-0.30557313861995933,0.5662152486234903,-0.5949491756767035
1726225932610294000,12.3772939453125,-0.0044964346364140505,0.8935159426659345,-0.2888327239602804
1726225932620289000,12.3872890625,0.23591741859167814,0.7287509124010801,0.2457330024242401
1726225932630284000,12.397283935546875,-0.03866495395898819,0.06314180808961391,0.4818640637665987
1726225932640280000,12.407280029296874,-0.6308902576297521,-0.3229980284124613,0.7863532065421343
1726225932650275000,12.417275146484375,-0.9745452896237373,-0.10787585282921791,1.322992232069373
1726225932660270300,12.427270263671875,-0.938511853212118,0.25762977644503116,2.1136755767703055
1726225932670265000,12.43726513671875,-0.499629437559843,0.6777940476238727,2.539341367974877
1726225932680260000,12.447260009765625,-0.05872077677696943,0.7687818940162658,2.7430706274062393
1726225932690256100,12.457256103515626,0.31913989167958495,0.6556155335634947,2.540658880314231
1726225932700251100,12.467251220703124,0.6022010465011001,0.1492465586155653,2.2631746488422153
1726225932710246100,12.47724609375,0.8838160941675305,-0.3132365128546953,2.043731687450409
1726225932720241200,12.4872412109375,1.1063482537463307,-0.7153150922447442,1.75086751601696
1726225932730236200,12.497236083984374,1.3503978331282733,-1.0434697727680207,1.0996797357678412
1726225932740232000,12.50723193359375,1.5588196342900396,-1.1681161431342362,0.7061188093543053
1726225932750227200,12.517227294921875,1.8623291183784603,-0.998061774289608,0.6000555589050054
1726225932760222200,12.52722216796875,2.0495731069549916,-0.7275099724292755,0.5875929676949978
1726225932770217200,12.53721728515625,2.1933961792171,-0.5318061985433101,0.3051099050223827
1726225932780212200,12.547212158203125,1.9569053446516393,-0.6809311766058206,0.0560708467900753
1726225932790207200,12.557207275390626,1.4364002923235297,-0.84794369353652,-0.18846914645731447
