time,seconds_elapsed,z,y,x
1726225920256194000,0.023194091796875,-0.2251625508069992,-0.644507884979248,0.13749101758003235
1726225920266189000,0.03318896484375,-0.26743489503860474,-0.4178486466407776,0.23830071091651917
1726225920276184000,0.04318408203125,-0.28986963629722595,-0.21507368981838226,0.25722381472587585
1726225920286180000,0.05318017578125,-0.2798420488834381,-0.11437291651964188,0.21200093626976013
1726225920296175000,0.063175048828125,-0.2617682218551636,-0.16989901661872864,0.1195671409368515
1726225920306170000,0.073170166015625,-0.21527902781963348,-0.1012941300868988,0.08003810793161392
1726225920316166100,0.083166259765625,-0.17463013529777527,0.009938917122781277,0.07465080171823502
1726225920326161200,0.0931611328125,-0.1767372190952301,0.004168113227933645,0.069338858127594
1726225920336156200,0.10315625,-0.19706059992313385,-0.014876684173941612,0.09216348081827164
1726225920346152200,0.113152099609375,-0.22417238354682922,0.06179678812623024,0.16184934973716736
1726225920356147000,0.12314697265625,-0.2715313732624054,0.18471285700798035,0.23962830007076263
1726225920366142000,0.133141845703125,-0.2562493681907654,-0.1360662281513214,0.2729814648628235
1726225920376138200,0.14313818359375,-0.3724966049194336,-0.538413941860199,0.23498614132404327
1726225920386133200,0.15313330078125,-0.5229585766792297,-1.0415290594100952,0.2685134708881378
1726225920396128300,0.163128173828125,-0.6416375041007996,-1.331394910812378,0.44765767455101013
1726225920406124000,0.1731240234375,-0.701370358467102,-1.4599310159683228,0.6956344246864319
1726225920416119000,0.183119140625,-0.6677109599113464,-1.447202205657959,0.9076564311981201
1726225920426114000,0.193114013671875,-0.6245349645614624,-1.3290553092956543,1.0043970346450806
1726225920436110000,0.203110107421875,-0.6093927621841431,-1.1283470392227173,1.014657735824585
1726225920446105000,0.21310498046875,-0.5596177577972412,-0.7536429166793823,0.9701794385910034
1726225920456100000,0.22310009765625,-0.4338443875312805,-0.2716008722782135,0.8543063998222351
1726225920466096000,0.23309619140625,-0.2710743844509125,0.10559193789958954,0.6531453132629395
1726225920476091100,0.243091064453125,-0.032881516963243484,0.36383599042892456,0.41499292850494385
1726225920486086100,0.253086181640625,0.18971240520477295,0.4640536904335022,0.14952051639556885
1726225920496082200,0.263082275390625,0.3945973813533783,0.4328206777572632,-0.07487130910158157
1726225920506077000,0.273076904296875,0.6682896614074707,0.5016665458679199,-0.24107040464878082
1726225920516072000,0.283072021484375,0.8892750144004822,0.8075788021087646,-0.3693455457687378
1726225920526068200,0.293068115234375,0.9380723834037781,1.1961768865585327,-0.4882618188858032
1726225920536063200,0.303063232421875,0.9095169305801392,1.4455456733703613,-0.605733335018158
1726225920546058200,0.313058349609375,1.0357742309570312,1.3888448476791382,-0.6067309379577637
1726225920556054000,0.323053955078125,1.326592206954956,0.8900414705276489,-0.5228437781333923
1726225920566049000,0.333049072265625,1.6559884548187256,-0.004944158717989922,-0.436611145734787
1726225920576044000,0.3430439453125,2.0492136478424072,-1.0575811862945557,-0.3172208368778229
1726225920586040000,0.3530400390625,2.688812017440796,-1.8027331829071045,-0.1207708939909935
1726225920596035000,0.36303515625,3.3702404499053955,-2.5327513217926025,0.1554846614599228
1726225920606030000,0.373030029296875,4.137939929962158,-3.3224828243255615,0.5225524306297302
1726225920616026000,0.383026123046875,4.296850204467773,-3.6146233081817627,1.0014362335205078
1726225920626021000,0.393021240234375,3.526002883911133,-3.7530338764190674,1.3616364002227783
1726225920636016000,0.40301611328125,2.2543976306915283,-3.508845806121826,1.5558581352233887
1726225920646011100,0.41301123046875,1.5171053409576416,-3.4000561237335205,1.489572525024414
1726225920656007200,0.423007080078125,1.623756766319275,-3.4412484169006348,1.4062364101409912
1726225920666002000,0.433001953125,1.919730544090271,-3.256884813308716,1.4403996467590332
1726225920675997000,0.442996826171875,2.014486074447632,-3.106236457824707,1.4774065017700195
1726225920685993200,0.4529931640625,2.052739143371582,-3.059380054473877,1.4613436460494995
1726225920695988200,0.46298828125,2.127312183380127,-3.005349636077881,1.353872537612915
1726225920705983200,0.472983154296875,2.2896552085876465,-2.8533623218536377,1.22224760055542
1726225920715979000,0.48297900390625,2.5826525688171387,-3.0064125061035156,1.1244676113128662
1726225920725974000,0.49297412109375,3.0103116035461426,-3.5483667850494385,1.161772608757019
1726225920735969000,0.502968994140625,3.6565093994140625,-4.36839485168457,1.255034327507019
1726225920745965000,0.512965087890625,4.442845821380615,-5.1093034744262695,1.2452962398529053
1726225920755959000,0.522958984375,5.191471576690674,-5.381986618041992,1.1304482221603394
1726225920765955300,0.532955322265625,5.9537034034729,-5.194801330566406,1.0106054544448853
1726225920775950000,0.5429501953125,6.616896152496338,-4.843311309814453,0.9646763205528259
1726225920785945000,0.552945068359375,7.152126789093018,-4.484874248504639,0.9684385657310486
1726225920795941000,0.562941162109375,7.632725238800049,-4.186773777008057,1.1306719779968262
1726225920805936000,0.57293603515625,8.159432411193848,-4.005395889282227,1.371363878250122
1726225920815931100,0.58293115234375,8.862345695495605,-3.8341212272644043,1.5890696048736572
1726225920825926100,0.592926025390625,9.578115463256836,-3.479827880859375,1.6595914363861084
1726225920835922000,0.602921875,10.251806259155273,-2.9772448539733887,1.438400149345398
1726225920845917000,0.6129169921875,10.875064849853516,-2.438603401184082,1.0001152753829956
1726225920855912200,0.622912109375,11.412252426147461,-1.9747294187545776,0.5481768250465393
1726225920865908200,0.632908203125,11.882404327392578,-1.6023584604263306,0.29779255390167236
1726225920875903200,0.6429033203125,12.394511222839355,-1.5356636047363281,0.21264222264289856
1726225920885898200,0.652898193359375,12.910981178283691,-1.62526535987854,0.23489773273468018
1726225920895894000,0.66289404296875,13.153687477111816,-1.5878970623016357,0.43350163102149963
1726225920905889000,0.672888916015625,13.106146812438965,-1.2256101369857788,0.8470170497894287
1726225920915884000,0.682884033203125,12.66458797454834,-0.4435151219367981,1.387953519821167
1726225920925879000,0.692879150390625,12.181775093078613,0.5056295990943909,1.9737459421157837
1726225920935875000,0.702875,11.643067359924316,1.2162915468215942,2.3415887355804443
1726225920945870000,0.7128701171875,10.860876083374023,1.647056221961975,2.6544365882873535
1726225920955865000,0.722864990234375,9.749676704406738,1.6885815858840942,3.0797550678253174
1726225920965860600,0.732860595703125,8.34332275390625,1.4133118391036987,3.804546356201172
1726225920975855600,0.742855712890625,6.595577716827393,0.9374369382858276,4.629870414733887
1726225920985850600,0.7528505859375,4.669834613800049,0.5118542313575745,5.258897304534912
1726225920995846400,0.762846435546875,2.7682836055755615,0.369963139295578,5.503631114959717
1726225921005841400,0.77284130859375,0.7457743287086487,0.40665245056152344,5.161135673522949
1726225921015836700,0.782836669921875,-0.9730599522590637,0.5394400358200073,4.569128036499023
1726225921025832700,0.792832763671875,-2.3040502071380615,0.7578714489936829,4.0776753425598145
1726225921035827700,0.80282763671875,-3.4868276119232178,0.9362955093383789,3.6396915912628174
1726225921045822700,0.81282275390625,-4.375428676605225,1.0270252227783203,3.1753907203674316
1726225921055817700,0.822817626953125,-4.939183712005615,1.15288245677948,2.7490198612213135
1726225921065813500,0.8328134765625,-5.317634582519531,1.2504361867904663,2.360257625579834
1726225921075808500,0.84280859375,-5.568378448486328,1.1974432468414307,2.0097734928131104
1726225921085803500,0.852803466796875,-5.765665054321289,0.9994457364082336,1.7750487327575684
1726225921095799800,0.8627998046875,-5.996587753295898,0.5180777907371521,1.4974656105041504
1726225921105794600,0.872794677734375,-6.277765274047852,-0.08855196833610535,1.1473877429962158
1726225921115789600,0.88278955078125,-6.457788467407227,-0.6404537558555603,0.7208396792411804
1726225921125784600,0.89278466796875,-6.354357719421387,-0.972145140171051,0.23558002710342407
1726225921135780600,0.902780517578125,-6.314603328704834,-1.102149248123169,-0.1884085237979889
1726225921145775600,0.912775634765625,-6.327595233917236,-0.9941007494926453,-0.8125994205474854
1726225921155770600,0.9227705078125,-6.338392734527588,-0.7716253399848938,-1.4450958967208862
1726225921165766700,0.9327666015625,-6.366404056549072,-0.6030791997909546,-2.1960670948028564
1726225921175761700,0.94276171875,-6.2288312911987305,-0.32807934284210205,-2.6292052268981934
1726225921185756700,0.952756591796875,-6.024711608886719,-0.13252902030944824,-2.7723309993743896
1726225921195752700,0.962752685546875,-5.980708599090576,-0.29041796922683716,-2.8556017875671387
1726225921205747700,0.972747802734375,-6.111241817474365,-0.7484787702560425,-3.160327434539795
1726225921215742500,0.982742431640625,-6.095348358154297,-0.9331330060958862,-3.503109931945801
1726225921225737500,0.992737548828125,-5.797451972961426,-0.9435960650444031,-3.8322536945343018
1726225921235733500,1.0027333984375,-4.997439384460449,-1.251808762550354,-3.5979225635528564
1726225921245728500,1.012728515625,-4.452403545379639,-1.577966570854187,-3.37717866897583
1726225921255723800,1.022723876953125,-3.9549264907836914,-1.8132132291793823,-3.197565793991089
1726225921265719600,1.032719482421875,-3.311588764190674,-1.7079395055770874,-3.1399595737457275
1726225921275714600,1.042714599609375,-2.903759717941284,-1.221944808959961,-3.1358442306518555
1726225921285709600,1.05270947265625,-2.900625705718994,-0.3294615149497986,-3.638117790222168
1726225921295704600,1.06270458984375,-3.12749981880188,-0.36310550570487976,-4.117300510406494
1726225921305700600,1.07270068359375,-3.356093645095825,-0.42274966835975647,-4.765658378601074
1726225921315695600,1.082695556640625,-3.308227777481079,-0.31499311327934265,-5.532074451446533
1726225921325690600,1.092690673828125,-2.9114809036254883,0.2493152916431427,-6.2414655685424805
1726225921335686700,1.102686767578125,-2.3816030025482178,1.308229923248291,-6.705777645111084
1726225921345681700,1.112681640625,-1.7961351871490479,2.3599960803985596,-6.8903679847717285
1726225921355676700,1.1226767578125,-1.4358845949172974,2.8650147914886475,-6.85410213470459
1726225921365671700,1.132671630859375,-1.516390323638916,2.7963907718658447,-6.572599411010742
1726225921375667500,1.14266748046875,-1.7809919118881226,2.3701436519622803,-6.256237030029297
1726225921385662500,1.152662353515625,-1.85641610622406,1.60858154296875,-5.871938705444336
1726225921395657500,1.162657470703125,-1.9093080759048462,0.753447413444519,-5.323416709899902
1726225921405653800,1.17265380859375,-1.944899082183838,0.08576550334692001,-4.599398612976074
1726225921415648800,1.182648681640625,-1.854642391204834,-0.2969682812690735,-3.835007429122925
1726225921425643800,1.192643798828125,-1.4559136629104614,-0.26204946637153625,-3.1036670207977295
1726225921435638800,1.202638671875,-1.0036671161651611,-0.09285537153482437,-2.4510416984558105
1726225921445634600,1.212634521484375,-0.650574803352356,0.07686708122491837,-1.8134443759918213
1726225921455629600,1.222629638671875,-0.6142157316207886,0.08465922623872757,-1.2092138528823853
1726225921465624600,1.23262451171875,-0.734612762928009,-0.17192195355892181,-0.7024199366569519
1726225921475620600,1.24262060546875,-0.925231397151947,-0.612089991569519,-0.26295918226242065
1726225921485615600,1.25261572265625,-1.0753649473190308,-0.7229808568954468,0.19559533894062042
1726225921495610600,1.262610595703125,-1.0686533451080322,-0.6779499650001526,0.7665137052536011
1726225921505605600,1.272605712890625,-0.9851309657096863,-0.8093149662017822,1.349639654159546
1726225921515601700,1.2826015625,-0.805899977684021,-1.0662524700164795,1.9044482707977295
1726225921525596700,1.2925966796875,-0.5237883925437927,-1.1397511959075928,2.4007182121276855
1726225921535591700,1.302591796875,-0.14847469329833984,-0.9980904459953308,2.6709392070770264
1726225921545587500,1.31258740234375,0.30050763487815857,-0.678278386592865,2.7507002353668213
1726225921555582500,1.32258251953125,0.8630434274673462,-0.10770063102245331,2.812758207321167
1726225921565577500,1.332577392578125,1.5579845905303955,0.3551732897758484,2.9169580936431885
1726225921575572500,1.342572509765625,2.3296902179718018,0.5724800229072571,3.1032345294952393
1726225921585568800,1.35256884765625,3.1549859046936035,0.7393795251846313,3.319549322128296
1726225921595563800,1.362563720703125,3.9748969078063965,0.8628988265991211,3.6690075397491455
1726225921605558500,1.37255859375,4.729503631591797,0.7902371287345886,4.095540523529053
1726225921615553500,1.382553466796875,5.299654006958008,0.243296280503273,4.395761489868164
1726225921625549600,1.392549560546875,5.5053205490112305,-0.7396706342697144,4.500302314758301
1726225921635544600,1.402544677734375,5.454729080200195,-1.8652840852737427,4.6271209716796875
1726225921645539600,1.41253955078125,5.3377885818481445,-2.7160253524780273,4.875218868255615
1726225921655535600,1.42253564453125,5.2712202072143555,-3.2130918502807617,5.160568714141846
1726225921665530600,1.432530517578125,5.329394340515137,-3.5111892223358154,5.325652122497559
1726225921675525600,1.442525634765625,5.644965171813965,-3.6708223819732666,5.667791366577148
1726225921685520600,1.452520751953125,6.163231372833252,-3.1443302631378174,5.948079586029053
1726225921695516700,1.4625166015625,6.831178665161133,-1.9180203676223755,5.810850143432617
1726225921705511700,1.47251171875,7.309895992279053,-0.8312743306159973,4.9789137840271
1726225921715506400,1.48250634765625,7.7362799644470215,0.12632012367248535,4.016875267028809
1726225921725502500,1.49250244140625,8.026911735534668,0.707574725151062,3.382253408432007
1726225921735497700,1.502497802734375,8.005189895629883,0.46057426929473877,3.0430052280426025
1726225921745492700,1.51249267578125,7.670069217681885,-0.47749465703964233,3.2115988731384277
1726225921755487700,1.52248779296875,6.933271408081055,-1.1320282220840454,3.7933433055877686
1726225921765483500,1.5324833984375,6.090715408325195,-1.4022001028060913,4.513351917266846
1726225921775478500,1.542478515625,5.235645294189453,-1.303316354751587,4.941925525665283
1726225921785473500,1.5524736328125,4.4466657638549805,-0.8800234794616699,5.001046657562256
1726225921795468500,1.562468505859375,3.4961745738983154,-0.08116036653518677,4.692034721374512
1726225921805464600,1.572464599609375,2.3481976985931396,0.6337338089942932,3.949784278869629
1726225921815459600,1.58245947265625,1.2098798751831055,1.0591596364974976,3.282418727874756
1726225921825454600,1.59245458984375,0.04940083995461464,1.209986686706543,2.752678632736206
1726225921835450600,1.60245068359375,-1.2921814918518066,0.9518947005271912,2.22774338722229
1726225921845445600,1.612445556640625,-2.622633695602417,0.402504563331604,1.6609150171279907
1726225921855440600,1.622440673828125,-3.79429030418396,0.11973092705011368,0.8365950584411621
1726225921865435600,1.632435546875,-4.6018548011779785,0.4150952100753784,-0.014731542207300663
1726225921875431400,1.642431396484375,-5.127742767333984,0.9766150116920471,-0.6789768934249878
1726225921885426400,1.652426513671875,-5.471159934997559,1.3170803785324097,-1.1455683708190918
1726225921895421400,1.66242138671875,-5.706609725952148,1.3040252923965454,-1.4071154594421387
1726225921905416400,1.67241650390625,-5.78542947769165,0.9854377508163452,-1.5458158254623413
1726225921915412700,1.682412841796875,-5.695309638977051,0.5386735796928406,-1.5807768106460571
1726225921925407700,1.69240771484375,-5.536685466766357,0.0790514126420021,-1.5591713190078735
1726225921935402800,1.70240283203125,-5.800825119018555,-0.11860441416501999,-1.997706651687622
1726225921945398500,1.7123984375,-5.842106342315674,-0.4985852837562561,-2.349438190460205
1726225921955393500,1.7223935546875,-5.593605041503906,-0.6586135625839233,-2.1887080669403076
1726225921965388500,1.732388427734375,-5.502851486206055,-0.43640369176864624,-2.1014904975891113
1726225921975383600,1.742383544921875,-5.416374206542969,-0.3441195487976074,-2.102637767791748
1726225921985379600,1.752379638671875,-5.465245723724365,-0.30280381441116333,-2.1004388332366943
1726225921995374300,1.762374267578125,-5.327240467071533,-0.6988469958305359,-1.9338120222091675
1726225922005369300,1.772369384765625,-4.969791889190674,-1.0595479011535645,-1.6884087324142456
1726225922015364400,1.7823642578125,-4.582884788513184,-0.6881679892539978,-2.0605859756469727
1726225922025360600,1.792360595703125,-4.057665824890137,-0.010094446130096912,-2.668840169906616
1726225922035355600,1.802355712890625,-3.5126094818115234,0.43709877133369446,-3.3627636432647705
1726225922045350700,1.8123505859375,-3.3394112586975098,0.17762592434883118,-3.5995726585388184
1726225922055346400,1.822346435546875,-3.4501752853393555,-0.3568715751171112,-3.6307437419891357
1726225922065341400,1.832341552734375,-3.6176886558532715,-0.8976911306381226,-3.636108160018921
1726225922075336400,1.84233642578125,-3.701112747192383,-0.9254215955734253,-3.634019136428833
1726225922085331500,1.85233154296875,-3.645831346511841,-0.5321352481842041,-3.76131010055542
1726225922095327500,1.862327392578125,-3.4523441791534424,-0.19992749392986298,-3.934929370880127
1726225922105322200,1.872322265625,-3.200061321258545,-0.2806428372859955,-3.8510260581970215
1726225922115317500,1.8823173828125,-2.8271968364715576,-0.4164651334285736,-3.7914795875549316
1726225922125312500,1.8923125,-2.397081136703491,-0.3983375132083893,-3.7996726036071777
1726225922135308500,1.90230859375,-2.006870985031128,-0.5691678524017334,-3.739084482192993
1726225922145303600,1.912303466796875,-1.618166446685791,-0.5389418005943298,-3.5576212406158447
1726225922155298600,1.922298583984375,-1.3887250423431396,-0.43694111704826355,-3.412458896636963
1726225922165293600,1.93229345703125,-1.069291114807129,-0.2833544909954071,-3.4276373386383057
1726225922175289300,1.942289306640625,-0.6895187497138977,0.004384894855320454,-3.6151657104492188
1726225922185284400,1.952284423828125,-0.2605591416358948,0.2894456684589386,-3.946035623550415
1726225922195279400,1.962279296875,0.17888478934764862,0.8643622398376465,-4.243768692016602
1726225922205275600,1.972275634765625,0.6533594131469727,1.2623971700668335,-4.490499019622803
1726225922215270400,1.9822705078125,1.2171308994293213,1.3788257837295532,-4.503081321716309
1726225922225265400,1.992265380859375,1.824127435684204,1.1596863269805908,-4.330616474151611
1726225922235260400,2.002260498046875,2.458665370941162,0.7601236701011658,-4.060995101928711
1726225922245256400,2.01225634765625,3.076714277267456,0.28963127732276917,-3.695296049118042
1726225922255251500,2.02225146484375,3.6994903087615967,-0.17408232390880585,-3.4227566719055176
1726225922265246500,2.03224658203125,4.172389030456543,-0.9675184488296509,-3.2507457733154297
1726225922275241500,2.042241455078125,4.687239170074463,-2.1805226802825928,-3.0517079830169678
1726225922285237500,2.052237548828125,5.4365644454956055,-3.439439296722412,-2.7878918647766113
1726225922295232500,2.062232421875,6.231201648712158,-4.426662921905518,-2.480905294418335
1726225922305227500,2.0722275390625,6.9497222900390625,-4.7290496826171875,-2.1690876483917236
1726225922315222500,2.082222412109375,7.398695945739746,-4.696378231048584,-1.9144504070281982
1726225922325218600,2.092218505859375,7.712484836578369,-4.434325695037842,-1.710822343826294
1726225922335213300,2.10221337890625,7.811375617980957,-3.340334415435791,-1.4673045873641968
1726225922345208300,2.112208251953125,7.559299945831299,-1.1324107646942139,-0.998669445514679
1726225922355203300,2.122203369140625,7.551349639892578,0.8603914380073547,-0.592133104801178
1726225922365199600,2.13219970703125,8.407411575317383,1.2476787567138672,-0.8830296397209167
1726225922375194600,2.142194580078125,9.125907897949219,1.467515468597412,-1.1620423793792725
1726225922385189600,2.152189697265625,9.546565055847168,1.351474642753601,-1.384365200996399
1726225922395185400,2.162185302734375,9.72968864440918,0.8309632539749146,-1.6839380264282227
1726225922405180400,2.172180419921875,9.46969223022461,0.23877662420272827,-1.8848553895950317
1726225922415175400,2.182175537109375,8.597419738769531,-0.22962146997451782,-2.033653974533081
1726225922425170400,2.19217041015625,7.69610595703125,-0.6698957681655884,-2.106313467025757
1726225922435166500,2.20216650390625,6.601715087890625,-1.2834694385528564,-2.0634353160858154
1726225922445161500,2.212161376953125,5.3368120193481445,-2.00750994682312,-1.8014694452285767
1726225922455156500,2.222156494140625,3.5968940258026123,-2.7291698455810547,-1.4319100379943848
1726225922465151500,2.2321513671875,1.9367620944976807,-3.2926743030548096,-1.1088894605636597
1726225922475147500,2.2421474609375,0.33658280968666077,-3.935737371444702,-1.234919548034668
1726225922485142500,2.252142578125,-0.37862321734428406,-3.791332244873047,-1.5400311946868896
1726225922495137500,2.262137451171875,-0.5202093720436096,-3.123793125152588,-1.8530282974243164
1726225922505132500,2.272132568359375,-0.49293753504753113,-2.453866720199585,-1.9894822835922241
1726225922515128300,2.28212841796875,-0.419086217880249,-1.4233934879302979,-1.8527617454528809
1726225922525123300,2.292123291015625,-0.38434821367263794,-0.31999319791793823,-1.395565390586853
1726225922535118600,2.30211865234375,-0.3047947883605957,-0.12823545932769775,-0.8403820395469666
1726225922545113600,2.312113525390625,-0.1334265023469925,-0.590481162071228,-0.1674393266439438
1726225922555109400,2.322109375,0.15342390537261963,-0.3124540448188782,0.4963170886039734
1726225922565104400,2.3321044921875,0.4174198806285858,0.3913981318473816,0.8708611130714417
1726225922575099400,2.342099365234375,0.6103206276893616,0.6613771319389343,1.0234967470169067
1726225922585094400,2.352094482421875,0.7004656791687012,0.7175400257110596,1.046703577041626
1726225922595090400,2.36209033203125,0.7353832125663757,0.7271753549575806,0.9963724613189697
1726225922605085400,2.37208544921875,0.7361696362495422,0.6910831332206726,0.8294878602027893
1726225922615080400,2.38208056640625,0.721474826335907,0.6298043131828308,0.5563678741455078
1726225922625075500,2.392075439453125,0.6915784478187561,0.5704677700996399,0.24226243793964386
1726225922635071500,2.402071533203125,0.6769611835479736,0.480622261762619,-0.07328619807958603
1726225922645066500,2.41206640625,0.7021016478538513,0.37001001834869385,-0.39115551114082336
1726225922655061500,2.4220615234375,0.708034098148346,0.2490292638540268,-0.6719110012054443
1726225922665057500,2.4320576171875,0.7305641770362854,0.11155742406845093,-0.8848688006401062
1726225922675052300,2.44205224609375,0.7694492936134338,-0.08417879045009613,-1.017670750617981
1726225922685047300,2.45204736328125,0.8554039001464844,-0.34540852904319763,-1.1157150268554688
1726225922695042300,2.462042236328125,0.9376230835914612,-0.6335201859474182,-1.204821228981018
1726225922705038600,2.47203857421875,0.9909204244613647,-0.8955590128898621,-1.2932003736495972
1726225922715033600,2.48203369140625,1.0001533031463623,-1.143914818763733,-1.3923296928405762
1726225922725028600,2.492028564453125,0.9516246914863586,-1.310381293296814,-1.4542696475982666
1726225922735023600,2.502023681640625,0.7428978085517883,-1.274962306022644,-1.4533709287643433
1726225922745019400,2.512019287109375,0.6560060977935791,-1.2048814296722412,-1.4431800842285156
1726225922755014400,2.522014404296875,0.6480410695075989,-1.0739036798477173,-1.2239997386932373
1726225922765009400,2.532009521484375,0.7270163297653198,-0.9039823412895203,-0.8518131375312805
1726225922775004400,2.54200439453125,0.8088544607162476,-0.5492308735847473,-0.34879979491233826
1726225922785000400,2.55200048828125,0.945176899433136,-0.12606312334537506,0.1446509212255478
1726225922794995500,2.561995361328125,0.956304132938385,0.17712657153606415,0.6512933373451233
1726225922804990500,2.571990478515625,1.0655381679534912,0.22797004878520966,0.9328517913818359
1726225922814985500,2.5819853515625,1.1271437406539917,0.2645275294780731,1.0800657272338867
1726225922824981500,2.5919814453125,1.1342318058013916,0.33521127700805664,1.1343175172805786
1726225922834976500,2.6019765625,1.13187837600708,0.48560184240341187,1.0956324338912964
1726225922844971500,2.611971435546875,1.1304682493209839,0.6570199728012085,0.967674732208252
1726225922854966500,2.621966552734375,1.0755224227905273,0.7614675164222717,0.810164749622345
1726225922864962600,2.631962646484375,1.0220693349838257,0.7466821670532227,0.6306778192520142
1726225922874957600,2.64195751953125,0.9693373441696167,0.5707987546920776,0.44615671038627625
1726225922884952600,2.65195263671875,0.9089217185974121,0.2792651951313019,0.26532620191574097
1726225922894947600,2.661947509765625,0.8567338585853577,-0.05928649380803108,0.09884615242481232
1726225922904943400,2.671943359375,0.7980667948722839,-0.4128299057483673,-0.04092506319284439
1726225922914938400,2.6819384765625,0.7389206886291504,-0.7383491396903992,-0.16852536797523499
1726225922924933400,2.691933349609375,0.6878992915153503,-0.9985911250114441,-0.28326287865638733
1726225922934928400,2.701928466796875,0.6671522259712219,-1.1975466012954712,-0.3808978199958801
1726225922944924400,2.71192431640625,0.6715307235717773,-1.3314108848571777,-0.45218849182128906
1726225922954919700,2.721919677734375,0.6845221519470215,-1.4305363893508911,-0.49807077646255493
1726225922964915500,2.73191552734375,0.7088906168937683,-1.4973790645599365,-0.532585084438324
1726225922974910500,2.741910400390625,0.7205229997634888,-1.5566887855529785,-0.5366266965866089
1726225922984906800,2.75190673828125,0.7150774002075195,-1.6271525621414185,-0.5155179500579834
1726225922994901800,2.76190185546875,0.6917134523391724,-1.7007015943527222,-0.4716828465461731
1726225923004896800,2.771896728515625,0.6632762551307678,-1.7616655826568604,-0.4168528914451599
1726225923014891500,2.7818916015625,0.618201732635498,-1.7854548692703247,-0.371642529964447
1726225923024887600,2.791887451171875,0.5451605319976807,-1.7567648887634277,-0.3381463587284088
1726225923034882600,2.801882568359375,0.4839773178100586,-1.6400272846221924,-0.33756497502326965
1726225923044877600,2.811877685546875,0.43332159519195557,-1.500638484954834,-0.34959954023361206
1726225923054873600,2.82187353515625,0.38686010241508484,-1.4212521314620972,-0.3391948342323303
1726225923064868600,2.83186865234375,0.3667851984500885,-1.4531506299972534,-0.2953626811504364
1726225923074863600,2.841863525390625,0.350727915763855,-1.5328809022903442,-0.22494469583034515
1726225923084858600,2.851858642578125,0.3092702329158783,-1.6213092803955078,-0.14382748305797577
1726225923094853600,2.861853515625,0.2609895169734955,-1.6583378314971924,-0.06534252315759659
1726225923104849700,2.871849609375,0.21255700290203094,-1.650431513786316,-0.00911280419677496
1726225923114844700,2.8818447265625,0.1640446037054062,-1.5971674919128418,0.045932870358228683
1726225923124839400,2.89183935546875,0.13471706211566925,-1.4864665269851685,0.0962303951382637
1726225923134835500,2.90183544921875,0.10951530933380127,-1.4250627756118774,0.1542191356420517
1726225923144830700,2.911830810546875,0.11522352695465088,-1.2779008150100708,0.20054934918880463
1726225923154825700,2.92182568359375,0.10292744636535645,-1.1320674419403076,0.2420419305562973
1726225923164820700,2.93182080078125,0.07521885633468628,-1.0375922918319702,0.2840737998485565
1726225923174816500,2.94181640625,0.014520619064569473,-0.9533059597015381,0.27764174342155457
1726225923184811500,2.9518115234375,-0.012868926860392094,-0.839301586151123,0.19008125364780426
1726225923194806500,2.961806640625,-0.01284629013389349,-0.7387792468070984,0.06252170354127884
1726225923204801500,2.971801513671875,-0.05181845650076866,-0.6865357756614685,-0.08126822113990784
1726225923214797600,2.981797607421875,-0.08466082811355591,-0.6615532040596008,-0.20360958576202393
1726225923224792600,2.99179248046875,-0.10465823858976364,-0.6076148748397827,-0.27663958072662354
1726225923234787600,3.00178759765625,-0.12160659581422806,-0.5400413870811462,-0.30647844076156616
1726225923244782600,3.011782470703125,-0.13523238897323608,-0.5203795433044434,-0.3234158754348755
1726225923254778600,3.021778564453125,-0.17868052423000336,-0.5447405576705933,-0.32355836033821106
1726225923264773600,3.031773681640625,-0.20752708613872528,-0.5330333113670349,-0.33783555030822754
1726225923274768600,3.0417685546875,-0.22611276805400848,-0.47598889470100403,-0.32956111431121826
1726225923284763600,3.051763671875,-0.2552701234817505,-0.3903147578239441,-0.3091096580028534
1726225923294759400,3.061759521484375,-0.30957090854644775,-0.3285781443119049,-0.24930116534233093
1726225923304754400,3.07175439453125,-0.3438718914985657,-0.2854522466659546,-0.16071218252182007
1726225923314749400,3.08174951171875,-0.32709184288978577,-0.23309211432933807,-0.0743943378329277
1726225923324744700,3.09174462890625,-0.309185266494751,-0.14386555552482605,0.005331648513674736
1726225923334740700,3.10174072265625,-0.2927913963794708,-0.046790409833192825,0.06835535168647766
1726225923344735700,3.11173583984375,-0.2801629602909088,0.04872332885861397,0.1345338374376297
1726225923354730500,3.12173046875,-0.27740204334259033,0.14857642352581024,0.21112582087516785
1726225923364725500,3.1317255859375,-0.28217682242393494,0.2217198759317398,0.3067740499973297
1726225923374721500,3.141721435546875,-0.27547338604927063,0.22073769569396973,0.4243776500225067
1726225923384716500,3.151716552734375,-0.2719404399394989,0.1092042475938797,0.5723854899406433
1726225923394711600,3.161711669921875,-0.2567737400531769,-0.060443371534347534,0.711302638053894
1726225923404706800,3.171706787109375,-0.23479627072811127,-0.18192613124847412,0.809778094291687
1726225923414702600,3.18170263671875,-0.2147676944732666,-0.13033244013786316,0.8409423828125
1726225923424697600,3.191697509765625,-0.20109689235687256,-0.030699588358402252,0.8274787664413452
1726225923434692600,3.201692626953125,-0.17775535583496094,-0.007558583747595549,0.8008559346199036
1726225923444687600,3.2116875,-0.15766100585460663,-0.030532876029610634,0.7678984999656677
1726225923454683600,3.22168359375,-0.1231490969657898,-0.029405025765299797,0.7115595936775208
1726225923464678400,3.231678466796875,-0.08511435985565186,0.04671264439821243,0.6085147261619568
1726225923474673400,3.24167333984375,-0.03515718877315521,0.14979641139507294,0.478680819272995
1726225923484668400,3.25166845703125,0.038552187383174896,0.19095051288604736,0.32040438055992126
1726225923494663700,3.26166357421875,0.10905750840902328,0.2134760618209839,0.12476643174886703
1726225923504659700,3.27165966796875,0.15364602208137512,0.2318558692932129,-0.0943179801106453
1726225923514654700,3.28165478515625,0.17234140634536743,0.2733239531517029,-0.33317768573760986
1726225923524649700,3.291649658203125,0.18049654364585876,0.32111623883247375,-0.570690929889679
1726225923534644500,3.30164453125,0.1753009855747223,0.37630945444107056,-0.7910211682319641
1726225923544640500,3.311640625,0.16929981112480164,0.4305223524570465,-0.9963769912719727
1726225923554635500,3.321635498046875,0.1474831998348236,0.449800968170166,-1.1681170463562012
1726225923564630500,3.331630615234375,0.12320102751255035,0.39529111981391907,-1.290732741355896
1726225923574625500,3.34162548828125,0.09937798231840134,0.3095719814300537,-1.3783107995986938
1726225923584621600,3.35162158203125,0.07013727724552155,0.25833648443222046,-1.4395829439163208
1726225923594616600,3.361616455078125,0.06399629265069962,0.23608869314193726,-1.484125018119812
1726225923604611600,3.371611572265625,0.048894304782152176,0.21538102626800537,-1.4622517824172974
1726225923614606600,3.381606689453125,-0.026337064802646637,0.1825256049633026,-1.3525407314300537
1726225923624602600,3.3916025390625,-0.13824708759784698,0.12244628369808197,-1.1745611429214478
1726225923634597600,3.40159765625,-0.21215353906154633,0.07361456751823425,-0.9594402313232422
1726225923644592600,3.411592529296875,-0.2363763153553009,0.0546904094517231,-0.7240045666694641
1726225923654587400,3.42158740234375,-0.22404535114765167,0.0655001774430275,-0.4615258276462555
1726225923664583700,3.431583740234375,-0.19791148602962494,0.06048251688480377,-0.18690650165081024
1726225923674578700,3.44157861328125,-0.16570881009101868,0.0702696368098259,0.0678541511297226
1726225923684573700,3.45157373046875,-0.13828995823860168,0.09107957780361176,0.29349684715270996
1726225923694568700,3.461568603515625,-0.15804129838943481,0.17102794349193573,0.48214906454086304
1726225923704564500,3.471564453125,-0.1731739193201065,0.287551611661911,0.6155742406845093
1726225923714559500,3.4815595703125,-0.1736985594034195,0.39956629276275635,0.6982680559158325
1726225923724554500,3.491554443359375,-0.17851781845092773,0.5251404643058777,0.7384394407272339
1726225923734549500,3.501549560546875,-0.20153258740901947,0.6720646619796753,0.7497314810752869
1726225923744545800,3.5115458984375,-0.21185046434402466,0.7697669863700867,0.7495336532592773
1726225923754540800,3.521540771484375,-0.23014691472053528,0.841921865940094,0.7613194584846497
1726225923764535600,3.53153564453125,-0.24639832973480225,0.8766993284225464,0.7945964336395264
1726225923774530600,3.541530517578125,-0.24907399713993073,0.9043930172920227,0.8363774418830872
1726225923784526600,3.551526611328125,-0.234872967004776,0.9331932067871094,0.8813542723655701
1726225923794521600,3.561521484375,-0.21109279990196228,0.9707640409469604,0.9304445385932922
1726225923804516600,3.5715166015625,-0.1920168399810791,1.042026162147522,0.9899649024009705
1726225923814511600,3.58151171875,-0.17718543112277985,1.0885218381881714,1.0563883781433105
1726225923824507600,3.591507568359375,-0.1629452407360077,1.1347031593322754,1.1215308904647827
1726225923834502700,3.601502685546875,-0.1464586853981018,1.1840541362762451,1.1718348264694214
1726225923844497700,3.61149755859375,-0.10339882969856262,1.234177589416504,1.179640531539917
1726225923854492700,3.62149267578125,-0.045573342591524124,1.255169153213501,1.1247104406356812
1726225923864488700,3.63148876953125,-0.0011254518758505583,1.2708261013031006,1.0089939832687378
1726225923874483700,3.641483642578125,0.05964069440960884,1.2807341814041138,0.8238528966903687
1726225923884478500,3.651478515625,0.09605755656957626,1.1425904035568237,0.6132170557975769
1726225923894473500,3.661473388671875,0.11317342519760132,0.9640232920646667,0.42242369055747986
1726225923904469500,3.671469482421875,0.10722312331199646,0.7920483350753784,0.2785831689834595
1726225923914464800,3.68146484375,0.1203429251909256,0.6641668081283569,0.1618240475654602
1726225923924459800,3.691459716796875,0.1427435725927353,0.5880749821662903,0.06665918976068497
1726225923934454800,3.701454833984375,0.15037351846694946,0.5175096988677979,-0.009092831052839756
1726225923944449500,3.711449462890625,0.14781396090984344,0.46103206276893616,-0.07895021140575409
1726225923954445600,3.721445556640625,0.14024366438388824,0.45437151193618774,-0.1330065131187439
1726225923964440600,3.731440673828125,0.1121145561337471,0.45419758558273315,-0.1674579679965973
1726225923974434800,3.741434814453125,0.10684442520141602,0.45983338356018066,-0.1971663236618042
1726225923984429800,3.751429931640625,0.10326087474822998,0.5123117566108704,-0.20331823825836182
1726225923994425900,3.76142578125,0.08573168516159058,0.5871681571006775,-0.1747230738401413
1726225924004421000,3.771421142578125,0.06533665955066681,0.6523772478103638,-0.1164373978972435
1726225924014416000,3.781415771484375,0.037467747926712036,0.6585672497749329,-0.04014236107468605
1726225924024411000,3.791410888671875,0.013244965113699436,0.6081011295318604,0.03771675378084183
1726225924034407000,3.801406982421875,-0.016341954469680786,0.5339704751968384,0.12212511152029037
1726225924044402000,3.81140185546875,-0.054549794644117355,0.465861439704895,0.19540704786777496
1726225924054397000,3.82139697265625,-0.08084557950496674,0.4255577027797699,0.24979358911514282
1726225924064392000,3.831391845703125,-0.11387942731380463,0.44820281863212585,0.28097307682037354
1726225924074387700,3.8413876953125,-0.14937910437583923,0.49514901638031006,0.28063511848449707
1726225924084382700,3.8513828125,-0.1827077567577362,0.5157477855682373,0.2511187791824341
1726225924094378000,3.8613779296875,-0.22011186182498932,0.5283573269844055,0.19821427762508392
1726225924104373000,3.871373046875,-0.25913888216018677,0.5403020977973938,0.13990676403045654
1726225924114369000,3.881369140625,-0.294274240732193,0.5266169309616089,0.08956849575042725
1726225924124363800,3.89136376953125,-0.3432955741882324,0.4758445620536804,0.06643468141555786
1726225924134358800,3.90135888671875,-0.4029245376586914,0.43354877829551697,0.08667417615652084
1726225924144353800,3.911353759765625,-0.45032748579978943,0.40674564242362976,0.128137469291687
1726225924154348800,3.921348876953125,-0.49084189534187317,0.3960663676261902,0.15764209628105164
1726225924164344800,3.9313447265625,-0.5019184947013855,0.3857692778110504,0.1675375998020172
1726225924174339800,3.94133984375,-0.5083628296852112,0.381056010723114,0.1663418412208557
1726225924184335000,3.951335205078125,-0.526308000087738,0.38306695222854614,0.1545214056968689
1726225924194329900,3.961329833984375,-0.544394850730896,0.3779403865337372,0.13221076130867004
1726225924204326000,3.971325927734375,-0.5530831813812256,0.3483734130859375,0.10554373264312744
1726225924214321000,3.98132080078125,-0.5581501126289368,0.3127797544002533,0.06881687790155411
1726225924224316000,3.99131591796875,-0.5527358651161194,0.2845670282840729,0.0462372712790966
1726225924234311000,4.001310791015625,-0.5432212352752686,0.2301005721092224,0.030276678502559662
1726225924244306700,4.011306640625,-0.5279183983802795,0.16780124604701996,0.010672351345419884
1726225924254301700,4.0213017578125,-0.5397287607192993,0.1533472090959549,0.0012658004416152835
1726225924264297000,4.031296875,-0.5476324558258057,0.18660423159599304,-0.012371182441711426
1726225924274292000,4.0412919921875,-0.5293186902999878,0.24498338997364044,-0.05034439638257027
1726225924284288000,4.0512880859375,-0.501433789730072,0.2828088104724884,-0.11236435920000076
1726225924294283000,4.061282958984375,-0.4768054485321045,0.27943989634513855,-0.19240273535251617
1726225924304278000,4.071278076171875,-0.4821362793445587,0.25468263030052185,-0.25170788168907166
1726225924314272800,4.081272705078125,-0.5038599371910095,0.2416946440935135,-0.2682543694972992
1726225924324267800,4.091267822265625,-0.526749849319458,0.2359888255596161,-0.2523142695426941
1726225924334263800,4.101263916015625,-0.5357747673988342,0.20178212225437164,-0.2094152718782425
1726225924344258800,4.1112587890625,-0.5421508550643921,0.1567978709936142,-0.1519748866558075
1726225924354254000,4.121254150390625,-0.5236530900001526,0.105416439473629,-0.09704532474279404
1726225924364249000,4.1312490234375,-0.48887407779693604,0.07180654257535934,-0.03922463580965996
1726225924374244900,4.141244873046875,-0.4429183006286621,0.04482579603791237,0.016631441190838814
1726225924384239900,4.151239990234375,-0.4082202613353729,0.04039482772350311,0.08940578252077103
1726225924394235000,4.16123486328125,-0.4024904668331146,0.04900456219911575,0.1912333369255066
1726225924404230000,4.17122998046875,-0.41668376326560974,0.07711848616600037,0.2990410327911377
1726225924414226000,4.181225830078125,-0.4193727672100067,0.13279026746749878,0.38083896040916443
1726225924424221000,4.191220947265625,-0.40790945291519165,0.18785405158996582,0.4118860960006714
1726225924434215700,4.201215576171875,-0.3845213055610657,0.20992153882980347,0.37916091084480286
1726225924444211000,4.2112109375,-0.38067835569381714,0.20330332219600677,0.3121813237667084
1726225924454207000,4.22120703125,-0.39586958289146423,0.22705206274986267,0.24630378186702728
1726225924464202000,4.231201904296875,-0.4025093615055084,0.2803136706352234,0.1884106546640396
1726225924474197000,4.241197021484375,-0.4185354709625244,0.34313446283340454,0.14524267613887787
1726225924484192000,4.25119189453125,-0.44098910689353943,0.3775339722633362,0.10142302513122559
1726225924494186800,4.261186767578125,-0.4669903516769409,0.38850513100624084,0.062244731932878494
1726225924504182800,4.271182861328125,-0.49397537112236023,0.3424082100391388,0.04778802767395973
1726225924514177800,4.281177734375,-0.5092507004737854,0.24869637191295624,0.03761395439505577
1726225924524172800,4.2911728515625,-0.5182200074195862,0.18421457707881927,0.03127136826515198
1726225924534168000,4.30116796875,-0.5241540670394897,0.159298837184906,0.021198762580752373
1726225924544163800,4.311163818359375,-0.5224503874778748,0.15484949946403503,0.0031411985401064157
1726225924554158800,4.321158935546875,-0.5244693756103516,0.12306733429431915,-0.010611365549266338
1726225924564153900,4.33115380859375,-0.527588963508606,0.061645254492759705,0.007683219853788614
1726225924574148900,4.34114892578125,-0.5368962287902832,0.006713296286761761,0.0679020881652832
1726225924584145000,4.351144775390625,-0.5444702506065369,0.0062363240867853165,0.15550597012043
1726225924594140000,4.361139892578125,-0.5563964247703552,0.035593148320913315,0.22460994124412537
1726225924604135000,4.371135009765625,-0.5645025372505188,0.08683209866285324,0.26625964045524597
1726225924614129700,4.381129638671875,-0.5633331537246704,0.16657300293445587,0.26672518253326416
1726225924624126000,4.3911259765625,-0.5525622367858887,0.2436230480670929,0.21871264278888702
1726225924634121000,4.401120849609375,-0.5321813225746155,0.3262641429901123,0.12187930196523666
1726225924644116000,4.411115966796875,-0.512043833732605,0.3749594986438751,-0.011945076286792755
1726225924654111000,4.421111083984375,-0.5058804750442505,0.3692297041416168,-0.14932769536972046
1726225924664106000,4.43110595703125,-0.5122438669204712,0.3218286335468292,-0.27389174699783325
1726225924674101800,4.441101806640625,-0.5143948793411255,0.2542320191860199,-0.404927521944046
1726225924684096800,4.4510966796875,-0.5368823409080505,0.19326932728290558,-0.5507992506027222
1726225924694091800,4.461091796875,-0.5895623564720154,0.15710705518722534,-0.7114996910095215
1726225924704086800,4.471086669921875,-0.6215298771858215,0.07181400060653687,-0.8660517334938049
1726225924714083000,4.4810830078125,-0.623378336429596,-0.0774303451180458,-0.9823256134986877
1726225924724077800,4.491077880859375,-0.6300357580184937,-0.2626579999923706,-1.0329391956329346
1726225924734072800,4.50107275390625,-0.6297398805618286,-0.4541264772415161,-1.0384801626205444
1726225924744067800,4.51106787109375,-0.6015082001686096,-0.6577304601669312,-1.013998031616211
1726225924754064000,4.52106396484375,-0.5780657529830933,-0.8244049549102783,-0.9491572380065918
1726225924764059000,4.531058837890625,-0.5797906517982483,-0.8975920677185059,-0.8687745332717896
1726225924774054000,4.541053955078125,-0.5862014293670654,-0.8938021063804626,-0.8203436136245728
1726225924784049000,4.551048828125,-0.5545154213905334,-0.857682466506958,-0.8193579912185669
1726225924794044000,4.5610439453125,-0.5064549446105957,-0.7910730838775635,-0.8450289964675903
1726225924804040000,4.5710400390625,-0.44945743680000305,-0.701441764831543,-0.8628684282302856
1726225924814035000,4.581034912109375,-0.39322078227996826,-0.6132045388221741,-0.8608084917068481
1726225924824030000,4.591030029296875,-0.3466831147670746,-0.5310279130935669,-0.84602952003479
1726225924834025000,4.60102490234375,-0.31659337878227234,-0.4802582263946533,-0.8355438709259033
1726225924844020700,4.611020751953125,-0.29044780135154724,-0.50411057472229,-0.8476607203483582
1726225924854015700,4.621015625,-0.259308785200119,-0.5900819301605225,-0.8796826004981995
1726225924864010800,4.6310107421875,-0.21668782830238342,-0.7444733381271362,-0.8957710266113281
1726225924874005800,4.641005859375,-0.17378617823123932,-0.8970932364463806,-0.8669955730438232
1726225924884000800,4.651000732421875,-0.12890125811100006,-0.970508337020874,-0.8024362921714783
1726225924893997000,4.6609970703125,-0.055439289659261703,-1.0199835300445557,-0.7077909708023071
1726225924903992000,4.670991943359375,0.022601183503866196,-1.0571521520614624,-0.5876826643943787
1726225924913986800,4.68098681640625,0.06257656216621399,-1.0684304237365723,-0.45325377583503723
1726225924923981800,4.69098193359375,0.09868982434272766,-1.037377953529358,-0.32452189922332764
1726225924933977900,4.700977783203125,0.14914794266223907,-0.9369637370109558,-0.22070148587226868
1726225924943972900,4.710972900390625,0.20910660922527313,-0.8119261860847473,-0.15128858387470245
1726225924953967900,4.7209677734375,0.2515352964401245,-0.6730197072029114,-0.09637606889009476
1726225924963963000,4.730962890625,0.26799869537353516,-0.5435972213745117,-0.05531758442521095
1726225924973959000,4.740958984375,0.2752278447151184,-0.43108826875686646,-0.0214815903455019
1726225924983954000,4.750953857421875,0.29009386897087097,-0.36803820729255676,-0.008888034150004387
1726225924993949000,4.760948974609375,0.3003302812576294,-0.36664697527885437,-0.010613229125738144
1726225925003944000,4.77094384765625,0.3165997862815857,-0.4257217347621918,-0.011668107472360134
1726225925013940000,4.78093994140625,0.340597003698349,-0.5074434876441956,-0.02580949291586876
1726225925023934700,4.790934814453125,0.34809911251068115,-0.5578422546386719,-0.07823861390352249
1726225925033929700,4.8009296875,0.3442106246948242,-0.5998932719230652,-0.1712324619293213
1726225925043924700,4.8109248046875,0.3514898717403412,-0.6914508938789368,-0.30641186237335205
1726225925053919700,4.820919677734375,0.353081613779068,-0.8422465324401855,-0.43507716059684753
1726225925063916000,4.830916015625,0.3348357677459717,-1.0007227659225464,-0.53952556848526
1726225925073911000,4.8409111328125,0.2915644645690918,-1.1516650915145874,-0.6339260935783386
1726225925083906000,4.850906005859375,0.2183738797903061,-1.274910569190979,-0.7038676142692566
1726225925093900800,4.86090087890625,0.15566043555736542,-1.3645890951156616,-0.7510207295417786
1726225925103896800,4.870896728515625,0.1282128244638443,-1.4120173454284668,-0.7741779685020447
1726225925113891800,4.880891845703125,0.11703874170780182,-1.411719799041748,-0.7673389911651611
1726225925123886800,4.890886962890625,0.11789121478796005,-1.3579151630401611,-0.7470691204071045
1726225925133881900,4.9008818359375,0.13593599200248718,-1.2446205615997314,-0.7055115699768066
1726225925143876900,4.910876953125,0.12934227287769318,-1.0714669227600098,-0.6290655136108398
1726225925153873000,4.920872802734375,0.12788125872612,-0.9136477112770081,-0.5410398244857788
1726225925163868000,4.930867919921875,0.121741883456707,-0.762420654296875,-0.4278634488582611
1726225925173863000,4.94086279296875,0.11140774935483932,-0.6023130416870117,-0.2987097203731537
1726225925183858000,4.95085791015625,0.1023348942399025,-0.45715370774269104,-0.1665029674768448
1726225925193854000,4.96085400390625,0.09275976568460464,-0.3538843095302582,-0.07464148104190826
1726225925203849000,4.970848876953125,0.07623644918203354,-0.23983177542686462,-0.026683010160923004
1726225925213843700,4.98084375,0.04577228054404259,-0.15683035552501678,-0.020545221865177155
1726225925223838700,4.990838623046875,0.01984827220439911,-0.145849347114563,-0.03918708488345146
1726225925233833700,5.000833740234375,0.012449478730559349,-0.1277768760919571,-0.042812712490558624
1726225925243830000,5.010830078125,-0.0032487902790308,-0.05631174147129059,0.004165450111031532
1726225925253825000,5.020824951171875,0.0016863135388121009,-0.020445886999368668,0.09401863813400269
1726225925263820000,5.030820068359375,0.008449144661426544,-0.01630813255906105,0.20174802839756012
1726225925273815000,5.04081494140625,-0.008735168725252151,0.041360754519701004,0.3106268346309662
1726225925283810800,5.050810791015625,-0.007893609814345837,0.1774671971797943,0.3721059262752533
1726225925293805800,5.060805908203125,-0.0051899682730436325,0.3615078628063202,0.37062281370162964
1726225925303800800,5.07080078125,-0.02653041109442711,0.5739657878875732,0.35009995102882385
1726225925313795800,5.0807958984375,-0.02448936365544796,0.7349168658256531,0.33569544553756714
1726225925323790800,5.090790771484375,0.014421283267438412,0.8710646033287048,0.34024012088775635
1726225925333787000,5.100786865234375,0.060135241597890854,0.9300333857536316,0.33403682708740234
1726225925343782000,5.110781982421875,0.11517558991909027,0.9504520893096924,0.281497985124588
1726225925353777000,5.12077685546875,0.16543343663215637,0.8913238048553467,0.16421903669834137
1726225925363772000,5.13077197265625,0.14324690401554108,0.8974964618682861,0.03644189611077309
1726225925373768000,5.140767822265625,0.10110584646463394,0.8533066511154175,-0.1100711077451706
1726225925383763000,5.150762939453125,0.08826833963394165,0.7856815457344055,-0.2784625291824341
1726225925393757700,5.1607578125,0.0887618288397789,0.7495469450950623,-0.4425739645957947
1726225925403752700,5.170752685546875,0.0985870286822319,0.6778506636619568,-0.6172562837600708
1726225925413749000,5.1807490234375,0.10735096037387848,0.6761459708213806,-0.7809965014457703
1726225925423744000,5.190743896484375,0.12451422959566116,0.6849408149719238,-0.864410936832428
1726225925433739000,5.200739013671875,0.11459608376026154,0.6754154562950134,-0.8466066718101501
1726225925443734000,5.210734130859375,0.10335754603147507,0.6044417023658752,-0.7733473777770996
1726225925453729000,5.22072900390625,0.09738833457231522,0.48285773396492004,-0.7051964998245239
1726225925463724800,5.230724853515625,0.09239783883094788,0.3432239294052124,-0.7100219130516052
1726225925473719800,5.2407197265625,0.08686991780996323,0.25571033358573914,-0.7584294080734253
1726225925483714800,5.25071484375,0.09173072129487991,0.18975982069969177,-0.7514359354972839
1726225925493709800,5.260709716796875,0.101307712495327,0.18461725115776062,-0.661623477935791
1726225925503705900,5.270705810546875,0.12800003588199615,0.23973563313484192,-0.554931104183197
1726225925513700900,5.280700927734375,0.151228666305542,0.2443748563528061,-0.49059420824050903
1726225925523695900,5.29069580078125,0.17803151905536652,0.2346268892288208,-0.47661662101745605
1726225925533691000,5.30069091796875,0.20465807616710663,0.24675172567367554,-0.4399201273918152
1726225925543686000,5.310685791015625,0.22872185707092285,0.2305501252412796,-0.3236297369003296
1726225925553682000,5.320681884765625,0.25439101457595825,0.2411164790391922,-0.11052224785089493
1726225925563677000,5.330677001953125,0.28275632858276367,0.2158806324005127,0.16840524971485138
1726225925573672000,5.340671875,0.32616132497787476,0.23698538541793823,0.4073520600795746
1726225925583666700,5.350666748046875,0.35945722460746765,0.3442569673061371,0.597449541091919
1726225925593663000,5.3606630859375,0.3975990414619446,0.48204466700553894,0.7485807538032532
1726225925603658000,5.370657958984375,0.42260849475860596,0.5649006962776184,0.8698869347572327
1726225925613653000,5.380653076171875,0.44379955530166626,0.5178684592247009,0.9767100811004639
1726225925623648000,5.39064794921875,0.4699115753173828,0.4244152009487152,1.1053383350372314
1726225925633643000,5.40064306640625,0.4963546395301819,0.3310128152370453,1.2057546377182007
1726225925643638800,5.410638671875,0.4639649987220764,0.2509685754776001,1.2655224800109863
1726225925653633800,5.4206337890625,0.37468600273132324,0.2622910141944885,1.2913979291915894
1726225925663628800,5.43062890625,0.31610843539237976,0.4054931700229645,1.2987158298492432
1726225925673623800,5.440623779296875,0.31287720799446106,0.5684812664985657,1.317945122718811
1726225925683620000,5.4506201171875,0.3407256305217743,0.6633787751197815,1.3443360328674316
1726225925693614800,5.46061474609375,0.35295724868774414,0.7292534112930298,1.3519731760025024
1726225925703609900,5.47060986328125,0.3462141454219818,0.8453658819198608,1.3535186052322388
1726225925713604900,5.48060498046875,0.3323742151260376,0.9548580050468445,1.3358408212661743
1726225925723600000,5.490599853515625,0.3239405155181885,0.9884743094444275,1.2935705184936523
1726225925733596000,5.500595947265625,0.3520573675632477,0.9430514574050903,1.1529582738876343
1726225925743591000,5.5105908203125,0.3712827265262604,0.8662953972816467,0.9121020436286926
1726225925753586000,5.5205859375,0.3890814483165741,0.851032018661499,0.6290567517280579
1726225925763580700,5.53058056640625,0.37860217690467834,0.9023767113685608,0.3471824526786804
1726225925773577000,5.540576904296875,0.32507023215293884,0.937106728553772,0.057311225682497025
1726225925783572000,5.550572021484375,0.24927400052547455,0.7672756314277649,-0.2639442980289459
1726225925793567000,5.56056689453125,0.20589643716812134,0.4940062463283539,-0.5654498338699341
1726225925803562000,5.57056201171875,0.2137836515903473,0.20828396081924438,-0.7774776220321655
1726225925813557000,5.580556884765625,0.26180338859558105,-0.06273581832647324,-0.9071317911148071
1726225925823552800,5.590552734375,0.2474295049905777,-0.3772711157798767,-0.9160078167915344
1726225925833547800,5.6005478515625,0.19943641126155853,-0.7412610650062561,-0.8047710657119751
1726225925843542800,5.610542724609375,0.12866823375225067,-1.0491142272949219,-0.6363903284072876
1726225925853537800,5.620537841796875,0.08530184626579285,-1.2576168775558472,-0.47424161434173584
1726225925863534000,5.6305341796875,0.06259787082672119,-1.3371590375900269,-0.3935891091823578
1726225925873528800,5.64052880859375,0.024469656869769096,-1.34895658493042,-0.35482627153396606
1726225925883523800,5.65052392578125,0.02081499993801117,-1.3316113948822021,-0.3184874355792999
1726225925893518800,5.660518798828125,0.04765274003148079,-1.216459035873413,-0.21234555542469025
1726225925903513900,5.670513916015625,0.05372394993901253,-1.0171512365341187,-0.02329147420823574
1726225925913510000,5.680510009765625,0.06215764582157135,-0.832795262336731,0.19050736725330353
1726225925923505000,5.6905048828125,0.08628721535205841,-0.7462451457977295,0.37817391753196716
1726225925933500000,5.7005,0.12086516618728638,-0.6560593247413635,0.48708444833755493
1726225925943495000,5.710494873046875,0.1438719481229782,-0.576671302318573,0.5203132033348083
1726225925953491000,5.720490966796875,0.18775951862335205,-0.7320995330810547,0.4396423399448395
1726225925963486000,5.73048583984375,0.17030808329582214,-1.0880876779556274,0.2964093089103699
1726225925973481200,5.740481201171875,0.07590381801128387,-1.3787182569503784,0.1908266693353653
1726225925983476200,5.750476318359375,-0.01380822341889143,-1.573097586631775,0.1045495793223381
1726225925993471200,5.76047119140625,-0.10730568319559097,-1.6424795389175415,0.04246889799833298
1726225926003467000,5.770467041015625,-0.13354606926441193,-1.634590983390808,-0.023129288107156754
1726225926013462000,5.7804619140625,-0.11445467174053192,-1.4560394287109375,-0.05967158451676369
1726225926023457000,5.79045703125,-0.07247446477413177,-1.130010724067688,-0.04918166249990463
1726225926033452000,5.8004521484375,-0.018129469826817513,-0.7670865058898926,-0.023086676374077797
1726225926043448300,5.8104482421875,0.02731178142130375,-0.429405152797699,0.023454992100596428
1726225926053443000,5.820443115234375,0.06334488093852997,-0.13284380733966827,0.08603475242853165
1726225926063438000,5.83043798828125,0.09473982453346252,0.1004248708486557,0.14931145310401917
1726225926073433000,5.84043310546875,0.12779471278190613,0.2631317675113678,0.18341749906539917
1726225926083428000,5.850427978515625,0.12499280273914337,0.4006877541542053,0.19108766317367554
1726225926093424000,5.860424072265625,0.09471399337053299,0.5508397221565247,0.16639643907546997
1726225926103419100,5.870419189453125,0.018729479983448982,0.6971313953399658,0.10120118409395218
1726225926113414100,5.8804140625,-0.07921092957258224,0.8725996613502502,0.012976518832147121
1726225926123409200,5.8904091796875,-0.1560543179512024,1.0459139347076416,-0.046840474009513855
1726225926133404000,5.90040380859375,-0.18612167239189148,1.1975373029708862,-0.0880022943019867
1726225926143400200,5.910400146484375,-0.1824835240840912,1.3030599355697632,-0.11702915281057358
1726225926153395200,5.920395263671875,-0.17607861757278442,1.3000409603118896,-0.14097122848033905
1726225926163390200,5.93039013671875,-0.1462395042181015,1.2137788534164429,-0.16186267137527466
1726225926173385200,5.94038525390625,-0.13778503239154816,1.0662671327590942,-0.16360917687416077
1726225926183381000,5.950381103515625,-0.15271924436092377,0.8956727385520935,-0.15400688350200653
1726225926193376000,5.9603759765625,-0.1951516568660736,0.7477344274520874,-0.14436089992523193
1726225926203371000,5.97037109375,-0.2318342924118042,0.6054976582527161,-0.14475984871387482
1726225926213366000,5.980365966796875,-0.2525142729282379,0.44222959876060486,-0.15232083201408386
1726225926223361000,5.990361083984375,-0.28468820452690125,0.28699687123298645,-0.11525415629148483
1726225926233357300,6.000357421875,-0.29342707991600037,0.17630764842033386,-0.046781353652477264
1726225926243352000,6.01035205078125,-0.2671094536781311,0.10072874277830124,0.04954411834478378
1726225926253347000,6.02034716796875,-0.24132207036018372,0.048354484140872955,0.14598730206489563
1726225926263342000,6.030342041015625,-0.22268074750900269,0.05176332965493202,0.23030057549476624
1726225926273338000,6.040338134765625,-0.19662784039974213,0.1376500129699707,0.29343321919441223
1726225926283333000,6.0503330078125,-0.163389191031456,0.253293514251709,0.32024937868118286
1726225926293328100,6.060328125,-0.15822932124137878,0.3664594888687134,0.34881871938705444
1726225926303323100,6.0703232421875,-0.15967221558094025,0.4424240291118622,0.3745725452899933
1726225926313318000,6.08031787109375,-0.15892067551612854,0.4184020459651947,0.39893752336502075
1726225926323314200,6.090314208984375,-0.15911535918712616,0.2719007432460785,0.4285508096218109
1726225926333309200,6.10030908203125,-0.16361422836780548,0.07917151600122452,0.46987083554267883
1726225926343304200,6.11030419921875,-0.1591627597808838,-0.08630745857954025,0.539234459400177
1726225926353299200,6.12029931640625,-0.12813320755958557,-0.14418967068195343,0.6285872459411621
1726225926363294200,6.130294189453125,-0.09812922775745392,-0.12313178181648254,0.7549241185188293
1726225926373290000,6.1402900390625,-0.08509918302297592,-0.12485990673303604,0.8958133459091187
1726225926383285000,6.150284912109375,-0.073642797768116,-0.1610189825296402,1.0246576070785522
1726225926393280000,6.160280029296875,-0.000969923275988549,-0.162621408700943,1.1365727186203003
1726225926403275000,6.17027490234375,0.07159163057804108,-0.0898827537894249,1.2452301979064941
1726225926413271300,6.180271240234375,0.09666768461465836,0.03905339166522026,1.3163866996765137
1726225926423266000,6.19026611328125,0.08962442725896835,0.12232271581888199,1.3166042566299438
1726225926433261000,6.200260986328125,0.104520283639431,0.13087385892868042,1.2475175857543945
1726225926443256000,6.210256103515625,0.12475205212831497,0.116167351603508,1.1443378925323486
1726225926453251000,6.2202509765625,0.13526061177253723,0.08130497485399246,0.9976145625114441
1726225926463247000,6.2302470703125,0.15476295351982117,0.04183639585971832,0.82623291015625
1726225926473242000,6.2402421875,0.20280957221984863,0.03587491065263748,0.6827386021614075
1726225926483237000,6.250237060546875,0.24164244532585144,0.07687614113092422,0.6242300271987915
1726225926493232000,6.260232177734375,0.2846844494342804,0.11236835271120071,0.6116005182266235
1726225926503228200,6.270228271484375,0.31027132272720337,0.05980048328638077,0.6020834445953369
1726225926513223200,6.28022314453125,0.33834022283554077,-0.04254373162984848,0.5777850151062012
1726225926523218200,6.29021826171875,0.37674036622047424,-0.122667595744133,0.5569607019424438
1726225926533213200,6.300213134765625,0.4277745187282562,-0.1186496838927269,0.5237489938735962
1726225926543208200,6.310208251953125,0.46558234095573425,-0.11190149933099747,0.44511622190475464
1726225926553204000,6.320203857421875,0.4743494689464569,-0.07425958663225174,0.3297177255153656
1726225926563199000,6.330198974609375,0.48142069578170776,0.027787156403064728,0.18438608944416046
1726225926573194000,6.340194091796875,0.49500760436058044,0.12707991898059845,0.02876506932079792
1726225926583189000,6.35018896484375,0.5248653888702393,0.1528119146823883,-0.11017604172229767
1726225926593184000,6.36018408203125,0.54423987865448,0.10785616189241409,-0.216158926486969
1726225926603180300,6.37018017578125,0.5243732333183289,0.051417917013168335,-0.32718905806541443
1726225926613175000,6.380175048828125,0.4878213405609131,0.005967345088720322,-0.44111162424087524
1726225926623170000,6.390170166015625,0.395816832780838,-0.03762194514274597,-0.5624889135360718
1726225926633165000,6.4001650390625,0.30586138367652893,-0.06331265717744827,-0.6780349612236023
1726225926643161000,6.4101611328125,0.2579047679901123,-0.09524688869714737,-0.7492049932479858
1726225926653156000,6.420156005859375,0.2420957237482071,-0.17598967254161835,-0.7386258840560913
1726225926663151000,6.430151123046875,0.25067269802093506,-0.2635301649570465,-0.668494701385498
1726225926673146000,6.44014599609375,0.26517945528030396,-0.25528421998023987,-0.5761914253234863
1726225926683141000,6.45014111328125,0.28747040033340454,-0.1049615666270256,-0.4892330765724182
1726225926693137200,6.46013720703125,0.30381980538368225,0.053401704877614975,-0.4243859052658081
1726225926703132200,6.470132080078125,0.30835863947868347,0.2160193771123886,-0.3936980366706848
1726225926713127200,6.480127197265625,0.25432655215263367,0.361034631729126,-0.4227360785007477
1726225926723122200,6.4901220703125,0.15289713442325592,0.48503753542900085,-0.5122217535972595
1726225926733117200,6.5001171875,0.07551659643650055,0.5273165702819824,-0.6160823702812195
1726225926743113000,6.510113037109375,0.03573589399456978,0.5132457613945007,-0.6863219141960144
1726225926753108000,6.52010791015625,0.008452074602246284,0.5013555288314819,-0.7144869565963745
1726225926763103000,6.53010302734375,-0.02183791995048523,0.4573174715042114,-0.7604829668998718
1726225926773098000,6.540097900390625,-0.07544628530740738,0.3213745653629303,-0.8136929273605347
1726225926783093200,6.55009326171875,-0.17382612824440002,0.26049789786338806,-0.8276926279067993
1726225926793089000,6.560089111328125,-0.19092655181884766,0.15533339977264404,-0.847446620464325
1726225926803084000,6.570083984375,-0.21336500346660614,0.013084376230835915,-0.835715651512146
1726225926813079000,6.5800791015625,-0.27014973759651184,-0.03728878125548363,-0.8198626637458801
1726225926823074000,6.590073974609375,-0.3593270182609558,0.0034610440488904715,-0.7744293808937073
1726225926833070000,6.600070068359375,-0.4000754952430725,0.09266149252653122,-0.7317439913749695
1726225926843065000,6.610065185546875,-0.37964504957199097,0.17699848115444183,-0.6350235939025879
1726225926853060000,6.62006005859375,-0.3488794267177582,0.21636106073856354,-0.5030487775802612
1726225926863055000,6.63005517578125,-0.3161875307559967,0.18527372181415558,-0.3555850088596344
1726225926873050000,6.640050048828125,-0.30601823329925537,0.12421515583992004,-0.18830838799476624
1726225926883046100,6.650046142578125,-0.31598085165023804,0.0569775328040123,-0.02515169233083725
1726225926893041200,6.660041259765625,-0.2889031767845154,0.0007360977469943464,0.1138051301240921
1726225926903036200,6.6700361328125,-0.2856658399105072,0.05007115751504898,0.23854413628578186
1726225926913031200,6.68003125,-0.27714771032333374,0.18218232691287994,0.38975149393081665
1726225926923026200,6.690026123046875,-0.24953871965408325,0.2813491225242615,0.5820572972297668
1726225926933022000,6.70002197265625,-0.23054133355617523,0.43215858936309814,0.7699518203735352
1726225926943017000,6.710016845703125,-0.19689974188804626,0.6590452790260315,0.9576261043548584
1726225926953012000,6.720011962890625,-0.16467709839344025,0.821291446685791,1.1032882928848267
1726225926963007200,6.73000732421875,-0.1486818790435791,0.7762720584869385,1.162898063659668
1726225926973003000,6.7400029296875,-0.17472787201404572,0.5899788737297058,1.109908103942871
1726225926982998000,6.749998046875,-0.22205783426761627,0.4136088788509369,0.9490129351615906
1726225926992993000,6.759992919921875,-0.26487720012664795,0.265247106552124,0.7054676413536072
1726225927002988000,6.769988037109375,-0.3329198956489563,0.11389967054128647,0.4220931828022003
1726225927012983000,6.779983154296875,-0.40857258439064026,-0.030314229428768158,0.13325445353984833
1726225927022979000,6.78997900390625,-0.49991607666015625,-0.21238869428634644,-0.10757999122142792
1726225927032974000,6.79997412109375,-0.5898963212966919,-0.42903685569763184,-0.3001401126384735
1726225927042969000,6.809968994140625,-0.6671863198280334,-0.6898585557937622,-0.4212433695793152
1726225927052964000,6.819964111328125,-0.7091183066368103,-0.9133593440055847,-0.51375412940979
1726225927062958800,6.829958740234375,-0.774228572845459,-1.0441598892211914,-0.5601218938827515
1726225927072955100,6.839955078125,-0.8406837582588196,-1.0632939338684082,-0.5743998885154724
1726225927082950100,6.8499501953125,-0.8963992595672607,-1.0627552270889282,-0.6115118265151978
1726225927092945200,6.859945068359375,-0.8881937861442566,-0.9933556318283081,-0.7046074271202087
1726225927102940200,6.869940185546875,-0.8344562649726868,-0.8528432250022888,-0.7735116481781006
1726225927112936000,6.87993603515625,-0.7838782668113708,-0.747324526309967,-0.8005635142326355
1726225927122931000,6.889930908203125,-0.7645519971847534,-0.7710248231887817,-0.8000540733337402
1726225927132926000,6.899926025390625,-0.7701619267463684,-0.7985312938690186,-0.7873952388763428
1726225927142921000,6.9099208984375,-0.7881659865379333,-0.6767539978027344,-0.7462707161903381
1726225927152916000,6.919916015625,-0.8017979264259338,-0.4770307242870331,-0.6907292008399963
1726225927162912300,6.929912353515625,-0.7884021997451782,-0.2531270682811737,-0.6423749327659607
1726225927172907000,6.939906982421875,-0.771840512752533,0.020019780844449997,-0.5676701068878174
1726225927182902000,6.949902099609375,-0.7568677067756653,0.286050409078598,-0.48157596588134766
1726225927192897000,6.95989697265625,-0.7801357507705688,0.44179844856262207,-0.40699759125709534
1726225927202892000,6.96989208984375,-0.755167543888092,0.44704779982566833,-0.3206073045730591
1726225927212888000,6.97988818359375,-0.6911683082580566,0.38775384426116943,-0.27298998832702637
1726225927222883000,6.989883056640625,-0.6815854907035828,0.45807570219039917,-0.26729774475097656
1726225927232878000,6.999878173828125,-0.6560375094413757,0.664911687374115,-0.33406877517700195
1726225927242872800,7.009872802734375,-0.6523551344871521,0.8931347131729126,-0.4339061677455902
1726225927252867800,7.019867919921875,-0.6938522458076477,0.9863656163215637,-0.5493035912513733
1726225927262864100,7.029864013671875,-0.7310768365859985,0.913188636302948,-0.6559836864471436
1726225927272859100,7.039859130859375,-0.7571734189987183,0.8186181783676147,-0.752773106098175
1726225927282854100,7.049854248046875,-0.7689981460571289,0.686509370803833,-0.8688791990280151
1726225927292849200,7.05984912109375,-0.7860794067382812,0.4954662024974823,-0.977977454662323
1726225927302845000,7.069844970703125,-0.8531862497329712,0.29059216380119324,-1.1137866973876953
1726225927312840000,7.07983984375,-0.9579720497131348,0.057608701288700104,-1.3155269622802734
1726225927322835000,7.0898349609375,-1.0536714792251587,-0.13455355167388916,-1.5272738933563232
1726225927332830000,7.099829833984375,-1.1221847534179688,-0.20580962300300598,-1.7230556011199951
1726225927342825000,7.109824951171875,-1.1218498945236206,-0.19291965663433075,-1.839309811592102
1726225927352821000,7.119821044921875,-1.0450688600540161,-0.2843345105648041,-1.8799437284469604
1726225927362816000,7.12981591796875,-0.9526281356811523,-0.46549737453460693,-1.8065882921218872
1726225927372811000,7.13981103515625,-0.8329765796661377,-0.6943137645721436,-1.6186727285385132
1726225927382806000,7.149805908203125,-0.705773651599884,-0.9153423309326172,-1.3516035079956055
1726225927392801000,7.159801025390625,-0.5821489095687866,-1.1427608728408813,-1.031529426574707
1726225927402797000,7.169797119140625,-0.5120742321014404,-1.3207542896270752,-0.7421447038650513
1726225927412792000,7.1797919921875,-0.46446648240089417,-1.3421164751052856,-0.5288800597190857
1726225927422787000,7.189787109375,-0.4485327899456024,-1.2208298444747925,-0.36085033416748047
1726225927432781800,7.19978173828125,-0.41423818469047546,-1.0440489053726196,-0.21496476233005524
1726225927442776800,7.20977685546875,-0.39162102341651917,-0.8523510694503784,-0.07668279111385345
1726225927452773000,7.219773193359375,-0.3456900119781494,-0.6255509853363037,0.07279830425977707
1726225927462768000,7.22976806640625,-0.2770718038082123,-0.5036133527755737,0.22840707004070282
1726225927472763100,7.23976318359375,-0.19340381026268005,-0.4548090696334839,0.35526594519615173
1726225927482758100,7.249758056640625,-0.12162070721387863,-0.4174414575099945,0.4581049680709839
1726225927492753200,7.259753173828125,-0.11347303539514542,-0.3349018394947052,0.5322937369346619
1726225927502749000,7.2697490234375,-0.08774503320455551,-0.22944384813308716,0.5456518530845642
1726225927512744000,7.279743896484375,-0.06497766822576523,-0.1416303664445877,0.5041432976722717
1726225927522739000,7.289739013671875,-0.08262750506401062,-0.10932409018278122,0.4413401186466217
1726225927532734000,7.29973388671875,-0.11808563023805618,-0.1223813071846962,0.37210166454315186
1726225927542730000,7.30972998046875,-0.14165060222148895,-0.1267707347869873,0.3108161985874176
1726225927552725000,7.31972509765625,-0.13134416937828064,-0.04510888829827309,0.23018287122249603
1726225927562720000,7.329719970703125,-0.09085240960121155,0.15786845982074738,0.10200812667608261
1726225927572715000,7.339715087890625,-0.09930741041898727,0.35783642530441284,-0.06157228350639343
1726225927582710000,7.3497099609375,-0.10142675787210464,0.4846806526184082,-0.2505944073200226
1726225927592706000,7.3597060546875,-0.08929978311061859,0.5879932045936584,-0.4466366171836853
1726225927602701000,7.369701171875,-0.08470609784126282,0.7325122952461243,-0.6019284725189209
1726225927612695800,7.37969580078125,-0.07582978159189224,0.8212776184082031,-0.728342592716217
1726225927622690800,7.38969091796875,-0.01599760912358761,0.8648993968963623,-0.8461363315582275
1726225927632685800,7.399685791015625,0.08190818130970001,0.9381014108657837,-0.9304810762405396
1726225927642682000,7.40968212890625,0.12467934936285019,0.9525858163833618,-0.9079807996749878
1726225927652677000,7.419677001953125,0.11605576425790787,0.845948338508606,-0.744194507598877
1726225927662672100,7.429672119140625,0.09114109724760056,0.6165692210197449,-0.4750139117240906
1726225927672667100,7.439667236328125,0.14875832200050354,0.2666572630405426,-0.06352251768112183
1726225927682662000,7.449661865234375,0.29527291655540466,-0.18976753950119019,0.429585725069046
1726225927692658000,7.459657958984375,0.5001459121704102,-0.5051012635231018,0.8424111008644104
1726225927702653000,7.46965283203125,0.609984278678894,-0.5749953985214233,1.1556051969528198
1726225927712648000,7.47964794921875,0.6156735420227051,-0.5225231051445007,1.379976511001587
1726225927722643000,7.489642822265625,0.6056057810783386,-0.3548795282840729,1.4591683149337769
1726225927732639000,7.499638916015625,0.5846115350723267,-0.18003208935260773,1.3927525281906128
1726225927742634000,7.509634033203125,0.5491747260093689,-0.1562063843011856,1.2766413688659668
1726225927752629000,7.51962890625,0.48027926683425903,-0.28024789690971375,1.1216107606887817
1726225927762624000,7.5296240234375,0.3487420082092285,-0.4976843595504761,0.9633958339691162
1726225927772619000,7.539618896484375,0.2651938498020172,-0.7662878632545471,0.7683701515197754
1726225927782615000,7.549614990234375,0.22384721040725708,-0.9982539415359497,0.5302037000656128
1726225927792610000,7.559610107421875,0.20812684297561646,-1.178133487701416,0.3413274884223938
1726225927802604800,7.569604736328125,0.24858398735523224,-1.3581799268722534,0.1951572448015213
1726225927812599800,7.579599853515625,0.3185681402683258,-1.5685938596725464,0.06476514786481857
1726225927822595000,7.589594970703125,0.40776458382606506,-1.7334480285644531,-0.039496276527643204
1726225927832591000,7.599591064453125,0.4662366807460785,-1.7923625707626343,-0.13452185690402985
1726225927842586000,7.609586181640625,0.48155197501182556,-1.7645407915115356,-0.22619159519672394
1726225927852581000,7.6195810546875,0.477700799703598,-1.6078683137893677,-0.3353298008441925
1726225927862576000,7.629576171875,0.45239171385765076,-1.3538546562194824,-0.4887470602989197
1726225927872571000,7.63957080078125,0.44008150696754456,-1.0632082223892212,-0.6643702983856201
1726225927882567000,7.64956689453125,0.46377032995224,-0.7416219115257263,-0.808881938457489
1726225927892562000,7.65956201171875,0.49039527773857117,-0.4214012920856476,-0.8282257914543152
1726225927902557000,7.669556884765625,0.5143096446990967,-0.1515093594789505,-0.71235591173172
1726225927912552200,7.67955224609375,0.5124734044075012,0.09072910249233246,-0.537220299243927
1726225927922547200,7.689547119140625,0.5383992791175842,0.28262344002723694,-0.3608196973800659
1726225927932543000,7.69954296875,0.5735684633255005,0.45825305581092834,-0.1676981896162033
1726225927942538000,7.7095380859375,0.5692964792251587,0.566361129283905,0.05257399380207062
1726225927952533000,7.719532958984375,0.565308690071106,0.5584177374839783,0.250751256942749
1726225927962528000,7.729528076171875,0.5425820350646973,0.5198498368263245,0.38971659541130066
1726225927972522000,7.73952197265625,0.49111059308052063,0.5146550536155701,0.4366987645626068
1726225927982518300,7.749518310546875,0.42904403805732727,0.5205364227294922,0.39424797892570496
1726225927992513300,7.75951318359375,0.3669455051422119,0.5002835988998413,0.2848852574825287
1726225928002508300,7.76950830078125,0.31771165132522583,0.36727359890937805,0.08942042291164398
1726225928012503000,7.7795029296875,0.24917466938495636,0.16310423612594604,-0.14683444797992706
1726225928022499000,7.7894990234375,0.17497020959854126,-0.013738182373344898,-0.37978246808052063
1726225928032494000,7.799494140625,0.13972727954387665,-0.1353817880153656,-0.5805802941322327
1726225928042489000,7.809489013671875,0.12873508036136627,-0.2264816015958786,-0.6685013771057129
1726225928052484000,7.819484130859375,0.13308800756931305,-0.3315257430076599,-0.6364542245864868
1726225928062479000,7.82947900390625,0.1662542223930359,-0.4542796313762665,-0.5006684064865112
1726225928072475100,7.83947509765625,0.2108003795146942,-0.531239926815033,-0.29873397946357727
1726225928082470100,7.84947021484375,0.2605932354927063,-0.4699594974517822,-0.1454695761203766
1726225928092465200,7.859465087890625,0.3134732246398926,-0.19445230066776276,-0.08103306591510773
1726225928102460200,7.869460205078125,0.3538305163383484,0.08479371666908264,-0.08204933255910873
1726225928112455200,7.879455078125,0.39230039715766907,0.24029569327831268,-0.07338926196098328
1726225928122451000,7.889450927734375,0.46907588839530945,0.2599460780620575,-0.02328455075621605
1726225928132446000,7.899446044921875,0.5426859259605408,0.25077709555625916,0.07794513553380966
1726225928142441000,7.90944091796875,0.5699646472930908,0.2905561923980713,0.19638149440288544
1726225928152436000,7.91943603515625,0.5637328624725342,0.46140649914741516,0.2202889621257782
1726225928162431000,7.929430908203125,0.5769072771072388,0.7388631701469421,0.14661048352718353
1726225928172427300,7.93942724609375,0.5677659511566162,0.8974144458770752,0.045946452766656876
1726225928182422300,7.94942236328125,0.5787467360496521,0.919992208480835,-0.022236330434679985
1726225928192417000,7.9594169921875,0.5269325375556946,0.8965446352958679,-0.016593890264630318
1726225928202412000,7.969412109375,0.48294320702552795,0.8466045260429382,-0.01387187372893095
1726225928212407000,7.979406982421875,0.46041473746299744,0.737841010093689,-0.0593155212700367
1726225928222403000,7.989403076171875,0.4205426871776581,0.44860655069351196,-0.10708250850439072
1726225928232398000,7.999398193359375,0.35672271251678467,0.1787218153476715,-0.20272861421108246
1726225928242393000,8.00939306640625,0.2810995876789093,-0.020003002136945724,-0.3448636531829834
1726225928252388000,8.01938818359375,0.18503136932849884,-0.21763990819454193,-0.5160404443740845
1726225928262383000,8.029383056640626,0.06352011859416962,-0.4121982157230377,-0.6967782974243164
1726225928272379100,8.039379150390625,-0.05218863487243652,-0.5366751551628113,-0.8144069314002991
1726225928282374100,8.0493740234375,-0.11517079919576645,-0.5965275764465332,-0.8685359358787537
1726225928292369200,8.059369140625,-0.14938601851463318,-0.6848928332328796,-0.8728054761886597
1726225928302364200,8.0693642578125,-0.18382203578948975,-0.839527428150177,-0.8104811310768127
1726225928312359200,8.079359130859375,-0.2140323966741562,-0.9304690361022949,-0.6985535621643066
1726225928322355000,8.08935498046875,-0.2402285784482956,-0.8799321055412292,-0.5424547791481018
1726225928332350000,8.099349853515625,-0.2339368611574173,-0.7888906002044678,-0.36507198214530945
1726225928342345000,8.109344970703125,-0.2178838551044464,-0.6561099290847778,-0.1685274988412857
1726225928352340000,8.119340087890626,-0.15825489163398743,-0.5702624320983887,-0.013496100902557373
1726225928362335200,8.129335205078124,-0.1006014421582222,-0.4886796772480011,0.12375842779874802
1726225928372331300,8.139331298828125,-0.09306549280881882,-0.2661600410938263,0.28354570269584656
1726225928382326000,8.149325927734376,-0.1085006445646286,0.016638098284602165,0.4612232744693756
1726225928392321000,8.159321044921874,-0.10716772824525833,0.2791171371936798,0.6230771541595459
1726225928402316000,8.16931591796875,-0.10961304605007172,0.46047359704971313,0.7601561546325684
1726225928412312000,8.17931201171875,-0.14485439658164978,0.5068759918212891,0.8668727874755859
1726225928422307000,8.18930712890625,-0.17087773978710175,0.4717126786708832,0.9620820879936218
1726225928432302000,8.199302001953125,-0.19038325548171997,0.4202958047389984,1.0453490018844604
1726225928442297000,8.209297119140626,-0.18339060246944427,0.3978427052497864,1.100730538368225
1726225928452292000,8.2192919921875,-0.15283802151679993,0.399441123008728,1.1473380327224731
1726225928462288100,8.2292880859375,-0.14239069819450378,0.40529850125312805,1.18046236038208
1726225928472283100,8.239283203125,-0.13792191445827484,0.05288372188806534,1.1324690580368042
1726225928482278100,8.249278076171874,-0.12482316046953201,-0.7637724876403809,0.9910381436347961
1726225928492273200,8.259273193359375,-0.11655724048614502,-1.6135648488998413,0.8671321868896484
1726225928502268200,8.26926806640625,-0.13214018940925598,-2.019782066345215,0.730438232421875
1726225928512264000,8.279263916015625,-0.1879829466342926,-1.752790927886963,0.5810021162033081
1726225928522259000,8.289259033203125,-0.2843582332134247,-1.005016803741455,0.43769052624702454
1726225928532254000,8.29925390625,-0.3585973083972931,-0.20617474615573883,0.3168272078037262
1726225928542249200,8.309249267578124,-0.3976040780544281,0.3739757239818573,0.2328692078590393
1726225928552244200,8.319244140625,-0.4028068482875824,0.7887822389602661,0.2029765546321869
1726225928562240000,8.329239990234376,-0.40397703647613525,1.1523360013961792,0.24367843568325043
1726225928572235000,8.339235107421874,-0.3706776797771454,1.4363043308258057,0.33747389912605286
1726225928582230000,8.34922998046875,-0.349045068025589,1.6729665994644165,0.48540398478507996
1726225928592225000,8.35922509765625,-0.34154534339904785,1.8633540868759155,0.7053049206733704
1726225928602220000,8.369219970703124,-0.31312915682792664,1.932185411453247,0.9232990145683289
1726225928612216000,8.379216064453125,-0.2759104073047638,1.8212426900863647,1.0977187156677246
1726225928622211000,8.389211181640626,-0.23524074256420135,1.5215473175048828,1.1689082384109497
1726225928632206000,8.3992060546875,-0.25117284059524536,1.1406329870224,1.1904313564300537
1726225928642201000,8.409201171875,-0.3005284070968628,0.7652878165245056,1.172752022743225
1726225928652196000,8.419196044921875,-0.3490288257598877,0.4229390025138855,1.092656135559082
1726225928662192000,8.429192138671874,-0.37580743432044983,0.1997448056936264,0.9142754673957825
1726225928672187100,8.439187255859375,-0.3817063570022583,0.11359873414039612,0.733350932598114
1726225928682182100,8.44918212890625,-0.3588534891605377,0.014741129241883755,0.6431073546409607
1726225928692177200,8.45917724609375,-0.32769346237182617,-0.16665315628051758,0.6418747901916504
1726225928702172200,8.469172119140625,-0.2452603578567505,-0.33294039964675903,0.6690803170204163
1726225928712168200,8.479168212890626,-0.18862584233283997,-0.42743468284606934,0.6553024649620056
1726225928722163200,8.4891630859375,-0.14334091544151306,-0.38475778698921204,0.5769674777984619
1726225928732158200,8.499158203125,-0.0973782166838646,-0.16963110864162445,0.44807764887809753
1726225928742153200,8.5091533203125,-0.07280150055885315,0.022526614367961884,0.33793118596076965
1726225928752148200,8.519148193359374,-0.03674842789769173,0.17729808390140533,0.24167707562446594
1726225928762144000,8.52914404296875,0.023186013102531433,0.2921580970287323,0.22232042253017426
1726225928772139000,8.539138916015625,0.07870279997587204,0.34499838948249817,0.21394318342208862
1726225928782134000,8.549134033203124,0.1362377256155014,0.39114299416542053,0.20684346556663513
1726225928792129000,8.55912890625,0.19529733061790466,0.4065096974372864,0.19683903455734253
1726225928802124000,8.5691240234375,0.27877944707870483,0.34029072523117065,0.16653944551944733
1726225928812120300,8.579120361328124,0.34194323420524597,0.28752657771110535,0.07783860713243484
1726225928822115000,8.589114990234375,0.41016489267349243,0.3078419864177704,-0.03434838727116585
1726225928832110000,8.599110107421875,0.41667047142982483,0.3220382332801819,-0.2026630938053131
1726225928842105000,8.60910498046875,0.40186408162117004,0.3031071424484253,-0.36641740798950195
1726225928852100000,8.61910009765625,0.3961199223995209,0.1645125150680542,-0.5145562887191772
1726225928862096100,8.62909619140625,0.3583562970161438,-0.11742623150348663,-0.6752482056617737
1726225928872091100,8.639091064453124,0.28699395060539246,-0.41074731945991516,-0.8081801533699036
1726225928882086100,8.649086181640625,0.21652857959270477,-0.6379637122154236,-0.8432284593582153
1726225928892081000,8.659080810546875,0.20161381363868713,-0.8200221657752991,-0.7862567901611328
1726225928902076000,8.669075927734376,0.24747930467128754,-1.0281095504760742,-0.6941840648651123
1726225928912072200,8.679072265625,0.26828551292419434,-1.1462311744689941,-0.6094111204147339
1726225928922067200,8.689067138671875,0.23337599635124207,-1.1572697162628174,-0.4975607693195343
1726225928932062200,8.699062255859374,0.23143349587917328,-1.1142873764038086,-0.3784375786781311
1726225928942057200,8.70905712890625,0.2667456865310669,-1.0151746273040771,-0.26536720991134644
1726225928952052200,8.71905224609375,0.29190003871917725,-0.81419438123703,-0.17050835490226746
1726225928962048000,8.729048095703124,0.2690003216266632,-0.6341663002967834,-0.07973770797252655
1726225928972043800,8.739043701171875,0.25664642453193665,-0.6265270113945007,-0.04951775074005127
1726225928982038800,8.749038818359375,0.2298361212015152,-0.5934880971908569,-0.06332916766405106
1726225928992033800,8.75903369140625,0.21515412628650665,-0.4748956859111786,-0.06055788695812225
1726225929002028800,8.76902880859375,0.2402365654706955,-0.3682507276535034,-0.03531458228826523
1726225929012024600,8.779024658203125,0.2549417316913605,-0.30808699131011963,0.08426268398761749
1726225929022019600,8.78901953125,0.25475558638572693,-0.2841086983680725,0.2507731020450592
1726225929032014600,8.7990146484375,0.2578318119049072,-0.27452582120895386,0.3962053954601288
1726225929042009900,8.809009765625,0.2891519069671631,-0.09725011885166168,0.540203332901001
1726225929052004900,8.8190048828125,0.37568920850753784,0.31206682324409485,0.7047256827354431
1726225929062000600,8.829000732421875,0.48218822479248047,0.7362079620361328,0.8619475364685059
1726225929071995600,8.83899560546875,0.5602867603302002,1.0637747049331665,1.029900312423706
1726225929081990700,8.84899072265625,0.6242377758026123,1.2870104312896729,1.1702326536178589
1726225929091985700,8.858985595703125,0.6717895865440369,1.3859244585037231,1.2106431722640991
1726225929101981700,8.868981689453125,0.695536732673645,1.413712978363037,1.1710132360458374
1726225929111976700,8.878976806640624,0.6706939339637756,1.2782506942749023,1.0539270639419556
1726225929121971700,8.8889716796875,0.5759096741676331,0.9166104793548584,0.8895139098167419
1726225929131966700,8.898966796875,0.4498555660247803,0.5182144045829773,0.728349506855011
1726225929141961700,8.908961669921876,0.31719687581062317,0.18471844494342804,0.5336833596229553
1726225929151957800,8.918957763671875,0.16889022290706635,-0.05217159166932106,0.2958526909351349
1726225929161952800,8.928952880859375,0.03767867013812065,-0.15075436234474182,0.022461365908384323
1726225929171947800,8.93894775390625,-0.05073641240596771,-0.24509896337985992,-0.2552141845226288
1726225929181942800,8.94894287109375,-0.11430340260267258,-0.3690616488456726,-0.502096951007843
1726225929191937800,8.958937744140625,-0.19461528956890106,-0.5000516176223755,-0.6711677312850952
1726225929201933600,8.96893359375,-0.26724448800086975,-0.5915061831474304,-0.7394199967384338
1726225929211928600,8.978928466796875,-0.30391594767570496,-0.6371365189552307,-0.7228010892868042
1726225929221923800,8.988923828125,-0.3151257336139679,-0.6445273160934448,-0.6399282813072205
1726225929231918800,8.9989189453125,-0.3238430619239807,-0.5677883625030518,-0.5446491837501526
1726225929241913900,9.008913818359375,-0.30109646916389465,-0.3786937892436981,-0.44235503673553467
1726225929251908900,9.018908935546875,-0.22841906547546387,-0.12043506652116776,-0.31959664821624756
1726225929261904600,9.028904541015624,-0.15969911217689514,0.14456383883953094,-0.17855775356292725
1726225929271899600,9.038899658203125,-0.1082758754491806,0.46939918398857117,0.02582041174173355
1726225929281894700,9.048894775390625,-0.04409795254468918,0.8471390008926392,0.22100429236888885
1726225929291889700,9.0588896484375,0.03624482452869415,1.217658281326294,0.3610500693321228
1726225929301885700,9.0688857421875,0.10238709300756454,1.4755182266235352,0.47608453035354614
1726225929311880700,9.078880615234375,0.15624046325683594,1.5663248300552368,0.5695556402206421
1726225929321875700,9.088875732421876,0.1946171522140503,1.5950039625167847,0.6339766979217529
1726225929331870700,9.09887060546875,0.18101266026496887,1.6419261693954468,0.6448906064033508
1726225929341865700,9.10886572265625,0.1375967413187027,1.6569429636001587,0.5593093633651733
1726225929351861800,9.11886181640625,0.017595771700143814,1.601558804512024,0.4197855591773987
1726225929361856800,9.128856689453125,-0.1570119857788086,1.459313154220581,0.2605828642845154
1726225929371851800,9.138851806640625,-0.3093181550502777,1.1458998918533325,0.08499931544065475
1726225929381846800,9.1488466796875,-0.4617854654788971,0.7507142424583435,-0.08711838722229004
1726225929391841500,9.158841552734375,-0.4777013063430786,0.29905009269714355,-0.38962098956108093
1726225929401837800,9.168837890625,-0.47107139229774475,-0.3484432101249695,-0.8371649384498596
1726225929411832800,9.178832763671876,-0.6203705668449402,-0.741198718547821,-1.2245405912399292
1726225929421827800,9.188827880859375,-0.823917031288147,-0.7593410015106201,-1.446466088294983
1726225929431822800,9.19882275390625,-1.017433762550354,-0.7036558985710144,-1.519598126411438
1726225929441817900,9.20881787109375,-1.1984318494796753,-0.8075774908065796,-1.505255103111267
1726225929451813600,9.218813720703125,-1.2792342901229858,-1.1140916347503662,-1.3977382183074951
1726225929461808600,9.22880859375,-1.225583553314209,-1.4820104837417603,-1.1951278448104858
1726225929471803600,9.2388037109375,-1.115963339805603,-1.6788407564163208,-0.9661908149719238
1726225929481798700,9.248798583984374,-1.0069425106048584,-1.6208930015563965,-0.7449654936790466
1726225929491793700,9.258793701171875,-0.9091749787330627,-1.3965603113174438,-0.5692802667617798
1726225929501789700,9.268789794921876,-0.7834756374359131,-1.0568450689315796,-0.45499521493911743
1726225929511784700,9.27878466796875,-0.6469001770019531,-0.5359705090522766,-0.3625377118587494
1726225929521779700,9.28877978515625,-0.5188945531845093,-0.027662521228194237,-0.29502204060554504
1726225929531774700,9.298774658203126,-0.4338960647583008,0.43982237577438354,-0.26878857612609863
1726225929541769700,9.308769775390624,-0.4015255868434906,0.8787289261817932,-0.25381895899772644
1726225929551765800,9.318765869140625,-0.4183514416217804,1.2166353464126587,-0.2585875988006592
1726225929561760800,9.3287607421875,-0.42197999358177185,1.4416931867599487,-0.2856203019618988
1726225929571755500,9.338755615234374,-0.39911648631095886,1.5167953968048096,-0.38209038972854614
1726225929581750500,9.34875048828125,-0.4011154770851135,1.40736985206604,-0.45742136240005493
1726225929591745500,9.35874560546875,-0.3759475350379944,1.1911336183547974,-0.4612909257411957
1726225929601741800,9.368741943359375,-0.308245450258255,0.9567845463752747,-0.4249768555164337
1726225929611736800,9.37873681640625,-0.2204037457704544,0.7977712154388428,-0.37223321199417114
1726225929621731800,9.38873193359375,-0.1647482067346573,0.7352878451347351,-0.3340725302696228
1726225929631726800,9.398726806640624,-0.10619115084409714,0.6816613674163818,-0.3317486345767975
1726225929641721600,9.4087216796875,-0.08655646443367004,0.518769383430481,-0.3909406065940857
1726225929651716600,9.418716552734375,-0.1301678568124771,0.31354379653930664,-0.45289212465286255
1726225929661712600,9.428712646484374,-0.19962257146835327,0.11222454160451889,-0.5219316482543945
1726225929671707600,9.438707763671875,-0.26263001561164856,-0.045701175928115845,-0.6329066157341003
1726225929681702700,9.44870263671875,-0.3173303008079529,-0.233958438038826,-0.7588014602661133
1726225929691698000,9.458697998046874,-0.3891701102256775,-0.4608219265937805,-0.8492740988731384
1726225929701693700,9.468693603515625,-0.4273262917995453,-0.7432578802108765,-0.8756816983222961
1726225929711688700,9.478688720703126,-0.4269507825374603,-0.9870894551277161,-0.8334863185882568
1726225929721683700,9.48868359375,-0.42752256989479065,-1.0632805824279785,-0.7324779629707336
1726225929731678700,9.4986787109375,-0.3895248472690582,-1.0772182941436768,-0.6317252516746521
1726225929741673700,9.508673828125,-0.32096123695373535,-1.0283596515655518,-0.48447054624557495
1726225929751668700,9.518668701171874,-0.21775203943252563,-0.9484115839004517,-0.3067716658115387
1726225929761664500,9.52866455078125,-0.10641033202409744,-0.8428468108177185,-0.13515223562717438
1726225929771659500,9.538659423828125,-0.02755093388259411,-0.6767627596855164,0.01056209672242403
1726225929781654800,9.54865478515625,0.05229942500591278,-0.4837088882923126,0.07749399542808533
1726225929791649800,9.55864990234375,0.10414291173219681,-0.32529741525650024,0.04803543537855148
1726225929801645800,9.568645751953126,0.12277226150035858,-0.17828239500522614,-0.02322595939040184
1726225929811640800,9.578640869140624,0.11398835480213165,-0.03151398524641991,-0.06806427240371704
1726225929821635800,9.5886357421875,0.10837014764547348,0.0872853696346283,-0.1251203715801239
1726225929831630600,9.598630615234375,0.11105594784021378,0.16562065482139587,-0.20032057166099548
1726225929841625600,9.60862548828125,0.11086366325616837,0.1442573070526123,-0.26811906695365906
1726225929851620600,9.61862060546875,0.09588099271059036,-0.02436606027185917,-0.3241210877895355
1726225929861616600,9.62861669921875,0.06627782434225082,-0.2721305787563324,-0.3522387444972992
1726225929871612000,9.63861181640625,0.0500064417719841,-0.5444880723953247,-0.3444069027900696
1726225929881607000,9.64860693359375,0.050280481576919556,-0.7699726223945618,-0.3581315279006958
1726225929891602000,9.658601806640625,0.034016821533441544,-0.9776298999786377,-0.4748477339744568
1726225929901596700,9.6685966796875,-0.033779267221689224,-1.0277130603790283,-0.62493896484375
1726225929911592700,9.6785927734375,-0.12642104923725128,-0.9893915057182312,-0.7457519173622131
1726225929921587700,9.688587646484375,-0.2093082219362259,-0.9527133703231812,-0.8417655825614929
1726225929931582700,9.698582763671874,-0.2670458257198334,-0.9130131006240845,-0.8960208296775818
1726225929941577700,9.70857763671875,-0.31330838799476624,-0.9211527705192566,-0.8856326341629028
1726225929951572700,9.71857275390625,-0.333281546831131,-0.9818973541259766,-0.7996622920036316
1726225929961568800,9.72856884765625,-0.3058352768421173,-1.0540966987609863,-0.6302312016487122
1726225929971563800,9.738563720703125,-0.22480115294456482,-1.1170762777328491,-0.4141431152820587
1726225929981558800,9.748558837890625,-0.1219024658203125,-1.2261207103729248,-0.17123806476593018
1726225929991553800,9.7585537109375,-0.03907017037272453,-1.3212621212005615,0.07048934698104858
1726225930001548800,9.768548828125,0.049305230379104614,-1.2823467254638672,0.2725401818752289
1726225930011544800,9.778544921875,0.14318405091762543,-1.080115556716919,0.4182438552379608
1726225930021539600,9.78853955078125,0.2276342213153839,-0.8927280902862549,0.5588406324386597
1726225930031534600,9.79853466796875,0.2810173034667969,-0.7142009139060974,0.6961529850959778
1726225930041529600,9.808529541015625,0.3081972301006317,-0.46846121549606323,0.8440305590629578
1726225930051524900,9.81852490234375,0.30902254581451416,-0.1427164077758789,0.9678303003311157
1726225930061521000,9.82852099609375,0.3381660580635071,0.16867077350616455,1.0315583944320679
1726225930071516000,9.838515869140625,0.3826882541179657,0.32094019651412964,1.0558621883392334
1726225930081510700,9.8485107421875,0.4051315188407898,0.3354954421520233,1.0698399543762207
1726225930091505700,9.858505615234375,0.3849998712539673,0.3298599421977997,1.107018232345581
1726225930101500700,9.868500732421875,0.35864365100860596,0.36656707525253296,1.1434141397476196
1726225930111496700,9.87849658203125,0.348852276802063,0.4125710427761078,1.1411666870117188
1726225930121491700,9.88849169921875,0.33693888783454895,0.5370965003967285,1.0752112865447998
1726225930131486700,9.89848681640625,0.3458184003829956,0.7191877365112305,0.9583558440208435
1726225930141482000,9.90848193359375,0.3609057366847992,0.9098055958747864,0.8528525829315186
1726225930151476700,9.918476806640625,0.4097784757614136,1.0427758693695068,0.7811970114707947
1726225930161472800,9.92847265625,0.4317910969257355,1.0405079126358032,0.7561715841293335
1726225930171467800,9.9384677734375,0.4358460307121277,1.0423479080200195,0.7157500982284546
1726225930181462800,9.948462890625,0.39697638154029846,1.115162968635559,0.6186217069625854
1726225930191457800,9.958457763671875,0.3856715261936188,1.1792570352554321,0.502316415309906
1726225930201452800,9.968452880859376,0.36656415462493896,1.123445749282837,0.3495960831642151
1726225930211448600,9.978448486328125,0.299616277217865,1.1081818342208862,0.18650516867637634
1726225930221443600,9.988443603515625,0.23538482189178467,1.0763951539993286,0.034801121801137924
1726225930231438800,9.99843896484375,0.22345945239067078,0.9600594639778137,-0.11201388388872147
1726225930241433900,10.008433837890625,0.2272147834300995,0.7918304800987244,-0.21401481330394745
1726225930251428900,10.018428955078125,0.2053544819355011,0.6413078308105469,-0.27619510889053345
1726225930261425000,10.0284248046875,0.15713022649288177,0.526158332824707,-0.29699385166168213
1726225930271419600,10.038419677734375,0.10216977447271347,0.3893299102783203,-0.32816269993782043
1726225930281414700,10.04841455078125,0.04314693808555603,0.28039199113845825,-0.40133678913116455
1726225930291409700,10.05840966796875,-0.01630254089832306,0.23612011969089508,-0.48234400153160095
1726225930301404700,10.06840478515625,-0.04878431558609009,0.18377143144607544,-0.5111913681030273
1726225930311400700,10.078400634765625,-0.06692656874656677,0.06836680322885513,-0.5161973237991333
1726225930321396000,10.08839599609375,-0.06536169350147247,-0.10751181095838547,-0.4827602505683899
1726225930331391000,10.098390869140625,-0.02593998797237873,-0.2506985366344452,-0.40217354893684387
1726225930341385700,10.1083857421875,0.04020307958126068,-0.36922651529312134,-0.319306343793869
1726225930351380700,10.118380615234376,0.08784943073987961,-0.45985734462738037,-0.2378719449043274
1726225930361376800,10.128376708984375,0.1257006675004959,-0.4013727307319641,-0.14637158811092377
1726225930371371800,10.138371826171875,0.15915796160697937,-0.24507154524326324,-0.049183256924152374
1726225930381366800,10.14836669921875,0.1492808312177658,-0.15284627676010132,0.004232295788824558
1726225930391361800,10.15836181640625,0.11075793951749802,-0.14550712704658508,0.008609200827777386
1726225930401356800,10.168356689453125,0.09103110432624817,-0.10689263045787811,-0.011607387103140354
1726225930411351800,10.178351806640626,0.0810897946357727,-0.03020743653178215,-0.09137065708637238
1726225930421347800,10.188347900390625,0.0312239658087492,0.04400953650474548,-0.14547224342823029
1726225930431342800,10.1983427734375,-0.011524563655257225,0.08659534901380539,-0.16277986764907837
1726225930441337900,10.208337890625,-0.0326349101960659,0.08928460627794266,-0.14410178363323212
1726225930451332900,10.218332763671874,-0.023499732837080956,0.07333067059516907,-0.12305615097284317
1726225930461328600,10.22832861328125,0.004349741153419018,0.04090322554111481,-0.08404643088579178
1726225930471323600,10.23832373046875,0.04680905118584633,-0.003920439630746841,-0.0336248055100441
1726225930481318700,10.248318603515624,0.035884495824575424,-0.00827710423618555,0.06722723692655563
1726225930491313700,10.258313720703125,0.014026070013642311,-0.01564340852200985,0.17374250292778015
1726225930501308700,10.26830859375,0.001570998691022396,-0.009778061881661415,0.254229873418808
1726225930511303700,10.2783037109375,-0.037634994834661484,0.04271550476551056,0.3146090805530548
1726225930521299700,10.2882998046875,-0.06583254039287567,0.11526667326688766,0.3403083086013794
1726225930531294700,10.298294677734376,-0.07407369464635849,0.1758810132741928,0.3518112897872925
1726225930541289700,10.308289794921874,-0.07250775396823883,0.17143140733242035,0.3353250026702881
1726225930551284700,10.31828466796875,-0.11817830801010132,0.04495469108223915,0.29445427656173706
1726225930561279700,10.32827978515625,-0.20930156111717224,-0.09215229749679565,0.27564623951911926
1726225930571275800,10.33827587890625,-0.26977023482322693,-0.23673105239868164,0.25602778792381287
1726225930581270800,10.348270751953125,-0.25922995805740356,-0.48911163210868835,0.27116385102272034
1726225930591265800,10.358265869140626,-0.2806297838687897,-0.7014390826225281,0.3347865045070648
1726225930601260500,10.368260498046874,-0.3020392060279846,-0.9547874331474304,0.3371170461177826
1726225930611255800,10.378255859375,-0.3144652545452118,-1.1192493438720703,0.33243146538734436
1726225930621251800,10.388251953125,-0.3646538555622101,-1.1511868238449097,0.3339705169200897
1726225930631246800,10.398246826171874,-0.42907068133354187,-1.1276655197143555,0.31316909193992615
1726225930641241900,10.408241943359375,-0.4624858796596527,-0.9462120532989502,0.2912302315235138
1726225930651236900,10.41823681640625,-0.48513925075531006,-0.6020091772079468,0.2527582347393036
1726225930661231900,10.42823193359375,-0.4971056580543518,-0.35084110498428345,0.23845358192920685
1726225930671227600,10.4382275390625,-0.47916552424430847,-0.180161252617836,0.27868276834487915
1726225930681222700,10.44822265625,-0.4014526307582855,0.021940719336271286,0.3348269760608673
1726225930691217700,10.4582177734375,-0.3103269636631012,0.21376395225524902,0.4015466272830963
1726225930701213000,10.468212890625,-0.23866264522075653,0.2569689452648163,0.47584670782089233
1726225930711208000,10.4782080078125,-0.19500118494033813,0.09492571651935577,0.5388267040252686
1726225930721203700,10.48820361328125,-0.19806115329265594,-0.1989802122116089,0.5317283272743225
1726225930731198700,10.49819873046875,-0.2136174738407135,-0.34635820984840393,0.4676406979560852
1726225930741193700,10.50819384765625,-0.1901627480983734,-0.3762601912021637,0.3523785471916199
1726225930751188700,10.518188720703124,-0.1536870300769806,-0.48772332072257996,0.2814447283744812
1726225930761183700,10.528183837890625,-0.14717666804790497,-0.6040693521499634,0.23953908681869507
1726225930771179800,10.5381796875,-0.15065449476242065,-0.6180720329284668,0.21040570735931396
1726225930781174800,10.5481748046875,-0.123601034283638,-0.4880080223083496,0.2107018530368805
1726225930791169800,10.558169677734375,-0.05547817423939705,-0.2984063923358917,0.26070377230644226
1726225930801164800,10.568164794921875,0.03526824340224266,-0.1482267528772354,0.3780042827129364
1726225930811159800,10.578159912109374,0.13375140726566315,-0.023000657558441162,0.4380580484867096
1726225930821155800,10.58815576171875,0.17726825177669525,0.021026987582445145,0.4165559411048889
1726225930831150800,10.59815087890625,0.14825578033924103,-0.1313076913356781,0.43052634596824646
1726225930841145900,10.608145751953124,0.12015916407108307,-0.20295551419258118,0.4575102925300598
1726225930851140900,10.618140869140625,0.07027176767587662,-0.26482102274894714,0.4132267236709595
1726225930861135600,10.628135498046875,-0.024167388677597046,-0.21987563371658325,0.30251646041870117
1726225930871130600,10.638130615234376,-0.09198664873838425,-0.08015076071023941,0.07235409319400787
1726225930881127000,10.648126953125,-0.22581475973129272,0.139271080493927,-0.1849605292081833
1726225930891122000,10.658121826171875,-0.2761109471321106,0.22962146997451782,-0.3935486376285553
1726225930901117000,10.668116943359376,-0.22561635076999664,0.08233162760734558,-0.4789905548095703
1726225930911112000,10.67811181640625,-0.1438346654176712,-0.3259626626968384,-0.4110139012336731
1726225930921106700,10.688106689453125,-0.07273891568183899,-0.7949786186218262,-0.25031185150146484
1726225930931102700,10.698102783203124,-0.017287643626332283,-1.1094582080841064,-0.10631924867630005
1726225930941097700,10.70809765625,0.0035843485966324806,-1.1660728454589844,-0.03440830856561661
1726225930951092700,10.7180927734375,-0.01775236614048481,-0.9875054359436035,-0.10104165971279144
1726225930961087700,10.728087646484376,-0.11784567683935165,-0.5330596566200256,-0.19414710998535156
1726225930971082800,10.738082763671875,-0.14573509991168976,-0.06760434061288834,-0.24949930608272552
1726225930981079800,10.748079833984375,-0.09354406595230103,0.29670438170433044,-0.22882279753684998
1726225930991074800,10.75807470703125,-0.009097091853618622,0.44435667991638184,-0.15136395394802094
1726225931001069800,10.76806982421875,0.10307685285806656,0.558742880821228,-0.028856148943305016
1726225931011064800,10.77806494140625,0.25686293840408325,0.7896818518638611,0.11810080707073212
1726225931021059800,10.788059814453124,0.3841950595378876,0.9983500838279724,0.2159741073846817
1726225931031055600,10.7980556640625,0.4600940942764282,1.2646409273147583,0.25919613242149353
1726225931041050600,10.808050537109375,0.4995235204696655,1.5170416831970215,0.2993139922618866
1726225931051045600,10.818045654296874,0.4998617470264435,1.5477503538131714,0.358458548784256
1726225931061040600,10.82804052734375,0.43571311235427856,1.618589162826538,0.4352681040763855
1726225931071035600,10.83803564453125,0.4148959815502167,1.905308485031128,0.4979706406593323
1726225931081031700,10.84803173828125,0.4716322422027588,2.224764347076416,0.536329984664917
1726225931091026700,10.858026611328125,0.5516738295555115,2.3700642585754395,0.6291808485984802
1726225931101021700,10.868021728515625,0.631432294845581,2.228653907775879,0.7498257756233215
1726225931111016700,10.8780166015625,0.7186915874481201,2.078610897064209,0.8521239161491394
1726225931121011700,10.88801171875,0.8085975050926208,1.808166265487671,0.8730552792549133
1726225931131007700,10.8980078125,0.8231540322303772,1.6309075355529785,0.7842002511024475
1726225931141002800,10.908002685546874,0.7333855628967285,1.6298843622207642,0.6379107236862183
1726225931150997800,10.917997802734375,0.5835041999816895,1.5845707654953003,0.38460758328437805
1726225931160992500,10.927992431640625,0.4779148995876312,1.4982664585113525,0.08929739147424698
1726225931170987500,10.937987548828126,0.38216572999954224,1.3863329887390137,-0.15007232129573822
1726225931180983800,10.94798388671875,0.25135794281959534,1.093849778175354,-0.27317294478416443
1726225931190978800,10.957978759765625,0.1505221277475357,0.6937894225120544,-0.35436952114105225
1726225931200973800,10.967973876953126,0.10244594514369965,0.37845009565353394,-0.4878338575363159
1726225931210968800,10.97796875,0.09693959355354309,0.22597986459732056,-0.6398881077766418
1726225931220963800,10.9879638671875,0.07778427749872208,0.0022176143247634172,-0.715266764163971
1726225931230959600,10.997959716796874,0.020072510465979576,-0.19875091314315796,-0.6916218400001526
1726225931240954600,11.00795458984375,-0.04264812916517258,-0.2938465476036072,-0.6574369668960571
1726225931250949600,11.01794970703125,-0.08882094919681549,-0.24502865970134735,-0.6756144165992737
1726225931260944600,11.027944580078126,-0.1342073380947113,-0.13190610706806183,-0.7119817137718201
1726225931270940000,11.03793994140625,-0.20626848936080933,-0.15918059647083282,-0.7164869904518127
1726225931280935000,11.047934814453125,-0.2682223916053772,-0.28986990451812744,-0.6599198579788208
1726225931290930700,11.0579306640625,-0.29925301671028137,-0.35500842332839966,-0.6388121843338013
1726225931300925700,11.06792578125,-0.26540103554725647,-0.45363274216651917,-0.6250824928283691
1726225931310920700,11.077920654296875,-0.1798216998577118,-0.6039721965789795,-0.6029064059257507
1726225931320915700,11.087915771484376,-0.14998815953731537,-0.7804835438728333,-0.602301836013794
1726225931330910700,11.09791064453125,-0.20268280804157257,-0.9687700867652893,-0.6827551126480103
1726225931340906500,11.107906494140625,-0.28234994411468506,-1.0460454225540161,-0.8380525708198547
1726225931350901800,11.11790185546875,-0.35859915614128113,-1.0544203519821167,-0.9503713846206665
1726225931360896800,11.127896728515625,-0.4118216335773468,-1.095415711402893,-0.9714151620864868
1726225931370891800,11.137891845703125,-0.427646666765213,-1.183158278465271,-0.9280096292495728
1726225931380886800,11.14788671875,-0.36839666962623596,-1.2047728300094604,-0.8750207424163818
1726225931390882800,11.1578828125,-0.3443200886249542,-1.1100811958312988,-0.8035758137702942
1726225931400877800,11.1678779296875,-0.4028657078742981,-1.0241245031356812,-0.7373707294464111
1726225931410872600,11.17787255859375,-0.5416036248207092,-0.9493919014930725,-0.7296848297119141
1726225931420867600,11.18786767578125,-0.6616751551628113,-0.8701444864273071,-0.7588176727294922
1726225931430862600,11.197862548828125,-0.7267148494720459,-0.775118350982666,-0.8138460516929626
1726225931440859000,11.20785888671875,-0.7667789459228516,-0.6783369779586792,-0.9382804036140442
1726225931450854000,11.21785400390625,-0.8108398914337158,-0.6871520280838013,-1.0596624612808228
1726225931460849000,11.227848876953125,-0.8929381966590881,-0.6604849696159363,-1.0446147918701172
1726225931470844000,11.237843994140626,-1.0121002197265625,-0.6564604043960571,-0.9199692606925964
1726225931480838700,11.247838623046874,-1.1417818069458008,-0.7020087242126465,-0.784912645816803
1726225931490834700,11.257834716796875,-1.1749192476272583,-0.7493754625320435,-0.6414798498153687
1726225931500829700,11.26782958984375,-1.103039264678955,-0.7595434188842773,-0.44542115926742554
1726225931510824700,11.27782470703125,-1.0102219581604004,-0.6909619569778442,-0.21868734061717987
1726225931520819700,11.28781982421875,-0.9180662035942078,-0.5487549901008606,0.029562685638666153
1726225931530814700,11.297814697265625,-0.8388576507568359,-0.4035938084125519,0.2606654167175293
1726225931540809700,11.307809814453124,-0.7737215161323547,-0.1654888242483139,0.42854976654052734
1726225931550805800,11.3178056640625,-0.7222775220870972,0.18794113397598267,0.49709898233413696
1726225931560800800,11.32780078125,-0.6584572792053223,0.5597895383834839,0.5060938000679016
1726225931570795800,11.337795654296874,-0.6134737730026245,0.8427118062973022,0.5419871211051941
1726225931580790800,11.347790771484375,-0.593322217464447,1.1059101819992065,0.6144671440124512
1726225931590785800,11.357785888671875,-0.550815999507904,1.362904667854309,0.731550931930542
1726225931600781600,11.367781494140624,-0.43438661098480225,1.5759527683258057,0.906846284866333
1726225931610776600,11.377776611328125,-0.25276461243629456,1.6736576557159424,1.124102234840393
1726225931620771600,11.387771484375,-0.06021673604846001,1.751591682434082,1.3539010286331177
1726225931630766600,11.3977666015625,0.09738141298294067,1.8717527389526367,1.5877643823623657
1726225931640761600,11.40776171875,0.2709049880504608,2.041193723678589,1.6946921348571777
1726225931650758000,11.4177578125,0.40741971135139465,2.1494901180267334,1.749733328819275
1726225931660753000,11.4277529296875,0.5056725144386292,2.1709907054901123,1.8326047658920288
1726225931670747600,11.43774755859375,0.612006425857544,2.1506001949310303,1.8455290794372559
1726225931680742700,11.44774267578125,0.6726111769676208,1.9854906797409058,1.8124957084655762
1726225931690737700,11.457737548828124,0.6454578042030334,1.566601037979126,1.7100335359573364
1726225931700733700,11.467733642578125,0.5770756006240845,0.9147183299064636,1.5322449207305908
1726225931710728700,11.477728759765625,0.49167120456695557,0.327749639749527,1.3044301271438599
1726225931720723700,11.4877236328125,0.40995556116104126,-0.14448820054531097,1.0006507635116577
1726225931730718700,11.49771875,0.33441951870918274,-0.4564564824104309,0.6460195183753967
1726225931740713700,11.507713623046875,0.2813161015510559,-0.5799038410186768,0.2558344304561615
1726225931750709800,11.517709716796874,0.2397974133491516,-0.6005960702896118,-0.15966050326824188
1726225931760704800,11.527704833984375,0.20487192273139954,-0.5447248220443726,-0.5668479800224304
1726225931770699800,11.53769970703125,0.1977042853832245,-0.4755377769470215,-0.910512387752533
1726225931780694800,11.54769482421875,0.20727701485157013,-0.5060805082321167,-1.1842433214187622
1726225931790689800,11.557689697265625,0.1775319129228592,-0.528766393661499,-1.329371690750122
1726225931800684800,11.567684814453125,0.1487354189157486,-0.5470385551452637,-1.384597659111023
1726225931810680600,11.5776806640625,0.11490821093320847,-0.5520333647727966,-1.4233709573745728
1726225931820675600,11.587675537109375,0.09138184785842896,-0.5383785367012024,-1.451690673828125
1726225931830670800,11.5976708984375,0.08717191964387894,-0.5434017777442932,-1.448708176612854
1726225931840665900,11.607665771484376,0.08034943044185638,-0.6185886859893799,-1.4310780763626099
1726225931850660900,11.617660888671875,0.04699946567416191,-0.7634033560752869,-1.4534436464309692
1726225931860656600,11.62765673828125,-0.009904029779136181,-0.906545102596283,-1.5438573360443115
1726225931870651600,11.637651611328126,-0.03897962346673012,-1.0105990171432495,-1.67874014377594
1726225931880646700,11.647646728515625,-0.04796246439218521,-1.116946816444397,-1.7657862901687622
1726225931890641700,11.6576416015625,-0.08677324652671814,-1.3523074388504028,-1.7442344427108765
1726225931900636700,11.66763671875,-0.17792952060699463,-1.6452268362045288,-1.6878182888031006
1726225931910632700,11.6776328125,-0.275107741355896,-1.915386438369751,-1.623986005783081
1726225931920627700,11.687627685546875,-0.353225976228714,-2.0938432216644287,-1.5780315399169922
1726225931930622700,11.697622802734376,-0.41363444924354553,-2.135739803314209,-1.5826140642166138
1726225931940617700,11.70761767578125,-0.47736629843711853,-2.031597375869751,-1.6515201330184937
1726225931950612700,11.71761279296875,-0.4899079203605652,-1.9944522380828857,-1.6614372730255127
1726225931960608800,11.72760888671875,-0.44179099798202515,-2.1485302448272705,-1.5667020082473755
1726225931970603800,11.737603759765625,-0.34005796909332275,-2.3567538261413574,-1.3772462606430054
1726225931980597000,11.747596923828125,-0.19232310354709625,-2.5220460891723633,-1.112928867340088
1726225931990592000,11.757592041015625,-0.04896674305200577,-2.508784532546997,-0.818755030632019
1726225932000587000,11.7675869140625,0.09154696017503738,-2.3352174758911133,-0.5635794997215271
1726225932010582300,11.777582275390625,0.2533259987831116,-2.0137898921966553,-0.34267958998680115
1726225932020578000,11.787578125,0.40814781188964844,-1.56935453414917,-0.16058248281478882
1726225932030573000,11.797572998046874,0.4817565083503723,-1.138475775718689,0.052742838859558105
1726225932040568000,11.807568115234375,0.5048431754112244,-0.6305542588233948,0.20286017656326294
1726225932050563000,11.81756298828125,0.4681083559989929,-0.010734137147665024,0.20860619843006134
1726225932060558000,11.82755810546875,0.4208279252052307,0.6178578734397888,0.14865711331367493
1726225932070554000,11.83755419921875,0.4301993250846863,1.003584861755371,0.07185021787881851
1726225932080549000,11.847549072265625,0.44266343116760254,1.1486376523971558,0.05721002444624901
1726225932090543900,11.8575439453125,0.42610231041908264,1.1525460481643677,0.10302864760160446
1726225932100539100,11.8675390625,0.3547016382217407,0.9767715930938721,0.2072107046842575
1726225932110534100,11.8775341796875,0.31365644931793213,0.7858508825302124,0.3170815408229828
1726225932120530200,11.8875302734375,0.30081549286842346,0.6440767049789429,0.3924037218093872
1726225932130525200,11.897525146484375,0.2678711414337158,0.50478196144104,0.40155115723609924
1726225932140520200,11.907520263671875,0.19650879502296448,0.4111475944519043,0.37865835428237915
1726225932150515200,11.91751513671875,0.12769031524658203,0.44675832986831665,0.3578915596008301
1726225932160510000,11.927510009765625,0.11654951423406601,0.41237425804138184,0.31781259179115295
1726225932170506000,11.937506103515625,0.16041550040245056,0.2888999879360199,0.3107917010784149
1726225932180501000,11.9475009765625,0.19296465814113617,0.23043374717235565,0.3522677719593048
1726225932190496300,11.957496337890625,0.20067743957042694,0.21236738562583923,0.44656842947006226
1726225932200491300,11.9674912109375,0.17690792679786682,0.21761274337768555,0.5227606892585754
1726225932210486300,11.977486328125,0.13883191347122192,0.2737681567668915,0.5544523000717163
1726225932220482000,11.98748193359375,0.11280564218759537,0.38454073667526245,0.5854682922363281
1726225932230477000,11.99747705078125,0.106855608522892,0.4846026301383972,0.5868741273880005
1726225932240472000,12.00747216796875,0.07798881083726883,0.5683838129043579,0.5814782977104187
1726225932250467000,12.017467041015625,0.06750208139419556,0.677230954170227,0.5776748061180115
1726225932260462000,12.027462158203125,0.06863072514533997,0.7709947228431702,0.5931780934333801
1726225932270457000,12.03745703125,0.09727329015731812,0.7762187719345093,0.624854564666748
1726225932280453000,12.047453125,0.14219442009925842,0.7694383859634399,0.6396406888961792
1726225932290448100,12.0574482421875,0.24900609254837036,0.775484025478363,0.6022469997406006
1726225932300443100,12.067443115234376,0.3207026422023773,0.7911527156829834,0.5988149642944336
1726225932310438100,12.077438232421875,0.30532583594322205,0.7842444777488708,0.6080033779144287
1726225932320433200,12.08743310546875,0.2364644706249237,0.7196758985519409,0.5725055932998657
1726225932330429200,12.09742919921875,0.22928938269615173,0.654679000377655,0.5595437288284302
1726225932340424000,12.107423828125,0.22916634380817413,0.4178837835788727,0.4946797788143158
1726225932350419000,12.1174189453125,0.14459259808063507,0.25097495317459106,0.3346128761768341
1726225932360414000,12.1274140625,0.03026283159852028,0.08305227756500244,0.2076147049665451
1726225932370409000,12.137408935546874,-0.021584654226899147,-0.2044769674539566,0.09756996482610703
1726225932380405200,12.1474052734375,-0.0523417666554451,-0.4882296025753021,0.049677275121212006
1726225932390400300,12.157400146484376,-0.05649203807115555,-0.47480806708335876,0.04307929426431656
1726225932400395300,12.167395263671875,-0.01979527622461319,-0.233302503824234,0.13959437608718872
1726225932410390000,12.17739013671875,0.029143504798412323,0.012568522244691849,0.27423182129859924
1726225932420385000,12.187385009765626,0.053219810128211975,0.09218744933605194,0.38351595401763916
1726225932430381000,12.197381103515625,0.042763177305459976,0.004719654098153114,0.4762296676635742
1726225932440376000,12.2073759765625,0.06716199219226837,-0.09203751385211945,0.5021201372146606
1726225932450371000,12.21737109375,0.05837782099843025,-0.036672793328762054,0.43155938386917114
1726225932460366000,12.227365966796874,0.0663534551858902,0.014733139425516129,0.36800944805145264
1726225932470361000,12.237361083984375,0.05488748475909233,0.005647765472531319,0.2710528075695038
1726225932480356000,12.247356201171876,-0.042690470814704895,-0.15124385058879852,0.15863598883152008
1726225932490352000,12.25735205078125,-0.2200077325105667,-0.3927803039550781,0.029025260359048843
1726225932500347100,12.26734716796875,-0.3635321259498596,-0.5415987968444824,-0.09555661678314209
1726225932510342100,12.277342041015626,-0.44186291098594666,-0.510246753692627,-0.19954054057598114
1726225932520337200,12.287337158203124,-0.48197463154792786,-0.3759951889514923,-0.22164984047412872
1726225932530332200,12.297332275390625,-0.4894344210624695,-0.2906624674797058,-0.15576030313968658
1726225932540328000,12.307327880859376,-0.45929354429244995,-0.27209144830703735,-0.033488452434539795
1726225932550323000,12.317322998046874,-0.4077664315700531,-0.15762318670749664,0.10538021475076675
1726225932560318000,12.32731787109375,-0.33380192518234253,0.01576378382742405,0.22935941815376282
1726225932570313200,12.337313232421875,-0.2694098949432373,0.13654638826847076,0.31817343831062317
1726225932580308200,12.34730810546875,-0.2488766610622406,0.16653864085674286,0.3867349326610565
1726225932590304300,12.35730419921875,-0.29207178950309753,0.11263413727283478,0.4201922118663788
1726225932600299000,12.367299072265626,-0.33478066325187683,0.24755626916885376,0.3764665722846985
1726225932610294000,12.3772939453125,-0.3132186233997345,0.532060444355011,0.3069884479045868
1726225932620289000,12.3872890625,-0.28687676787376404,0.6181513667106628,0.34386682510375977
1726225932630284000,12.397283935546875,-0.22227194905281067,0.5952410101890564,0.5115993618965149
1726225932640280000,12.407280029296874,-0.121397003531456,0.7144531607627869,0.7344098091125488
1726225932650275000,12.417275146484375,0.015025022439658642,0.9773218035697937,0.9623761177062988
1726225932660270300,12.427270263671875,0.16671042144298553,1.241956353187561,1.1279816627502441
1726225932670265000,12.43726513671875,0.3314879238605499,1.3688496351242065,1.2455694675445557
1726225932680260000,12.447260009765625,0.4554993510246277,1.353332757949829,1.3328332901000977
