time,seconds_elapsed,z,y,x
1726225920266189000,0.03318896484375,-0.26795345544815063,-0.4235244393348694,0.23992159962654114
1726225920276184000,0.04318408203125,-0.29038819670677185,-0.22074948251247406,0.2588447034358978
1726225920286180000,0.05318017578125,-0.28036046028137207,-0.12004838138818741,0.21362239122390747
1726225920296175000,0.063175048828125,-0.26228663325309753,-0.17557448148727417,0.12118859589099884
1726225920306170000,0.073170166015625,-0.21579770743846893,-0.10697018355131149,0.08165853470563889
1726225920316166100,0.083166259765625,-0.17514881491661072,0.0042628636583685875,0.07627122849225998
1726225920326161200,0.0931611328125,-0.1772555559873581,-0.0015071523375809193,0.07096065580844879
1726225920336156200,0.10315625,-0.19757893681526184,-0.020551949739456177,0.09378527849912643
1726225920346152200,0.113152099609375,-0.22469072043895721,0.056121520698070526,0.16347114741802216
1726225920356147000,0.12314697265625,-0.2720497250556946,0.17903758585453033,0.24125009775161743
1726225920366142000,0.133141845703125,-0.2567679286003113,-0.1417420208454132,0.27460235357284546
1726225920376138200,0.14313818359375,-0.3730151653289795,-0.5440897345542908,0.23660703003406525
1726225920386133200,0.15313330078125,-0.5234764814376831,-1.0472033023834229,0.2701369822025299
1726225920396128300,0.163128173828125,-0.6421554088592529,-1.3370691537857056,0.4492811858654022
1726225920406124000,0.1731240234375,-0.7018885016441345,-1.4656058549880981,0.6972570419311523
1726225920416119000,0.183119140625,-0.6682291030883789,-1.4528770446777344,0.9092790484428406
1726225920426114000,0.193114013671875,-0.625052809715271,-1.3347294330596924,1.0060207843780518
1726225920436110000,0.203110107421875,-0.6099106073379517,-1.1340211629867554,1.0162814855575562
1726225920446105000,0.21310498046875,-0.5601354241371155,-0.7593165636062622,0.9718040823936462
1726225920456100000,0.22310009765625,-0.4343620240688324,-0.277274489402771,0.8559310436248779
1726225920466096000,0.23309619140625,-0.27159228920936584,0.09991765767335892,0.6547688245773315
1726225920476091100,0.243091064453125,-0.03339943662285805,0.35816171765327454,0.41661643981933594
1726225920486086100,0.253086181640625,0.1891947090625763,0.45837992429733276,0.15114493668079376
1726225920496082200,0.263082275390625,0.39407968521118164,0.42714691162109375,-0.07324688881635666
1726225920506077000,0.273076904296875,0.6677713394165039,0.4959912896156311,-0.23944860696792603
1726225920516072000,0.283072021484375,0.8887566924095154,0.8019035458564758,-0.3677237629890442
1726225920526068200,0.293068115234375,0.9375544786453247,1.190502643585205,-0.48663830757141113
1726225920536063200,0.303063232421875,0.9089990258216858,1.4398714303970337,-0.6041098237037659
1726225920546058200,0.313058349609375,1.0352561473846436,1.3831701278686523,-0.6051081418991089
1726225920556054000,0.323053955078125,1.3260741233825684,0.8843668103218079,-0.5212209820747375
1726225920566049000,0.333049072265625,1.655470609664917,-0.010618176311254501,-0.4349871873855591
1726225920576044000,0.3430439453125,2.0486958026885986,-1.0632551908493042,-0.31559687852859497
1726225920586040000,0.3530400390625,2.6882941722869873,-1.8084070682525635,-0.11914670467376709
1726225920596035000,0.36303515625,3.369722604751587,-2.5384252071380615,0.1571088582277298
1726225920606030000,0.373030029296875,4.13742208480835,-3.3281569480895996,0.5241764187812805
1726225920616026000,0.383026123046875,4.296332359313965,-3.620297431945801,1.003060221672058
1726225920626021000,0.393021240234375,3.525485038757324,-3.7587080001831055,1.36326003074646
1726225920636016000,0.40301611328125,2.2538797855377197,-3.5145199298858643,1.5574817657470703
1726225920646011100,0.41301123046875,1.5165876150131226,-3.4057300090789795,1.491196632385254
1726225920656007200,0.423007080078125,1.6232390403747559,-3.4469223022460938,1.407860517501831
1726225920666002000,0.433001953125,1.9192129373550415,-3.2625582218170166,1.4420245885849
1726225920675997000,0.442996826171875,2.0139684677124023,-3.111909866333008,1.4790314435958862
1726225920685993200,0.4529931640625,2.0522212982177734,-3.065053939819336,1.462967872619629
1726225920695988200,0.46298828125,2.1267943382263184,-3.01102352142334,1.3554967641830444
1726225920705983200,0.472983154296875,2.289138078689575,-2.859035015106201,1.2238739728927612
1726225920715979000,0.48297900390625,2.5821354389190674,-3.012085199356079,1.1260939836502075
1726225920725974000,0.49297412109375,3.009793996810913,-3.5540404319763184,1.1633973121643066
1726225920735969000,0.502968994140625,3.655991792678833,-4.374068260192871,1.2566590309143066
1726225920745965000,0.512965087890625,4.442328453063965,-5.11497688293457,1.2469215393066406
1726225920755959000,0.522958984375,5.190954208374023,-5.387660026550293,1.1320735216140747
1726225920765955300,0.532955322265625,5.953186511993408,-5.200473785400391,1.0122323036193848
1726225920775950000,0.5429501953125,6.616379261016846,-4.8489837646484375,0.9663031697273254
1726225920785945000,0.552945068359375,7.151609420776367,-4.490546703338623,0.9700649380683899
1726225920795941000,0.562941162109375,7.632207870483398,-4.192446231842041,1.1322983503341675
1726225920805936000,0.57293603515625,8.158914566040039,-4.011068820953369,1.372989535331726
1726225920815931100,0.58293115234375,8.861827850341797,-3.839794158935547,1.5906952619552612
1726225920825926100,0.592926025390625,9.577598571777344,-3.4855005741119385,1.6612176895141602
1726225920835922000,0.602921875,10.251289367675781,-2.982917547225952,1.4400264024734497
1726225920845917000,0.6129169921875,10.874547958374023,-2.444275379180908,1.001742959022522
1726225920855912200,0.622912109375,11.411735534667969,-1.9804012775421143,0.5498044490814209
1726225920865908200,0.632908203125,11.881887435913086,-1.6080305576324463,0.2994198501110077
1726225920875903200,0.6429033203125,12.393994331359863,-1.5413357019424438,0.2142695039510727
1726225920885898200,0.652898193359375,12.9104642868042,-1.630937933921814,0.23652420938014984
1726225920895894000,0.66289404296875,13.153170585632324,-1.5935696363449097,0.4351281225681305
1726225920905889000,0.672888916015625,13.105629920959473,-1.2312824726104736,0.8486438989639282
1726225920915884000,0.682884033203125,12.664071083068848,-0.4491874873638153,1.3895803689956665
1726225920925879000,0.692879150390625,12.181258201599121,0.49995702505111694,1.9753724336624146
1726225920935875000,0.702875,11.642550468444824,1.2106189727783203,2.343215227127075
1726225920945870000,0.7128701171875,10.860359191894531,1.6413835287094116,2.6560628414154053
1726225920955865000,0.722864990234375,9.749159812927246,1.6829088926315308,3.081381320953369
1726225920965860600,0.732860595703125,8.342805862426758,1.4076403379440308,3.8061747550964355
1726225920975855600,0.742855712890625,6.5950608253479,0.9317654371261597,4.63149881362915
1726225920985850600,0.7528505859375,4.669317245483398,0.5061814785003662,5.260523319244385
1726225920995846400,0.762846435546875,2.767766237258911,0.36429035663604736,5.5052571296691895
1726225921005841400,0.77284130859375,0.7452574968338013,0.40098074078559875,5.162763595581055
1726225921015836700,0.782836669921875,-0.9735767841339111,0.5337682962417603,4.570755958557129
1726225921025832700,0.792832763671875,-2.3045668601989746,0.7522002458572388,4.079304218292236
1726225921035827700,0.80282763671875,-3.487344264984131,0.9306243062019348,3.6413204669952393
1726225921045822700,0.81282275390625,-4.375945568084717,1.0213533639907837,3.177018404006958
1726225921055817700,0.822817626953125,-4.939700603485107,1.1472105979919434,2.75064754486084
1726225921065813500,0.8328134765625,-5.318151473999023,1.2447645664215088,2.3618857860565186
1726225921075808500,0.84280859375,-5.56889533996582,1.1917716264724731,2.011401653289795
1726225921085803500,0.852803466796875,-5.766181468963623,0.9937754273414612,1.7766791582107544
1726225921095799800,0.8627998046875,-5.997104167938232,0.5124074816703796,1.4990960359573364
1726225921105794600,0.872794677734375,-6.2782816886901855,-0.09422322362661362,1.1490164995193481
1726225921115789600,0.88278955078125,-6.4583048820495605,-0.6461250185966492,0.7224684357643127
1726225921125784600,0.89278466796875,-6.354874134063721,-0.9778163433074951,0.23720891773700714
1726225921135780600,0.902780517578125,-6.315119743347168,-1.1078203916549683,-0.18677963316440582
1726225921145775600,0.912775634765625,-6.32811164855957,-0.9997720122337341,-0.810970664024353
1726225921155770600,0.9227705078125,-6.338909149169922,-0.7772966027259827,-1.443467140197754
1726225921165766700,0.9327666015625,-6.366920471191406,-0.6087495684623718,-2.19443678855896
1726225921175761700,0.94276171875,-6.2293477058410645,-0.3337497413158417,-2.627574920654297
1726225921185756700,0.952756591796875,-6.025228023529053,-0.13819974660873413,-2.7707014083862305
1726225921195752700,0.962752685546875,-5.98122501373291,-0.29608869552612305,-2.8539721965789795
1726225921205747700,0.972747802734375,-6.111758232116699,-0.7541491389274597,-3.1586971282958984
1726225921215742500,0.982742431640625,-6.095864772796631,-0.9388033747673035,-3.5014796257019043
1726225921225737500,0.992737548828125,-5.797968864440918,-0.9492676854133606,-3.830625534057617
1726225921235733500,1.0027333984375,-4.997956275939941,-1.2574803829193115,-3.596294403076172
1726225921245728500,1.012728515625,-4.452920436859131,-1.5836384296417236,-3.3755509853363037
1726225921255723800,1.022723876953125,-3.9554433822631836,-1.818885087966919,-3.1959381103515625
1726225921265719600,1.032719482421875,-3.312105178833008,-1.713610291481018,-3.1383299827575684
1726225921275714600,1.042714599609375,-2.904276132583618,-1.2276155948638916,-3.1342146396636963
1726225921285709600,1.05270947265625,-2.901142120361328,-0.3351321816444397,-3.6364879608154297
1726225921295704600,1.06270458984375,-3.128016233444214,-0.3687761723995209,-4.115670680999756
1726225921305700600,1.07270068359375,-3.356609582901001,-0.4284195303916931,-4.764027118682861
1726225921315695600,1.082695556640625,-3.308743715286255,-0.3206629753112793,-5.53044319152832
1726225921325690600,1.092690673828125,-2.911996841430664,0.24364562332630157,-6.239833831787109
1726225921335686700,1.102686767578125,-2.3821189403533936,1.3025602102279663,-6.704145908355713
1726225921345681700,1.112681640625,-1.7966516017913818,2.354325294494629,-6.88873815536499
1726225921355676700,1.1226767578125,-1.4364010095596313,2.859344005584717,-6.852472305297852
1726225921365671700,1.132671630859375,-1.5169062614440918,2.7907211780548096,-6.570967674255371
1726225921375667500,1.14266748046875,-1.7815078496932983,2.364474058151245,-6.254605293273926
1726225921385662500,1.152662353515625,-1.8569324016571045,1.6029109954833984,-5.870308876037598
1726225921395657500,1.162657470703125,-1.9098243713378906,0.7477768659591675,-5.321786880493164
1726225921405653800,1.17265380859375,-1.9454152584075928,0.08009536564350128,-4.5977678298950195
1726225921415648800,1.182648681640625,-1.8551585674285889,-0.3026384115219116,-3.83337664604187
1726225921425643800,1.192643798828125,-1.4564300775527954,-0.2677202522754669,-3.1020374298095703
1726225921435638800,1.202638671875,-1.0041835308074951,-0.09852616488933563,-2.4494121074676514
1726225921445634600,1.212634521484375,-0.6510906219482422,0.0711977407336235,-1.8118122816085815
1726225921455629600,1.222629638671875,-0.6147315502166748,0.07898988574743271,-1.2075817584991455
1726225921465624600,1.23262451171875,-0.7351289987564087,-0.17759235203266144,-0.7007896304130554
1726225921475620600,1.24262060546875,-0.9257476329803467,-0.6177603602409363,-0.26132890582084656
1726225921485615600,1.25261572265625,-1.0758817195892334,-0.7286523580551147,0.19722366333007812
1726225921495610600,1.262610595703125,-1.0691701173782349,-0.6836214661598206,0.76814204454422
1726225921505605600,1.272605712890625,-0.9856467843055725,-0.8149843811988831,1.351271629333496
1726225921515601700,1.2826015625,-0.8064157962799072,-1.0719218254089355,1.9060802459716797
1726225921525596700,1.2925966796875,-0.5243046283721924,-1.1454215049743652,2.402348756790161
1726225921535591700,1.302591796875,-0.14899089932441711,-1.0037606954574585,2.672569751739502
1726225921545587500,1.31258740234375,0.29999178647994995,-0.6839478015899658,2.7523322105407715
1726225921555582500,1.32258251953125,0.86252760887146,-0.11337003856897354,2.814390182495117
1726225921565577500,1.332577392578125,1.5574688911437988,0.3495042622089386,2.918590784072876
1726225921575572500,1.342572509765625,2.329174518585205,0.5668110251426697,3.1048672199249268
1726225921585568800,1.35256884765625,3.1544699668884277,0.7337098717689514,3.321180820465088
1726225921595563800,1.362563720703125,3.9743809700012207,0.8572291731834412,3.6706390380859375
1726225921605558500,1.37255859375,4.728987693786621,0.7845680713653564,4.09717321395874
1726225921615553500,1.382553466796875,5.299138069152832,0.23762720823287964,4.397394180297852
1726225921625549600,1.392549560546875,5.504805088043213,-0.7453393936157227,4.5019354820251465
1726225921635544600,1.402544677734375,5.454213619232178,-1.870952844619751,4.628754138946533
1726225921645539600,1.41253955078125,5.337273120880127,-2.721693754196167,4.876852512359619
1726225921655535600,1.42253564453125,5.270704746246338,-3.2187602519989014,5.16220235824585
1726225921665530600,1.432530517578125,5.328878402709961,-3.5168588161468506,5.32728385925293
1726225921675525600,1.442525634765625,5.644449234008789,-3.6764919757843018,5.6694231033325195
1726225921685520600,1.452520751953125,6.162714958190918,-3.15000057220459,5.949709892272949
1726225921695516700,1.4625166015625,6.830662250518799,-1.9236907958984375,5.812480449676514
1726225921705511700,1.47251171875,7.309380531311035,-0.8369430899620056,4.980546951293945
1726225921715506400,1.48250634765625,7.735764503479004,0.12065137177705765,4.018508434295654
1726225921725502500,1.49250244140625,8.026395797729492,0.7019050121307373,3.383884906768799
1726225921735497700,1.502497802734375,8.004673957824707,0.4549045264720917,3.0446367263793945
1726225921745492700,1.51249267578125,7.669553279876709,-0.4831641912460327,3.213230609893799
1726225921755487700,1.52248779296875,6.932755470275879,-1.1376978158950806,3.7949750423431396
1726225921765483500,1.5324833984375,6.090200424194336,-1.4078680276870728,4.514986515045166
1726225921775478500,1.542478515625,5.235130310058594,-1.3089842796325684,4.9435601234436035
1726225921785473500,1.5524736328125,4.446150302886963,-0.8856924176216125,5.002679347991943
1726225921795468500,1.562468505859375,3.4956588745117188,-0.08682931214570999,4.693667411804199
1726225921805464600,1.572464599609375,2.347681999206543,0.628064751625061,3.9514169692993164
1726225921815459600,1.58245947265625,1.2093641757965088,1.0534905195236206,3.2840514183044434
1726225921825454600,1.59245458984375,0.048885196447372437,1.2043176889419556,2.7543115615844727
1726225921835450600,1.60245068359375,-1.2926971912384033,0.9462257623672485,2.2293763160705566
1726225921845445600,1.612445556640625,-2.6231489181518555,0.3968363404273987,1.6625491380691528
1726225921855440600,1.622440673828125,-3.7948055267333984,0.11406270414590836,0.8382291793823242
1726225921865435600,1.632435546875,-4.602370262145996,0.40942686796188354,-0.013097675517201424
1726225921875431400,1.642431396484375,-5.128258228302002,0.9709466695785522,-0.6773430109024048
1726225921885426400,1.652426513671875,-5.471674919128418,1.3114125728607178,-1.1439335346221924
1726225921895421400,1.66242138671875,-5.707124710083008,1.2983574867248535,-1.4054806232452393
1726225921905416400,1.67241650390625,-5.785944938659668,0.9797695875167847,-1.5441815853118896
1726225921915412700,1.682412841796875,-5.695825099945068,0.53300541639328,-1.5791425704956055
1726225921925407700,1.69240771484375,-5.537200450897217,0.07338365167379379,-1.5575363636016846
1726225921935402800,1.70240283203125,-5.801340103149414,-0.1242721751332283,-1.996071696281433
1726225921945398500,1.7123984375,-5.842621326446533,-0.5042530298233032,-2.3478033542633057
1726225921955393500,1.7223935546875,-5.594120025634766,-0.6642813086509705,-2.187073230743408
1726225921965388500,1.732388427734375,-5.503366470336914,-0.44207099080085754,-2.0998547077178955
1726225921975383600,1.742383544921875,-5.416889190673828,-0.3497868478298187,-2.1010019779205322
1726225921985379600,1.752379638671875,-5.465760707855225,-0.30847111344337463,-2.0988030433654785
1726225921995374300,1.762374267578125,-5.327755451202393,-0.7045142650604248,-1.9321763515472412
1726225922005369300,1.772369384765625,-4.970307350158691,-1.0652166604995728,-1.6867756843566895
1726225922015364400,1.7823642578125,-4.583400249481201,-0.6938368082046509,-2.058952808380127
1726225922025360600,1.792360595703125,-4.058181285858154,-0.015762997791171074,-2.6672067642211914
1726225922035355600,1.802355712890625,-3.513124942779541,0.43143022060394287,-3.3611302375793457
1726225922045350700,1.8123505859375,-3.3399271965026855,0.17195618152618408,-3.5979411602020264
1726225922055346400,1.822346435546875,-3.4506912231445312,-0.3625413179397583,-3.6291122436523438
1726225922065341400,1.832341552734375,-3.618203639984131,-0.9033587574958801,-3.6344730854034424
1726225922075336400,1.84233642578125,-3.701627731323242,-0.9310892224311829,-3.6323840618133545
1726225922085331500,1.85233154296875,-3.6463463306427,-0.537802517414093,-3.759674310684204
1726225922095327500,1.862327392578125,-3.4528591632843018,-0.20559479296207428,-3.933293581008911
1726225922105322200,1.872322265625,-3.2005763053894043,-0.2863103449344635,-3.849390745162964
1726225922115317500,1.8823173828125,-2.827711820602417,-0.4221326410770416,-3.789844274520874
1726225922125312500,1.8923125,-2.397596597671509,-0.4040057957172394,-3.7980387210845947
1726225922135308500,1.90230859375,-2.0073864459991455,-0.5748361349105835,-3.73745059967041
1726225922145303600,1.912303466796875,-1.6186816692352295,-0.544609785079956,-3.5559866428375244
1726225922155298600,1.922298583984375,-1.3892402648925781,-0.4426090717315674,-3.4108242988586426
1726225922165293600,1.93229345703125,-1.0698065757751465,-0.2890229821205139,-3.4260036945343018
1726225922175289300,1.942289306640625,-0.6900342106819153,-0.0012835906818509102,-3.613532066345215
1726225922185284400,1.952284423828125,-0.2610747516155243,0.28377678990364075,-3.9444026947021484
1726225922195279400,1.962279296875,0.1783691793680191,0.8586933612823486,-4.242135524749756
1726225922205275600,1.972275634765625,0.6528436541557312,1.2567280530929565,-4.488866329193115
1726225922215270400,1.9822705078125,1.2166152000427246,1.3731566667556763,-4.501448631286621
1726225922225265400,1.992265380859375,1.8236126899719238,1.1540193557739258,-4.328979969024658
1726225922235260400,2.002260498046875,2.458150625228882,0.7544566988945007,-4.059358596801758
1726225922245256400,2.01225634765625,3.0761990547180176,0.28396353125572205,-3.6936612129211426
1726225922255251500,2.02225146484375,3.698975086212158,-0.17975008487701416,-3.421121835708618
1726225922265246500,2.03224658203125,4.171873569488525,-0.973186731338501,-3.2491118907928467
1726225922275241500,2.042241455078125,4.686723709106445,-2.1861910820007324,-3.0500741004943848
1726225922285237500,2.052237548828125,5.436048984527588,-3.4451076984405518,-2.7862579822540283
1726225922295232500,2.062232421875,6.230686187744141,-4.432331085205078,-2.479271411895752
1726225922305227500,2.0722275390625,6.949207305908203,-4.73471736907959,-2.167452335357666
1726225922315222500,2.082222412109375,7.398180961608887,-4.702045917510986,-1.9128150939941406
1726225922325218600,2.092218505859375,7.711969375610352,-4.4399943351745605,-1.7091885805130005
1726225922335213300,2.10221337890625,7.8108601570129395,-3.3460028171539307,-1.4656708240509033
1726225922345208300,2.112208251953125,7.5587849617004395,-1.1380783319473267,-0.9970341920852661
1726225922355203300,2.122203369140625,7.550834655761719,0.8547238707542419,-0.5904978513717651
1726225922365199600,2.13219970703125,8.406896591186523,1.242011308670044,-0.8813942670822144
1726225922375194600,2.142194580078125,9.12539291381836,1.4618480205535889,-1.1604069471359253
1726225922385189600,2.152189697265625,9.546050071716309,1.34580659866333,-1.3827307224273682
1726225922395185400,2.162185302734375,9.72917366027832,0.8252952098846436,-1.682303547859192
1726225922405180400,2.172180419921875,9.469176292419434,0.23310807347297668,-1.8832218647003174
1726225922415175400,2.182175537109375,8.596903800964355,-0.2352900207042694,-2.0320205688476562
1726225922425170400,2.19217041015625,7.695591449737549,-0.67556232213974,-2.1046764850616455
1726225922435166500,2.20216650390625,6.601200580596924,-1.2891360521316528,-2.061798334121704
1726225922445161500,2.212161376953125,5.336297035217285,-2.0131773948669434,-1.799834132194519
1726225922455156500,2.222156494140625,3.596379041671753,-2.734837293624878,-1.4302747249603271
1726225922465151500,2.2321513671875,1.9362472295761108,-3.2983415126800537,-1.1072535514831543
1726225922475147500,2.2421474609375,0.33606791496276855,-3.9414045810699463,-1.2332836389541626
1726225922485142500,2.252142578125,-0.37913790345191956,-3.796998977661133,-1.5383944511413574
1726225922495137500,2.262137451171875,-0.5207240581512451,-3.129459857940674,-1.8513915538787842
1726225922505132500,2.272132568359375,-0.49345263838768005,-2.4595344066619873,-1.9878472089767456
1726225922515128300,2.28212841796875,-0.41960132122039795,-1.4290611743927002,-1.8511266708374023
1726225922525123300,2.292123291015625,-0.38486340641975403,-0.3256610929965973,-1.3939306735992432
1726225922535118600,2.30211865234375,-0.3053099811077118,-0.1339033544063568,-0.8387473821640015
1726225922545113600,2.312113525390625,-0.13394160568714142,-0.5961488485336304,-0.16580429673194885
1726225922555109400,2.322109375,0.1529088020324707,-0.3181217312812805,0.49795210361480713
1726225922565104400,2.3321044921875,0.4169047176837921,0.3857302963733673,0.8724958896636963
1726225922575099400,2.342099365234375,0.6098054647445679,0.6557093262672424,1.0251315832138062
1726225922585094400,2.352094482421875,0.6999509930610657,0.7118732929229736,1.0483403205871582
1726225922595090400,2.36209033203125,0.7348685264587402,0.7215086221694946,0.9980092644691467
1726225922605085400,2.37208544921875,0.7356544733047485,0.6854153871536255,0.8311227560043335
1726225922615080400,2.38208056640625,0.7209596633911133,0.6241365671157837,0.558002769947052
1726225922625075500,2.392075439453125,0.6910638213157654,0.5648012757301331,0.24389956891536713
1726225922635071500,2.402071533203125,0.6764465570449829,0.4749557673931122,-0.07164906710386276
1726225922645066500,2.41206640625,0.7015868425369263,0.36434298753738403,-0.3895193040370941
1726225922655061500,2.4220615234375,0.7075192928314209,0.24336223304271698,-0.6702747941017151
1726225922665057500,2.4320576171875,0.7300496101379395,0.10589098930358887,-0.8832315802574158
1726225922675052300,2.44205224609375,0.7689347267150879,-0.08984522521495819,-1.0160335302352905
1726225922685047300,2.45204736328125,0.8548889756202698,-0.35107576847076416,-1.114079236984253
1726225922695042300,2.462042236328125,0.9371081590652466,-0.6391873955726624,-1.2031854391098022
1726225922705038600,2.47203857421875,0.9904056787490845,-0.9012258648872375,-1.291563868522644
1726225922715033600,2.48203369140625,0.999638557434082,-1.1495816707611084,-1.390693187713623
1726225922725028600,2.492028564453125,0.9511100053787231,-1.3160479068756104,-1.4526327848434448
1726225922735023600,2.502023681640625,0.7423831224441528,-1.2806289196014404,-1.4517340660095215
1726225922745019400,2.512019287109375,0.6554914712905884,-1.2105480432510376,-1.4415431022644043
1726225922755014400,2.522014404296875,0.6475264430046082,-1.0795702934265137,-1.222362756729126
1726225922765009400,2.532009521484375,0.72650146484375,-0.9096494317054749,-0.8501770496368408
1726225922775004400,2.54200439453125,0.8083395957946777,-0.5548979640007019,-0.34716370701789856
1726225922785000400,2.55200048828125,0.9446620345115662,-0.13173022866249084,0.1462869942188263
1726225922794995500,2.561995361328125,0.9557892680168152,0.17145946621894836,0.652929425239563
1726225922804990500,2.571990478515625,1.0650231838226318,0.22230274975299835,0.934487521648407
1726225922814985500,2.5819853515625,1.1266287565231323,0.2588602304458618,1.081701397895813
1726225922824981500,2.5919814453125,1.1337172985076904,0.32954496145248413,1.1359549760818481
1726225922834976500,2.6019765625,1.131363868713379,0.47993552684783936,1.097269892692566
1726225922844971500,2.611971435546875,1.1299537420272827,0.6513537168502808,0.969312310218811
1726225922854966500,2.621966552734375,1.0750079154968262,0.755801260471344,0.811802327632904
1726225922864962600,2.631962646484375,1.0215548276901245,0.7410159707069397,0.6323155164718628
1726225922874957600,2.64195751953125,0.9688228964805603,0.5651325583457947,0.4477944076061249
1726225922884952600,2.65195263671875,0.9084071516990662,0.2735987603664398,0.2669634521007538
1726225922894947600,2.661947509765625,0.8562192916870117,-0.06495293229818344,0.10048339515924454
1726225922904943400,2.671943359375,0.7975521087646484,-0.41849666833877563,-0.03928840160369873
1726225922914938400,2.6819384765625,0.7384060025215149,-0.7440159320831299,-0.16688871383666992
1726225922924933400,2.691933349609375,0.6873842477798462,-1.004258632659912,-0.28162750601768494
1726225922934928400,2.701928466796875,0.6666371822357178,-1.2032140493392944,-0.37926244735717773
1726225922944924400,2.71192431640625,0.6710159778594971,-1.3370777368545532,-0.4505520761013031
1726225922954919700,2.721919677734375,0.6840074062347412,-1.4362032413482666,-0.49643436074256897
1726225922964915500,2.73191552734375,0.7083759307861328,-1.503045678138733,-0.5309481620788574
1726225922974910500,2.741910400390625,0.7200083136558533,-1.562355399131775,-0.5349897742271423
1726225922984906800,2.75190673828125,0.7145629525184631,-1.6328186988830566,-0.5138801336288452
1726225922994901800,2.76190185546875,0.691199004650116,-1.7063677310943604,-0.4700450301170349
1726225923004896800,2.771896728515625,0.6627616882324219,-1.7673319578170776,-0.41521552205085754
1726225923014891500,2.7818916015625,0.6176871657371521,-1.791121244430542,-0.37000516057014465
1726225923024887600,2.791887451171875,0.5446459054946899,-1.7624315023422241,-0.3365093469619751
1726225923034882600,2.801882568359375,0.48346269130706787,-1.6456938982009888,-0.33592796325683594
1726225923044877600,2.811877685546875,0.43280699849128723,-1.5063049793243408,-0.3479624092578888
1726225923054873600,2.82187353515625,0.3863455057144165,-1.426918625831604,-0.33755770325660706
1726225923064868600,2.83186865234375,0.3662704527378082,-1.458817481994629,-0.2937261462211609
1726225923074863600,2.841863525390625,0.3502131700515747,-1.5385477542877197,-0.22330814599990845
1726225923084858600,2.851858642578125,0.3087555766105652,-1.6269758939743042,-0.1421905905008316
1726225923094853600,2.861853515625,0.2604748606681824,-1.6640044450759888,-0.06370563060045242
1726225923104849700,2.871849609375,0.21204257011413574,-1.656097650527954,-0.007474975660443306
1726225923114844700,2.8818447265625,0.163530170917511,-1.60283362865448,0.04757069796323776
1726225923124839400,2.89183935546875,0.1342022866010666,-1.492133378982544,0.09786682575941086
1726225923134835500,2.90183544921875,0.1090005412697792,-1.430729627609253,0.15585556626319885
1726225923144830700,2.911830810546875,0.1147090420126915,-1.2835670709609985,0.2021869421005249
1726225923154825700,2.92182568359375,0.10241296142339706,-1.1377336978912354,0.24367952346801758
1726225923164820700,2.93182080078125,0.07470434159040451,-1.043258547782898,0.28571128845214844
1726225923174816500,2.94181640625,0.014006104320287704,-0.9589722752571106,0.2792792320251465
1726225923184811500,2.9518115234375,-0.013383101671934128,-0.8449671268463135,0.1917201280593872
1726225923194806500,2.961806640625,-0.013360464945435524,-0.7444447875022888,0.06416058540344238
1726225923204801500,2.971801513671875,-0.052333056926727295,-0.6922022700309753,-0.07963109016418457
1726225923214797600,2.981797607421875,-0.08517542481422424,-0.6672196984291077,-0.20197245478630066
1726225923224792600,2.99179248046875,-0.10517297685146332,-0.6132817268371582,-0.275003045797348
1726225923234787600,3.00178759765625,-0.12212133407592773,-0.5457082390785217,-0.30484190583229065
1726225923244782600,3.011782470703125,-0.13574691116809845,-0.5260458588600159,-0.32177838683128357
1726225923254778600,3.021778564453125,-0.17919504642486572,-0.5504068732261658,-0.32192087173461914
1726225923264773600,3.031773681640625,-0.20804162323474884,-0.5386996865272522,-0.33619818091392517
1726225923274768600,3.0417685546875,-0.22662730515003204,-0.4816552698612213,-0.3279237449169159
1726225923284763600,3.051763671875,-0.2557846009731293,-0.39598098397254944,-0.3074720501899719
1726225923294759400,3.061759521484375,-0.31008538603782654,-0.33424437046051025,-0.24766357243061066
1726225923304754400,3.07175439453125,-0.34438642859458923,-0.2911186218261719,-0.1590748280286789
1726225923314749400,3.08174951171875,-0.3276063799858093,-0.23875848948955536,-0.07275697588920593
1726225923324744700,3.09174462890625,-0.3096993863582611,-0.14953093230724335,0.0069707646034657955
1726225923334740700,3.10174072265625,-0.29330551624298096,-0.05245579034090042,0.06999446451663971
1726225923344735700,3.11173583984375,-0.28067725896835327,0.043057553470134735,0.13617224991321564
1726225923354730500,3.12173046875,-0.2779163420200348,0.1429106444120407,0.21276423335075378
1726225923364725500,3.1317255859375,-0.282691091299057,0.21605417132377625,0.3084125816822052
1726225923374721500,3.141721435546875,-0.2759876549243927,0.21507199108600616,0.4260161817073822
1726225923384716500,3.151716552734375,-0.27245473861694336,0.10353846848011017,0.5740239024162292
1726225923394711600,3.161711669921875,-0.25728803873062134,-0.06610915064811707,0.71294105052948
1726225923404706800,3.171706787109375,-0.23531055450439453,-0.18759191036224365,0.811416506767273
1726225923414702600,3.18170263671875,-0.21528197824954987,-0.1359982192516327,0.8425807952880859
1726225923424697600,3.191697509765625,-0.20161113142967224,-0.03636523336172104,0.8291174173355103
1726225923434692600,3.201692626953125,-0.17826959490776062,-0.013224229216575623,0.8024945855140686
1726225923444687600,3.2116875,-0.15817512571811676,-0.03619825839996338,0.769537627696991
1726225923454683600,3.22168359375,-0.12366321682929993,-0.03507040813565254,0.713198721408844
1726225923464678400,3.231678466796875,-0.08562859147787094,0.041046999394893646,0.6101533770561218
1726225923474673400,3.24167333984375,-0.0356714203953743,0.14413076639175415,0.48031947016716003
1726225923484668400,3.25166845703125,0.038038212805986404,0.18528546392917633,0.3220440745353699
1726225923494663700,3.26166357421875,0.1085435301065445,0.20781101286411285,0.12640613317489624
1726225923504659700,3.27165966796875,0.15313184261322021,0.22619035840034485,-0.09267909824848175
1726225923514654700,3.28165478515625,0.17182722687721252,0.26765844225883484,-0.3315387964248657
1726225923524649700,3.291649658203125,0.17998257279396057,0.31545117497444153,-0.569051206111908
1726225923534644500,3.30164453125,0.1747870147228241,0.37064439058303833,-0.7893814444541931
1726225923544640500,3.311640625,0.16878552734851837,0.424856573343277,-0.9947385787963867
1726225923554635500,3.321635498046875,0.14696891605854034,0.4441351890563965,-1.1664786338806152
1726225923564630500,3.331630615234375,0.12268728017807007,0.3896265923976898,-1.2890920639038086
1726225923574625500,3.34162548828125,0.09886423498392105,0.30390745401382446,-1.3766701221466064
1726225923584621600,3.35162158203125,0.06962290406227112,0.2526704967021942,-1.4379448890686035
1726225923594616600,3.361616455078125,0.06348191946744919,0.2304227203130722,-1.4824869632720947
1726225923604611600,3.371611572265625,0.0483800433576107,0.2097153216600418,-1.4606132507324219
1726225923614606600,3.381606689453125,-0.02685132436454296,0.17685990035533905,-1.3509021997451782
1726225923624602600,3.3916025390625,-0.13876143097877502,0.1167803704738617,-1.172922968864441
1726225923634597600,3.40159765625,-0.21266788244247437,0.06794865429401398,-0.9578020572662354
1726225923644592600,3.411592529296875,-0.23689056932926178,0.04902469739317894,-0.7223660349845886
1726225923654587400,3.42158740234375,-0.22455960512161255,0.05983446538448334,-0.45988729596138
1726225923664583700,3.431583740234375,-0.19842557609081268,0.05481720343232155,-0.18526726961135864
1726225923674578700,3.44157861328125,-0.16622290015220642,0.06460431963205338,0.0694933831691742
1726225923684573700,3.45157373046875,-0.13880470395088196,0.08541274070739746,0.2951333820819855
1726225923694568700,3.461568603515625,-0.1585560441017151,0.16536110639572144,0.48378559947013855
1726225923704564500,3.471564453125,-0.17368794977664948,0.28188642859458923,0.6172137260437012
1726225923714559500,3.4815595703125,-0.17421258985996246,0.39390110969543457,0.6999075412750244
1726225923724554500,3.491554443359375,-0.17903205752372742,0.5194748044013977,0.7400780916213989
1726225923734549500,3.501549560546875,-0.20204681158065796,0.6663990020751953,0.7513701319694519
1726225923744545800,3.5115458984375,-0.21236498653888702,0.7641006708145142,0.7511711120605469
1726225923754540800,3.521540771484375,-0.23066143691539764,0.8362555503845215,0.7629569172859192
1726225923764535600,3.53153564453125,-0.24691222608089447,0.8710345029830933,0.796236515045166
1726225923774530600,3.541530517578125,-0.24958789348602295,0.8987281918525696,0.8380175232887268
1726225923784526600,3.551526611328125,-0.2353866845369339,0.9275287389755249,0.8829950094223022
1726225923794521600,3.561521484375,-0.21160651743412018,0.965099573135376,0.9320852756500244
1726225923804516600,3.5715166015625,-0.1925308108329773,1.0363610982894897,0.9916046261787415
1726225923814511600,3.58151171875,-0.17769940197467804,1.0828567743301392,1.0580281019210815
1726225923824507600,3.591507568359375,-0.16345921158790588,1.1290380954742432,1.1231706142425537
1726225923834502700,3.601502685546875,-0.14697265625,1.178389072418213,1.1734745502471924
1726225923844497700,3.61149755859375,-0.10391254723072052,1.2285131216049194,1.181281328201294
1726225923854492700,3.62149267578125,-0.04608706384897232,1.2495046854019165,1.126351237297058
1726225923864488700,3.63148876953125,-0.0016393715050071478,1.265161156654358,1.010633945465088
1726225923874483700,3.641483642578125,0.059126775711774826,1.275069236755371,0.8254928588867188
1726225923884478500,3.651478515625,0.09554354846477509,1.1369253396987915,0.6148566603660583
1726225923894473500,3.661473388671875,0.11265941709280014,0.9583581686019897,0.4240632653236389
1726225923904469500,3.671469482421875,0.10670920461416245,0.7863833904266357,0.2802231013774872
1726225923914464800,3.68146484375,0.11982900649309158,0.6585018634796143,0.16346397995948792
1726225923924459800,3.691459716796875,0.14222945272922516,0.5824096202850342,0.06829830259084702
1726225923934454800,3.701454833984375,0.14985939860343933,0.5118443369865417,-0.0074537149630486965
1726225923944449500,3.711449462890625,0.14730015397071838,0.45536741614341736,-0.07730980217456818
1726225923954445600,3.721445556640625,0.13972985744476318,0.44870686531066895,-0.13136610388755798
1726225923964440600,3.731440673828125,0.11160029470920563,0.4485318660736084,-0.1658194363117218
1726225923974434800,3.741434814453125,0.10633016377687454,0.4541676640510559,-0.1955277919769287
1726225923984429800,3.751429931640625,0.10274689644575119,0.5066466927528381,-0.20167852938175201
1726225923994425900,3.76142578125,0.08521770685911179,0.5815030932426453,-0.1730833649635315
1726225924004421000,3.771421142578125,0.06482282280921936,0.6467125415802002,-0.11479710787534714
1726225924014416000,3.781415771484375,0.036953914910554886,0.6529025435447693,-0.03850207105278969
1726225924024411000,3.791410888671875,0.012731131166219711,0.6024364233016968,0.03935704380273819
1726225924034407000,3.801406982421875,-0.016855789348483086,0.5283057689666748,0.12376540154218674
1726225924044402000,3.81140185546875,-0.05506382882595062,0.46019625663757324,0.19704651832580566
1726225924054397000,3.82139697265625,-0.0813596099615097,0.4198925197124481,0.25143304467201233
1726225924064392000,3.831391845703125,-0.11439340561628342,0.44253775477409363,0.28261277079582214
1726225924074387700,3.8413876953125,-0.14989307522773743,0.48948395252227783,0.2822748124599457
1726225924084382700,3.8513828125,-0.18322181701660156,0.5100825428962708,0.25275811553001404
1726225924094378000,3.8613779296875,-0.22062592208385468,0.522692084312439,0.19985362887382507
1726225924104373000,3.871373046875,-0.25965285301208496,0.5346370339393616,0.14154647290706635
1726225924114369000,3.881369140625,-0.2947882115840912,0.5209518671035767,0.09120819717645645
1726225924124363800,3.89136376953125,-0.3438090980052948,0.47018057107925415,0.06807626038789749
1726225924134358800,3.90135888671875,-0.4034380614757538,0.4278847873210907,0.08831575512886047
1726225924144353800,3.911353759765625,-0.4508415162563324,0.401080459356308,0.1297769397497177
1726225924154348800,3.921348876953125,-0.49135592579841614,0.3904011845588684,0.15928156673908234
1726225924164344800,3.9313447265625,-0.5024325847625732,0.3801039755344391,0.1691768318414688
1726225924174339800,3.94133984375,-0.5088769197463989,0.3753907084465027,0.1679810732603073
1726225924184335000,3.951335205078125,-0.5268213152885437,0.3774034380912781,0.15616381168365479
1726225924194329900,3.961329833984375,-0.5449081659317017,0.3722768723964691,0.13385316729545593
1726225924204326000,3.971325927734375,-0.5535966753959656,0.34270942211151123,0.10718531161546707
1726225924214321000,3.98132080078125,-0.5586636066436768,0.307115763425827,0.07045845687389374
1726225924224316000,3.99131591796875,-0.5532498955726624,0.2789019048213959,0.047876857221126556
1726225924234311000,4.001310791015625,-0.5437352657318115,0.2244354486465454,0.031916264444589615
1726225924244306700,4.011306640625,-0.5284318923950195,0.1621372550725937,0.012313933111727238
1726225924254301700,4.0213017578125,-0.5402422547340393,0.14768321812152863,0.002907381858676672
1726225924264297000,4.031296875,-0.5481458306312561,0.180940642952919,-0.010728894732892513
1726225924274292000,4.0412919921875,-0.5298320651054382,0.2393198013305664,-0.04870210960507393
1726225924284288000,4.0512880859375,-0.5019475221633911,0.27714428305625916,-0.11072371900081635
1726225924294283000,4.061282958984375,-0.47731921076774597,0.2737753689289093,-0.19076208770275116
1726225924304278000,4.071278076171875,-0.48264992237091064,0.2490183711051941,-0.25006675720214844
1726225924314272800,4.081272705078125,-0.5043735504150391,0.23603038489818573,-0.266613245010376
1726225924324267800,4.091267822265625,-0.5272636413574219,0.2303241789340973,-0.2506738603115082
1726225924334263800,4.101263916015625,-0.5362885594367981,0.19611747562885284,-0.20777486264705658
1726225924344258800,4.1112587890625,-0.5426644682884216,0.15113361179828644,-0.15033377707004547
1726225924354254000,4.121254150390625,-0.5241667032241821,0.09975218027830124,-0.09540421515703201
1726225924364249000,4.1312490234375,-0.4893876612186432,0.06614241749048233,-0.03758328780531883
1726225924374244900,4.141244873046875,-0.44343188405036926,0.039161670953035355,0.01827278733253479
1726225924384239900,4.151239990234375,-0.4087335765361786,0.03473129868507385,0.09104818850755692
1726225924394235000,4.16123486328125,-0.4030037820339203,0.04334103316068649,0.19287574291229248
1726225924404230000,4.17122998046875,-0.4171970784664154,0.0714549571275711,0.3006834387779236
1726225924414226000,4.181225830078125,-0.4198860824108124,0.12712673842906952,0.3824813663959503
1726225924424221000,4.191220947265625,-0.4084230661392212,0.18218986690044403,0.41352730989456177
1726225924434215700,4.201215576171875,-0.3850349187850952,0.20425735414028168,0.38080212473869324
1726225924444211000,4.2112109375,-0.381191611289978,0.19763992726802826,0.31382396817207336
1726225924454207000,4.22120703125,-0.3963828384876251,0.22138866782188416,0.24794642627239227
1726225924464202000,4.231201904296875,-0.4030231833457947,0.2746489644050598,0.19005094468593597
1726225924474197000,4.241197021484375,-0.41904929280281067,0.33746975660324097,0.14688296616077423
1726225924484192000,4.25119189453125,-0.44150274991989136,0.3718697130680084,0.10306413471698761
1726225924494186800,4.261186767578125,-0.46750399470329285,0.3828408718109131,0.06388584524393082
1726225924504182800,4.271182861328125,-0.49448874592781067,0.3367445468902588,0.04943019896745682
1726225924514177800,4.281177734375,-0.5097640752792358,0.24303270876407623,0.039256125688552856
1726225924524172800,4.2911728515625,-0.5187332034111023,0.1785513162612915,0.03291424363851547
1726225924534168000,4.30116796875,-0.5246672630310059,0.15363557636737823,0.022841639816761017
1726225924544163800,4.311163818359375,-0.5229638814926147,0.14918550848960876,0.004782780073583126
1726225924554158800,4.321158935546875,-0.5249828696250916,0.11740334331989288,-0.008969783782958984
1726225924564153900,4.33115380859375,-0.5281022191047668,0.05598192662000656,0.00932597927749157
1726225924574148900,4.34114892578125,-0.5374094843864441,0.0010499665513634682,0.06954484432935715
1726225924584145000,4.351144775390625,-0.5449840426445007,0.000571670476347208,0.1571463793516159
1726225924594140000,4.361139892578125,-0.5569102168083191,0.02992849424481392,0.22625035047531128
1726225924604135000,4.371135009765625,-0.5650160908699036,0.08116797357797623,0.2679009735584259
1726225924614129700,4.381129638671875,-0.5638467073440552,0.16090887784957886,0.2683665156364441
1726225924624126000,4.3911259765625,-0.5530757904052734,0.23795899748802185,0.2203541100025177
1726225924634121000,4.401120849609375,-0.5326948761940002,0.32060009241104126,0.12352076917886734
1726225924644116000,4.411115966796875,-0.5125576257705688,0.3692949116230011,-0.010304552502930164
1726225924654111000,4.421111083984375,-0.5063942670822144,0.3635651171207428,-0.147687166929245
1726225924664106000,4.43110595703125,-0.5127566456794739,0.3161664307117462,-0.27224698662757874
1726225924674101800,4.441101806640625,-0.5149076581001282,0.2485698163509369,-0.4032827615737915
1726225924684096800,4.4510966796875,-0.5373954772949219,0.18760626018047333,-0.5491560101509094
1726225924694091800,4.461091796875,-0.5900754928588867,0.1514439880847931,-0.7098564505577087
1726225924704086800,4.471086669921875,-0.6220436692237854,0.06614941358566284,-0.8644112348556519
1726225924714083000,4.4810830078125,-0.6238921284675598,-0.08309493213891983,-0.9806851148605347
1726225924724077800,4.491077880859375,-0.6305491328239441,-0.26832160353660583,-1.0312968492507935
1726225924734072800,4.50107275390625,-0.630253255367279,-0.45979008078575134,-1.0368378162384033
1726225924744067800,4.51106787109375,-0.6020210385322571,-0.6633928418159485,-1.0123536586761475
1726225924754064000,4.52106396484375,-0.5785785913467407,-0.8300673365592957,-0.9475128054618835
1726225924764059000,4.531058837890625,-0.5803039073944092,-0.9032554030418396,-0.867131769657135
1726225924774054000,4.541053955078125,-0.5867146849632263,-0.8994654417037964,-0.8187008500099182
1726225924784049000,4.551048828125,-0.555029034614563,-0.8633466958999634,-0.8177168965339661
1726225924794044000,4.5610439453125,-0.5069685578346252,-0.7967373132705688,-0.8433879017829895
1726225924804040000,4.5710400390625,-0.44997066259384155,-0.7071051001548767,-0.8612256646156311
1726225924814035000,4.581034912109375,-0.39373400807380676,-0.6188678741455078,-0.8591657280921936
1726225924824030000,4.591030029296875,-0.34719666838645935,-0.5366919636726379,-0.8443880677223206
1726225924834025000,4.60102490234375,-0.3171069324016571,-0.48592227697372437,-0.8339024186134338
1726225924844020700,4.611020751953125,-0.29096153378486633,-0.5097750425338745,-0.846019983291626
1726225924854015700,4.621015625,-0.2598225176334381,-0.5957463979721069,-0.8780418634414673
1726225924864010800,4.6310107421875,-0.21720126271247864,-0.7501371502876282,-0.8941290974617004
1726225924874005800,4.641005859375,-0.17429961264133453,-0.9027570486068726,-0.8653536438941956
1726225924884000800,4.651000732421875,-0.12941481173038483,-0.9761723875999451,-0.8007948398590088
1726225924893997000,4.6609970703125,-0.05595283955335617,-1.0256476402282715,-0.7061495184898376
1726225924903992000,4.670991943359375,0.02208811789751053,-1.0628150701522827,-0.5860391855239868
1726225924913986800,4.68098681640625,0.06206349655985832,-1.0740933418273926,-0.4516102969646454
1726225924923981800,4.69098193359375,0.09817644208669662,-1.0430415868759155,-0.32287973165512085
1726225924933977900,4.700977783203125,0.14863456785678864,-0.9426273703575134,-0.2190593183040619
1726225924943972900,4.710972900390625,0.20859308540821075,-0.8175901770591736,-0.14964699745178223
1726225924953967900,4.7209677734375,0.25102177262306213,-0.6786836981773376,-0.09473448991775513
1726225924963963000,4.730962890625,0.26748546957969666,-0.5492605566978455,-0.05367482453584671
1726225924973959000,4.740958984375,0.2747146189212799,-0.4367516040802002,-0.019838830456137657
1726225924983954000,4.750953857421875,0.2895803153514862,-0.3737022578716278,-0.007246570196002722
1726225924993949000,4.760948974609375,0.29981672763824463,-0.3723110258579254,-0.008971765637397766
1726225925003944000,4.77094384765625,0.31608647108078003,-0.43138524889945984,-0.010025701485574245
1726225925013940000,4.78093994140625,0.34008368849754333,-0.5131070017814636,-0.02416708692908287
1726225925023934700,4.790934814453125,0.3475860059261322,-0.563505232334137,-0.0765952616930008
1726225925033929700,4.8009296875,0.34369751811027527,-0.6055562496185303,-0.1695891171693802
1726225925043924700,4.8109248046875,0.3509765863418579,-0.6971143484115601,-0.3047693371772766
1726225925053919700,4.820919677734375,0.3525683283805847,-0.8479099869728088,-0.4334346354007721
1726225925063916000,4.830916015625,0.33432242274284363,-1.006386399269104,-0.5378832817077637
1726225925073911000,4.8409111328125,0.29105111956596375,-1.157328724861145,-0.6322838068008423
1726225925083906000,4.850906005859375,0.2178608924150467,-1.2805732488632202,-0.7022237777709961
1726225925093900800,4.86090087890625,0.15514744818210602,-1.3702517747879028,-0.7493768930435181
1726225925103896800,4.870896728515625,0.1276993602514267,-1.4176812171936035,-0.7725361585617065
1726225925113891800,4.880891845703125,0.11652527749538422,-1.4173836708068848,-0.765697181224823
1726225925123886800,4.890886962890625,0.11737795174121857,-1.3635785579681396,-0.7454264760017395
1726225925133881900,4.9008818359375,0.1354227215051651,-1.25028395652771,-0.7038689255714417
1726225925143876900,4.910876953125,0.12882903218269348,-1.0771301984786987,-0.6274227499961853
1726225925153873000,4.920872802734375,0.1273680180311203,-0.9193110466003418,-0.5393970608711243
1726225925163868000,4.930867919921875,0.12122835963964462,-0.7680846452713013,-0.4262218773365021
1726225925173863000,4.94086279296875,0.11089422553777695,-0.607977032661438,-0.29706814885139465
1726225925183858000,4.95085791015625,0.1018219143152237,-0.462816447019577,-0.16485914587974548
1726225925193854000,4.96085400390625,0.09224678575992584,-0.35954704880714417,-0.07299765944480896
1726225925203849000,4.970848876953125,0.07572352141141891,-0.24549438059329987,-0.025038953870534897
1726225925213843700,4.98084375,0.04525935649871826,-0.16249296069145203,-0.018901165574789047
1726225925223838700,4.990838623046875,0.01933460868895054,-0.15151366591453552,-0.03754609078168869
1726225925233833700,5.000833740234375,0.011935815215110779,-0.13344119489192963,-0.04117171838879585
1726225925243830000,5.010830078125,-0.003762169973924756,-0.061975400894880295,0.005807620007544756
1726225925253825000,5.020824951171875,0.0011729339603334665,-0.026109548285603523,0.09566080570220947
1726225925263820000,5.030820068359375,0.00793627742677927,-0.02197059988975525,0.20339232683181763
1726225925273815000,5.04081494140625,-0.009248035959899426,0.035698287189006805,0.3122711181640625
1726225925283810800,5.050810791015625,-0.008406647481024265,0.17180433869361877,0.3737495243549347
1726225925293805800,5.060805908203125,-0.0057030064053833485,0.35584500432014465,0.37226641178131104
1726225925303800800,5.07080078125,-0.027043506503105164,0.5683028101921082,0.35174331068992615
1726225925313795800,5.0807958984375,-0.025002459064126015,0.729253888130188,0.33733880519866943
1726225925323790800,5.090790771484375,0.013908074237406254,0.8654013276100159,0.34188300371170044
1726225925333787000,5.100786865234375,0.059622034430503845,0.9243701100349426,0.33567970991134644
1726225925343782000,5.110781982421875,0.11466220766305923,0.9447884559631348,0.2831401526927948
1726225925353777000,5.12077685546875,0.16492006182670593,0.8856601715087891,0.16586120426654816
1726225925363772000,5.13077197265625,0.14273357391357422,0.8918329477310181,0.038084302097558975
1726225925373768000,5.140767822265625,0.10059252381324768,0.8476431369781494,-0.1084287017583847
1726225925383763000,5.150762939453125,0.0877552181482315,0.7800185084342957,-0.27681928873062134
1726225925393757700,5.1607578125,0.08824870735406876,0.7438839077949524,-0.44093072414398193
1726225925403752700,5.170752685546875,0.09807395935058594,0.6721877455711365,-0.615612804889679
1726225925413749000,5.1807490234375,0.10683789104223251,0.6704830527305603,-0.7793530225753784
1726225925423744000,5.190743896484375,0.12400096654891968,0.6792774200439453,-0.862768292427063
1726225925433739000,5.200739013671875,0.11408282071352005,0.6697520613670349,-0.8449640274047852
1726225925443734000,5.210734130859375,0.10284442454576492,0.5987786650657654,-0.7717041373252869
1726225925453729000,5.22072900390625,0.09687521308660507,0.4771946668624878,-0.7035532593727112
1726225925463724800,5.230724853515625,0.09188497066497803,0.3375614583492279,-0.7083775997161865
1726225925473719800,5.2407197265625,0.08635704964399338,0.25004786252975464,-0.7567850947380066
1726225925483714800,5.25071484375,0.0912177711725235,0.18409715592861176,-0.7497919797897339
1726225925493709800,5.260709716796875,0.10079476237297058,0.1789545863866806,-0.659979522228241
1726225925503705900,5.270705810546875,0.12748707830905914,0.2340729683637619,-0.553287148475647
1726225925513700900,5.280700927734375,0.15071570873260498,0.23871219158172607,-0.48895028233528137
1726225925523695900,5.29069580078125,0.17751865088939667,0.2289644181728363,-0.47497233748435974
1726225925533691000,5.30069091796875,0.20414520800113678,0.24108925461769104,-0.43827584385871887
1726225925543686000,5.310685791015625,0.2282087653875351,0.22488713264465332,-0.3219863772392273
1726225925553682000,5.320681884765625,0.2538779079914093,0.23545348644256592,-0.10887889564037323
1726225925563677000,5.330677001953125,0.2822432219982147,0.2102176398038864,0.17004859447479248
1726225925573672000,5.340671875,0.3256482183933258,0.23132239282131195,0.4089954197406769
1726225925583666700,5.350666748046875,0.35894399881362915,0.33859363198280334,0.5990923047065735
1726225925593663000,5.3606630859375,0.3970858156681061,0.4763813316822052,0.7502235174179077
1726225925603658000,5.370657958984375,0.42209598422050476,0.5592390894889832,0.8715327382087708
1726225925613653000,5.380653076171875,0.44328704476356506,0.5122068524360657,0.978355884552002
1726225925623648000,5.39064794921875,0.46939852833747864,0.4187523424625397,1.106981873512268
1726225925633643000,5.40064306640625,0.4958415925502777,0.32534995675086975,1.2073981761932373
1726225925643638800,5.410638671875,0.4634518027305603,0.24530531466007233,1.2671653032302856
1726225925653633800,5.4206337890625,0.37417280673980713,0.25662773847579956,1.2930407524108887
1726225925663628800,5.43062890625,0.3155956268310547,0.3998308479785919,1.3003603219985962
1726225925673623800,5.440623779296875,0.312364399433136,0.5628189444541931,1.319589614868164
1726225925683620000,5.4506201171875,0.34021246433258057,0.6577156186103821,1.34597909450531
1726225925693614800,5.46061474609375,0.3524440824985504,0.7235902547836304,1.3536162376403809
1726225925703609900,5.47060986328125,0.34570077061653137,0.8397022485733032,1.3551608324050903
1726225925713604900,5.48060498046875,0.33186084032058716,0.9491943717002869,1.3374830484390259
1726225925723600000,5.490599853515625,0.32342734932899475,0.9828110933303833,1.2952134609222412
1726225925733596000,5.500595947265625,0.35154420137405396,0.9373882412910461,1.1546012163162231
1726225925743591000,5.5105908203125,0.370770126581192,0.8606335520744324,0.9137474298477173
1726225925753586000,5.5205859375,0.38856884837150574,0.8453701734542847,0.6307021379470825
1726225925763580700,5.53058056640625,0.37808915972709656,0.89671391248703,0.34882616996765137
1726225925773577000,5.540576904296875,0.32455721497535706,0.9314439296722412,0.05895492807030678
1726225925783572000,5.550572021484375,0.24876122176647186,0.7616133689880371,-0.26229965686798096
1726225925793567000,5.56056689453125,0.20538365840911865,0.4883439838886261,-0.5638051629066467
1726225925803562000,5.57056201171875,0.21327069401741028,0.20262129604816437,-0.7758336663246155
1726225925813557000,5.580556884765625,0.26129043102264404,-0.06839848309755325,-0.9054878354072571
1726225925823552800,5.590552734375,0.24691660702228546,-0.382933646440506,-0.9143636226654053
1726225925833547800,5.6005478515625,0.1989235132932663,-0.7469236254692078,-0.803126871585846
1726225925843542800,5.610542724609375,0.1281551718711853,-1.0547771453857422,-0.6347468495368958
1726225925853537800,5.620537841796875,0.08478877693414688,-1.2632797956466675,-0.472598135471344
1726225925863534000,5.6305341796875,0.062084976583719254,-1.3428215980529785,-0.391944944858551
1726225925873528800,5.64052880859375,0.02395676076412201,-1.3546191453933716,-0.3531821072101593
1726225925883523800,5.65052392578125,0.020302103832364082,-1.3372739553451538,-0.31684327125549316
1726225925893518800,5.660518798828125,0.04713984578847885,-1.2221215963363647,-0.2107013761997223
1726225925903513900,5.670513916015625,0.05321094021201134,-1.0228140354156494,-0.021647771820425987
1726225925913510000,5.680510009765625,0.06164463609457016,-0.8384580612182617,0.19215106964111328
1726225925923505000,5.6905048828125,0.08577463030815125,-0.7519069314002991,0.379819393157959
1726225925933500000,5.7005,0.12035258114337921,-0.6617211103439331,0.48872992396354675
1726225925943495000,5.710494873046875,0.14335913956165314,-0.5823336243629456,0.5219577550888062
1726225925953491000,5.720490966796875,0.18724671006202698,-0.7377618551254272,0.4412868618965149
1726225925963486000,5.73048583984375,0.16979530453681946,-1.09375,0.29805395007133484
1726225925973481200,5.740481201171875,0.07539103925228119,-1.384380578994751,0.19247131049633026
1726225925983476200,5.750476318359375,-0.014321090653538704,-1.578760027885437,0.10619387030601501
1726225925993471200,5.76047119140625,-0.10781855136156082,-1.6481419801712036,0.044113192707300186
1726225926003467000,5.770467041015625,-0.1340589076280594,-1.6402534246444702,-0.021484876051545143
1726225926013462000,5.7804619140625,-0.11496751010417938,-1.4617018699645996,-0.058027174323797226
1726225926023457000,5.79045703125,-0.07298724353313446,-1.1356730461120605,-0.04753701388835907
1726225926033452000,5.8004521484375,-0.018642250448465347,-0.7727487683296204,-0.021442027762532234
1726225926043448300,5.8104482421875,0.02679857239127159,-0.43506842851638794,0.025097869336605072
1726225926053443000,5.820443115234375,0.06283167004585266,-0.13850706815719604,0.08767762780189514
1726225926063438000,5.83043798828125,0.09422701597213745,0.09476253390312195,0.15095598995685577
1726225926073433000,5.84043310546875,0.12728190422058105,0.25746944546699524,0.18506203591823578
1726225926083428000,5.850427978515625,0.12448010593652725,0.39502567052841187,0.19273266196250916
1726225926093424000,5.860424072265625,0.09420129656791687,0.5451776385307312,0.1680414378643036
1726225926103419100,5.870419189453125,0.018216898664832115,0.6914696097373962,0.102846659719944
1726225926113414100,5.8804140625,-0.07972351461648941,0.8669378757476807,0.014621995389461517
1726225926123409200,5.8904091796875,-0.1565668135881424,1.0402523279190063,-0.04519464075565338
1726225926133404000,5.90040380859375,-0.18663416802883148,1.191875696182251,-0.08635646104812622
1726225926143400200,5.910400146484375,-0.18299613893032074,1.2973980903625488,-0.11538379639387131
1726225926153395200,5.920395263671875,-0.17659123241901398,1.2943791151046753,-0.13932587206363678
1726225926163390200,5.93039013671875,-0.14675256609916687,1.2081159353256226,-0.160219207406044
1726225926173385200,5.94038525390625,-0.13829809427261353,1.060604214668274,-0.16196571290493011
1726225926183381000,5.950381103515625,-0.15323176980018616,0.8900110721588135,-0.1523611694574356
1726225926193376000,5.9603759765625,-0.195664182305336,0.7420727610588074,-0.142715185880661
1726225926203371000,5.97037109375,-0.23234662413597107,0.5998364686965942,-0.14311330020427704
1726225926213366000,5.980365966796875,-0.2530266046524048,0.43656837940216064,-0.15067428350448608
1726225926223361000,5.990361083984375,-0.28520095348358154,0.28133466839790344,-0.11360938847064972
1726225926233357300,6.000357421875,-0.29393982887268066,0.17064544558525085,-0.04513658583164215
1726225926243352000,6.01035205078125,-0.2676222622394562,0.09506640583276749,0.051188647747039795
1726225926253347000,6.02034716796875,-0.2418348789215088,0.0426921471953392,0.14763183891773224
1726225926263342000,6.030342041015625,-0.22319333255290985,0.04610152542591095,0.23194605112075806
1726225926273338000,6.040338134765625,-0.1971404254436493,0.13198821246623993,0.29507869482040405
1726225926283333000,6.0503330078125,-0.16390159726142883,0.24763210117816925,0.321895569562912
1726225926293328100,6.060328125,-0.15874172747135162,0.36079809069633484,0.35046491026878357
1726225926303323100,6.0703232421875,-0.16018496453762054,0.4367618262767792,0.3762173056602478
1726225926313318000,6.08031787109375,-0.15943342447280884,0.4127398431301117,0.40058228373527527
1726225926323314200,6.090314208984375,-0.15962859988212585,0.26623740792274475,0.43019357323646545
1726225926333309200,6.10030908203125,-0.16412746906280518,0.07350818812847137,0.4715135991573334
1726225926343304200,6.11030419921875,-0.15967534482479095,-0.09196926653385162,0.5408799648284912
1726225926353299200,6.12029931640625,-0.12864579260349274,-0.1498514711856842,0.6302327513694763
1726225926363294200,6.130294189453125,-0.0986417829990387,-0.12879352271556854,0.7565697431564331
1726225926373290000,6.1402900390625,-0.0856117382645607,-0.13052164018154144,0.8974589705467224
1726225926383285000,6.150284912109375,-0.0741555243730545,-0.16668112576007843,1.026302456855774
1726225926393280000,6.160280029296875,-0.001482647843658924,-0.16828355193138123,1.138217568397522
1726225926403275000,6.17027490234375,0.07107924669981003,-0.09554409235715866,1.2468764781951904
1726225926413271300,6.180271240234375,0.09615530073642731,0.0333920493721962,1.31803297996521
1726225926423266000,6.19026611328125,0.08911187201738358,0.11666097491979599,1.3182498216629028
1726225926433261000,6.200260986328125,0.10400772839784622,0.12521211802959442,1.2491631507873535
1726225926443256000,6.210256103515625,0.12424004077911377,0.11050686985254288,1.145985722541809
1726225926453251000,6.2202509765625,0.13474860787391663,0.07564449310302734,0.9992623925209045
1726225926463247000,6.2302470703125,0.15425023436546326,0.03617426007986069,0.8278778195381165
1726225926473242000,6.2402421875,0.20229685306549072,0.030212774872779846,0.6843835115432739
1726225926483237000,6.250237060546875,0.24112986028194427,0.07121433317661285,0.6258755326271057
1726225926493232000,6.260232177734375,0.2841718792915344,0.10670654475688934,0.6132460236549377
1726225926503228200,6.270228271484375,0.3097588121891022,0.05413880944252014,0.6037291288375854
1726225926513223200,6.28022314453125,0.3378277122974396,-0.048205405473709106,0.5794306993484497
1726225926523218200,6.29021826171875,0.3762277066707611,-0.12832960486412048,0.5586058497428894
1726225926533213200,6.300213134765625,0.4272618591785431,-0.12431168556213379,0.5253941416740417
1726225926543208200,6.310208251953125,0.46506989002227783,-0.11756297200918198,0.4467622935771942
1726225926553204000,6.320203857421875,0.4738370180130005,-0.07992105931043625,0.3313637971878052
1726225926563199000,6.330198974609375,0.48090821504592896,0.022125616669654846,0.18603204190731049
1726225926573194000,6.340194091796875,0.49449512362480164,0.12141837924718857,0.030411019921302795
1726225926583189000,6.35018896484375,0.5243527293205261,0.14714990556240082,-0.1085309237241745
1726225926593184000,6.36018408203125,0.5437272191047668,0.1021941602230072,-0.21451380848884583
1726225926603180300,6.37018017578125,0.5238603353500366,0.045755382627248764,-0.32554489374160767
1726225926613175000,6.380175048828125,0.48730844259262085,0.00030481070280075073,-0.4394674599170685
1726225926623170000,6.390170166015625,0.3953040540218353,-0.04328421503305435,-0.5608442425727844
1726225926633165000,6.4001650390625,0.30534860491752625,-0.06897492706775665,-0.6763902902603149
1726225926643161000,6.4101611328125,0.25739145278930664,-0.10091041773557663,-0.7475625872612
1726225926653156000,6.420156005859375,0.24158239364624023,-0.1816532015800476,-0.7369834780693054
1726225926663151000,6.430151123046875,0.2501600384712219,-0.2691921591758728,-0.6668495535850525
1726225926673146000,6.44014599609375,0.2646667957305908,-0.26094621419906616,-0.5745462775230408
1726225926683141000,6.45014111328125,0.28695783019065857,-0.11062337458133698,-0.4875876009464264
1726225926693137200,6.46013720703125,0.3033072352409363,0.0477399006485939,-0.4227404296398163
1726225926703132200,6.470132080078125,0.30784672498703003,0.2103590965270996,-0.3920498192310333
1726225926713127200,6.480127197265625,0.2538146376609802,0.35537436604499817,-0.4210878610610962
1726225926723122200,6.4901220703125,0.1523844599723816,0.47937554121017456,-0.510576605796814
1726225926733117200,6.5001171875,0.07500392943620682,0.5216545462608337,-0.6144372224807739
1726225926743113000,6.510113037109375,0.03522268682718277,0.5075824856758118,-0.6846790313720703
1726225926753108000,6.52010791015625,0.007938865572214127,0.49569225311279297,-0.7128440737724304
1726225926763103000,6.53010302734375,-0.02235061675310135,0.45165538787841797,-0.7588379383087158
1726225926773098000,6.540097900390625,-0.0759589821100235,0.31571248173713684,-0.8120478987693787
1726225926783093200,6.55009326171875,-0.17433884739875793,0.25483575463294983,-0.8260477185249329
1726225926793089000,6.560089111328125,-0.19143927097320557,0.1496712565422058,-0.8458017110824585
1726225926803084000,6.570083984375,-0.21387778222560883,0.007422106806188822,-0.8340709805488586
1726225926813079000,6.5800791015625,-0.2706625163555145,-0.04295105114579201,-0.8182179927825928
1726225926823074000,6.590073974609375,-0.3598400056362152,-0.00220168917439878,-0.7727855443954468
1726225926833070000,6.600070068359375,-0.4005884826183319,0.08699876070022583,-0.730100154876709
1726225926843065000,6.610065185546875,-0.3801575005054474,0.17133700847625732,-0.6333775520324707
1726225926853060000,6.62006005859375,-0.3493918776512146,0.21069958806037903,-0.501402735710144
1726225926863055000,6.63005517578125,-0.3167000412940979,0.17961211502552032,-0.3539391756057739
1726225926873050000,6.640050048828125,-0.30653074383735657,0.11855354905128479,-0.18666255474090576
1726225926883046100,6.650046142578125,-0.31649327278137207,0.05131612718105316,-0.023505505174398422
1726225926893041200,6.660041259765625,-0.2894155979156494,-0.004925309680402279,0.11545132100582123
1726225926903036200,6.6700361328125,-0.28617843985557556,0.044409286230802536,0.24018949270248413
1726225926913031200,6.68003125,-0.2776603102684021,0.1765204519033432,0.3913968503475189
1726225926923026200,6.690026123046875,-0.25005096197128296,0.275688111782074,0.5837041735649109
1726225926933022000,6.70002197265625,-0.23105357587337494,0.42649757862091064,0.7715986967086792
1726225926943017000,6.710016845703125,-0.1974124163389206,0.6533832550048828,0.959271252155304
1726225926953012000,6.720011962890625,-0.16518977284431458,0.8156294226646423,1.1049333810806274
1726225926963007200,6.73000732421875,-0.14919403195381165,0.7706112265586853,1.1645452976226807
1726225926973003000,6.7400029296875,-0.17524002492427826,0.5843180418014526,1.1115553379058838
1726225926982998000,6.749998046875,-0.22257007658481598,0.4079478681087494,0.9506598114967346
1726225926992993000,6.759992919921875,-0.26538944244384766,0.2595860958099365,0.7071145176887512
1726225927002988000,6.769988037109375,-0.33343249559402466,0.10823779553174973,0.4237385392189026
1726225927012983000,6.779983154296875,-0.4090851843357086,-0.0359761007130146,0.1348998099565506
1726225927022979000,6.78997900390625,-0.5004286766052246,-0.2180504947900772,-0.1059345155954361
1726225927032974000,6.79997412109375,-0.5904089212417603,-0.4346986711025238,-0.2984946370124817
1726225927042969000,6.809968994140625,-0.6676986217498779,-0.695519745349884,-0.4195968210697174
1726225927052964000,6.819964111328125,-0.7096306085586548,-0.9190205335617065,-0.5121076107025146
1726225927062958800,6.829958740234375,-0.7747411727905273,-1.0498217344284058,-0.5584763884544373
1726225927072955100,6.839955078125,-0.8411963582038879,-1.0689557790756226,-0.5727543830871582
1726225927082950100,6.8499501953125,-0.8969118595123291,-1.0684170722961426,-0.6098663210868835
1726225927092945200,6.859945068359375,-0.888706386089325,-0.9990174174308777,-0.7029619216918945
1726225927102940200,6.869940185546875,-0.8349689245223999,-0.8585052490234375,-0.771866500377655
1726225927112936000,6.87993603515625,-0.784390926361084,-0.7529865503311157,-0.7989183664321899
1726225927122931000,6.889930908203125,-0.7650648355484009,-0.7766871452331543,-0.7984095215797424
1726225927132926000,6.899926025390625,-0.7706747651100159,-0.8041936159133911,-0.785750687122345
1726225927142921000,6.9099208984375,-0.7886784672737122,-0.6824155449867249,-0.7446247935295105
1726225927152916000,6.919916015625,-0.8023104071617126,-0.48269227147102356,-0.6890832781791687
1726225927162912300,6.929912353515625,-0.788914680480957,-0.2587886154651642,-0.6407290101051331
1726225927172907000,6.939906982421875,-0.7723529934883118,0.014358241111040115,-0.5660241842269897
1726225927182902000,6.949902099609375,-0.7573805451393127,0.2803879380226135,-0.47993168234825134
1726225927192897000,6.95989697265625,-0.7806485891342163,0.4361359775066376,-0.405353307723999
1726225927202892000,6.96989208984375,-0.7556798458099365,0.4413865804672241,-0.3189607560634613
1726225927212888000,6.97988818359375,-0.6916806101799011,0.3820926249027252,-0.2713434398174286
1726225927222883000,6.989883056640625,-0.6820980310440063,0.45241397619247437,-0.2656521499156952
1726225927232878000,6.999878173828125,-0.6565500497817993,0.6592499613761902,-0.3324231803417206
1726225927242872800,7.009872802734375,-0.6528676152229309,0.8874731063842773,-0.43226033449172974
1726225927252867800,7.019867919921875,-0.6943647265434265,0.9807040095329285,-0.5476577877998352
1726225927262864100,7.029864013671875,-0.7315890192985535,0.9075276851654053,-0.65433669090271
1726225927272859100,7.039859130859375,-0.7576856017112732,0.812957227230072,-0.7511261105537415
1726225927282854100,7.049854248046875,-0.7695105075836182,0.6808481216430664,-0.8672327995300293
1726225927292849200,7.05984912109375,-0.7865917682647705,0.4898049235343933,-0.9763310551643372
1726225927302845000,7.069844970703125,-0.85369873046875,0.284930557012558,-1.1121408939361572
1726225927312840000,7.07983984375,-0.9584845304489136,0.05194709450006485,-1.3138811588287354
1726225927322835000,7.0898349609375,-1.054184079170227,-0.1402154266834259,-1.5256285667419434
1726225927332830000,7.099829833984375,-1.122697353363037,-0.21147149801254272,-1.7214102745056152
1726225927342825000,7.109824951171875,-1.122362494468689,-0.19858139753341675,-1.837664246559143
1726225927352821000,7.119821044921875,-1.0455814599990845,-0.2899962365627289,-1.8782981634140015
1726225927362816000,7.12981591796875,-0.9531408548355103,-0.4711594581604004,-1.804943323135376
1726225927372811000,7.13981103515625,-0.8334892988204956,-0.699975848197937,-1.617027759552002
1726225927382806000,7.149805908203125,-0.7062862515449524,-0.9210041165351868,-1.349958062171936
1726225927392801000,7.159801025390625,-0.582661509513855,-1.1484227180480957,-1.0298839807510376
1726225927402797000,7.169797119140625,-0.5125867128372192,-1.3264158964157104,-0.7404989004135132
1726225927412792000,7.1797919921875,-0.46497899293899536,-1.347778081893921,-0.5272342562675476
1726225927422787000,7.189787109375,-0.4490451216697693,-1.226491093635559,-0.3592037856578827
1726225927432781800,7.19978173828125,-0.41475051641464233,-1.0497101545333862,-0.21331821382045746
1726225927442776800,7.20977685546875,-0.3921339809894562,-0.8580137491226196,-0.0750388503074646
1726225927452773000,7.219773193359375,-0.3462029695510864,-0.6312136650085449,0.07444224506616592
1726225927462768000,7.22976806640625,-0.27758410573005676,-0.5092744827270508,0.23005373775959015
1726225927472763100,7.23976318359375,-0.19391611218452454,-0.46047019958496094,0.35691261291503906
1726225927482758100,7.249758056640625,-0.12213326245546341,-0.4231031835079193,0.45975056290626526
1726225927492753200,7.259753173828125,-0.1139855906367302,-0.34056356549263,0.5339393615722656
1726225927502749000,7.2697490234375,-0.08825752884149551,-0.2351054549217224,0.5472976565361023
1726225927512744000,7.279743896484375,-0.06549016386270523,-0.14729197323322296,0.5057891011238098
1726225927522739000,7.289739013671875,-0.08313991874456406,-0.11498549580574036,0.44298630952835083
1726225927532734000,7.29973388671875,-0.11859804391860962,-0.12804271280765533,0.373747855424881
1726225927542730000,7.30972998046875,-0.1421630084514618,-0.13243214786052704,0.31246238946914673
1726225927552725000,7.31972509765625,-0.13185657560825348,-0.05077029764652252,0.23182906210422516
1726225927562720000,7.329719970703125,-0.09136467427015305,0.1522073894739151,0.1036549061536789
1726225927572715000,7.339715087890625,-0.09981967508792877,0.35217535495758057,-0.05992550402879715
1726225927582710000,7.3497099609375,-0.10193934291601181,0.47901883721351624,-0.24894893169403076
1726225927592706000,7.3597060546875,-0.08981236815452576,0.5823314189910889,-0.4449911415576935
1726225927602701000,7.369701171875,-0.08521859347820282,0.726850688457489,-0.6002826690673828
1726225927612695800,7.37969580078125,-0.07634227722883224,0.8156160116195679,-0.726696789264679
1726225927622690800,7.38969091796875,-0.016509706154465675,0.8592387437820435,-0.8444888591766357
1726225927632685800,7.399685791015625,0.08139608800411224,0.9324407577514648,-0.9288336038589478
1726225927642682000,7.40968212890625,0.12416699528694153,0.9469245672225952,-0.906334400177002
1726225927652677000,7.419677001953125,0.1155434101819992,0.8402870893478394,-0.7425481081008911
1726225927662672100,7.429672119140625,0.09062942862510681,0.6109095215797424,-0.47336462140083313
1726225927672667100,7.439667236328125,0.1482466608285904,0.26099759340286255,-0.061873238533735275
1726225927682662000,7.449661865234375,0.29476025700569153,-0.19542954862117767,0.4312308430671692
1726225927692658000,7.459657958984375,0.499633252620697,-0.5107632875442505,0.844056248664856
1726225927702653000,7.46965283203125,0.6094719171524048,-0.5806567668914795,1.1572514772415161
1726225927712648000,7.47964794921875,0.6151611804962158,-0.5281844735145569,1.3816227912902832
1726225927722643000,7.489642822265625,0.605093240737915,-0.3605411946773529,1.4608139991760254
1726225927732639000,7.499638916015625,0.5840989947319031,-0.18569375574588776,1.3943982124328613
1726225927742634000,7.509634033203125,0.5486624836921692,-0.1618673950433731,1.2782882452011108
1726225927752629000,7.51962890625,0.4797670245170593,-0.28590890765190125,1.1232576370239258
1726225927762624000,7.5296240234375,0.3482295870780945,-0.503345787525177,0.965041995048523
1726225927772619000,7.539618896484375,0.2646814286708832,-0.771949291229248,0.7700163125991821
1726225927782615000,7.549614990234375,0.22333486378192902,-1.0039151906967163,0.5318500995635986
1726225927792610000,7.559610107421875,0.2076144963502884,-1.1837947368621826,0.342973917722702
1726225927802604800,7.569604736328125,0.24807168543338776,-1.3638410568237305,0.19680391252040863
1726225927812599800,7.579599853515625,0.3180558383464813,-1.5742549896240234,0.0664118081331253
1726225927822595000,7.589594970703125,0.40725207328796387,-1.739109754562378,-0.03785056248307228
1726225927832591000,7.599591064453125,0.4657241702079773,-1.798024296760559,-0.13287614285945892
1726225927842586000,7.609586181640625,0.4810390770435333,-1.7702033519744873,-0.22454741597175598
1726225927852581000,7.6195810546875,0.4771879017353058,-1.6135308742523193,-0.33368563652038574
1726225927862576000,7.629576171875,0.4518793523311615,-1.359515905380249,-0.48710063099861145
1726225927872571000,7.63957080078125,0.4395691454410553,-1.0688694715499878,-0.6627238988876343
1726225927882567000,7.64956689453125,0.46325811743736267,-0.747282862663269,-0.8072349429130554
1726225927892562000,7.65956201171875,0.48988306522369385,-0.4270622432231903,-0.8265787959098816
1726225927902557000,7.669556884765625,0.5137972831726074,-0.1571706384420395,-0.7107095122337341
1726225927912552200,7.67955224609375,0.511961042881012,0.08506782352924347,-0.5355738997459412
1726225927922547200,7.689547119140625,0.5378867387771606,0.2769617736339569,-0.359173983335495
1726225927932543000,7.69954296875,0.5730559229850769,0.4525913894176483,-0.16605247557163239
1726225927942538000,7.7095380859375,0.5687839388847351,0.560699462890625,0.05421970784664154
1726225927952533000,7.719532958984375,0.5647961497306824,0.5527560710906982,0.25239697098731995
1726225927962528000,7.729528076171875,0.5420702695846558,0.5141899585723877,0.39136552810668945
1726225927972522000,7.73952197265625,0.4905988276004791,0.5089951753616333,0.4383476972579956
1726225927982518300,7.749518310546875,0.4285315275192261,0.5148748159408569,0.39589381217956543
1726225927992513300,7.75951318359375,0.3664329946041107,0.49462199211120605,0.28653109073638916
1726225928002508300,7.76950830078125,0.31719934940338135,0.361612468957901,0.09106708317995071
1726225928012503000,7.7795029296875,0.24866236746311188,0.1574430912733078,-0.14518778026103973
1726225928022499000,7.7894990234375,0.17445805668830872,-0.019398992881178856,-0.37813520431518555
1726225928032494000,7.799494140625,0.1392151266336441,-0.14104260504245758,-0.57893306016922
1726225928042489000,7.809489013671875,0.1282227337360382,-0.2321428805589676,-0.666854977607727
1726225928052484000,7.819484130859375,0.13257566094398499,-0.3371870219707489,-0.634807825088501
1726225928062479000,7.82947900390625,0.16574209928512573,-0.4599403738975525,-0.4990210235118866
1726225928072475100,7.83947509765625,0.21028825640678406,-0.5369006991386414,-0.29708659648895264
1726225928082470100,7.84947021484375,0.26008108258247375,-0.475620299577713,-0.1438223272562027
1726225928092465200,7.859465087890625,0.31296107172966003,-0.20011311769485474,-0.07938580960035324
1726225928102460200,7.869460205078125,0.3533179461956024,0.07913190871477127,-0.08040385693311691
1726225928112455200,7.879455078125,0.3917878270149231,0.2346338927745819,-0.07174378633499146
1726225928122451000,7.889450927734375,0.4685634970664978,0.25428473949432373,-0.02163824439048767
1726225928132446000,7.899446044921875,0.5421735644340515,0.2451157569885254,0.07959143817424774
1726225928142441000,7.90944091796875,0.5694524049758911,0.2848951816558838,0.19802840054035187
1726225928152436000,7.91943603515625,0.5632206201553345,0.45574548840522766,0.22193586826324463
1726225928162431000,7.929430908203125,0.5763956308364868,0.7332034707069397,0.14825975894927979
1726225928172427300,7.93942724609375,0.5672543048858643,0.8917547464370728,0.047595731914043427
1726225928182422300,7.94942236328125,0.5782344341278076,0.9143310189247131,-0.020589787513017654
1726225928192417000,7.9594169921875,0.5264202356338501,0.8908834457397461,-0.014947347342967987
1726225928202412000,7.969412109375,0.48243075609207153,0.8409430384635925,-0.012225804850459099
1726225928212407000,7.979406982421875,0.459902286529541,0.7321795225143433,-0.05766945332288742
1726225928222403000,7.989403076171875,0.42003095149993896,0.44294673204421997,-0.10543347150087357
1726225928232398000,7.999398193359375,0.35621097683906555,0.17306199669837952,-0.2010795772075653
1726225928242393000,8.00939306640625,0.2805877923965454,-0.025662951171398163,-0.34321483969688416
1726225928252388000,8.01938818359375,0.18451958894729614,-0.22329986095428467,-0.5143916606903076
1726225928262383000,8.029383056640626,0.06300751119852066,-0.41786009073257446,-0.6951329112052917
1726225928272379100,8.039379150390625,-0.05270124599337578,-0.5423370003700256,-0.8127615451812744
1726225928282374100,8.0493740234375,-0.11568352580070496,-0.6021897196769714,-0.8668910264968872
1726225928292369200,8.059369140625,-0.1498987376689911,-0.6905549764633179,-0.8711605668067932
1726225928302364200,8.0693642578125,-0.18433456122875214,-0.845189094543457,-0.8088354468345642
1726225928312359200,8.079359130859375,-0.21454492211341858,-0.936130702495575,-0.6969078779220581
1726225928322355000,8.08935498046875,-0.240740567445755,-0.885592520236969,-0.5408068299293518
1726225928332350000,8.099349853515625,-0.2344488501548767,-0.7945510149002075,-0.36342400312423706
1726225928342345000,8.109344970703125,-0.21839557588100433,-0.6617697477340698,-0.16687846183776855
1726225928352340000,8.119340087890626,-0.15876661241054535,-0.5759222507476807,-0.011847061105072498
1726225928362335200,8.129335205078124,-0.10111348330974579,-0.4943402111530304,0.1254061609506607
1726225928372331300,8.139331298828125,-0.09357753396034241,-0.2718205749988556,0.28519344329833984
1726225928382326000,8.149325927734376,-0.1090126559138298,0.01097761932760477,0.46287113428115845
1726225928392321000,8.159321044921874,-0.10767973959445953,0.2734566628932953,0.6247249841690063
1726225928402316000,8.16931591796875,-0.11012545973062515,0.4548121988773346,0.7618023157119751
1726225928412312000,8.17931201171875,-0.14536680281162262,0.5012145638465881,0.8685189485549927
1726225928422307000,8.18930712890625,-0.1713898628950119,0.46605193614959717,0.9637294411659241
1726225928432302000,8.199302001953125,-0.19089537858963013,0.4146350622177124,1.0469963550567627
1726225928442297000,8.209297119140626,-0.1839027851819992,0.3921818137168884,1.1023776531219482
1726225928452292000,8.2192919921875,-0.15335020422935486,0.3937802314758301,1.1489851474761963
1726225928462288100,8.2292880859375,-0.14290262758731842,0.39963823556900024,1.1821105480194092
1726225928472283100,8.239283203125,-0.13843384385108948,0.04722344130277634,1.1341172456741333
1726225928482278100,8.249278076171874,-0.12533551454544067,-0.7694337368011475,0.992684543132782
1726225928492273200,8.259273193359375,-0.11706959456205368,-1.619226098060608,0.8687785863876343
1726225928502268200,8.26926806640625,-0.13265202939510345,-2.025442123413086,0.7320867776870728
1726225928512264000,8.279263916015625,-0.18849478662014008,-1.758450984954834,0.5826506614685059
1726225928522259000,8.289259033203125,-0.28487107157707214,-1.0106792449951172,0.4393349289894104
1726225928532254000,8.29925390625,-0.35911014676094055,-0.21183714270591736,0.31847161054611206
1726225928542249200,8.309249267578124,-0.3981159031391144,0.3683156967163086,0.2345178872346878
1726225928552244200,8.319244140625,-0.4033186733722687,0.7831222414970398,0.2046252340078354
1726225928562240000,8.329239990234376,-0.4044891893863678,1.1466752290725708,0.24532568454742432
1726225928572235000,8.339235107421874,-0.37118983268737793,1.4306435585021973,0.33912116289138794
1726225928582230000,8.34922998046875,-0.349557101726532,1.6673060655593872,0.48705172538757324
1726225928592225000,8.35922509765625,-0.34205737709999084,1.8576935529708862,0.7069526314735413
1726225928602220000,8.369219970703124,-0.31364181637763977,1.9265234470367432,0.9249441623687744
1726225928612216000,8.379216064453125,-0.27642306685447693,1.8155807256698608,1.0993638038635254
1726225928622211000,8.389211181640626,-0.23575258255004883,1.5158872604370117,1.1705567836761475
1726225928632206000,8.3992060546875,-0.25168466567993164,1.1349729299545288,1.1920799016952515
1726225928642201000,8.409201171875,-0.3010403513908386,0.7596274614334106,1.1744000911712646
1726225928652196000,8.419196044921875,-0.3495407700538635,0.4172786474227905,1.0943042039871216
1726225928662192000,8.429192138671874,-0.3763198256492615,0.19408346712589264,0.9159217476844788
1726225928672187100,8.439187255859375,-0.38221874833106995,0.10793739557266235,0.7349972128868103
1726225928682182100,8.44918212890625,-0.35936522483825684,0.009081313386559486,0.6447563767433167
1726225928692177200,8.45917724609375,-0.3282051980495453,-0.17231297492980957,0.6435238122940063
1726225928702172200,8.469172119140625,-0.24577228724956512,-0.33860066533088684,0.6707285046577454
1726225928712168200,8.479168212890626,-0.1891377717256546,-0.43309494853019714,0.6569506525993347
1726225928722163200,8.4891630859375,-0.14385278522968292,-0.3904179334640503,0.5786159038543701
1726225928732158200,8.499158203125,-0.09789008647203445,-0.1752912551164627,0.4497261047363281
1726225928742153200,8.5091533203125,-0.0733136534690857,0.01686580292880535,0.33957844972610474
1726225928752148200,8.519148193359374,-0.03726058080792427,0.17163726687431335,0.24332432448863983
1726225928762144000,8.52914404296875,0.022673888131976128,0.2864973545074463,0.2239677906036377
1726225928772139000,8.539138916015625,0.07819067686796188,0.33933764696121216,0.21559055149555206
1726225928782134000,8.549134033203124,0.13572551310062408,0.3854820430278778,0.2084904909133911
1726225928792129000,8.55912890625,0.19478511810302734,0.40084874629974365,0.1984860599040985
1726225928802124000,8.5691240234375,0.2782670557498932,0.3346293866634369,0.168185755610466
1726225928812120300,8.579120361328124,0.3414308428764343,0.2818652391433716,0.07948490977287292
1726225928822115000,8.589114990234375,0.4096529185771942,0.30218157172203064,-0.032700419425964355
1726225928832110000,8.599110107421875,0.4161584973335266,0.31637781858444214,-0.20101512968540192
1726225928842105000,8.60910498046875,0.40135180950164795,0.297446072101593,-0.3647706210613251
1726225928852100000,8.61910009765625,0.3956076502799988,0.15885144472122192,-0.5129095315933228
1726225928862096100,8.62909619140625,0.35784393548965454,-0.12308751046657562,-0.6736018061637878
1726225928872091100,8.639091064453124,0.2864815890789032,-0.41640859842300415,-0.8065337538719177
1726225928882086100,8.649086181640625,0.21601662039756775,-0.6436240673065186,-0.8415803909301758
1726225928892081000,8.659080810546875,0.2011018544435501,-0.825682520866394,-0.7846087217330933
1726225928902076000,8.669075927734376,0.24696743488311768,-1.0337697267532349,-0.6925356388092041
1726225928912072200,8.679072265625,0.26777365803718567,-1.1518913507461548,-0.6077626943588257
1726225928922067200,8.689067138671875,0.23286384344100952,-1.1629304885864258,-0.4959135055541992
1726225928932062200,8.699062255859374,0.23092134296894073,-1.119948148727417,-0.376790314912796
1726225928942057200,8.70905712890625,0.26623356342315674,-1.0208353996276855,-0.2637198269367218
1726225928952052200,8.71905224609375,0.2913879156112671,-0.8198551535606384,-0.16886098682880402
1726225928962048000,8.729048095703124,0.2684881389141083,-0.6398271918296814,-0.07809057086706161
1726225928972043800,8.739043701171875,0.2561342418193817,-0.6321879029273987,-0.047870613634586334
1726225928982038800,8.749038818359375,0.22932428121566772,-0.599148154258728,-0.06168060377240181
1726225928992033800,8.75903369140625,0.21464228630065918,-0.48055577278137207,-0.05890932306647301
1726225929002028800,8.76902880859375,0.23972490429878235,-0.37391039729118347,-0.03366530314087868
1726225929012024600,8.779024658203125,0.25443005561828613,-0.3137466609477997,0.08591195940971375
1726225929022019600,8.78901953125,0.2542438507080078,-0.2897685170173645,0.25242215394973755
1726225929032014600,8.7990146484375,0.2573200762271881,-0.28018563985824585,0.39785444736480713
1726225929042009900,8.809009765625,0.2886399030685425,-0.1029106006026268,0.5418511629104614
1726225929052004900,8.8190048828125,0.37517720460891724,0.3064063489437103,0.7063735127449036
1726225929062000600,8.829000732421875,0.4816763699054718,0.7305477857589722,0.8635959625244141
1726225929071995600,8.83899560546875,0.5597748756408691,1.0581145286560059,1.0315487384796143
1726225929081990700,8.84899072265625,0.6237258911132812,1.2813502550125122,1.171881079673767
1726225929091985700,8.858985595703125,0.6712777018547058,1.3802642822265625,1.2122915983200073
1726225929101981700,8.868981689453125,0.6950249075889587,1.408052921295166,1.1726617813110352
1726225929111976700,8.878976806640624,0.6701821088790894,1.2725906372070312,1.0555756092071533
1726225929121971700,8.8889716796875,0.5753977298736572,0.9109501242637634,0.8911619782447815
1726225929131966700,8.898966796875,0.44934362173080444,0.5125540494918823,0.7299975752830505
1726225929141961700,8.908961669921876,0.316685289144516,0.1790589690208435,0.535332977771759
1726225929151957800,8.918957763671875,0.16837863624095917,-0.05783107504248619,0.297502338886261
1726225929161952800,8.928952880859375,0.03716708719730377,-0.15641385316848755,0.024111000820994377
1726225929171947800,8.93894775390625,-0.05124799534678459,-0.25075843930244446,-0.2535645365715027
1726225929181942800,8.94894287109375,-0.11481547355651855,-0.37472227215766907,-0.5004493594169617
1726225929191937800,8.958937744140625,-0.19512735307216644,-0.5057122111320496,-0.6695201396942139
1726225929201933600,8.96893359375,-0.2677566111087799,-0.5971669554710388,-0.7377726435661316
1726225929211928600,8.978928466796875,-0.3044280707836151,-0.6427972912788391,-0.721153736114502
1726225929221923800,8.988923828125,-0.3156381845474243,-0.6501888036727905,-0.6382822394371033
1726225929231918800,8.9989189453125,-0.32435551285743713,-0.5734498500823975,-0.5430031418800354
1726225929241913900,9.008913818359375,-0.30160847306251526,-0.38435426354408264,-0.44070717692375183
1726225929251908900,9.018908935546875,-0.22893106937408447,-0.12609554827213287,-0.3179487884044647
1726225929261904600,9.028904541015624,-0.16021132469177246,0.13890290260314941,-0.17691072821617126
1726225929271899600,9.038899658203125,-0.10878808796405792,0.46373823285102844,0.027467429637908936
1726225929281894700,9.048894775390625,-0.04461056366562843,0.8414771556854248,0.22264964878559113
1726225929291889700,9.0588896484375,0.0357322134077549,1.2119964361190796,0.3626954257488251
1726225929301885700,9.0688857421875,0.10187511146068573,1.4698578119277954,0.47773250937461853
1726225929311880700,9.078880615234375,0.15572847425937653,1.560664415359497,0.5712035894393921
1726225929321875700,9.088875732421876,0.19410531222820282,1.5893439054489136,0.6356252431869507
1726225929331870700,9.09887060546875,0.1805008202791214,1.6362661123275757,0.6465391516685486
1726225929341865700,9.10886572265625,0.13708452880382538,1.6512820720672607,0.5609563589096069
1726225929351861800,9.11886181640625,0.017083561047911644,1.595897912979126,0.42143258452415466
1726225929361856800,9.128856689453125,-0.1575237363576889,1.4536532163619995,0.2622317969799042
1726225929371851800,9.138851806640625,-0.3098299205303192,1.140239953994751,0.08664823323488235
1726225929381846800,9.1488466796875,-0.4622972309589386,0.7450543642044067,-0.08546946942806244
1726225929391841500,9.158841552734375,-0.4782130718231201,0.2933902144432068,-0.38797205686569214
1726225929401837800,9.168837890625,-0.4715832471847534,-0.35410335659980774,-0.8355165123939514
1726225929411832800,9.178832763671876,-0.6208824515342712,-0.7468588948249817,-1.222892165184021
1726225929421827800,9.188827880859375,-0.8244286179542542,-0.7650004625320435,-1.4448164701461792
1726225929431822800,9.19882275390625,-1.0179452896118164,-0.7093153595924377,-1.5179485082626343
1726225929441817900,9.20881787109375,-1.198943853378296,-0.8132379651069641,-1.5036072731018066
1726225929451813600,9.218813720703125,-1.2797462940216064,-1.1197521686553955,-1.3960903882980347
1726225929461808600,9.22880859375,-1.2260953187942505,-1.4876705408096313,-1.1934791803359985
1726225929471803600,9.2388037109375,-1.1164751052856445,-1.684500813484192,-0.9645421504974365
1726225929481798700,9.248798583984374,-1.007454514503479,-1.6265535354614258,-0.7433176636695862
1726225929491793700,9.258793701171875,-0.9096869826316833,-1.4022208452224731,-0.5676324367523193
1726225929501789700,9.268789794921876,-0.7839871644973755,-1.062504529953003,-0.4533454477787018
1726225929511784700,9.27878466796875,-0.6474117040634155,-0.5416299104690552,-0.36088794469833374
1726225929521779700,9.28877978515625,-0.5194063186645508,-0.033322468400001526,-0.2933732271194458
1726225929531774700,9.298774658203126,-0.4344078600406647,0.434162437915802,-0.2671397626399994
1726225929541769700,9.308769775390624,-0.40203744173049927,0.8730687499046326,-0.25217050313949585
1726225929551765800,9.318765869140625,-0.41886329650878906,1.210975170135498,-0.2569391429424286
1726225929561760800,9.3287607421875,-0.42249181866645813,1.4360331296920776,-0.2839716076850891
1726225929571755500,9.338755615234374,-0.39962831139564514,1.5111353397369385,-0.38044169545173645
1726225929581750500,9.34875048828125,-0.40162748098373413,1.4017093181610107,-0.4557735025882721
1726225929591745500,9.35874560546875,-0.376459538936615,1.185473084449768,-0.45964306592941284
1726225929601741800,9.368741943359375,-0.3087571859359741,0.9511247277259827,-0.42332780361175537
1726225929611736800,9.37873681640625,-0.22091546654701233,0.7921113967895508,-0.3705841600894928
1726225929621731800,9.38873193359375,-0.16526030004024506,0.7296271920204163,-0.3324250280857086
1726225929631726800,9.398726806640624,-0.1067032441496849,0.676000714302063,-0.3301011323928833
1726225929641721600,9.4087216796875,-0.08706847578287125,0.5131089091300964,-0.38929274678230286
1726225929651716600,9.418716552734375,-0.13067986071109772,0.3078833222389221,-0.4512442648410797
1726225929661712600,9.428712646484374,-0.2001347839832306,0.10656359791755676,-0.5202846527099609
1726225929671707600,9.438707763671875,-0.2631422281265259,-0.05136211961507797,-0.6312596201896667
1726225929681702700,9.44870263671875,-0.3178415298461914,-0.23961712419986725,-0.757150411605835
1726225929691698000,9.458697998046874,-0.389681339263916,-0.4664806127548218,-0.8476230502128601
1726225929701693700,9.468693603515625,-0.42783820629119873,-0.7489181756973267,-0.874033510684967
1726225929711688700,9.478688720703126,-0.42746269702911377,-0.9927497506141663,-0.8318381309509277
1726225929721683700,9.48868359375,-0.42803430557250977,-1.0689404010772705,-0.7308289408683777
1726225929731678700,9.4986787109375,-0.39003658294677734,-1.0828781127929688,-0.6300762295722961
1726225929741673700,9.508673828125,-0.32147344946861267,-1.0340205430984497,-0.48282352089881897
1726225929751668700,9.518668701171874,-0.21826425194740295,-0.9540725350379944,-0.3051246404647827
1726225929761664500,9.52866455078125,-0.10692262649536133,-0.8485079407691956,-0.13350556790828705
1726225929771659500,9.538659423828125,-0.028063230216503143,-0.6824238896369934,0.012208758853375912
1726225929781654800,9.54865478515625,0.05178710073232651,-0.48937010765075684,0.07914053648710251
1726225929791649800,9.55864990234375,0.10363058745861053,-0.33095863461494446,0.04968198016285896
1726225929801645800,9.568645751953126,0.12225979566574097,-0.18394392728805542,-0.021580008789896965
1726225929811640800,9.578640869140624,0.11347588896751404,-0.03717552497982979,-0.06641831994056702
1726225929821635800,9.5886357421875,0.10785805433988571,0.08162469416856766,-0.12347287684679031
1726225929831630600,9.598630615234375,0.11054385453462601,0.15995997190475464,-0.1986730843782425
1726225929841625600,9.60862548828125,0.11035213619470596,0.13859795033931732,-0.26646918058395386
1726225929851620600,9.61862060546875,0.09536946564912796,-0.030025411397218704,-0.3224712014198303
1726225929861616600,9.62861669921875,0.06576592475175858,-0.27779078483581543,-0.35059040784835815
1726225929871612000,9.63861181640625,0.04949454590678215,-0.5501483082771301,-0.34275856614112854
1726225929881607000,9.64860693359375,0.049768414348363876,-0.7756332159042358,-0.35648390650749207
1726225929891602000,9.658601806640625,0.033504754304885864,-0.9832904934883118,-0.47320011258125305
1726225929901596700,9.6685966796875,-0.03429090604186058,-1.0333726406097412,-0.6232895851135254
1726225929911592700,9.6785927734375,-0.12693268060684204,-0.9950511455535889,-0.7441025376319885
1726225929921587700,9.688587646484375,-0.20981980860233307,-0.9583728313446045,-0.8401159644126892
1726225929931582700,9.698582763671874,-0.26755741238594055,-0.9186725616455078,-0.8943712115287781
1726225929941577700,9.70857763671875,-0.31382042169570923,-0.9268133044242859,-0.8839849233627319
1726225929951572700,9.71857275390625,-0.333793580532074,-0.9875578880310059,-0.7980145812034607
1726225929961568800,9.72856884765625,-0.3063470423221588,-1.0597566366195679,-0.6285822987556458
1726225929971563800,9.738563720703125,-0.22531290352344513,-1.1227362155914307,-0.4124941825866699
1726225929981558800,9.748558837890625,-0.12241436541080475,-1.2317808866500854,-0.16958974301815033
1726225929991553800,9.7585537109375,-0.03958206623792648,-1.3269222974777222,0.07213766872882843
1726225930001548800,9.768548828125,0.04879319295287132,-1.2880072593688965,0.27418792247772217
1726225930011544800,9.778544921875,0.14267201721668243,-1.0857760906219482,0.4198915958404541
1726225930021539600,9.78853955078125,0.22712206840515137,-0.8983889222145081,0.5604878664016724
1726225930031534600,9.79853466796875,0.28050515055656433,-0.7198617458343506,0.6978002190589905
1726225930041529600,9.808529541015625,0.3076857626438141,-0.47412043809890747,0.8456806540489197
1726225930051524900,9.81852490234375,0.30851107835769653,-0.14837563037872314,0.9694803953170776
1726225930061521000,9.82852099609375,0.3376540243625641,0.16301022469997406,1.0332061052322388
1726225930071516000,9.838515869140625,0.3821762204170227,0.31527966260910034,1.0575098991394043
1726225930081510700,9.8485107421875,0.40461987257003784,0.32983583211898804,1.0714893341064453
1726225930091505700,9.858505615234375,0.38448822498321533,0.3242003321647644,1.1086676120758057
1726225930101500700,9.868500732421875,0.3581315577030182,0.3609063923358917,1.1450616121292114
1726225930111496700,9.87849658203125,0.3483401834964752,0.40691035985946655,1.1428141593933105
1726225930121491700,9.88849169921875,0.3364267945289612,0.5314358472824097,1.0768587589263916
1726225930131486700,9.89848681640625,0.34530630707740784,0.7135270833969116,0.9600033164024353
1726225930141482000,9.90848193359375,0.36039435863494873,0.9041465520858765,0.8545030355453491
1726225930151476700,9.918476806640625,0.4092670977115631,1.0371168851852417,0.7828474640846252
1726225930161472800,9.92847265625,0.4312792718410492,1.0348478555679321,0.7578201293945312
1726225930171467800,9.9384677734375,0.4353342056274414,1.0366878509521484,0.7173986434936523
1726225930181462800,9.948462890625,0.39646464586257935,1.109503149986267,0.6202707290649414
1726225930191457800,9.958457763671875,0.38515979051589966,1.1735972166061401,0.503965437412262
1726225930201452800,9.968452880859376,0.36605244874954224,1.1177860498428345,0.351245254278183
1726225930211448600,9.978448486328125,0.29910457134246826,1.1025221347808838,0.18815432488918304
1726225930221443600,9.988443603515625,0.2348732352256775,1.0707356929779053,0.03645075857639313
1726225930231438800,9.99843896484375,0.2229478657245636,0.9544000029563904,-0.11036425083875656
1726225930241433900,10.008433837890625,0.22670277953147888,0.7861700057983398,-0.2123669683933258
1726225930251428900,10.018428955078125,0.2048424780368805,0.6356473565101624,-0.2745472490787506
1726225930261425000,10.0284248046875,0.1566188782453537,0.5204994082450867,-0.2953432500362396
1726225930271419600,10.038419677734375,0.1016584262251854,0.38367095589637756,-0.32651209831237793
1726225930281414700,10.04841455078125,0.0426354706287384,0.274732768535614,-0.39968666434288025
1726225930291409700,10.05840966796875,-0.016814008355140686,0.23046089708805084,-0.48069387674331665
1726225930301404700,10.06840478515625,-0.049295954406261444,0.17811182141304016,-0.5095419883728027
1726225930311400700,10.078400634765625,-0.06743820756673813,0.06270718574523926,-0.5145479440689087
1726225930321396000,10.08839599609375,-0.06587347388267517,-0.11317175626754761,-0.48111143708229065
1726225930331391000,10.098390869140625,-0.026451770216226578,-0.25635847449302673,-0.40052473545074463
1726225930341385700,10.1083857421875,0.03969089686870575,-0.3748874068260193,-0.3176591992378235
1726225930351380700,10.118380615234376,0.08733724802732468,-0.4655182361602783,-0.23622481524944305
1726225930361376800,10.128376708984375,0.12518885731697083,-0.4070327579975128,-0.14472290873527527
1726225930371371800,10.138371826171875,0.15864615142345428,-0.25073155760765076,-0.04753457382321358
1726225930381366800,10.14836669921875,0.14876919984817505,-0.1585058867931366,0.005881692748516798
1726225930391361800,10.15836181640625,0.11024630069732666,-0.15116673707962036,0.010258598253130913
1726225930401356800,10.168356689453125,0.09051943570375443,-0.11255231499671936,-0.009958108887076378
1726225930411351800,10.178351806640626,0.08057812601327896,-0.0358671173453331,-0.08972138166427612
1726225930421347800,10.188347900390625,0.030711954459547997,0.03834905847907066,-0.14382439851760864
1726225930431342800,10.1983427734375,-0.012036574073135853,0.08093486726284027,-0.16113202273845673
1726225930441337900,10.208337890625,-0.03314683586359024,0.08362432569265366,-0.14245358109474182
1726225930451332900,10.218332763671874,-0.024011656641960144,0.06767039000988007,-0.12140794098377228
1726225930461328600,10.22832861328125,0.0038381600752472878,0.035243742167949677,-0.08239679783582687
1726225930471323600,10.23832373046875,0.04629746824502945,-0.009579923003911972,-0.031975168734788895
1726225930481318700,10.248318603515624,0.03537314385175705,-0.013936055824160576,0.06887782365083694
1726225930491313700,10.258313720703125,0.013514718040823936,-0.02130236104130745,0.17539308965206146
1726225930501308700,10.26830859375,0.0010600773384794593,-0.015436017885804176,0.25588226318359375
1726225930511303700,10.2783037109375,-0.03814591467380524,0.0370575487613678,0.3162614703178406
1726225930521299700,10.2882998046875,-0.06634408980607986,0.1096072569489479,0.34195807576179504
1726225930531294700,10.298294677734376,-0.07458524405956268,0.17022159695625305,0.35346105694770813
1726225930541289700,10.308289794921874,-0.07301947474479675,0.16577158868312836,0.33697405457496643
1726225930551284700,10.31828466796875,-0.11869002878665924,0.03929487615823746,0.2961033284664154
1726225930561279700,10.32827978515625,-0.20981277525424957,-0.09781091660261154,0.2772974371910095
1726225930571275800,10.33827587890625,-0.27028143405914307,-0.24238967895507812,0.2576789855957031
1726225930581270800,10.348270751953125,-0.2597414553165436,-0.49477091431617737,0.2728138566017151
1726225930591265800,10.358265869140626,-0.2811412811279297,-0.7070983648300171,0.33643651008605957
1726225930601260500,10.368260498046874,-0.30255088210105896,-0.9604471325874329,0.33876633644104004
1726225930611255800,10.378255859375,-0.31497693061828613,-1.1249090433120728,0.3340807557106018
1726225930621251800,10.388251953125,-0.3651655912399292,-1.1568466424942017,0.33561956882476807
1726225930631246800,10.398246826171874,-0.429582417011261,-1.1333253383636475,0.3148181438446045
1726225930641241900,10.408241943359375,-0.4629976153373718,-0.9518718719482422,0.29287928342819214
1726225930651236900,10.41823681640625,-0.4856509864330292,-0.6076689958572388,0.25440728664398193
1726225930661231900,10.42823193359375,-0.4976170063018799,-0.3565000593662262,0.24010416865348816
1726225930671227600,10.4382275390625,-0.47967687249183655,-0.18582020699977875,0.28033336997032166
1726225930681222700,10.44822265625,-0.40196436643600464,0.016280904412269592,0.33647602796554565
1726225930691217700,10.4582177734375,-0.3108386993408203,0.20810413360595703,0.40319567918777466
1726225930701213000,10.468212890625,-0.2391742765903473,0.251309335231781,0.47749611735343933
1726225930711208000,10.4782080078125,-0.1955128163099289,0.0892660990357399,0.5404760837554932
1726225930721203700,10.48820361328125,-0.19857282936573029,-0.20464076101779938,0.5333757996559143
1726225930731198700,10.49819873046875,-0.21412914991378784,-0.3520187437534332,0.469288170337677
1726225930741193700,10.50819384765625,-0.19067436456680298,-0.3819187581539154,0.35403013229370117
1726225930751188700,10.518188720703124,-0.15419864654541016,-0.49338188767433167,0.2830963134765625
1726225930761183700,10.528183837890625,-0.1476883441209793,-0.6097301244735718,0.24118606746196747
1726225930771179800,10.5381796875,-0.151166170835495,-0.6237328052520752,0.21205268800258636
1726225930781174800,10.5481748046875,-0.12411268055438995,-0.493667870759964,0.2123507708311081
1726225930791169800,10.558169677734375,-0.055989820510149,-0.3040662407875061,0.26235267519950867
1726225930801164800,10.568164794921875,0.0347566120326519,-0.15388613939285278,0.3796541690826416
1726225930811159800,10.578159912109374,0.1332397758960724,-0.028660040348768234,0.4397079348564148
1726225930821155800,10.58815576171875,0.1767566204071045,0.015367488376796246,0.418205589056015
1726225930831150800,10.59815087890625,0.14774414896965027,-0.13696719706058502,0.43217599391937256
1726225930841145900,10.608145751953124,0.11964753270149231,-0.20861484110355377,0.45916029810905457
1726225930851140900,10.618140869140625,0.06976013630628586,-0.27048033475875854,0.4148767292499542
1726225930861135600,10.628135498046875,-0.024679042398929596,-0.22553572058677673,0.3041648864746094
1726225930871130600,10.638130615234376,-0.0924983024597168,-0.0858108401298523,0.07400251924991608
1726225930881127000,10.648126953125,-0.2263263761997223,0.13361221551895142,-0.18330955505371094
1726225930891122000,10.658121826171875,-0.27662256360054016,0.22396260499954224,-0.39189767837524414
1726225930901117000,10.668116943359376,-0.2261279821395874,0.07667230069637299,-0.47734054923057556
1726225930911112000,10.67811181640625,-0.14434629678726196,-0.3316219747066498,-0.40936389565467834
1726225930921106700,10.688106689453125,-0.07325054705142975,-0.80063796043396,-0.2486618459224701
1726225930931102700,10.698102783203124,-0.017799274995923042,-1.1151175498962402,-0.1046692430973053
1726225930941097700,10.70809765625,0.0030727116391062737,-1.1717324256896973,-0.032758790999650955
1726225930951092700,10.7180927734375,-0.018264003098011017,-0.9931650161743164,-0.09939213842153549
1726225930961087700,10.728087646484376,-0.11835730075836182,-0.538718581199646,-0.19249625504016876
1726225930971082800,10.738082763671875,-0.14624671638011932,-0.0732632577419281,-0.24784845113754272
1726225930981079800,10.748079833984375,-0.09405571222305298,0.2910444736480713,-0.22717399895191193
1726225930991074800,10.75807470703125,-0.00960873905569315,0.4386967718601227,-0.14971515536308289
1726225931001069800,10.76806982421875,0.1025652140378952,0.5530833005905151,-0.027206631377339363
1726225931011064800,10.77806494140625,0.2563512921333313,0.7840222716331482,0.11975032836198807
1726225931021059800,10.788059814453124,0.383683443069458,0.992691159248352,0.2176249623298645
1726225931031055600,10.7980556640625,0.45958247780799866,1.2589820623397827,0.26084697246551514
1726225931041050600,10.808050537109375,0.49901190400123596,1.5113825798034668,0.30096447467803955
1726225931051045600,10.818045654296874,0.4993501305580139,1.5420912504196167,0.36010903120040894
1726225931061040600,10.82804052734375,0.435201495885849,1.6129298210144043,0.43691810965538025
1726225931071035600,10.83803564453125,0.4143843650817871,1.8996491432189941,0.499620646238327
1726225931081031700,10.84803173828125,0.4711206257343292,2.2191052436828613,0.5379802584648132
1726225931091026700,10.858026611328125,0.5511621832847595,2.3644051551818848,0.6308311223983765
1726225931101021700,10.868021728515625,0.6309206485748291,2.222994804382324,0.7514760494232178
1726225931111016700,10.8780166015625,0.7181799411773682,2.0729517936706543,0.8537741899490356
1726225931121011700,10.88801171875,0.8080858588218689,1.802506685256958,0.8747046589851379
1726225931131007700,10.8980078125,0.8226423859596252,1.6252479553222656,0.7858496308326721
1726225931141002800,10.908002685546874,0.7328739166259766,1.624225378036499,0.6395613551139832
1726225931150997800,10.917997802734375,0.5829925537109375,1.5789117813110352,0.38625818490982056
1726225931160992500,10.927992431640625,0.4774032533168793,1.4926066398620605,0.09094642847776413
1726225931170987500,10.937987548828126,0.3816540837287903,1.3806731700897217,-0.14842328429222107
1726225931180983800,10.94798388671875,0.2508462965488434,1.088189959526062,-0.27152392268180847
1726225931190978800,10.957978759765625,0.15001048147678375,0.6881296038627625,-0.3527204990386963
1726225931200973800,10.967973876953126,0.1019342914223671,0.3727898895740509,-0.4861856698989868
1726225931210968800,10.97796875,0.09642793983221054,0.22031967341899872,-0.6382399201393127
1726225931220963800,10.9879638671875,0.07727263867855072,-0.003442001761868596,-0.7136173844337463
1726225931230959600,10.997959716796874,0.01956087164580822,-0.20441052317619324,-0.689972460269928
1726225931240954600,11.00795458984375,-0.04315977543592453,-0.29950645565986633,-0.6557881832122803
1726225931250949600,11.01794970703125,-0.08933259546756744,-0.2506885528564453,-0.6739656329154968
1726225931260944600,11.027944580078126,-0.13471895456314087,-0.13756497204303741,-0.7103307247161865
1726225931270940000,11.03793994140625,-0.2067801058292389,-0.1648394614458084,-0.7148360013961792
1726225931280935000,11.047934814453125,-0.26873403787612915,-0.2955295145511627,-0.6582704782485962
1726225931290930700,11.0579306640625,-0.2997646629810333,-0.36066803336143494,-0.6371628046035767
1726225931300925700,11.06792578125,-0.2659126818180084,-0.4592921733856201,-0.6234327554702759
1726225931310920700,11.077920654296875,-0.18033333122730255,-0.6096316576004028,-0.6012566685676575
1726225931320915700,11.087915771484376,-0.15049979090690613,-0.7861428260803223,-0.600651741027832
1726225931330910700,11.09791064453125,-0.20319443941116333,-0.9744293689727783,-0.6811050176620483
1726225931340906500,11.107906494140625,-0.282861590385437,-1.051705241203308,-0.8364036679267883
1726225931350901800,11.11790185546875,-0.3591108024120331,-1.0600801706314087,-0.9487224817276001
1726225931360896800,11.127896728515625,-0.41233327984809875,-1.1010757684707642,-0.9697667360305786
1726225931370891800,11.137891845703125,-0.42815831303596497,-1.188818335533142,-0.9263612031936646
1726225931380886800,11.14788671875,-0.3689083158969879,-1.2104328870773315,-0.8733721971511841
1726225931390882800,11.1578828125,-0.3448317348957062,-1.11574125289917,-0.8019272685050964
1726225931400877800,11.1678779296875,-0.40337732434272766,-1.0297837257385254,-0.7357204556465149
1726225931410872600,11.17787255859375,-0.5421152710914612,-0.9550511240959167,-0.7280345559120178
1726225931420867600,11.18786767578125,-0.6621868014335632,-0.8758047223091125,-0.7571696043014526
1726225931430862600,11.197862548828125,-0.7272264957427979,-0.7807785868644714,-0.8121979832649231
1726225931440859000,11.20785888671875,-0.7672905325889587,-0.6839954853057861,-0.9366286993026733
1726225931450854000,11.21785400390625,-0.811351478099823,-0.6928105354309082,-1.0580108165740967
1726225931460849000,11.227848876953125,-0.8934498429298401,-0.666144609451294,-1.0429654121398926
1726225931470844000,11.237843994140626,-1.0126118659973145,-0.6621200442314148,-0.9183198809623718
1726225931480838700,11.247838623046874,-1.1422934532165527,-0.7076684236526489,-0.7832633852958679
1726225931490834700,11.257834716796875,-1.1754308938980103,-0.7550351619720459,-0.6398305892944336
1726225931500829700,11.26782958984375,-1.103550910949707,-0.7652031779289246,-0.44377201795578003
1726225931510824700,11.27782470703125,-1.0107336044311523,-0.6966217160224915,-0.21703818440437317
1726225931520819700,11.28781982421875,-0.9185778498649597,-0.5544146299362183,0.031212082132697105
1726225931530814700,11.297814697265625,-0.8393692970275879,-0.40925341844558716,0.2623148262500763
1726225931540809700,11.307809814453124,-0.7742331624031067,-0.17114827036857605,0.430199533700943
1726225931550805800,11.3178056640625,-0.7227891683578491,0.18228168785572052,0.4987487494945526
1726225931560800800,11.32780078125,-0.6589689254760742,0.5541297793388367,0.5077429413795471
1726225931570795800,11.337795654296874,-0.6139854192733765,0.837052047252655,0.5436362624168396
1726225931580790800,11.347790771484375,-0.593833863735199,1.1002514362335205,0.6161182522773743
1726225931590785800,11.357785888671875,-0.551327645778656,1.357245922088623,0.7332020401954651
1726225931600781600,11.367781494140624,-0.4348982274532318,1.5702937841415405,0.9084970355033875
1726225931610776600,11.377776611328125,-0.2532762289047241,1.6679986715316772,1.1257529258728027
1726225931620771600,11.387771484375,-0.06072836369276047,1.7459324598312378,1.3555511236190796
1726225931630766600,11.3977666015625,0.09686978161334991,1.8660935163497925,1.5894144773483276
1726225931640761600,11.40776171875,0.27039337158203125,2.0355350971221924,1.6963434219360352
1726225931650758000,11.4177578125,0.4069080948829651,2.143831491470337,1.7513846158981323
1726225931660753000,11.4277529296875,0.5051608681678772,2.1653318405151367,1.8342558145523071
1726225931670747600,11.43774755859375,0.611494779586792,2.1449413299560547,1.8471801280975342
1726225931680742700,11.44774267578125,0.6720995306968689,1.9798316955566406,1.8141462802886963
1726225931690737700,11.457737548828124,0.6449461579322815,1.5609420537948608,1.7116841077804565
1726225931700733700,11.467733642578125,0.5765639543533325,0.9090584516525269,1.5338938236236572
1726225931710728700,11.477728759765625,0.4911595582962036,0.3220897912979126,1.3060790300369263
1726225931720723700,11.4877236328125,0.4094439148902893,-0.15014781057834625,1.0023001432418823
1726225931730718700,11.49771875,0.3339078724384308,-0.4621160924434662,0.6476688981056213
1726225931740713700,11.507713623046875,0.28080448508262634,-0.585563063621521,0.25748467445373535
1726225931750709800,11.517709716796874,0.23928578197956085,-0.606255292892456,-0.15801025927066803
1726225931760704800,11.527704833984375,0.20436027646064758,-0.5503848791122437,-0.5651995539665222
1726225931770699800,11.53769970703125,0.19719263911247253,-0.48119786381721497,-0.9088639616966248
1726225931780694800,11.54769482421875,0.20676538348197937,-0.5117400288581848,-1.1825937032699585
1726225931790689800,11.557689697265625,0.17702028155326843,-0.5344259142875671,-1.3277220726013184
1726225931800684800,11.567684814453125,0.14822378754615784,-0.5526976585388184,-1.3829472064971924
1726225931810680600,11.5776806640625,0.1143965870141983,-0.5576924681663513,-1.4217205047607422
1726225931820675600,11.587675537109375,0.0908702164888382,-0.5440378785133362,-1.4500406980514526
1726225931830670800,11.5976708984375,0.08666028827428818,-0.549061119556427,-1.4470582008361816
1726225931840665900,11.607665771484376,0.07983778417110443,-0.6242485046386719,-1.4294291734695435
1726225931850660900,11.617660888671875,0.04648781940340996,-0.7690632343292236,-1.4517947435379028
1726225931860656600,11.62765673828125,-0.010415682569146156,-0.912205159664154,-1.5422089099884033
1726225931870651600,11.637651611328126,-0.03949127718806267,-1.0162590742111206,-1.6770917177200317
1726225931880646700,11.647646728515625,-0.04847409948706627,-1.1226063966751099,-1.764136791229248
1726225931890641700,11.6576416015625,-0.0872848853468895,-1.3579670190811157,-1.7425849437713623
1726225931900636700,11.66763671875,-0.1784411519765854,-1.650886058807373,-1.6861680746078491
1726225931910632700,11.6776328125,-0.27561935782432556,-1.9210456609725952,-1.6223357915878296
1726225931920627700,11.687627685546875,-0.35373759269714355,-2.0995023250579834,-1.5763813257217407
1726225931930622700,11.697622802734376,-0.4141460657119751,-2.1413989067077637,-1.5809638500213623
1726225931940617700,11.70761767578125,-0.4778779149055481,-2.0372562408447266,-1.6498692035675049
1726225931950612700,11.71761279296875,-0.49041953682899475,-2.0001111030578613,-1.659786343574524
1726225931960608800,11.72760888671875,-0.4423026144504547,-2.154188871383667,-1.5650503635406494
1726225931970603800,11.737603759765625,-0.3405695855617523,-2.362412452697754,-1.3755946159362793
1726225931980597000,11.747596923828125,-0.1928347498178482,-2.5277061462402344,-1.1112802028656006
1726225931990592000,11.757592041015625,-0.04947839304804802,-2.514444589614868,-0.8171063661575317
1726225932000587000,11.7675869140625,0.09103533625602722,-2.340876340866089,-0.5619287490844727
1726225932010582300,11.777582275390625,0.252814382314682,-2.019448757171631,-0.3410288691520691
1726225932020578000,11.787578125,0.40763619542121887,-1.5750133991241455,-0.15893162786960602
1726225932030573000,11.797572998046874,0.48124489188194275,-1.1441346406936646,0.05439369007945061
1726225932040568000,11.807568115234375,0.5043315887451172,-0.6362124085426331,0.2045125961303711
1726225932050563000,11.81756298828125,0.46759673953056335,-0.016392294317483902,0.2102586179971695
1726225932060558000,11.82755810546875,0.42031630873680115,0.6121993660926819,0.15030881762504578
1726225932070554000,11.83755419921875,0.4296877086162567,0.9979263544082642,0.07350191473960876
1726225932080549000,11.847549072265625,0.442151814699173,1.1429789066314697,0.05886123701930046
1726225932090543900,11.8575439453125,0.4255906939506531,1.1468873023986816,0.10467986017465591
1726225932100539100,11.8675390625,0.35418999195098877,0.9711117744445801,0.20885974168777466
1726225932110534100,11.8775341796875,0.3131448030471802,0.7801910638809204,0.31873056292533875
1726225932120530200,11.8875302734375,0.3003038465976715,0.6384170651435852,0.3940531313419342
1726225932130525200,11.897525146484375,0.26735949516296387,0.49912235140800476,0.40320056676864624
1726225932140520200,11.907520263671875,0.19599716365337372,0.4054882824420929,0.3803083598613739
1726225932150515200,11.91751513671875,0.12717868387699127,0.44109901785850525,0.35954156517982483
1726225932160510000,11.927510009765625,0.11603787541389465,0.40671464800834656,0.31946200132369995
1726225932170506000,11.937506103515625,0.1599038690328598,0.2832403779029846,0.3124411106109619
1726225932180501000,11.9475009765625,0.1924530267715454,0.22477447986602783,0.3539178967475891
1726225932190496300,11.957496337890625,0.20016580820083618,0.2067081183195114,0.44821855425834656
1726225932200491300,11.9674912109375,0.17639631032943726,0.2119540572166443,0.5244120359420776
1726225932210486300,11.977486328125,0.13832029700279236,0.2681094706058502,0.5561036467552185
1726225932220482000,11.98748193359375,0.11229401081800461,0.37888142466545105,0.5871182680130005
1726225932230477000,11.99747705078125,0.10634397715330124,0.4789433181285858,0.5885241031646729
1726225932240472000,12.00747216796875,0.07747717201709747,0.5627241134643555,0.5831275582313538
1726225932250467000,12.017467041015625,0.0669904425740242,0.6715712547302246,0.5793240666389465
1726225932260462000,12.027462158203125,0.0681191012263298,0.7653358578681946,0.5948290824890137
1726225932270457000,12.03745703125,0.09676166623830795,0.7705599069595337,0.6265055537223816
1726225932280453000,12.047453125,0.14168278872966766,0.7637791633605957,0.6412909626960754
1726225932290448100,12.0574482421875,0.2484944611787796,0.7698248028755188,0.6038972735404968
1726225932300443100,12.067443115234376,0.32019099593162537,0.7854932546615601,0.6004647016525269
1726225932310438100,12.077438232421875,0.3048141896724701,0.7785850167274475,0.609653115272522
1726225932320433200,12.08743310546875,0.23595283925533295,0.7140167951583862,0.5741561055183411
1726225932330429200,12.09742919921875,0.22877775132656097,0.6490198969841003,0.5611942410469055
1726225932340424000,12.107423828125,0.22865472733974457,0.4122251570224762,0.49633124470710754
1726225932350419000,12.1174189453125,0.1440809816122055,0.24531632661819458,0.33626434206962585
1726225932360414000,12.1274140625,0.029751207679510117,0.07739324122667313,0.2092653065919876
1726225932370409000,12.137408935546874,-0.02209627814590931,-0.21013599634170532,0.09922057390213013
1726225932380405200,12.1474052734375,-0.05285340175032616,-0.4938890337944031,0.05132703483104706
1726225932390400300,12.157400146484376,-0.057003673166036606,-0.4804674983024597,0.04472905397415161
1726225932400395300,12.167395263671875,-0.020306898280978203,-0.2389613687992096,0.14124535024166107
1726225932410390000,12.17739013671875,0.02863188274204731,0.006909663788974285,0.2758827805519104
1726225932420385000,12.187385009765626,0.052708178758621216,0.08652812242507935,0.3851659595966339
1726225932430381000,12.197381103515625,0.04225154593586922,-0.0009396704845130444,0.47787967324256897
1726225932440376000,12.2073759765625,0.0666503757238388,-0.0976962000131607,0.5037714838981628
1726225932450371000,12.21737109375,0.05786620080471039,-0.042331475764513016,0.43321073055267334
1726225932460366000,12.227365966796874,0.06584181636571884,0.009073465131223202,0.3696587383747101
1726225932470361000,12.237361083984375,0.054375845938920975,-0.000011908821761608124,0.27270209789276123
1726225932480356000,12.247356201171876,-0.04320211336016655,-0.15690357983112335,0.16028514504432678
1726225932490352000,12.25735205078125,-0.22051937878131866,-0.39844003319740295,0.030674414709210396
1726225932500347100,12.26734716796875,-0.3640437722206116,-0.5472586750984192,-0.09390782564878464
1726225932510342100,12.277342041015626,-0.4423745572566986,-0.5159066319465637,-0.1978917419910431
1726225932520337200,12.287337158203124,-0.4824862480163574,-0.38165387511253357,-0.21999850869178772
1726225932530332200,12.297332275390625,-0.48994603753089905,-0.29632115364074707,-0.15410897135734558
1726225932540328000,12.307327880859376,-0.4598051607608795,-0.27775076031684875,-0.03183845058083534
1726225932550323000,12.317322998046874,-0.40827804803848267,-0.16328251361846924,0.1070302203297615
1726225932560318000,12.32731787109375,-0.3343135416507721,0.010105275548994541,0.23101112246513367
1726225932570313200,12.337313232421875,-0.26992151141166687,0.13088788092136383,0.319825142621994
1726225932580308200,12.34730810546875,-0.24938827753067017,0.16088037192821503,0.38838711380958557
1726225932590304300,12.35730419921875,-0.2925834059715271,0.10697586089372635,0.42184439301490784
1726225932600299000,12.367299072265626,-0.3352922797203064,0.24189794063568115,0.378118634223938
1726225932610294000,12.3772939453125,-0.31373023986816406,0.5264021158218384,0.3086405098438263
1726225932620289000,12.3872890625,-0.2873883843421936,0.6124927401542664,0.3455182909965515
1726225932630284000,12.397283935546875,-0.22278356552124023,0.5895823836326599,0.5132508277893066
1726225932640280000,12.407280029296874,-0.12190861254930496,0.7087950110435486,0.736062228679657
1726225932650275000,12.417275146484375,0.014513409696519375,0.9716636538505554,0.964028537273407
1726225932660270300,12.427270263671875,0.16619879007339478,1.236297369003296,1.1296322345733643
1726225932670265000,12.43726513671875,0.33097630739212036,1.3631906509399414,1.2472200393676758
1726225932680260000,12.447260009765625,0.4549877345561981,1.3476738929748535,1.3344841003417969
