time,seconds_elapsed,z,y,x
1726995685404966400,0.01896630859375,-0.7171528290659189,1.3015382328912615,0.6313514454007149
1726995685414952200,0.0289521484375,-0.41139468926787376,1.3847905165955423,1.170013501188159
1726995685424938200,0.038938232421875,-0.1995312232196331,1.4814315664440392,1.3463117328584193
1726995685434924300,0.04892431640625,-0.195967393258214,1.6068544741407036,1.2503002130851149
1726995685444911400,0.058911376953125,-0.3750567169517278,1.6927622407898306,0.97422321806252
1726995685454897200,0.068897216796875,-0.35892800444960593,1.750768731817603,0.8510378601595759
1726995685464883200,0.07888330078125,-0.16308219174444674,1.880358988326788,1.029887822139263
1726995685474869200,0.088869140625,0.16383271785080433,2.182318028102815,1.3559040293291211
1726995685484856300,0.098856201171875,0.3954799117773771,2.641006675726175,1.761024752894044
1726995685494842400,0.10884228515625,-0.1807347528129816,3.004758154809475,2.420576749123633
1726995685504828200,0.118828125,-0.8294032437175511,3.2517344352930784,3.060982438595593
1726995685514814500,0.128814453125,-1.64495390317142,3.1097827098608013,3.411519339057803
1726995685524801300,0.13880126953125,-2.319780333161354,2.9293188829436896,3.2359652037531137
1726995685534787000,0.148787109375,-2.7042005062639713,3.273620688408613,2.229797572158277
1726995685544773400,0.1587734375,-2.2879174604326487,3.904664090773463,0.92106124445647
1726995685554760200,0.16876025390625,-0.9884253464162349,4.054247918519377,0.4867357614561915
1726995685564746500,0.17874658203125,0.8304279105901717,4.383581579694152,-0.4337155344083905
1726995685574732300,0.188732177734375,1.9540332963466642,4.1020314139574765,-0.8370943827420473
1726995685584718300,0.19871826171875,2.045937673062086,3.7442204308390616,0.07246259414255618
1726995685594705400,0.208705322265625,2.216403545317054,3.4499504842609166,1.183406066724658
1726995685604691200,0.218691162109375,0.8817568235501646,3.3888691158324478,2.9534394709825516
1726995685614677200,0.22867724609375,0.0051221653193235395,3.580846562671661,3.9191695859879254
1726995685624663300,0.238663330078125,-0.5662967894271016,3.28938582829535,4.098218577671051
1726995685634650000,0.248650146484375,-0.9788441558614372,2.5963556330949067,3.810180803480744
1726995685644636400,0.258636474609375,0.9398927861765026,1.8605425272226332,2.978515460050106
1726995685654622200,0.268622314453125,2.980584083017707,1.1866489941686391,2.2929846806943415
1726995685664609300,0.278609375,4.085636743995547,0.8055413066148758,2.1507348490983245
1726995685674595300,0.28859521484375,5.194222255274653,1.2385808414578436,2.0502333244293927
1726995685684581400,0.298581298828125,4.542458136442304,1.0576941129535435,-0.3390291257590055
1726995685694567200,0.308567138671875,2.974416208037734,-0.6917951004475354,-5.262988917508721
1726995685704554200,0.31855419921875,4.834662967184186,-0.6451867862686514,3.174447781994939
1726995685714540300,0.328540283203125,4.975782333445549,-1.0086094717890024,2.4051707979381085
1726995685724526000,0.338526123046875,6.026857905042172,-0.06919219416975975,-0.9020014469385147
1726995685734512400,0.348512451171875,5.285582442110776,1.1260960335284471,0.6149152743846178
1726995685744499200,0.358499267578125,4.155687016299367,0.5566232444137335,2.6757570865899325
1726995685754485200,0.3684853515625,3.695354400861263,-0.6183215756967664,0.9472954636484384
1726995685764471300,0.37847119140625,2.466050506314635,-0.5043205179855227,-0.8083131094157695
1726995685774457300,0.388457275390625,1.074625958532095,-0.6051873688355088,-2.933922869607806
1726995685784444400,0.3984443359375,1.561017728856206,-1.641530066202581,-4.722123798719048
1726995685794430200,0.40843017578125,2.3894214401423928,-1.7690464390471576,-3.852492589509487
1726995685804416300,0.418416259765625,2.73225288079381,-3.056284636168182,-4.049799706938862
1726995685814403300,0.4284033203125,3.4918121884346007,-3.846363877496123,-4.457577959275246
1726995685824389000,0.43838916015625,4.436035989552736,-3.0950714629411697,-3.528298044788837
1726995685834375400,0.44837548828125,4.8789480991125105,-2.3850594455406067,-2.166387176260352
1726995685844361200,0.458361328125,3.98057536406517,-0.7883193189833313,-0.7717939353138208
1726995685854348300,0.468348388671875,2.4543697131320834,0.48814095207899805,0.38609365927278994
1726995685864334300,0.478334228515625,0.5348179475799203,0.8950239360760897,-0.4302981271803379
1726995685874320400,0.4883203125,-1.0664359300747512,-1.590065690294653,-2.890492308682203
1726995685884306200,0.49830615234375,-1.290140348303318,-3.4058708117768166,-4.364535518440604
1726995685894293200,0.508293212890625,-0.3881085062265396,-4.176469692087173,-3.922271643656492
1726995685904279300,0.518279296875,0.4886114922001958,-4.453870044668019,-2.43069920694828
1726995685914265000,0.52826513671875,-0.3296767755240202,-4.970698746570944,-1.2664017453193663
1726995685924253200,0.538253173828125,-2.390734276306629,-6.25605127607584,-0.2631786427438259
1726995685934239200,0.5482392578125,-2.363154779985547,-6.7469608160853385,-1.7145815661489963
1726995685944225000,0.55822509765625,-2.1240800664067265,-6.762219175493716,-3.802480312106013
1726995685954211300,0.56821142578125,-2.7466385490208864,-6.04577011078298,-4.1968823655188086
1726995685964198100,0.5781982421875,-2.3826240350872276,-4.481653539128601,-2.7459219251841307
1726995685974184000,0.588183837890625,-2.808635863250494,-2.97242766456902,-0.6083773970484733
1726995685984170200,0.598170166015625,-2.480194767001271,-1.9712386981695889,2.013521842625737
1726995685994156000,0.608156005859375,-1.0002496397227048,-1.5437246487498282,3.2787562977313995
1726995686004143400,0.618143310546875,1.8447768028140068,0.21827749780900776,3.0449440347254275
1726995686014129200,0.628129150390625,0.9289251096993684,-1.157038941868022,5.663365369156002
1726995686024115200,0.638115234375,-1.0999994692414998,-0.2653402777571231,5.029635504186153
1726995686034102300,0.648102294921875,-1.237075113070011,0.5481440968167036,1.7706255249321459
1726995686044088000,0.658088134765625,-1.967279146888852,0.6057813892059027,0.05592354727387428
1726995686054074000,0.66807421875,-2.989787380170822,2.8845851304650303,-1.451603414413333
1726995686064060200,0.67806005859375,-4.059669359046221,2.8086569060385225,2.7630507546395062
1726995686074047000,0.688046875,-0.5075140533298254,1.1954754208333789,3.7332226514846085
1726995686084033300,0.698033203125,2.4142478383630515,3.8298078794926402,-2.9541403127282857
1726995686094019000,0.70801904296875,2.910955250996351,4.58867072930187,-7.783138093757629
1726995686104006100,0.718006103515625,3.1351690800517797,4.767332182972133,-10.04544355854988
1726995686113992200,0.7279921875,0.16572423068583012,3.844851134845614,-10.880739367437362
1726995686123978200,0.737978271484375,-0.9332043944537639,3.982445834112167,-9.279456848210096
1726995686133964000,0.747964111328125,-1.2336433850556612,4.813713702657819,-5.5633326310425995
1726995686143951000,0.757951171875,-2.3381536097198725,3.8537034266039725,-3.519749412152171
1726995686153937200,0.767937255859375,-2.5309149004131553,2.7864126332655546,-2.920755929520726
1726995686163923200,0.777923095703125,-2.7458587968200443,1.7497437726840377,-1.835548371219635
1726995686173910000,0.787909912109375,-3.1846196319192646,0.21330350878871976,-0.564171760097146
1726995686183896000,0.79789599609375,-4.911254039433598,0.001757803452759981,2.352192071944475
1726995686193882000,0.807882080078125,-4.0547962000519036,0.2833024162314832,3.8443005152255294
1726995686203868200,0.8178681640625,-2.337067568048835,-0.08046930192224681,3.7115064942389724
1726995686213855200,0.827855224609375,-3.4844793613284826,-0.7001993561774492,3.234868056166172
1726995686223841300,0.83784130859375,-3.7553105646520852,0.24539566022865472,3.9436470246404407
1726995686233827000,0.8478271484375,-4.0440550258070225,0.7018554528214037,2.351639698758721
1726995686243814100,0.857814208984375,-3.237660901755094,1.3462677475862204,0.8157371219366788
1726995686253800200,0.86780029296875,-1.5484516772717236,2.7323206853330135,0.03083645229041576
1726995686263786000,0.877785888671875,0.007220598903298378,3.3702941792219874,-1.05070732280612
1726995686273772300,0.887772216796875,1.4372820435941218,3.2069144658356903,-2.2251409785240885
1726995686283759000,0.897759033203125,2.293116198119521,2.7375667692929504,-3.2043378933459516
1726995686293745200,0.9077451171875,3.257589591062069,2.379671322761476,-2.0471511405050755
1726995686303731200,0.917731201171875,5.609529149550199,0.6139638188786805,-1.5999129844397306
1726995686313718000,0.927718017578125,8.46968184954822,-1.2892819779083131,-1.6327479170709847
1726995686323704300,0.937704345703125,9.866681567114592,-2.8779812021553512,-1.62270466196239
1726995686333690000,0.947690185546875,8.69443577682972,-3.504886481802165,-0.5748182417958975
1726995686343676200,0.95767626953125,7.037979067391157,-3.4040807134896514,0.539824085304141
1726995686353663200,0.967663330078125,4.722317859986424,-2.8750688218399882,0.46619127833843227
1726995686363649000,0.97764892578125,3.360503729830682,-2.197474972963333,-0.11697510508596896
1726995686373635000,0.987635009765625,1.9571347694933414,-1.0612128616642207,-0.5161269833743571
1726995686383622100,0.9976220703125,0.5830795819237828,-0.26190535313868896,-0.21412965741455553
1726995686393608200,1.007608154296875,-0.3258890736788511,0.16831031992258502,0.1757452739626169
1726995686403594200,1.01759423828125,-1.2363543975800275,0.628822219184041,0.3181137635022402
1726995686413580300,1.027580322265625,-1.9558622653394937,0.9764490043532102,0.31326515442728997
1726995686423567000,1.037567138671875,-2.348271391369402,1.1305238599080591,0.16936346397101879
1726995686433553200,1.04755322265625,-2.6096371394723654,1.044115888651833,0.1720674622327089
1726995686443539200,1.057539306640625,-2.7090543760359287,0.825507697583735,0.16480185514390466
1726995686453525000,1.06752490234375,-2.6115079017803073,0.5452812181988731,0.017476619979739188
1726995686463512000,1.077511962890625,-2.364523730251193,0.2527661889966577,-0.07022796695828437
1726995686473498000,1.087498046875,-2.0622312207370994,-0.09534987752679736,-0.0015203414350748062
1726995686483484200,1.097484130859375,-1.6100065084308386,-0.5030453104179352,0.09804361012279987
1726995686493471200,1.10747119140625,-1.1042851837366818,-0.8763098101906478,0.1579383991152048
1726995686503457000,1.11745703125,-0.5112783742994069,-1.2089498924996702,0.28266660254597664
1726995686513443300,1.127443359375,0.1155246140167117,-1.4810026735074817,0.17047054843008516
1726995686523430100,1.13743017578125,0.013451602247357367,-1.6177636984288692,-0.201426243185997
1726995686533416000,1.147416015625,0.030717794346809386,-1.7442280780024826,-0.3169681005984545
1726995686543402200,1.15740234375,0.263637200166285,-1.7660548560157416,-0.3445814991891384
1726995686553388000,1.167387939453125,0.17620646173357962,-1.748186752500385,-0.055817748811841005
1726995686563375400,1.177375244140625,0.12166209385842085,-1.6387354670479892,0.1796539718389511
1726995686573361200,1.187361083984375,-0.18251608327180147,-1.352496851234138,0.028168109863996503
1726995686583347200,1.19734716796875,-0.41949587039798497,-1.0031368855968117,-0.005009937116503715
1726995686593334300,1.207334228515625,-0.45731852831393477,-0.7934858349010347,-0.06764613377153873
1726995686603320000,1.217320068359375,-0.5872127362057566,-0.622274112714827,-0.19208266077935696
1726995686613306000,1.22730615234375,-0.6349079688385129,-0.42027744922973215,-0.2444172436505556
1726995686623292200,1.237292236328125,-0.6011033143922686,-0.30427992047164587,-0.2257774251103401
1726995686633279000,1.247279052734375,-0.6191515967801213,-0.18190693839751182,-0.06588613836169242
1726995686643265300,1.257265380859375,-0.5649006588935852,-0.10601975836744532,0.19700199700295923
1726995686653251000,1.2672509765625,-0.3594432604953646,-0.06007068441542796,0.28415947145223613
1726995686663238100,1.277238037109375,-0.12001081952005624,-0.057292935930937525,0.21206454157829283
1726995686673224200,1.28722412109375,0.02913169419914484,0.0429536732620094,-0.02929799067676067
1726995686683210200,1.297210205078125,0.20705255863517522,0.263315585262794,-0.2873486228823662
1726995686693196000,1.307196044921875,0.3901777137160301,0.47045006829407066,-0.35283553279340263
1726995686703183000,1.31718310546875,0.660062868361175,0.5996189210534095,-0.3393395068824291
1726995686713169200,1.327169189453125,0.880661429528892,0.662937985406071,-0.13217267421782017
1726995686723155200,1.3371552734375,1.0717597554460168,0.684936978181079,-0.00030979660153388974
1726995686733141200,1.347141357421875,1.2194225520014763,0.6514650628205388,-0.15385434467196463
1726995686743128000,1.357128173828125,1.1407666561767458,0.6242937089089304,-0.5148556482642889
1726995686753114000,1.367114013671875,1.0428604086980222,0.5836608158778399,-0.7789747867286205
1726995686763100200,1.37710009765625,0.8633210031494498,0.4713759874999523,-0.984135540267825
1726995686773087200,1.387087158203125,0.6043734221041203,0.42242830712068824,-1.1717027694493531
1726995686783073300,1.3970732421875,0.1932002666324377,0.5520062156049534,-0.9391869759947061
1726995686793059000,1.40705908203125,-0.20753128206282853,0.5803955304715782,-0.38034956266283987
1726995686803046100,1.417046142578125,-0.6928790962919592,0.4897700876507908,0.17889818503558635
1726995686813032200,1.4270322265625,-0.9716995448037982,0.44196032526027407,0.725588064455986
1726995686823018000,1.43701806640625,-1.1445263009712099,0.3004426073310897,1.1934557515740394
1726995686833004300,1.44700439453125,-1.2007777650251983,0.13655954753253607,1.4027040666878223
1726995686842991000,1.4569912109375,-1.1572478353783489,0.08940664161555469,1.2055074238955974
1726995686852977200,1.46697705078125,-1.0082172576010227,0.0831412245452404,0.729127929019928
1726995686862963200,1.476963134765625,-0.7728522121950984,-0.02788637031316757,0.24608546912372112
1726995686872950000,1.486949951171875,-0.45667760006189345,-0.13196480362080037,-0.27590602236986156
1726995686882936300,1.496936279296875,-0.3211424636736512,-0.056488414615020154,-0.500713141143322
1726995686892922000,1.506922119140625,-0.1450967454597354,0.07940474143065512,-0.3206862443387508
1726995686902908200,1.516908203125,0.1335986153677106,0.14218151560015976,-0.15784955178797244
1726995686912895200,1.526895263671875,0.5811114967212081,0.1522818346582353,-0.6763000096738339
1726995686922880800,1.536880859375,1.033625547362864,-0.03493015134483576,-1.4148299732893705
1726995686932866800,1.54686669921875,1.5724214586630463,-0.4209796792149543,-1.7521137166857719
1726995686942853600,1.556853515625,1.879811875838041,-0.6300863939009607,-1.7688748818725346
1726995686952840000,1.56683984375,1.993889213655889,-0.8432151306446641,-1.591554905939102
1726995686962825700,1.57682568359375,1.6567396180331706,-0.9333431453373282,-0.6278250248402357
1726995686972811800,1.586811767578125,1.0513985199406743,-0.790830790347606,0.15623217971920966
1726995686982798800,1.596798828125,0.6451122597277164,-0.6977282898887992,0.4516080417126417
1726995686992784600,1.60678466796875,0.4788984919592738,-0.7547828870192169,0.37417759602963924
1726995687002770700,1.616770751953125,0.42302842843830585,-0.8608768979329615,0.13775778087377546
1726995687012757800,1.6267578125,0.31934622790664435,-1.0495786841023713,-0.09172492849528789
1726995687022743800,1.636743896484375,0.3787868433907628,-1.4170168158091603,-0.28597791905105113
1726995687032729900,1.646729736328125,0.3881017842248082,-2.0120596611186863,-0.5214665908366442
1726995687042716000,1.6567158203125,0.3803985163711011,-2.1593939563721416,-0.5840647935688495
1726995687052702700,1.66670263671875,0.12838877176493405,-2.663122061422467,-1.1070423734903334
1726995687062688800,1.676688720703125,0.35725276471376416,-3.275558378472924,-1.7497364661604164
1726995687072674800,1.6866748046875,0.5619660667464137,-3.6748221927031874,-2.358312600651383
1726995687082660600,1.69666064453125,0.2447203182503581,-4.016363593544066,-3.13731252182126
1726995687092647700,1.706647705078125,0.13652560873031616,-3.4763740885451435,-3.4417911432027815
1726995687102633700,1.7166337890625,-0.7092755198195576,-2.7394825397863984,-3.1871599640518427
1726995687112619800,1.726619873046875,-1.6952713010013103,-1.8718480573520064,-2.196407051470876
1726995687122606800,1.73660693359375,-2.2506853157557547,-1.2093474404498934,-0.4004115229606628
1726995687132592600,1.746592529296875,-2.4561285394981502,-0.9817156196445226,1.5053741675674914
1726995687142579000,1.756578857421875,-2.512586047518253,-1.0604717609733343,2.1548510522454976
1726995687152565800,1.766565673828125,-2.4359096350729463,-1.3023793598905204,2.7451889347344633
1726995687162551800,1.7765517578125,-2.664801392811537,-1.646651062478125,3.3490783727139233
1726995687172537900,1.786537841796875,-3.004691227053106,-1.8070722183197736,3.5401556558430194
1726995687182523600,1.796523681640625,-3.0296845062732696,-1.659232603892684,3.5622967605024574
1726995687192510700,1.8065107421875,-2.9311989976018666,-1.3520847633019089,2.9313685089498756
1726995687202496800,1.816496826171875,-2.762075479866564,-0.9940554612576961,2.2506769863188265
1726995687212482800,1.82648291015625,-2.442596273230016,-0.3593821779578924,1.4473030868709087
1726995687222468900,1.83646875,-2.081156578220427,0.771549312902987,1.5192296744406222
1726995687232455700,1.84645556640625,-1.4723898895934224,2.263102168127894,2.880960510227084
1726995687242442000,1.85644189453125,-0.5580338418640196,4.211723084037006,2.119836437487602
1726995687252427800,1.866427734375,-0.38792818122357126,7.156898876804113,0.6561953792780637
1726995687262414600,1.87641455078125,0.0678106766834855,8.720964887315034,-1.235068449422717
1726995687272401000,1.88640087890625,1.1005752233028412,7.422049696403741,-2.9081010306090116
1726995687282386700,1.89638671875,2.964089167551696,5.062139597427845,-3.727058283635974
1726995687292372700,1.906372802734375,4.212957886528969,3.07643982770741,-2.896397148811817
1726995687302359800,1.91635986328125,4.059605061638355,1.1110787893995642,-1.0633569610208273
1726995687312345900,1.926345947265625,4.274623484586179,-0.9830509599015116,0.7870119627118111
1726995687322331600,1.93633154296875,4.280351506844163,-2.105711173762381,1.695558885771036
1726995687332318700,1.946318603515625,3.7494893111526966,-2.4110876207664607,2.1720278124958274
1726995687342304800,1.9563046875,2.774797014273703,-1.8787497995644806,2.426099019676447
1726995687352290800,1.966290771484375,1.8141861419782042,-1.0047127566114067,2.2555372858315703
1726995687362277600,1.976277587890625,1.3922949008762835,0.06476356407254934,1.7808780388772487
1726995687372263700,1.986263671875,1.2218258137509226,0.921271964597702,0.7630991722047329
1726995687382249700,1.996249755859375,0.9635983636736869,1.585008845296502,-0.23162615113854407
1726995687392235800,2.00623583984375,0.7556931337319314,1.8695032477915285,-0.5880664304256439
1726995687402222800,2.016222900390625,0.3492147119477391,1.6724173718973994,-0.4646697678595781
1726995687412209000,2.026208984375,-0.15982669707983732,1.3453858501851559,-0.15571546236872671
1726995687422194700,2.036194580078125,-0.3721569038569927,1.0566147932842374,-0.022779987084865568
1726995687432181800,2.046181640625,-0.35521658271104095,0.9155693690419197,-0.20784838518798351
1726995687442167800,2.056167724609375,-0.19215689505934713,0.8857353717923164,-0.5949842469900846
1726995687452153600,2.066153564453125,0.06580576660186052,0.8826923508346081,-0.9281991335123777
1726995687462140000,2.076139892578125,0.3095066786766052,0.9817048059895634,-1.0379209064692259
1726995687472126700,2.086126708984375,0.4616650330856442,1.0313853672206401,-0.9890309110939502
1726995687482112800,2.09611279296875,0.5159012117944658,0.7361562202215194,-0.6525538079053164
1726995687492098800,2.106098876953125,0.476895043182373,0.3488283429786563,-0.02397591887116432
1726995687502084600,2.116084716796875,0.2517655605867505,0.04327069418877363,0.3734890292435884
1726995687512072000,2.126072021484375,0.017512860336899756,-0.2316331654012203,0.6323983241051435
1726995687522057700,2.1360576171875,-0.11944734041839837,-0.39208442412018774,0.8291156589478254
1726995687532043800,2.146043701171875,-0.1030596847191453,-0.48809419032782314,0.8152887936472892
1726995687542030800,2.15603076171875,0.025266104812175033,-0.4796133622303605,0.6204056884944439
1726995687552016600,2.1660166015625,0.08503580612018703,-0.29880554418116806,0.7150146479934454
1726995687562002700,2.176002685546875,0.2285162024244666,-0.06262625978291034,0.8206780854701995
1726995687571989800,2.18598974609375,0.32125439961552615,-0.11150281115472316,0.44866789660751816
1726995687581975800,2.195975830078125,0.4056254582166672,-0.46026159602850675,0.5191746805071831
1726995687591961900,2.2059619140625,0.5697288097023964,-0.9001397447198629,-0.1044423712491989
1726995687601948000,2.215947998046875,0.0788975956261158,-0.8793062155276536,-0.017460253366827962
1726995687611934700,2.225934814453125,-0.24981340360566973,-0.6922434287369251,0.14832827472686766
1726995687621920800,2.235920654296875,-0.2861734416231513,-0.44247313362061974,0.0833762023448944
1726995687631906800,2.24590673828125,-0.20651070684343575,-0.447601436419785,-0.14578385094106197
1726995687641894000,2.255893798828125,0.04691752625852823,-0.572584783655405,-0.6035007309228182
1726995687651879700,2.265879638671875,0.5227274045526981,-0.5762947440892457,-1.3048878355801106
1726995687661865700,2.27586572265625,1.1684943287968634,-0.6811641085788607,-1.7509376586437224
1726995687671851800,2.285851806640625,1.824803982104361,-1.0085527731657027,-2.144764542517066
1726995687681838800,2.2958388671875,2.486001991975307,-1.5178306212976573,-2.2114386163860558
1726995687691824600,2.30582470703125,2.4633076373472806,-2.0297256661906835,-1.6400532716482876
1726995687701811000,2.31581103515625,1.8905587491713463,-2.416799568672478,-0.7403986800968646
1726995687711797800,2.3257978515625,1.2064020346477626,-2.3745497419640422,-0.028068741142749785
1726995687721783800,2.33578369140625,0.4536170434474945,-1.9737023118041455,0.3254150264263153
1726995687731769900,2.345769775390625,0.0257478969797492,-1.2105020173124967,0.17926526478230953
1726995687741755600,2.355755615234375,-0.18156185128688812,-0.2286006658375263,-0.6156950265854597
1726995687751742700,2.36574267578125,-0.4009541054047644,0.8465881872743367,-1.1063263341754674
1726995687761728800,2.375728759765625,-0.5158827993549406,1.6413479876339434,-0.7876882545381784
1726995687771714600,2.385714599609375,-0.6399443555705249,2.042561036235839,-0.28722178163230416
1726995687781702000,2.395701904296875,-0.7316016256570815,2.429465281239152,0.16089023465812205
1726995687791687700,2.405687744140625,-0.4007584367021918,2.5203254095986485,0.5894640222638845
1726995687801674000,2.415674072265625,0.41665304818749427,2.2813260993435978,0.9970336002856492
1726995687811659800,2.42565966796875,1.2364426603853702,1.8516294451877473,0.8537994338274002
1726995687821646600,2.435646484375,2.0373533845901486,1.0152481791511176,0.4771364507228136
1726995687831633000,2.4456328125,2.6409073070049285,0.19280659113973378,0.2260866371899843
1726995687841618700,2.45561865234375,2.930321045723557,-0.32847777499780056,0.30494565437138077
1726995687851606000,2.46560595703125,3.050383595430851,-0.8853180231630802,0.5100000249266624
1726995687861591800,2.475591796875,2.839771883009374,-1.0202698067054152,0.5897083524137735
1726995687871577900,2.485577880859375,2.462969783695042,-0.9181162770457565,0.6091729313403368
1726995687881563600,2.495563720703125,1.9662381134033202,-0.8494830319330096,0.6474298890203237
1726995687891550700,2.50555078125,1.2572855419278144,-0.7402063723951577,0.7127022793978453
1726995687901536800,2.515536865234375,0.525816018217802,-0.6558652705408632,0.391289474350214
1726995687911522800,2.525522705078125,0.057663084417581556,-0.498779981123656,0.12384615989923477
1726995687921509600,2.535509521484375,-0.5233493358433247,-0.26144538921043275,-0.2572872466176748
1726995687931495700,2.54549560546875,-1.3000330890253184,0.02024900730252266,-0.667110741046071
1726995687941481700,2.555481689453125,-1.4650082549095154,-0.003703092301636934,-0.4938251351952552
1726995687951467800,2.5654677734375,-1.6428879105523229,-0.050041211237013335,-0.06265490135550499
1726995687961454800,2.575454833984375,-1.6738123333871364,-0.09854586055651307,0.3641565527528524
1726995687971441000,2.58544091796875,-1.6414277748718857,-0.20449396019354463,0.6828139216125011
1726995687981426700,2.5954267578125,-1.5379871280111372,-0.4014376511380076,0.9358522786140442
1726995687991413800,2.605413818359375,-1.3535294091522694,-0.6986388288624584,1.284136723974347
1726995688001399800,2.61539990234375,-1.263869596493244,-0.8289845799140632,1.6436398979634046
1726995688011385600,2.625385498046875,-1.149507888776064,-1.0410409381859005,1.6647312013089657
1726995688021372000,2.635371826171875,-0.9483587089657783,-1.2970933823116122,1.3633312567204237
1726995688031358700,2.645358642578125,-0.8051695506930351,-1.4263029689401387,0.936025881615281
1726995688041344800,2.6553447265625,-0.7061879290677606,-1.4600523860678076,0.5529319886803626
1726995688051330800,2.665330810546875,-0.48634120918065304,-1.3976824391335247,0.22759704175293444
1726995688061317600,2.675317626953125,-0.22116087122559547,-1.3803808834597469,-0.3379062592089176
1726995688071304000,2.685303955078125,0.06259630303606391,-1.2870958660408853,-0.9427993212729692
1726995688081289700,2.695289794921875,0.1893779318653047,-1.2238636762540787,-1.4214748181313275
1726995688091275800,2.70527587890625,0.19766411417350171,-1.3600195018239318,-2.091740223816037
1726995688101262800,2.715262939453125,0.06489493536725639,-1.417238495735824,-2.816529831370711
1726995688111248600,2.72524853515625,-0.026980507514625787,-1.5279102628938852,-3.1369881121724843
1726995688121235000,2.73523486328125,0.0035131226874887942,-1.69922559158504,-2.708070041173696
1726995688131221800,2.7452216796875,0.07236541737839579,-1.9391899474799632,-1.8456027322441337
1726995688141207800,2.755207763671875,0.27465046935081483,-2.1338518110975624,-0.7666279308527708
1726995688151193900,2.76519384765625,0.5639173469446599,-2.0560931563735005,-0.008825696012377739
1726995688161180000,2.775179931640625,0.9493933127105235,-1.9197740300007162,0.3012982377797365
1726995688171166700,2.785166748046875,1.2266447583399713,-1.5625832246072588,0.1745826599240303
1726995688181152800,2.79515283203125,1.2411492306411265,-0.8458855188976973,-0.04439502204358577
1726995688191138800,2.805138916015625,1.0336707016788422,-0.1887824501901865,0.48567982266247267
1726995688201126000,2.8151259765625,0.7897323275864124,0.2969397503092885,1.5243705444604156
1726995688211111700,2.825111572265625,0.5515433108009398,0.5621794172361493,2.4353186834424734
1726995688221097700,2.83509765625,0.6919185806967317,0.5672596431098879,3.0413667607605457
1726995688231083800,2.845083740234375,1.0452771144509314,0.5747255950763821,3.2071558733761307
1726995688241070800,2.85507080078125,1.6107738395415245,0.7194546762675047,2.8449007703304288
1726995688251056600,2.865056640625,2.21985616998896,0.8652306361630558,2.3298580750614404
1726995688261043000,2.87504296875,2.907490205234289,1.0419374486342072,1.4606886381447315
1726995688271029800,2.88502978515625,3.5581729585707187,1.3211769993409515,0.48116848271787166
1726995688281015800,2.895015869140625,4.124389960759878,1.6072703614652155,-0.11933774256408214
1726995688291001900,2.905001953125,4.76587350859642,1.7319545796237885,-0.09023381315469742
1726995688300988700,2.91498876953125,5.048337866568565,1.5124761085271834,0.23179273987710475
1726995688310974700,2.924974609375,5.110243410861492,1.161163839778304,0.01836801586151123
1726995688320960800,2.934960693359375,4.931521166914701,0.9162900845319032,-0.7083043366998434
1726995688330946600,2.944946533203125,4.950425773870944,0.5386740384861827,-1.6932266434311867
1726995688340934000,2.954933837890625,4.514857597333193,0.1770737460874021,-2.795362540179491
1726995688350919700,2.964919677734375,3.9183167685508726,0.11788067562356591,-3.735789287102222
1726995688360906000,2.974906005859375,3.5777369062185285,0.2124241686709225,-3.8620828401535747
1726995688370892800,2.984892822265625,3.0164053379833695,0.32826457063853737,-3.178136115118861
1726995688380878600,2.994878662109375,2.4685505064368245,0.5886580396432429,-1.9780881256729363
1726995688390865000,3.004864990234375,1.7486897335864602,0.7111914364434778,-0.8987328005313873
1726995688400850700,3.0148505859375,0.8617034849502145,0.7549402695380151,0.006299976927042007
1726995688410838000,3.024838134765625,0.15337503672242164,0.8203837786987423,0.7855886519104242
1726995688420823800,3.03482373046875,-0.509722961550951,0.9352998323630541,1.1368494827330111
1726995688430809900,3.044809814453125,-1.1077834011159837,1.2260574599713085,1.3260200554579495
1726995688440797000,3.054796875,-1.1691525004446506,1.4157050025582312,1.7359025865972042
1726995688450782700,3.06478271484375,-0.9061211572170257,1.5662854401260613,2.327671378672123
1726995688460768800,3.074768798828125,-0.8794375868223607,1.5888336642816663,2.8899615628063677
1726995688470754800,3.0847548828125,-0.7752598578587174,1.560650795239955,3.202776050856709
1726995688480741600,3.09474169921875,-1.1194703317783772,1.731107753536105,2.8147441169977188
1726995688490727700,3.104727783203125,-1.2675357177853583,1.9595777787312865,1.4075082520991562
1726995688500713700,3.114713623046875,-1.5565971359349786,2.3245851030945777,-0.03820025905668735
1726995688510700800,3.12470068359375,-1.9043444056786596,2.413440613633394,-0.5347761542648076
1726995688520686800,3.134686767578125,-2.0702491074979306,2.14645439530015,-0.11718377940058708
1726995688530673000,3.1446728515625,-2.1465070022702215,1.7530080351769923,0.594819411817193
1726995688540658700,3.15465869140625,-2.2226680125392972,1.3259972591042517,0.9026321460574864
1726995688550645800,3.164645751953125,-2.1748647894874216,0.709141518176347,1.0817349137544632
1726995688560631800,3.1746318359375,-1.8914673884488642,0.13910561528615653,0.93569211961627
1726995688570617600,3.18461767578125,-1.7570215086020529,-0.23519443807937204,0.3936918593168258
1726995688580604700,3.194604736328125,-1.1390472850382327,-0.5776425054363906,-0.32941607876122
1726995688590590700,3.2045908203125,-1.12600901283212,-0.49681562224812803,-1.3026958784937859
1726995688600576800,3.21457666015625,-1.033935051703453,-0.6711225339706987,-1.958239515864849
1726995688610562800,3.224562744140625,-0.8585352301776409,-1.167918866996467,-2.151063934922218
1726995688620549600,3.234549560546875,-0.9781645030342042,-1.4667260186128317,-2.2516735961407424
1726995688630536000,3.244535888671875,-1.3020761391602456,-1.9157507658340036,-2.129544177031517
1726995688640521700,3.254521728515625,-1.3839840225182474,-2.553075294294953,-1.7595272078126667
1726995688650508800,3.2645087890625,-1.4393534430406987,-2.9542952110290526,-1.2744447665214538
1726995688660494800,3.274494873046875,-1.1743569372199476,-3.182382666647434,0.015346037691831588
1726995688670480600,3.284480712890625,-0.12584288667440413,-2.171833751228452,1.7802105148792267
1726995688680467000,3.294467041015625,1.0660007535278797,-0.4860698448933661,2.899541876578331
1726995688690453800,3.304453857421875,2.3499437084957955,1.3279396253436804,3.733428987711668
1726995688700439800,3.314439697265625,3.343064226990938,2.647187702448666,3.9471126549243927
1726995688710425900,3.32442578125,4.288349812121689,3.910892756029963,3.427749173846841
1726995688720412700,3.33441259765625,5.169229852837324,4.582677918627858,2.261625081312656
1726995688730399000,3.34439892578125,4.83961679019928,4.225439766961336,1.0766665244489908
1726995688740384800,3.354384765625,3.120893594200909,1.9705638676479458,-2.5527035383731125
1726995688750370800,3.364370849609375,1.2584428952693938,0.07880352413449436,-5.460128277155756
1726995688760358000,3.37435791015625,-0.521437072481215,-1.2274901231229305,-6.169845987784862
1726995688770343700,3.38434375,-1.8489885752901434,-1.8776934223793447,-4.346107881346344
1726995688780329700,3.394329833984375,-2.177030150827765,-2.602647134454548,-2.412819851386547
1726995688790316800,3.40431689453125,-2.776718337725103,-3.0064617438569665,-2.0550188051402567
1726995688800302800,3.414302734375,-3.522673190644383,-2.938633239255845,-1.9594763641834259
1726995688810288600,3.42428857421875,-3.9167242386624213,-2.851829108288884,-1.2695055565536022
1726995688820275000,3.43427490234375,-4.493127411562204,-2.8918729493856428,-0.9886907193541526
1726995688830261800,3.44426171875,-4.998716634309291,-2.7007781305998564,-0.9111994833946228
1726995688840247800,3.454247802734375,-4.70829138046056,-2.4208714942865073,0.06275660816431045
1726995688850233900,3.46423388671875,-4.578958898104727,-2.0114581880941986,0.5527087013185024
1726995688860220700,3.474220703125,-4.49185753775686,-1.8059429220288992,0.7518804435759783
1726995688870206700,3.484206787109375,-4.586206969536841,-1.5412936222106217,1.0044926841199397
1726995688880192800,3.49419287109375,-4.6999745107531545,-1.3983455792173742,1.2582511720895766
1726995688890178600,3.504178466796875,-4.77574988270551,-1.2317349210858344,1.4210498707175254
1726995688900166000,3.514165771484375,-4.909303489887714,-0.974485960651934,1.4822054734259842
1726995688910151700,3.524151611328125,-4.844675827154517,-0.6639934127431363,1.0377326904207467
1726995688920138000,3.534137939453125,-4.677078203812242,-0.2611137461032718,0.4927203888237476
1726995688930124500,3.54412451171875,-4.545240168376266,0.08235074088783002,0.05659399388134479
1726995688940110300,3.5541103515625,-4.305090811303257,0.31684498567543923,-0.8784072208613157
1726995688950096600,3.5640966796875,-3.902914032235741,0.43387324572075153,-1.4108599006146192
1726995688960082400,3.57408251953125,-3.110277799901366,0.44936724051591004,-1.0290630617529153
1726995688970069500,3.584069580078125,-2.6821646155446768,0.5023995598603039,-0.4213227935642004
1726995688980055600,3.5940556640625,-2.584128019684553,0.5516811849016696,0.4881026658952236
1726995688990041600,3.60404150390625,-2.213325745306909,0.4944480163339525,0.8953899198442697
1726995689000028700,3.614028564453125,-1.9993778742000459,0.34582558096610005,0.3591828559935093
1726995689010014500,3.624014404296875,-1.798018558770418,0.3158870273634791,-0.7869049952059983
1726995689020000500,3.63400048828125,-1.4849462965667246,0.3660452891089022,-1.9580185665905474
1726995689029986600,3.643986572265625,-1.177613162536919,0.43123833063989875,-2.4447908606648445
1726995689039973400,3.653973388671875,-0.6887962108924984,0.4184558598257601,-1.6574071420311927
1726995689049959400,3.66395947265625,0.03548310905247926,0.28031740907132624,-0.6517705485731363
1726995689059945500,3.673945556640625,1.2657152243599294,0.17093801981136203,0.09561024549603461
1726995689069932500,3.6839326171875,2.9854578265339136,0.6054032035432756,0.7489636793464421
1726995689079918600,3.693918701171875,7.0144883016884325,1.8878112040288746,0.8659580736547708
1726995689089904600,3.703904541015625,9.7242148778975,3.1679952448546884,0.6116688398092984
1726995689099890400,3.713890380859375,9.336552946394681,3.887664148394763,0.15950024160444737
1726995689109877500,3.72387744140625,7.599269719094037,4.136386103501915,0.16066986990571022
1726995689119863600,3.733863525390625,4.698746722523868,3.5118837933436033,0.7430331202536821
1726995689129849300,3.743849365234375,1.946875825807452,2.4282092898286876,1.1995727731496095
1726995689139836700,3.753836669921875,0.4038365289732814,0.9032448711283504,1.088848545151949
1726995689149822500,3.763822509765625,-0.7741945667147636,-0.17886778989732263,0.871520968478918
1726995689159808500,3.77380859375,-1.9738854132860897,-0.47451413939520715,0.5623574041515589
1726995689169794600,3.783794677734375,-2.770887731875479,-0.5031000362798571,0.5071311914920806
1726995689179781400,3.793781494140625,-2.980892710575461,-0.553547636360675,0.1377741474866867
1726995689189767700,3.803767578125,-2.737425899517536,-0.7428919582173228,-0.6516466299325228
1726995689199753500,3.81375341796875,-2.129701121158898,-1.235727643983811,-1.6108347759485244
1726995689209740500,3.823740478515625,-1.9366835176169872,-1.566440922948718,-2.653476865720749
1726995689219726600,3.8337265625,-2.1892823141574858,-1.8413935901165008,-3.1271997086077925
1726995689229712400,3.84371240234375,-2.3656565336734054,-2.3447117991916833,-2.8803274730205533
1726995689239698400,3.853698486328125,-2.120041896931827,-2.8453987829804417,-2.649823019388318
1726995689249685500,3.863685546875,-1.5668600251436233,-3.210227535906434,-2.0742881537556648
1726995689259671600,3.873671630859375,-0.7847671063944697,-3.4855335465565322,-1.5538023906499145
1726995689269657600,3.88365771484375,0.10133154575228691,-3.6119659235566854,-1.0368518159329891
1726995689279644400,3.89364453125,0.7833876347348093,-3.8929453036680814,-0.3992617684036493
1726995689289630500,3.90363037109375,1.3306398242130875,-4.092850913158059,0.42653029907941814
1726995689299616500,3.913616455078125,1.4258371049940586,-3.991291988390684,0.8136971405416726
1726995689309603300,3.923603271484375,1.637456533153355,-3.268586785894632,0.7360907537698745
1726995689319589600,3.933589599609375,0.8071551715523004,-2.7686867146998644,0.3465548450887203
1726995689329575400,3.943575439453125,0.6364081442683934,-2.4090670747242866,0.3909919527083635
1726995689339561500,3.9535615234375,0.6495026036411523,-2.0259899867936966,0.18463292929530142
1726995689349548500,3.963548583984375,0.7031877243384719,-1.6579203522503374,-0.4758236145585775
1726995689359534600,3.97353466796875,0.5980138239443302,-1.4300510694272814,-1.041529160094261
1726995689369520400,3.983520263671875,0.2561237557962537,-1.2230880887717008,-1.287068685773015
1726995689379506700,3.993506591796875,-0.10003186133056878,-1.0713375845111905,-0.8143769394993782
1726995689389493500,4.003493408203125,-0.40407062999010085,-0.9606384909547865,-0.21910335417389867
1726995689399479600,4.0134794921875,-0.5615288443729282,-0.7322063135519623,0.3269043882012367
1726995689409465600,4.023465576171875,-0.5736302010551094,-0.505219951043278,0.4260539137393236
1726995689419452400,4.033452392578125,-0.5978305763319134,-0.1983310536496341,-0.3062789488017559
1726995689429438500,4.0434384765625,-0.2998103373095393,0.008920388558506966,-0.8924486056953668
1726995689439424500,4.053424560546875,0.14856763644069432,0.08931728283166884,-1.2771645468741655
1726995689449411600,4.06341162109375,0.4923658762976527,0.09639087447971105,-1.2356886271476746
1726995689459397600,4.073397705078125,0.7874220048174262,0.09073401776179671,-1.160676933044195
1726995689469383400,4.083383544921875,1.0791188860371708,0.08468757720440626,-0.915852277636528
1726995689479369700,4.09336962890625,1.2557128857836126,0.04232566842362284,-0.5553682759165763
1726995689489356500,4.1033564453125,1.3117898700535298,-0.038383214408159255,-0.06894260332286357
1726995689499342300,4.11334228515625,1.2947314754858612,-0.2254160444520414,0.16295008979737757
1726995689509328600,4.12332861328125,1.26422235545367,-0.32790786615535616,0.25090543662607667
1726995689519315500,4.1333154296875,1.219300094665587,-0.41174218753129244,0.2592424723386764
1726995689529301800,4.1433017578125,1.2887681831672786,-0.5043681565195322,0.37976270268559453
1726995689539287600,4.15328759765625,1.3620537841305136,-0.6260263048551976,0.4601028983354568
1726995689549273600,4.163273681640625,1.3780910189568996,-0.8172671079829334,0.22358312993645665
1726995689559260700,4.1732607421875,1.302499771399796,-0.9274683350197971,-0.20748013639748095
1726995689569246500,4.18324658203125,1.0963953072696924,-0.9084649438641965,-0.6156050102144479
1726995689579232500,4.193232421875,0.8007201700687407,-0.8199469947166741,-0.9078414051383733
1726995689589219600,4.203219482421875,0.533833612717688,-0.8160980642035603,-0.8617565303117036
1726995689599205400,4.213205322265625,0.31376053672879933,-0.8363786356881261,-0.6143108787506818
1726995689609191400,4.22319140625,0.1942871850863099,-0.9189214559487998,-0.2837006217688322
1726995689619177500,4.233177490234375,0.08435732233673333,-1.0273008743859826,-0.026492870128154752
1726995689629164500,4.24316455078125,-0.07521072380691766,-1.1612880506798624,0.09182838886976241
1726995689639150600,4.253150634765625,-0.19657734185010195,-1.2311520066313444,0.10406184749901294
1726995689649136600,4.26313671875,-0.24618162297457455,-1.2966940077304838,0.010797288346290589
1726995689659123500,4.27312353515625,-0.32193127596378324,-1.3376038180068135,-0.1428846223682165
1726995689669109500,4.283109619140625,-0.36568595427721734,-1.2598068770989774,-0.34994214943945406
1726995689679095600,4.293095458984375,-0.5440580696120858,-1.0403571937054394,-0.6715753192394971
1726995689689081300,4.303081298828125,-0.6276712955832481,-0.6640981152266263,-0.9874205532878637
1726995689699068700,4.313068603515625,-0.5704127003133297,-0.4220633827984333,-1.1420037967562675
1726995689709054500,4.323054443359375,-0.5931368655577302,-0.30043636025339365,-1.1274059470832347
1726995689719040500,4.33304052734375,-0.5463257222831249,-0.33377573527544735,-0.6195335818350315
1726995689729027600,4.343027587890625,-0.4937909406647086,-0.32499095579534765,-0.15979074898362158
1726995689739013400,4.353013427734375,-0.09945523048639297,-0.2917185085296631,0.02387830371558666
1726995689748999700,4.362999755859375,0.03663549395799637,-0.24379092844575642,-0.09404431135356425
1726995689758985500,4.3729853515625,0.09245178146511315,-0.3830936006739735,-0.6060813950657844
1726995689768972500,4.38297265625,0.1445055015683174,-0.5463882661253213,-1.1102052214354277
1726995689778958600,4.39295849609375,0.16628829430937767,-0.602353898975253,-1.457429344087839
1726995689788944400,4.4029443359375,0.0763397278368473,-0.6018538404986262,-1.6344734256893396
1726995689798931700,4.412931640625,-0.2639192319780588,-0.5672364083647727,-1.535058527213335
1726995689808917500,4.42291748046875,-0.48175125104188915,-0.4573451240599155,-1.2501087821662424
1726995689818903600,4.432903564453125,-0.7653937128826975,-0.3960454367056489,-0.6298539003193379
1726995689828889600,4.4428896484375,-0.9887839505955577,-0.23477321699261663,0.028382044875621792
1726995689838876400,4.45287646484375,-1.164071251657605,-0.08004910374879837,0.4622229592293501
1726995689848862500,4.462862548828125,-1.1640250744283198,-0.09563128828406334,0.574748099169135
1726995689858848500,4.4728486328125,-1.1174652755662797,-0.0840580471292138,0.6423252593576908
1726995689868835300,4.48283544921875,-0.9176315622687339,-0.021568857729434964,0.6042752224266529
1726995689878821600,4.492821533203125,-0.5781397874340415,0.00008007949888706206,0.5759609820902347
1726995689888807400,4.502807373046875,-0.23506430889368055,0.012074760936200617,0.5921639288723468
1726995689898793500,4.51279345703125,-0.28795331077724695,-0.017164193029701708,0.736132839345932
1726995689908780500,4.522780517578125,0.4224725481212139,-0.2707140066847205,0.9773112472057341
1726995689918766600,4.5327666015625,0.6204805072963238,-0.6054454352498054,1.561239262652397
1726995689928753200,4.542753173828125,0.32065409563481806,-0.39946109036803246,2.1351754609167575
1726995689938740000,4.552739990234375,0.4776619359016418,-0.08555179281830787,2.3564140735536814
1726995689948726300,4.562726318359375,0.81694708224833,-0.0025786183163523674,2.2732915537089107
1726995689958712000,4.572712158203125,1.0977411689206957,0.003714636608958244,2.1739918060451746
1726995689968698000,4.582697998046875,1.3453329509541392,0.11565174752771853,2.1072388217210767
1726995689978685200,4.592685302734375,1.3722259263157843,0.3698103407308459,1.900584614753723
1726995689988671000,4.6026708984375,1.4439163670420645,0.509383354333043,1.5190221691697836
1726995689998657000,4.612656982421875,1.6649153257042169,0.5584817317619919,1.45220547195971
1726995690008644000,4.62264404296875,1.6993626619681714,0.5894935406193137,1.3197948973327875
1726995690018630100,4.632630126953125,1.4794032754868267,0.6456807072654366,0.9057663524299859
1726995690028616000,4.642615966796875,1.3754589168876408,0.711143651778996,0.6711784288764
1726995690038602200,4.652602294921875,1.278795362946391,0.6634267918363214,0.722505296009779
1726995690048589000,4.662589111328125,1.060652962759137,0.677273238620162,0.8020049491822719
1726995690058575000,4.6725751953125,0.878158506797254,0.7088792139783501,0.9742705643355846
1726995690068561200,4.68256103515625,0.7264969959944486,0.666515990023315,1.0214034869104622
1726995690078548000,4.6925478515625,0.5759416928678751,0.6819523363471031,1.0359639271825551
1726995690088534000,4.702533935546875,0.4929638421908021,0.5329071455225348,0.9761357736855745
1726995690098520000,4.71252001953125,0.4682800673112273,0.4973433724492788,0.8983797493100166
1726995690108505900,4.722505859375,0.369006330871582,0.34197716190963984,0.8018664174944162
1726995690118493200,4.7324931640625,0.19234189623743295,0.0436532637655735,0.8236626542389393
1726995690128479000,4.74247900390625,-0.13789075960367916,-0.20848609856963157,0.8744558528870343
1726995690138465300,4.75246533203125,-0.37184827629923817,-0.4474564749911427,0.7868915512025356
1726995690148452000,4.7624521484375,-0.5754655997887254,-0.7330702369049191,0.5807078843563794
1726995690158438000,4.77243798828125,-0.6580240560099482,-1.0457596372708677,0.44305239481329917
1726995690168424200,4.782424072265625,-0.6647694386169314,-1.2929989526048302,0.4449918384432792
1726995690178410000,4.792409912109375,-0.5977464051797986,-1.4840329811140893,0.42633916042149067
1726995690188397000,4.80239697265625,-0.5466913407251238,-1.62521255313009,0.4011357455819845
1726995690198383000,4.812383056640625,-0.4375871151447296,-1.673549883058667,0.4198024521291256
1726995690208369000,4.822368896484375,-0.12880319778472185,-1.52040865509212,0.35007717399597166
1726995690218356200,4.832356201171875,0.44697950512915846,-1.2772726834237575,0.21330489702820776
1726995690228342000,4.842342041015625,0.7323758248999714,-0.9847054491102695,-0.4612766182899475
1726995690238328000,4.852328125,1.0446294641971587,-0.6366957290381193,-1.3427882349073885
1726995690248314000,4.862314208984375,1.7295719222709536,-0.3543845158010721,-1.9170353988170623
1726995690258301000,4.872301025390625,2.127175109812617,-0.15757307293415068,-2.2369489052176474
1726995690268287200,4.882287353515625,2.3044801804378627,-0.11410013417154549,-2.1914187416642905
1726995690278273000,4.89227294921875,2.1032690413072705,0.05149111778438091,-2.0224621049284934
1726995690288260000,4.902260009765625,1.5998273519828914,0.4380471338719129,-1.6350070941746233
1726995690298246100,4.91224609375,1.127983454710245,0.7515458047941327,-1.0789368074685335
1726995690308232200,4.922232177734375,0.7359162739858031,0.9996081269487738,-0.4524696269780397
1726995690318219300,4.93221923828125,0.4124149722263217,1.2225292858451604,-0.03085574151277542
1726995690328205000,4.942205078125,0.3224684515804052,1.3703285682618618,0.4405857124388218
1726995690338191000,4.952191162109375,0.31280572022199626,1.4377619360655545,0.9182657685190438
1726995690348177000,4.962177001953125,0.4280418726861477,1.3325851130619644,1.3227566697478295
1726995690358164000,4.9721640625,0.6695359223663806,1.1792796344444154,1.6441344034820795
1726995690368150000,4.98214990234375,0.7592398664280772,1.024889867721498,1.920286509567499
1726995690378136000,4.992135986328125,0.8314446864172815,0.8099062238261103,1.9511808295249937
1726995690388122000,5.0021220703125,0.9521648232504725,0.6638663522973657,1.8644594084054231
1726995690398109000,5.01210888671875,1.0850140815556049,0.6179521578624844,1.6336995187073946
1726995690408095200,5.02209521484375,1.3894400959670543,0.5671726954787969,1.1323019024312495
1726995690418081000,5.0320810546875,1.684290472781658,0.5678194689497351,0.651254415744543
1726995690428068000,5.042068115234375,1.822094138623774,0.7135860764950513,0.16966975344121454
1726995690438054100,5.05205419921875,1.8782652309179304,0.7079436866939067,-0.10027999087274074
1726995690448040000,5.0620400390625,1.783228985917568,0.7668607166953384,-0.30205460910499093
1726995690458026200,5.072026123046875,1.5937804730340837,0.749575673764944,-0.3759112879544496
1726995690468013000,5.082012939453125,1.4173717667266725,0.6485761364459991,-0.32455402568280695
1726995690477998800,5.091998779296875,1.2152651400610803,0.6010030688881873,-0.3699316290229559
1726995690487985200,5.101985107421875,1.069209778702259,0.5583163120672107,-0.5856359884083271
1726995690497972000,5.111971923828125,0.9870964359000325,0.42679421071261164,-0.574061870470643
1726995690507958300,5.121958251953125,0.6758841223493218,0.28984102421998975,-0.2790378906548023
1726995690517944000,5.131944091796875,0.2403276362493634,0.23532369048222898,-0.012336919003725052
1726995690527931000,5.141930908203125,0.0023582535639405247,0.2557515614829957,-0.00004793079495429992
1726995690537917200,5.151917236328125,-0.14238602519631385,0.30346652172952887,0.059896542558073994
1726995690547903000,5.161903076171875,-0.2920905567124486,0.42309681749939915,0.09895254166126251
1726995690557889000,5.171888916015625,-0.1390270701572299,0.5130845469385386,0.37314825298190113
1726995690567876000,5.1818759765625,-0.2576423436656594,0.6699637923896312,0.1562654974669218
1726995690577862100,5.191862060546875,-0.438259607578814,0.7646874643094838,-0.1811141075193882
1726995690587848000,5.201847900390625,-0.1527320626437664,0.602622486783564,-0.12344167075157164
1726995690597835000,5.2118349609375,0.037890754716098304,0.41642230817154047,-0.3126853087127209
1726995690607821000,5.221821044921875,0.23219898259043692,0.3257566794708371,-0.5491349344849586
1726995690617807000,5.23180712890625,0.4380199536040425,0.06221373345926404,-0.5949860005557537
1726995690627793200,5.241793212890625,0.5364674683526158,-0.2776253935083747,-0.3506289626598358
1726995690637780000,5.251780029296875,0.5193406847238541,-0.5562989808954298,0.09496844046115875
1726995690647766000,5.26176611328125,0.4019467697039246,-0.7448552211143076,0.5009007726699114
1726995690657752000,5.271751953125,0.3141431063055992,-0.8518047528788447,0.8025316034048795
1726995690667739100,5.2817392578125,0.13604776208549738,-0.7773824029706418,0.9814800573229789
1726995690677725200,5.29172509765625,-0.0866591695383191,-0.580025308919698,0.97517423517704
1726995690687711000,5.3017109375,-0.14853928712904452,-0.3091008743546903,0.6797936970084906
1726995690697697300,5.311697265625,-0.19802666387557982,0.09209186211153865,0.24385668715834616
1726995690707684000,5.32168408203125,-0.22082623244374988,0.5628539554968476,-0.056576458224654194
1726995690717670000,5.331669921875,-0.28340456143170595,1.2490370612815023,-0.3870382466465235
1726995690727656200,5.34165625,-0.338353126193583,2.051037188158184,-0.6452993067324161
1726995690737643000,5.35164306640625,-0.008946692043542861,2.5796143416523933,-0.33080431824922557
1726995690747629000,5.361629150390625,0.5624214092984795,2.7947008614003654,0.21893442734777926
1726995690757615000,5.371614990234375,1.3416484172224998,2.6966449763178826,0.6915700595200062
1726995690767601000,5.381600830078125,1.4808406148135662,2.449851651185751,0.8367343172580003
1726995690777588200,5.391588134765625,1.0510486835896968,2.045603326541185,1.0032599274545908
1726995690787574000,5.401573974609375,0.46271308083385226,1.734370993115753,1.1527145758628845
1726995690797560000,5.41156005859375,0.13593436483889818,1.646684380225837,1.241006607300043
1726995690807547100,5.421547119140625,0.0356231020450592,1.6147788373991847,1.2809984259486198
1726995690817533000,5.431532958984375,-0.12218611773252487,1.6747116203144192,1.1444283935546875
1726995690827519200,5.441519287109375,-0.03334142084866762,1.6262538788765668,1.1052940685182808
1726995690837505000,5.451505126953125,-0.06608692163079977,1.3462867445476352,0.8794020771175622
1726995690847492000,5.4614921875,0.03227291483432054,1.1699939197048543,0.7776800707429647
1726995690857478100,5.47147802734375,-0.013717851968109606,1.0041175671972333,0.5478180066674947
1726995690867464200,5.481464111328125,0.13247370299100875,0.6470623708821833,0.33413550849854945
1726995690877451300,5.491451171875,0.34504444052577016,0.266640912026912,0.000488075777888298
1726995690887437000,5.50143701171875,0.363607102176547,-0.14312047695070504,-0.3342933294087648
1726995690897423000,5.511423095703125,0.17333762829899788,-0.539153492566198,-0.6769453218400477
1726995690907409000,5.521408935546875,-0.10115911179482936,-1.014890597885102,-1.2623954322874544
1726995690917396000,5.53139599609375,-0.30919103685617444,-1.5054562928929924,-1.641115347921848
1726995690927381800,5.5413818359375,-0.042673605078458784,-2.013024852889031,-1.4451689974516628
1726995690937367800,5.551367919921875,0.310131824837625,-2.310363977779448,-1.3684049067229032
1726995690947355000,5.56135498046875,0.6130670161694288,-2.364789541580528,-1.3498510129004717
1726995690957340700,5.571340576171875,0.8229328786596656,-2.448434185603261,-1.2844798383235931
1726995690967327000,5.581326904296875,0.9787173146113752,-2.5728046616375444,-1.0879279231756924
1726995690977312800,5.591312744140625,0.9710802438616752,-2.5900088944166897,-0.8522048581123352
1726995690987299800,5.6012998046875,0.6235761352241039,-2.281746516712755,-0.7761199818193912
1726995690997286000,5.611285888671875,0.3023217356085777,-1.8452629788957535,-0.6843541367918252
1726995691007271700,5.621271728515625,0.18036095106452701,-1.4784040353164076,-0.5223667545467615
1726995691017259000,5.631259033203125,0.18289046954214572,-1.1870208962209523,-0.35978491353988645
1726995691027244800,5.641244873046875,0.2714201091274619,-0.9968637966766953,-0.0027928455889225006
1726995691037230800,5.65123095703125,0.40753129183799025,-0.9064344609498977,0.36863340590596194
1726995691047217000,5.661216796875,0.46227468941658734,-0.7928982442714273,0.5682645823687315
1726995691057203700,5.67120361328125,0.5371209638252854,-0.6667310940787196,0.5517851567327976
1726995691067190000,5.68118994140625,0.676967241410911,-0.47195495643168683,0.45044718123972416
1726995691077175800,5.69117578125,0.7631444726511836,-0.25338570913448927,0.4275327541202307
1726995691087162600,5.70116259765625,0.7911828186556696,-0.031013562422990797,0.5495820937305689
1726995691097149000,5.71114892578125,0.7786594371691345,0.17386793578341603,0.6587070698380469
1726995691107134700,5.721134765625,0.7290130704686045,0.3729654437609017,0.7373012986034154
1726995691117120800,5.731120849609375,0.606270487897098,0.512399195022881,0.6089701022446156
1726995691127107800,5.74110791015625,0.5491384416162968,0.6863000101625919,0.2966957124203443
1726995691137094000,5.751093994140625,0.5240419942826032,0.8068613031722605,0.0357364992916584
1726995691147079700,5.76107958984375,0.5456973612517119,0.8725913741894066,0.02587561501264572
1726995691157066800,5.771066650390625,0.7599456766098738,0.8954311286374926,0.25614275275766846
1726995691167052800,5.781052734375,0.9417892674475907,0.9091783528305589,0.45778409999907016
1726995691177038800,5.791038818359375,1.258492871890962,0.848390122129768,0.5101578458368778
1726995691187025000,5.80102490234375,1.6556678971484302,0.7951008688822389,0.32145664418935777
1726995691197011700,5.81101171875,2.0310662671446797,0.6612533933199942,0.0031131635844707487
1726995691206997800,5.820997802734375,2.2916975634932517,0.4980357386276126,-0.38595337401926516
1726995691216983800,5.83098388671875,2.45087924066782,0.34526012910306453,-0.7915677263200283
1726995691226971000,5.840970947265625,2.511862701679766,0.2677206700876355,-1.3733295036435127
1726995691236957000,5.85095703125,2.429826223506033,0.17988178924545645,-1.841478930312395
1726995691246942700,5.860942626953125,2.2488155763611197,-0.1823299130499363,-1.8190473182737825
1726995691256929800,5.8709296875,1.954201638650894,-0.5058544495545327,-1.8357903632819652
1726995691266915800,5.880915771484375,1.3047908049464225,-0.5385173866197467,-1.5120564218103885
1726995691276901600,5.890901611328125,0.775346367098391,-0.4755278464823961,-1.045580481311679
1726995691286888000,5.900887939453125,0.2269911848142743,-0.3783846923306584,-0.97601360861063
1726995691296874800,5.910874755859375,-0.17848901971280573,-0.32480244748592374,-1.2365145565778017
1726995691306860800,5.92086083984375,-0.4003182917192578,-0.19713731382042168,-1.4935066196411848
1726995691316846800,5.930846923828125,-1.1172969332620502,-0.06839899796545505,-2.1110832221895457
1726995691326833000,5.9408330078125,-1.8694643770858643,0.33482641337215896,-2.1209096196770667
1726995691336820000,5.950820068359375,-2.0714570219829676,0.685669603304565,-1.544032691785693
1726995691346805800,5.9608056640625,-2.467481708161533,0.7929919139042496,-0.9999375050336122
1726995691356791800,5.970791748046875,-2.8898239079013464,0.517341327600181,-0.42363750024735924
1726995691366779000,5.98077880859375,-2.9654125251099464,-0.21690818221718072,0.2925251487374306
1726995691376764700,5.9907646484375,-2.8567659801691767,-0.9280319602519274,0.9273644362539052
1726995691386750700,6.000750732421875,-2.5110621989518402,-1.2624515463888644,1.1940180616319178
1726995691396737800,6.01073779296875,-2.151396235616505,-1.5840081438213587,1.3065502158343791
1726995691406723800,6.020723876953125,-1.6043705483704804,-1.7896572653993963,1.6287363433420656
1726995691416710000,6.0307099609375,-1.421343592967093,-1.9193956982076168,1.7982026831656692
1726995691426696000,6.040696044921875,-1.2162602885782718,-1.9612620785564183,1.8934879344910382
1726995691436682800,6.050682861328125,-0.7651192798554897,-1.639851319335401,2.191183763864636
1726995691446668800,6.060668701171875,-0.4026104943096637,-1.5271122443839906,2.384760462594032
1726995691456654800,6.07065478515625,-0.09144786511957645,-1.337962714447081,2.017662595692277
1726995691466642000,6.080641845703125,0.22851912503391503,-0.9500818794965743,1.9209546180874109
1726995691476627700,6.090627685546875,0.20667992593050002,-0.5070630946919322,1.9362234988898037
1726995691486613800,6.10061376953125,-0.053992286950349806,-0.20519494806975125,2.0961925270497797
1726995691496599800,6.110599853515625,-0.2179611984014511,-0.014048106835782528,2.2559031965345144
1726995691506587000,6.1205869140625,-0.23412732030451297,0.22705460543930528,2.2187293579161165
1726995691516572700,6.13057275390625,0.21635434772670267,0.23303367984890935,2.361900980532169
1726995691526559000,6.14055908203125,0.5105325243681669,0.21029577834010124,2.284048510044813
1726995691536545800,6.1505458984375,0.6674284286931157,0.12654840459525585,2.2435767989248037
1726995691546531800,6.16053173828125,0.7614289009049534,-0.1251890989407897,2.3915485152989624
1726995691556518000,6.170517822265625,0.8915826365157962,-0.21610914079397917,2.2529893549144266
1726995691566503700,6.180503662109375,0.9499766655564308,-0.2676221781492233,2.105409268206358
1726995691576490800,6.19049072265625,0.9275953224003315,-0.19098522093147038,1.9277777421057223
1726995691586476800,6.200476806640625,1.1510153707295656,-0.012434826420247553,1.5919780997872353
1726995691596462800,6.210462890625,1.4358675006210804,0.1573117916494608,1.1794739879727363
1726995691606450000,6.220449951171875,1.5949702673405408,0.2953229627624154,0.8040969530254602
1726995691616435700,6.230435791015625,1.5949366573318837,0.40488282315582036,0.3259457723021507
1726995691626422000,6.240422119140625,1.6733514378771186,0.5048395734235644,-0.05399170242846012
1726995691636407800,6.25040771484375,1.8668258452758193,0.8552110541909933,-0.5595557907342911
1726995691646394600,6.26039453125,2.0193933650076388,1.589589451085031,-1.0930711312830448
1726995691656381000,6.270380859375,2.2239538145661353,2.050697142548859,-1.5626766019791363
1726995691666366700,6.28036669921875,2.1521537759855387,2.1090449943602083,-1.9058172547101973
1726995691676354000,6.29035400390625,1.8877914764150976,1.9886685563981532,-2.066918501770496
1726995691686339800,6.30033984375,1.4585340904593467,1.662222141097486,-1.8302485112458466
1726995691696326000,6.310325927734375,0.9397390569195151,1.3748793634340166,-1.5960884577155112
1726995691706311700,6.320311767578125,0.5914931900039315,1.1721870458349586,-1.1994073534548282
1726995691716298800,6.330298828125,0.35381723730713127,0.7580220150709152,-0.7729618100494146
1726995691726284800,6.340284912109375,0.34023528667837377,0.37986557853817937,-0.20644787074029444
1726995691736270800,6.350270751953125,0.6547378739461303,-0.025430501593649384,0.1210603285729885
1726995691746257700,6.360257568359375,1.0022571801528335,-0.3789212834253907,0.22737959960997103
1726995691756243700,6.37024365234375,1.2512144053205847,-0.6525944321766496,0.19538053328096866
1726995691766229800,6.380229736328125,1.5375313470676542,-0.7892898445159197,0.07072597960829734
1726995691776215800,6.3902158203125,1.6076175674676894,-0.8185137470431625,-0.05101356340050697
1726995691786203000,6.400202880859375,1.5934899656549095,-0.7372925307750702,-0.10513386064469814
1726995691796189000,6.41018896484375,1.3706126459002494,-0.5959665360257029,-0.0945697965323925
1726995691806174700,6.4201748046875,1.1594599584698677,-0.44808644345775245,-0.00986263784468174
1726995691816161800,6.430161865234375,1.0094128971263765,-0.3313660437852144,0.021239771905541417
1726995691826147800,6.44014794921875,0.7582283512979745,-0.21380685520097611,-0.04667758002281189
1726995691836133600,6.450133544921875,0.5273150246039032,-0.15498802487701177,-0.17591361626684665
1726995691846120000,6.460119873046875,0.1703761481449008,-0.09013605186864733,-0.23409341803491115
1726995691856106800,6.470106689453125,0.16968056709617374,-0.0882625130817294,-0.22837153325676918
1726995691866092800,6.4800927734375,0.04644289448410272,-0.0360882353387773,-0.16999767022132872
1726995691876078800,6.490078857421875,-0.09973258612304925,0.06358648311719298,-0.038865444967150685
1726995691886065700,6.500065673828125,-0.27465163839459417,0.10008709864914417,0.06918810251653194
1726995691896052000,6.510052001953125,-0.4434393483042717,0.12876491160094738,0.17082827582657337
1726995691906037800,6.520037841796875,-0.5917360588490963,0.08445683718845248,0.042024785780906675
1726995691916024800,6.53002490234375,-0.6902189371719956,-0.020367665246129034,-0.11183774219751358
1726995691926011000,6.540010986328125,-0.7460977685213088,-0.008578443253040312,-0.16974457224309444
1726995691935997000,6.549996826171875,-0.7179705751895904,0.0039621816292405125,-0.25105098257660863
1726995691945983000,6.55998291015625,-0.7991025057390332,0.13074760985076428,-0.2959510315328836
1726995691955970000,6.569969970703125,-0.8644374399587511,0.28707243628948925,-0.21416355968415735
1726995691965956000,6.5799560546875,-0.9031345426216721,0.5962304476588964,-0.14115560661852358
1726995691975942000,6.58994189453125,-0.9385054234713316,0.9156498869322239,-0.2074865661382675
1726995691985929000,6.599928955078125,-0.8358744855582714,1.0341295513622462,-0.3547299682378769
1726995691995915000,6.6099150390625,-0.5017360544502735,0.9802150058232247,-0.159528883177042
1726995692005900800,6.61990087890625,0.06283142696619033,0.8185510103136301,0.38211306520402427
1726995692015887000,6.62988720703125,0.30536329526156186,1.087264052439481,-0.15746610542833805
1726995692025874000,6.6398740234375,0.3267065275415778,1.2963108536317944,-0.004333645290136337
1726995692035859700,6.649859619140625,0.30794337488263845,1.253789224244654,0.4655068032056093
1726995692045846000,6.659845947265625,0.3378954455539584,1.1965312134966253,0.8520826930373907
1726995692055832800,6.669832763671875,0.2641615163013339,1.1201961618348955,1.1373989333093166
1726995692065819100,6.679819091796875,0.07260550974458456,0.8114680663153528,1.3893173463702202
1726995692075805000,6.689804931640625,-0.25488076999783515,0.47907969374507664,1.6407096897304057
1726995692085791000,6.699791015625,-0.3740820267006755,0.22053440989032386,1.48784610966146
1726995692095778000,6.709778076171875,-0.4504670549839735,0.14881854246184228,0.9905395620912313
1726995692105763800,6.719763916015625,-0.5203989616051315,0.14241437450796365,0.27678455877006053
1726995692115750000,6.72975,-0.631446137946844,0.11318243480473757,-0.3255792770773172
1726995692125737000,6.739737060546875,-0.7973723209455609,-0.08576134391576051,-0.6594359686344862
1726995692135722800,6.74972265625,-0.8848255634710193,-0.41349692224413154,-0.4565653718590736
1726995692145709000,6.759708984375,-0.4313338999688625,-0.7119289569377899,-0.6424351494729519
1726995692155695900,6.76969580078125,-0.6923638402462006,-1.0285352384865283,-0.6253723709911108
1726995692165682000,6.779681884765625,-0.6944938380122184,-1.4989936727501452,-0.6155553258538246
1726995692175668000,6.78966796875,-0.28150340398550033,-1.6735091126568615,-0.6101765554249287
1726995692185654000,6.799654052734375,0.17697101636528967,-1.7911181317321956,-0.5276444026887417
1726995692195641000,6.80964111328125,0.6352560516238213,-1.7590853092640637,-0.405543625152111
1726995692205627000,6.819626953125,0.9388877007871865,-1.5907209393329917,-0.3075292411237955
1726995692215613000,6.829613037109375,1.0287991501197218,-1.2501562745697796,-0.22537410500645635
1726995692225600000,6.83960009765625,1.05951928255409,-0.8153948843702673,-0.2983276975363493
1726995692235586000,6.8495859375,0.8893529777675867,-0.4323882313273847,-0.31144203065335746
1726995692245571800,6.85957177734375,0.6177019824936986,-0.23931319850981234,-0.3681406539529562
1726995692255558000,6.869557861328125,0.48565702630877494,-0.14598346516638994,-0.3418447677016258
1726995692265545000,6.879544921875,0.4105105999097228,-0.08165244729220866,-0.23388766632974145
1726995692275531000,6.889531005859375,0.3646402446165681,-0.04977963769137859,-0.12898702991902827
1726995692285517000,6.89951708984375,0.45662294726520775,0.010686229187250137,-0.20524024851620196
1726995692295504000,6.90950390625,0.6820443985447288,0.06444982194826006,-0.421713254186511
1726995692305490000,6.919489990234375,0.9184583684816956,-0.043812545980513096,-0.5947136133551597
1726995692315476000,6.92947607421875,1.1592521609380841,-0.1538987683355808,-0.6128963357776404
1726995692325461800,6.939461669921875,1.2784218534588814,-0.23847280216291544,-0.5847422544389963
1726995692335449000,6.949448974609375,1.3121712705865503,-0.3685436817958951,-0.4411842628538608
1726995692345435000,6.959434814453125,1.2857456204757094,-0.5590865657873452,-0.30784429842233657
1726995692355421000,6.9694208984375,1.0970759830102323,-0.7471377790935337,-0.14032441649138927
1726995692365408000,6.979407958984375,0.898735138618946,-0.8561069801174104,-0.1667266857266426
1726995692375393800,6.989393798828125,0.5855161614209413,-0.8592711432367562,-0.09724398417770862
1726995692385380000,6.999380126953125,0.33391339018046856,-0.9326980523668229,-0.05500584790706634
1726995692395367000,7.009366943359375,0.08190759109705686,-0.946405675201863,-0.014480360773205756
1726995692405352700,7.019352783203125,0.08416033845990896,-0.8927787144325673,-0.07456278129220008
1726995692415339000,7.029339111328125,0.13106997367292642,-0.9066881434500217,-0.4572843337833881
1726995692425324800,7.03932470703125,0.11500701988339423,-0.790558403147012,-0.997298973223567
1726995692435312000,7.04931201171875,0.273946997256577,-0.7313697165973484,-1.570181863042712
1726995692445298000,7.0592978515625,0.15211889918148516,-0.6251236569270491,-1.8171680803984402
1726995692455284000,7.069283935546875,0.1630333841666579,-0.5184317531853914,-2.046250976794958
1726995692465271000,7.07927099609375,0.33417671729177234,-0.3494441367894411,-2.3877789336323736
1726995692475256800,7.0892568359375,0.34837241590470075,-0.16557605438679457,-2.6738006918251513
1726995692485243000,7.099242919921875,0.057545887778699394,-0.12424451156705617,-2.7689550102472302
1726995692495230000,7.10922998046875,-1.1660288154661655,-0.07037877360582351,-2.9727953288376328
1726995692505216000,7.119216064453125,-2.136574806320667,0.11964110942482947,-2.8002625871807334
1726995692515202000,7.1292021484375,-2.2949933901682495,0.12782353909760713,-2.2327830177098513
1726995692525188000,7.13918798828125,-2.5396999721542,0.08276216209977864,-1.6806179217487573
1726995692535175000,7.1491748046875,-2.8611154075503347,-0.15929770476967095,-1.0661667577445506
1726995692545161000,7.159160888671875,-3.0860528747051954,-0.5185471962586045,-0.5090092603236437
1726995692555147000,7.16914697265625,-3.0446470976054667,-1.0154816956460475,0.008499532797932625
1726995692565134000,7.179134033203125,-2.7933827645391225,-1.4528849786564706,0.8869219512283801
1726995692575120000,7.189119873046875,-2.535453128364682,-1.706291876709461,1.2450193500727413
1726995692585106000,7.19910595703125,-2.1379238828420637,-1.7714023545235393,1.3356436238497496
1726995692595093000,7.209093017578125,-2.646137024351954,-1.5527619416862726,1.7895540972858666
1726995692605079000,7.2190791015625,-2.512843821671605,-1.307285544371605,2.6281109537959098
1726995692615064800,7.22906494140625,-1.4320534952908754,-0.9712412796422839,3.173521899321675
1726995692625051100,7.239051025390625,-0.845470581421256,-0.7355401341497898,3.269043882012367
1726995692635038000,7.249037841796875,-0.26339783845245834,-0.6705354547977447,2.88712253998816
1726995692645023700,7.259023681640625,-0.007044073292613029,-0.5271744470894336,2.9019933613836764
1726995692655010000,7.269010009765625,0.13030395773649214,-0.37929742326140403,2.9080227046757936
1726995692664996900,7.278996826171875,0.2028311415478587,-0.3872369840890169,3.036703445124626
1726995692674983000,7.28898291015625,0.24284604881107805,-0.4287535280868411,3.1450363940715786
1726995692684969000,7.298968994140625,0.5257400303721428,-0.531603077186644,3.2538287772238252
1726995692694955800,7.308955810546875,0.9141407975435256,-0.6296256445214152,3.3389848487228155
1726995692704942000,7.318942138671875,1.3307351012811064,-0.6499263820111751,2.900322213301062
1726995692714927900,7.328927978515625,1.8177797825559974,-0.5658090059101581,2.3944787235319613
1726995692724914000,7.338913818359375,2.1900752181008456,-0.553975944775343,1.9069786997050047
1726995692734901000,7.34890087890625,2.27174432426691,-0.5291743887349963,1.5147171654522418
1726995692744886800,7.35888671875,2.090359583112597,-0.4780664250493049,1.1779366954028605
1726995692754873000,7.368873046875,1.8842139101892708,-0.2882207295417785,0.7611766797095537
1726995692764860000,7.37885986328125,1.746218228906393,0.09637246204018592,0.2990589344203472
1726995692774846000,7.388845947265625,1.7488041537463663,0.7381865570053457,-0.1031792194455862
1726995692784832000,7.39883203125,1.8341197997212408,1.768902062140405,-0.4628770392239093
1726995692794818000,7.408818115234375,1.967437552320957,2.8227590811491012,-1.117539802107215
1726995692804805000,7.41880517578125,2.0129171547308564,3.5904990648970005,-1.5808943957149981
1726995692814791000,7.428791015625,1.6730983398988841,3.7963232507809996,-1.7578104670226573
1726995692824777000,7.43877685546875,1.1403203737139702,3.7729602031111713,-1.5604086570471525
1726995692834764000,7.448763916015625,0.34364480286091564,3.639747664451599,-1.395037477582693
1726995692844749800,7.458749755859375,-0.20728432156443594,2.8777997081086037,-0.9529653259783982
1726995692854736000,7.46873583984375,-0.5309712090238928,2.0630667947784067,-0.6066290920764208
1726995692864723000,7.478722900390625,-0.6374854181110858,1.1807888699635862,-0.43113048635125156
1726995692874709000,7.488708984375,-0.7111787230923772,0.3184688605502248,-0.12536299420297145
1726995692884695000,7.498695068359375,-0.5361588407948613,-0.2756760130062699,0.3176952458292246
1726995692894681900,7.508681884765625,-0.5373945200696587,-0.6326442616902291,0.5750099649757147
1726995692904668000,7.51866796875,-0.5022346516221762,-0.8282568501614034,0.7151262916743755
1726995692914654000,7.528654052734375,-0.4846618777915835,-0.909881532663852,0.5959411093235015
1726995692924640000,7.538639892578125,-0.31651509613394735,-0.8784203726038337,0.27568507309556006
1726995692934626600,7.54862646484375,-0.3083063629761338,-0.6331890360914171,0.058147068542242046
1726995692944612900,7.55861279296875,-0.25580840623676776,-0.4415830529130995,-0.4632704224556684
1726995692954598700,7.5685986328125,-0.6610396044388414,-0.19331746327131985,-1.3668354654490946
1726995692964585500,7.57858544921875,-0.16730039396136998,-0.2198858828537166,-1.783674976119399
1726995692974571800,7.58857177734375,0.12963994086980818,-0.3075733725264668,-2.270863449779153
1726995692984557600,7.5985576171875,0.20738369028568265,-0.4006605292856693,-2.281355033177137
1726995692994543600,7.608543701171875,0.1639978452846408,-0.4950177059806883,-2.287357488462329
1726995693004530700,7.61853076171875,0.15544892038702965,-0.5279337410241365,-2.6291765372008085
1726995693014516500,7.6285166015625,-0.15384645362645386,-0.7587449225179851,-2.3306635462254284
1726995693024502800,7.638502685546875,-0.5232146035477518,-1.0025352664418519,-2.098286284458637
1726995693034489600,7.648489501953125,-0.8148670611038804,-1.2333289122790096,-1.576832553103566
1726995693044475600,7.6584755859375,-1.144080310769379,-1.259707946769148,-0.8606599672466516
1726995693054461700,7.668461669921875,-1.3590537255316972,-1.0841928283005953,-0.38860418078899384
1726995693064448500,7.678448486328125,-1.586853304119408,-0.9503810085736215,0.06785246999859809
1726995693074434800,7.688434814453125,-1.829522535058856,-0.7206346798323094,0.5157476286679507
1726995693084420600,7.698420654296875,-1.9937574039697645,-0.48512072747498747,0.976110639244318
1726995693094407700,7.70840771484375,-2.153000163681805,-0.4861639529176056,1.628722899338603
1726995693104393700,7.718393798828125,-2.203658922295272,-0.42924964104071256,1.9486784913152455
1726995693114379500,7.728379638671875,-2.260165237893164,-0.17276435845568774,1.7924018879324197
1726995693124365600,7.738365478515625,-1.8308286492213606,-0.07253639003112912,1.7426082217156886
1726995693134352600,7.7483525390625,-0.8092623729646206,0.09084376174658536,1.5270616832405328
1726995693144338700,7.758338623046875,0.3643082361832261,0.3934828927412629,1.1631623201191426
1726995693154324500,7.768324462890625,1.2098863696321844,0.8428517772249877,0.9075222561866044
1726995693164311600,7.7783115234375,1.5162074040099978,1.1807459076046942,0.6870084506928921
1726995693174297600,7.788297607421875,1.4208186923101545,1.1225120375618338,0.5075041164577007
1726995693184283600,7.79828369140625,0.9900012174308299,0.8333204171612858,0.22188392480313776
1726995693194270700,7.808270751953125,0.5287514871478081,0.40892260006591674,-0.14132745605409144
1726995693204256500,7.818256591796875,-0.05798223336935043,-0.05322685553580522,-0.4837760348677635
1726995693214242800,7.828242919921875,-0.8887246167361735,-0.6579037906311452,-0.7960299664258956
1726995693224228600,7.838228515625,-1.1257900363191962,-1.1200278195306659,-1.3621464308500288
1726995693234215700,7.848215576171875,-1.0455869110524654,-1.3293256728745997,-1.440612649321556
1726995693244201700,7.85820166015625,-0.323406901474297,-1.584101521193236,-2.0377701486974953
1726995693254187500,7.8681875,-0.11986439678668975,-1.3970597771905362,-2.0903332796275613
1726995693264174600,7.878174560546875,-0.049426878730952736,-1.3956978411875665,-1.5793541805356741
1726995693274160600,7.88816064453125,0.03262245892435312,-1.3798710342414677,-1.073905827564001
1726995693284146400,7.898146484375,-0.12401976290047168,-1.3020064349249005,-0.3202203803926706
1726995693294133800,7.9081337890625,-0.275375568754971,-1.2202817991793156,0.052175008395314214
1726995693304119600,7.91811962890625,-0.40832244221568104,-1.0600297162942587,-0.19200842649936675
1726995693314105900,7.92810595703125,-0.42288083666115994,-0.7088245611816644,-0.5556950236529111
1726995693324091600,7.938091552734375,-0.30581016224622726,-0.2575026429340243,-0.5594488232284784
1726995693334078500,7.948078369140625,-0.16269932990670202,-0.047711453115195035,-0.025030980882048606
1726995693344064800,7.958064697265625,-0.2324015194252133,0.0821839238204062,0.58913669000566
1726995693354050600,7.968050537109375,-0.3447644545406103,0.09808993348255753,0.9579565583944321
1726995693364037600,7.97803759765625,-0.3410597548037767,0.06750175686478614,0.930380569204688
1726995693374023700,7.988023681640625,-0.1866147507622838,0.057534635732322925,0.7439572493612766
1726995693384009500,7.998009521484375,0.12465601497739552,0.03999035734385252,0.5812035589188337
1726995693393996800,8.007996826171874,0.6056131930321454,0.024376316365599632,0.38368776717483993
1726995693403982600,8.017982666015625,1.1072077931851148,0.10629895890131592,0.08222527874410152
1726995693413968600,8.02796875,1.5716560272485016,0.1559638841718435,-0.5279015923202037
1726995693423955700,8.037955810546874,2.0188763553962112,0.18580299598798156,-1.2784995948702096
1726995693433941500,8.04794140625,2.4827935513228176,0.19682970917597412,-2.2042887446314094
1726995693443927800,8.057927734375,2.5666484770953653,0.12086816700175404,-2.893305028015375
1726995693453913600,8.06791357421875,2.3519226073533295,-0.11201295263394713,-2.861636801075935
1726995693463900700,8.077900634765625,1.7163383466884492,-0.36411125230640173,-2.4580928253084418
1726995693473886700,8.08788671875,1.0949529995068907,-0.4649465389743447,-1.9983137520998715
1726995693483872800,8.097872802734376,0.3299088307142258,-0.49874505594074725,-1.705581682613492
1726995693493859800,8.10785986328125,-0.3991813966438174,-0.46725160104632374,-1.4981114830881357
1726995693503845600,8.117845703125,-0.8872162579998374,-0.5697065978705883,-1.1270645862996578
1726995693513831700,8.127831787109375,-1.1371955196917056,-0.6549497631311416,-0.7014297747552395
1726995693523818800,8.13781884765625,-1.3746540302455423,-0.5562745771065354,-0.3808393920063972
1726995693533804500,8.147804443359375,-1.4901415271222591,-0.3932932153880596,-0.24927052890062332
1726995693543790600,8.15779052734375,-1.4516530987739562,-0.2607955469995737,-0.5533458301782608
1726995693553776600,8.167776611328126,-1.7020619840547442,-0.14138093980699776,-1.0238169777929782
1726995693563763700,8.177763671875,-1.8250079802438615,-0.22371932353675364,-1.5843196939885615
1726995693573749500,8.18774951171875,-1.9727277676835655,-0.311573548078537,-1.8279975174486636
1726995693583735800,8.19773583984375,-2.4454560465753077,-0.44396512574404473,-1.9242104050129651
1726995693593722600,8.20772265625,-3.400819958128035,-0.45794747386723755,-1.4310323355495929
1726995693603708700,8.217708740234375,-3.538826453065872,-0.6546835134103894,-0.6385422336876392
1726995693613694700,8.22769482421875,-3.0681390323519704,-1.2303452202931047,0.07811199820637703
1726995693623681500,8.237681640625,-3.148841047051549,-2.069080940501392,0.8924018439441919
1726995693633667600,8.24766748046875,-2.429237317702174,-3.0526334201842547,1.454447113406658
1726995693643653600,8.257653564453125,-2.3179203845083713,-3.645877545508742,2.062185043507814
1726995693653639700,8.2676396484375,-2.2295842216685413,-3.614172785951197,2.5976298908144235
1726995693663626800,8.277626708984375,-1.8757029792144893,-2.876853659430146,3.226072170770168
1726995693673612500,8.287612548828125,-2.1414421200960874,-1.9568433853313325,3.8726720387071367
1726995693683598800,8.297598876953124,-1.6337144240155814,-1.5432733978509903,3.797335350432992
1726995693693585700,8.307585693359375,-1.6634265484511852,-1.3897323569118976,3.5204292111098763
1726995693703571500,8.317571533203125,-0.8520394384175538,-1.2612091451123355,3.507362224265933
1726995693713557800,8.327557861328126,-0.16063976702839136,-1.176788986672461,3.1951889567285776
1726995693723544600,8.337544677734375,0.2647001532226801,-1.1174252358168364,3.1865503077208994
1726995693733531000,8.34753076171875,0.509040239983797,-0.8777166082486509,2.7882483242601155
1726995693743516700,8.3575166015625,0.9361392788618802,-0.5864797457560896,2.1817601019591093
1726995693753503500,8.36750341796875,1.299823537927866,-0.3065618573963642,1.6283564041137695
1726995693763489800,8.37748974609375,1.6943126851022243,-0.06523790358603,1.1485767454057931
1726995693773475600,8.3874755859375,1.9819857176333664,0.18022884911745785,0.8583598736107348
1726995693783461600,8.397461669921874,2.3662279038205742,0.5592316733464598,0.6399737277954817
1726995693793448700,8.40744873046875,2.7204054988726973,1.2919146644994617,0.13214169455766678
1726995693803434500,8.4174345703125,2.7906208986103533,2.524661977498233,-0.9030231912016868
1726995693813420500,8.427420654296874,3.1597254291594026,3.607419512298703,-2.0794190869033335
1726995693823407600,8.43740771484375,3.5195208640933036,4.408556738735735,-2.5782185033798215
1726995693833393700,8.4473935546875,2.982879208217561,4.6821077224120495,-2.2604461006611585
1726995693843379700,8.457379638671876,2.167230349086225,4.574823405735194,-1.4077911606937645
1726995693853366500,8.467366455078125,1.4372589549794792,4.012629959973693,-0.16122224309146405
1726995693863352600,8.4773525390625,0.7013102400287985,2.971767447094619,0.5553513247817754
1726995693873338600,8.487338623046876,0.4270718586102128,1.9567311571285126,0.7429162158757447
1726995693883324700,8.49732470703125,0.6369561335399746,1.0112485881209372,0.5459346771389245
1726995693893311700,8.507311767578125,0.8673410524457693,0.39628450615853067,0.4349778094291687
1726995693903297500,8.517297607421876,0.9175096894547343,-0.02474544193893671,0.8108119404941797
1726995693913283600,8.52728369140625,0.9099135352373122,-0.28582740466445683,1.1915145543783903
1726995693923270700,8.537270751953125,0.8519953070148825,-0.3220706844344735,1.1597831990748644
1726995693933256400,8.54725634765625,0.747613726042211,-0.16695377248078583,0.7169611058861017
1726995693943242200,8.5572421875,0.5814867597743868,0.06424333959072828,0.07907412123680115
1726995693953229300,8.567229248046875,0.4076081564664841,0.35747196042239665,-0.5875993974357843
1726995693963215400,8.57721533203125,0.21155922240465877,0.6235057003363966,-1.0838029522001742
1726995693973201400,8.587201416015626,-0.13296733172684908,0.7584025388211011,-1.3285048580110073
1726995693983188500,8.5971884765625,-0.27908143753558395,0.7117614914163947,-1.3615765220075844
1726995693993174300,8.60717431640625,-0.47193011425137515,0.6432439816378057,-1.3986685275614261
1726995694003160600,8.61716064453125,-0.9179039494693279,0.42659503487870093,-1.4658897139191627
1726995694013146400,8.627146484375,-0.8677101780191063,0.10936039229854941,-1.521030001860857
1726995694023133400,8.637133544921875,-0.7442746447473764,-0.2181583284087479,-1.1855863333731889
1726995694033119500,8.647119384765626,-0.18936872564554214,-0.584463145236671,-0.6475801111459731
1726995694043105300,8.657105224609374,0.21417320429533718,-0.6772321759574115,-0.3315320480018854
1726995694053092400,8.66709228515625,-0.45677667652219534,-0.7151515722461045,-0.17213526677191257
1726995694063078400,8.677078369140625,-0.4686377947077155,-0.740295511983335,0.4640653722256422
1726995694073064400,8.687064453125,-0.7779156330645084,-0.6769463447533548,0.6763689832568168
1726995694083051500,8.697051513671875,-1.352707279114425,-0.6059414020732045,1.2603349926263092
1726995694093037300,8.707037353515625,-1.7782839307308196,-0.6738384418658911,1.4361094926834106
1726995694103023400,8.7170234375,-1.7842767414048313,-0.6525057309798896,0.9608160394787788
1726995694113009400,8.727009521484375,-1.6846689507052302,-0.6134986855849623,0.47062020069658755
1726995694122996200,8.736996337890625,-1.2873469181925057,-0.4381792358189821,-0.3341290787577629
1726995694132982500,8.746982421875,-1.0626514430999756,-0.12844678556248545,-0.9162631965249777
1726995694142968300,8.75696826171875,-0.622956834281981,0.12095599141567945,-1.8682336662471293
1726995694152955400,8.766955322265625,-0.8876713082909583,0.2812406613960862,-1.9138760580033063
1726995694162941400,8.77694140625,-1.1764137236192822,0.07208908465504646,-1.3665396973729134
1726995694172927500,8.786927490234374,-1.2983213166713714,-0.19257891986370085,-0.7278712069571017
1726995694182914600,8.79691455078125,-1.4041326381862163,-0.461922807238996,-0.2923673278272152
1726995694192900400,8.806900390625,-1.0875143739387392,-0.9749598617739975,0.3698299222141504
1726995694202886400,8.816886474609374,-0.7696396798893809,-1.3407634510815143,1.0457505771815776
1726995694212872400,8.82687255859375,-0.47031800287961956,-1.5462820781476794,1.2462848399639128
1726995694222859300,8.836859375,-0.6115966513559222,-1.362334646898508,0.8054565509408712
1726995694232845300,8.84684521484375,-0.8310378591820597,-0.7678801228709519,-0.12267594707608222
1726995694242831400,8.856831298828125,-0.8328510460838675,-0.06788081931024789,-0.8951099338591099
1726995694252818400,8.866818359375,-0.6289715645268559,0.369672101303935,-0.849911194217205
1726995694262804500,8.876804443359376,-0.45378976966589685,0.5350907731719314,-0.029047815307974813
1726995694272790500,8.88679052734375,-0.48506052172034975,0.5614215846061706,0.6574637917786836
1726995694282777300,8.89677734375,-0.4303495651066303,0.5544786336004733,0.8618687585145235
1726995694292763400,8.906763427734376,-0.24044337158352136,0.5853172778479755,0.5871078145265579
1726995694302749400,8.91674951171875,0.04592354678511619,0.6535283520258963,0.14135375953912735
1726995694312735200,8.9267353515625,0.4148807778179645,0.762340901183337,-0.219542914634943
1726995694322722600,8.93672265625,0.8991501491606235,0.8299208378508687,-0.4685048159778118
1726995694332708400,8.946708251953124,1.3195952831074595,0.8002054985448718,-0.6652694970935583
1726995694342694400,8.9566943359375,1.5428382213041185,0.6320723070211708,-0.7246393854290246
1726995694352681500,8.966681396484375,1.7012743408083915,0.35302374884188176,-0.637742607742548
1726995694362667300,8.976667236328124,1.6953703774616122,0.07039528634920716,-0.5592915868401527
1726995694372653600,8.986653564453125,1.5437284481421112,-0.17403525517433882,-0.49428983009755606
1726995694382640400,8.996640380859375,1.3487901056706904,-0.28659400512278077,-0.46929567409455775
1726995694392626200,9.006626220703126,1.2703557436421513,-0.4186510901369154,-0.5412491496711969
1726995694402612500,9.016612548828125,1.2384987161323426,-0.5271724012628197,-0.5386871902287006
1726995694412598300,9.026598388671875,1.0714122571825981,-0.5831418335050345,-0.7522358328849077
1726995694422585600,9.036585693359376,0.9902709742829203,-0.6705944915086031,-1.002084453934431
1726995694432571400,9.0465712890625,0.7333698043733835,-0.7215083939269185,-1.3168798866689204
1726995694442557400,9.056557373046875,0.29936376258581876,-0.7778536737442017,-1.4055425049841404
1726995694452544500,9.06654443359375,-0.21337299382835626,-0.6781441762357949,-1.0467974558860063
1726995694462530300,9.0765302734375,-0.6035869479015469,-0.4429851747959852,-1.045535473126173
1726995694472516400,9.086516357421875,-0.5911421846091747,-0.41729777583181854,-1.2701456080228088
1726995694482503400,9.09650341796875,-0.37617753767520185,-0.37276071496903895,-1.7547423116236924
1726995694492489200,9.1064892578125,-0.0026548984229564664,-0.3971513521209359,-2.630208802857995
1726995694502475500,9.1164755859375,0.43154374332726,-0.2816442737609148,-3.5232378387898207
1726995694512461300,9.12646142578125,0.45875382181406016,0.031522388727962966,-4.445031781435013
1726995694522448400,9.136448486328124,0.12310732423067092,0.2372498362392187,-4.9834886700391765
1726995694532434400,9.146434326171875,-0.6579635579943657,0.503068472097814,-5.17046903924346
1726995694542420500,9.15642041015625,-1.4310758824303746,0.8884975299820304,-4.666163426566124
1726995694552407600,9.166407470703126,-2.4189359961792825,0.8640224294170736,-3.5369513068437572
1726995694562393300,9.176393310546874,-3.267981513477862,0.4194935323104262,-1.8283634281516075
1726995694572379400,9.18637939453125,-3.9054058490514754,-0.31718115882724524,0.07080489006340503
1726995694582366500,9.196366455078126,-4.326513538560271,-1.2054016254335642,1.332524030524492
1726995694592352500,9.2063525390625,-4.301249041183293,-2.167465911407769,2.288165882235765
1726995694602338300,9.21633837890625,-3.9390316397994756,-3.072136869816482,2.9692279917448756
1726995694612324400,9.226324462890625,-3.486170967677235,-3.86347166416347,3.558731761497259
1726995694622311400,9.2363115234375,-3.633686756977439,-4.505655761484801,3.799759947231412
1726995694632297500,9.24629736328125,-2.673872003495693,-4.432862327952683,4.962890118646621
1726995694642283500,9.256283447265625,-1.3703823442757128,-4.227416327731311,5.910238189265131
1726995694652270300,9.266270263671874,-0.5434364305824041,-3.7706530952125785,5.656029619440436
1726995694662256400,9.27625634765625,-0.6219096633166075,-2.773595821790397,5.177154216095805
1726995694672242400,9.286242431640625,-0.5470540365576744,-1.7606266934871673,4.2983769928783175
1726995694682229500,9.2962294921875,-0.010819500178098677,-1.145976792040467,3.6830987304002045
1726995694692215600,9.306215576171875,0.640295799356699,-1.0054276268824935,2.903091093492508
1726995694702201300,9.316201416015625,1.1768617596477269,-0.5117489144206047,2.257213694611192
1726995694712187400,9.3261875,1.5703104578584433,-0.009359656758606434,1.7327543516993522
1726995694722174500,9.336174560546874,1.887887630265951,0.534523640808463,1.472436943605542
1726995694732160300,9.34616015625,2.0639976458877323,1.059692885555327,0.9648176763355731
1726995694742146600,9.356146484375,2.270145364637673,2.2348206610172987,0.340315073916316
1726995694752133400,9.36613330078125,2.432038638858497,3.687726974722743,-0.22870646429955957
1726995694762119200,9.376119140625,2.6295421556428074,4.752021216593683,-0.630554742065072
1726995694772105500,9.38610546875,2.284113684235513,5.527185212862491,-0.49971828488707537
1726995694782092300,9.39609228515625,1.8143986156851053,5.69127044416964,-0.08941489798724651
1726995694792078600,9.40607861328125,1.2596692221939563,5.348707883587479,-0.03797288004159927
1726995694802064400,9.416064453125,0.3425894485890865,4.369889738950133,-0.16880758365392684
1726995694812050400,9.426050537109376,0.35944822893142697,2.8950138777598737,-0.16383739402592182
1726995694822037500,9.43603759765625,0.40637686110585924,1.6089295268490909,-0.000661094257235527
1726995694832023300,9.446023193359375,0.5846858480766415,0.6605632190987467,-0.36942192593514916
1726995694842009300,9.45600927734375,0.7606450570508837,0.16470248642265795,-0.17800328202247617
1726995694851996400,9.465996337890624,0.750551240798831,-0.09484130695015192,0.03927928646504879
1726995694861982500,9.475982421875,0.9731342537820339,-0.3003843378052115,0.23955519057214258
1726995694871968500,9.485968505859375,0.9402136886939406,-0.24699060126990077,0.49349838745892044
1726995694881955300,9.495955322265624,0.7745593083739281,-0.06370820980072021,0.5625532189846039
1726995694891941400,9.50594140625,0.8379790566220879,0.19641747511327265,0.2608709503233433
1726995694901927400,9.515927490234375,0.7805687779217958,0.5429892713367939,-0.2826291931450367
1726995694911914200,9.525914306640624,0.6372019249945878,0.8936673338353633,-0.7779886983007193
1726995694921900500,9.535900634765625,0.5057677941843867,1.0219701808825135,-1.0805576866686344
1726995694931886300,9.54588623046875,0.1531494112730026,1.0568380806460975,-1.0125316136687994
1726995694941872600,9.55587255859375,-0.14840426257252692,0.9970327235028147,-1.0123702856272458
1726995694951859500,9.565859375,-0.47718964221477506,0.8486383978024125,-1.0002391183286905
1726995694961845800,9.575845703125,-0.5965037116423249,0.5526235072530806,-1.0062135165631771
1726995694971831600,9.58583154296875,-0.5787260628893971,0.12496888031885027,-1.0267220515847206
1726995694981818400,9.595818359375,-0.006489362019300461,-0.11974427753835916,-0.9684300216138362
1726995694991804700,9.6058046875,-0.21570055999308824,-0.2905170237854123,-0.961537339490652
1726995695001790500,9.61579052734375,-0.48962359185218807,-0.7174142564810813,-0.6126777245908975
1726995695011777500,9.625777587890624,-0.3204419141888618,-1.0525000514417886,-0.22013737339675427
1726995695021763600,9.635763671875,0.4362964908123016,-0.7973762664683163,-0.011857611054182052
1726995695031749400,9.645749267578125,-0.027463176465034482,-0.6043364510945975,-0.7665840917110442
1726995695041735400,9.6557353515625,-0.4884314594581723,-0.32453166772052644,-0.5228232661426067
1726995695051722500,9.665722412109375,-0.5340937249585986,-0.09727788644731045,-0.733620564264059
1726995695061708500,9.67570849609375,-1.3776748393714426,0.07839271484389901,-0.7629822678267956
1726995695071694600,9.685694580078126,-1.9128201192095875,-0.07570026088953018,-0.525560582152009
1726995695081681400,9.695681396484375,-2.0279674243465067,-0.015881021351367233,-0.5635907453387975
1726995695091667500,9.70566748046875,-2.119667218400538,-0.1939934628367424,-0.3093903588205576
1726995695101653500,9.715653564453126,-2.0564666658610102,-0.6178481129661202,0.06794073280394076
1726995695111639600,9.7256396484375,-2.1485770865425464,-0.6780494836896658,0.0957242272645235
1726995695121626600,9.735626708984375,-2.2042869910657403,-0.8580306416563689,0.24502397737205028
1726995695131612400,9.7456123046875,-2.1435458143770694,-0.9827509540416299,0.5420984599769115
1726995695141598500,9.755598388671874,-2.089850756807625,-1.1094218159727751,0.9537579376608133
1726995695151585500,9.76558544921875,-2.0181696684315797,-1.1823365377970039,1.0255436554551125
1726995695161571600,9.775571533203125,-1.7879148056462406,-1.2692948364123702,1.0093506455451249
1726995695171557400,9.785557373046874,-1.354618957954645,-1.2514043749347328,0.7810749738782644
1726995695181544400,9.79554443359375,-0.8425298517942428,-1.1812446509070693,0.3383259459257126
1726995695191530500,9.805530517578125,-0.4030591148599982,-1.1032124399386345,-0.013499533042311667
1726995695201516500,9.8155166015625,0.19974691179692744,-0.9793509363397955,-0.40633156065940856
1726995695211502600,9.825502685546875,0.5342369328215718,-0.7162145253024995,-1.0541092402040957
1726995695221489400,9.835489501953125,0.5448062576308846,-0.4958693543739617,-1.2477151650279759
1726995695231475700,9.845475830078126,0.41162119150012727,-0.2996303045675158,-1.1543354550629854
1726995695241461500,9.85546142578125,0.3460173772111535,-0.05900529280677438,-1.094937509676814
1726995695251448600,9.865448486328125,0.3709033966645598,0.250181214004755,-0.9730471600204705
1726995695261434600,9.8754345703125,0.37500147963315245,0.49560529661029573,-0.8362292903453111
1726995695271420400,9.88542041015625,0.2528545248672366,0.5447101037800312,-0.5827402669668197
1726995695281407500,9.895407470703125,0.06287205123752355,0.5212557245649397,-0.2150420960843563
1726995695291393500,9.9053935546875,-0.09241787919551134,0.3505944758683443,0.06509820285439491
1726995695301379300,9.91537939453125,0.07565729853063821,0.12486395863965152,0.15212415987849234
1726995695311366700,9.92536669921875,0.42025399528890844,-0.08729498322382569,-0.07080313649773597
1726995695321352400,9.9353525390625,0.8124015477731823,-0.2733804494149983,-0.563780130431056
1726995695331338500,9.94533837890625,1.2626748337507248,-0.482020131111145,-0.8456611355572938
1726995695341324500,9.955324462890625,1.68252433989197,-0.7105361874051391,-0.9065209701895713
1726995695351311400,9.965311279296875,1.5626432842314242,-0.82900430752784,-1.075163134148717
1726995695361297700,9.975297607421876,1.272245502911508,-0.8707708807639777,-1.2634382193386553
1726995695371283500,9.985283447265624,1.0584630514994262,-0.9604379999466239,-1.6895453245699406
1726995695381270500,9.9952705078125,0.6479410534128547,-0.9358836966656148,-2.0118331588864327
1726995695391256600,10.005256591796876,0.07159954757243395,-0.7766073269449174,-2.2156091800689697
1726995695401242400,10.015242431640624,-0.3451867716059088,-0.660491907428205,-2.234728891080618
1726995695411229700,10.025229736328125,-0.5728697380766272,-0.5022422504067421,-1.9711019200474023
1726995695421215500,10.035215576171876,-0.7173138648465275,-0.3613584464669227,-2.0515636962503194
1726995695431201500,10.045201416015624,-0.7149620410233736,-0.3092980043619871,-2.315345565584302
1726995695441187600,10.0551875,-0.9236208658114076,-0.08596709562093019,-2.742183323177695
1726995695451174400,10.06517431640625,-0.7788090747728943,0.08986994827836751,-3.1622119852781294
1726995695461160400,10.075160400390626,-1.0548746716186403,0.23407266750782726,-3.3615924018502232
1726995695471146500,10.085146484375,-1.6302838650450109,0.43589726236164567,-3.388208606097102
1726995695481133600,10.095133544921875,-2.3105545319154857,0.424119146284461,-2.88997559133172
1726995695491119600,10.10511962890625,-2.9813419156476852,0.16101327651590108,-2.3569389742106197
1726995695501105700,10.115105712890625,-3.419305462889373,0.10877835462689399,-1.3975602740585804
1726995695511091500,10.125091552734375,-3.6194615400090813,-0.28917934544086454,-0.27543197511732576
1726995695521078500,10.13507861328125,-3.807103880253434,-0.9673682376012206,0.4886649759531021
1726995695531064600,10.145064697265624,-3.8759707879915832,-1.8782786749213933,1.550502764582634
1726995695541050400,10.15505029296875,-3.629732466393709,-2.8515687037870285,2.3627695800602435
1726995695551037400,10.165037353515626,-3.1015473809570073,-3.642064124700427,3.0868115841180086
1726995695561023500,10.1750234375,-2.440679918214679,-4.101908956621587,3.5896436171114443
1726995695571009500,10.185009521484375,-1.7217849216565488,-3.942620604202151,4.2934985731869935
1726995695580996600,10.19499658203125,-1.3857988168552517,-3.252146815486252,4.87419301353991
1726995695590982400,10.204982421875,-1.2542039425253868,-2.1937565369620917,4.796618190950155
1726995695600968700,10.21496875,-1.1677367884278296,-1.9327561150401829,4.500131737366319
1726995695610955500,10.22495556640625,-0.7167527238324284,-1.4222002097964286,4.385086723560095
1726995695620941600,10.234941650390626,-0.3269415053412318,-1.1638526404708622,3.980918478414416
1726995695630927600,10.244927734375,-0.15768150174468754,-1.0474161723062396,3.5176316893458366
1726995695640913400,10.254913330078125,0.22648060494363306,-0.78029989785254,2.8386691824644803
1726995695650900500,10.264900390625,0.49875353150814766,-0.6010325872436165,2.6800258499503133
1726995695660886500,10.274886474609374,1.2112497669398783,-0.3796981130167842,2.4105226803600788
1726995695670872600,10.28487255859375,1.6475675928011535,0.43152591540962454,1.4879314498573541
1726995695680859600,10.294859619140626,2.1121274705454707,1.7821508352920412,0.704810064843297
1726995695690845400,10.304845458984374,2.5500012936770915,3.146462627482414,-0.19584639722704886
1726995695700831500,10.31483154296875,2.908545851767063,4.360269093167782,-0.6965490169763565
1726995695710817500,10.324817626953125,2.964285566906631,5.154854121482372,-0.9681383451908826
1726995695720804400,10.334804443359374,2.456516369771957,5.725193172037601,-0.8937789775162934
1726995695730790700,10.344790771484375,2.0645929814323782,5.7487049805283545,-0.7031377477169036
1726995695740776400,10.3547763671875,1.4959543050542472,5.008751706111431,0.07424246329665184
1726995695750763500,10.364763427734376,1.0590271151229738,4.135432748299837,0.31044892796278
1726995695760749600,10.37474951171875,0.8331210951969027,3.0451626459121703,-0.03801905727088451
1726995695770735600,10.384735595703125,0.8186383963361382,1.961570413853228,-0.5294383003681897
1726995695780722700,10.39472265625,0.8471846918627619,1.18569622348845,-0.9268073868930339
1726995695790708500,10.40470849609375,0.8754770126283168,0.5512137865856289,-0.6130559102535248
1726995695800694500,10.414694580078125,0.8410904666408896,0.053075172105431556,-0.2172942589253187
1726995695810680600,10.4246806640625,0.7915303169190884,-0.2761930226176977,-0.02047463275194168
1726995695820667400,10.43466748046875,0.9240715321883559,-0.510502421490848,-0.0681616820782423
1726995695830653400,10.4446533203125,0.8001645820125937,-0.3990916725337505,-0.23364508974552153
1726995695840639500,10.454639404296875,0.546377744731307,-0.24902093805372713,-0.41461657392382617
1726995695850626600,10.46462646484375,0.3336412952408194,-0.20288550208359957,-0.6781015061378478
1726995695860612600,10.474612548828125,-0.022611937041580675,-0.19945669667869806,-0.7199895137965678
1726995695870598700,10.4845986328125,0.025334640003740787,-0.17287264113575218,-0.6711608932197094
1726995695880585500,10.49458544921875,-0.39388095214813945,-0.1275837389923632,-0.5872521914333104
1726995695890571500,10.504571533203125,-0.5969838963747024,-0.29736148285269737,-0.6061550448238849
1726995695900557600,10.5145576171875,-0.4418950414717197,-0.445145275439322,-0.8079518748879432
1726995695910544600,10.524544677734376,-0.47520825913920994,-0.6868703573964535,-0.8319710483789443
1726995695920530400,10.534530517578125,0.19267127432227132,-0.800529615932703,-0.920029855582118
1726995695930516700,10.544516845703125,-0.04015285442918539,-0.6804058375574648,-1.0661012912929058
1726995695940502500,10.55450244140625,-0.2960068533733487,-0.4913641519092023,-0.9838713363736867
1726995695950489900,10.56448974609375,-0.34131869800090786,-0.5022844821132719,-0.8774456823527812
1726995695960475600,10.5744755859375,-0.6273771349422633,-0.4210306787498295,-0.6544371374338865
1726995695970461700,10.584461669921875,-0.5091021993041038,-0.396892847315222,-0.40074060878455636
1726995695980448800,10.59444873046875,-0.6171557467877864,-0.2821050231404602,-0.18216566239893436
1726995695990434600,10.6044345703125,-1.0357017691150308,0.03291822700053453,0.004404372438788414
1726995696000420600,10.614420654296875,-1.602202556681633,0.3593890460900962,-0.13455343187451363
1726995696010407700,10.62440771484375,-2.1483853633627294,0.7028231288097798,-0.16523907751739025
1726995696020393700,10.634393798828125,-1.8814967601850627,0.9392676400154828,-0.10728665476441383
1726995696030379500,10.644379638671875,-2.329951890824735,0.8493015378862618,-0.23265081801116466
1726995696040365600,10.654365478515626,-2.7164824802100656,0.6342005512215196,-0.019114450314641
1726995696050352600,10.6643525390625,-2.5400214591935275,0.34373671892806884,0.5441916328638792
1726995696060338700,10.674338623046875,-2.3325284633144734,-0.02045417448580265,1.1156582261443138
1726995696070324700,10.68432470703125,-1.954141725157201,-0.23576792711839079,1.1802601699143647
1726995696080311600,10.6943115234375,-1.4325696281194686,-0.45975291585400696,1.0286188251167536
1726995696090297600,10.704297607421875,-1.1791902025952934,-0.5536098879419267,0.8274158692926168
1726995696100283600,10.71428369140625,-0.7397805481985211,-0.4439109113387763,0.42871407285928725
1726995696110270700,10.724270751953124,-0.5025979319766164,-0.34259441702514887,-0.06069850659072399
1726995696120256800,10.7342568359375,-0.2190475323334336,-0.4338173873476684,-0.4128437190324068
1726995696130242600,10.74424267578125,0.09532382977008819,-0.6896849764257669,-0.5180523984789848
1726995696140228900,10.754228759765626,0.009182546626031398,-0.9908810690052807,-0.351320452055335
1726995696150215700,10.764215576171875,0.7689590041488409,-1.2056092768348752,-0.9834563258320093
1726995696160201500,10.774201416015625,0.7405830967530608,-1.1371240618906915,-1.2954495606273413
1726995696170187800,10.784187744140626,0.8198059788107872,-1.0022586414575576,-1.176171439296007
1726995696180174600,10.794174560546875,0.9275038447245955,-0.7513872532315552,-1.0388871211528778
1726995696190160600,10.80416064453125,0.7886839875772595,-0.6043763447135686,-0.5314893876791
1726995696200146700,10.814146728515626,0.465600618968904,-0.5587246006071567,0.021188918501138687
1726995696210133500,10.824133544921875,0.04231470863819122,-0.4595082934431731,0.18359949459433555
1726995696220119800,10.834119873046875,-0.2339770981788635,-0.39318522496894,0.07698971617817878
1726995696230105600,10.844105712890626,-0.0647699938133359,-0.3216283474944532,-0.1505845292210579
1726995696240091600,10.854091552734374,0.3816925017043948,-0.34526728949621316,-0.5088151990562677
1726995696250078700,10.86407861328125,0.6144532098308205,-0.490026619695127,-0.6422755749970674
1726995696260064500,10.874064453125,0.7176745148524641,-0.7502972660377621,-0.6613263124257326
1726995696270050800,10.88405078125,0.6453562976166606,-0.9821787071116268,-0.7251333064258099
1726995696280037600,10.89403759765625,0.529999149121344,-1.1279274867393076,-0.9664864863306284
1726995696290023700,10.904023681640625,0.2975195960238576,-1.23446156957075,-1.4137813410192728
1726995696300009700,10.914009765625,0.035061084248125554,-1.3576685547836125,-1.590342607539892
1726995696309996500,10.92399658203125,0.017139058588445187,-1.3412410054653883,-1.445335001668334
1726995696319982800,10.93398291015625,-0.30519378391355273,-1.1661265767522155,-1.400795018196106
1726995696329968600,10.94396875,-0.4724541381254792,-0.8575110016964376,-1.63260763181746
1726995696339954700,10.95395458984375,-0.2299871517598629,-0.5491217827424407,-2.2760060733646155
1726995696349941800,10.963941650390625,0.17477058371156454,-0.2879647089540958,-3.278023307281732
1726995696359927600,10.973927490234376,0.3601552081570029,0.1265676938176155,-4.170684094423056
1726995696369913600,10.98391357421875,0.38554976165443655,0.3211269738435745,-4.750116552016139
1726995696379900700,10.993900634765625,-0.2115782193660736,0.4616492509946227,-4.723433127751946
1726995696389886700,11.00388671875,-1.5437059440493583,0.5616790664985776,-4.370423991957306
1726995696399872500,11.01387255859375,-2.8127123189091683,0.5484624420508742,-3.2901404460549353
1726995696409859600,11.023859619140625,-3.4902012461066243,0.06883972747027874,-1.9501029711604116
1726995696419845600,11.033845703125,-4.029210215635597,-0.4362675569787621,-0.525220974934101
1726995696429831700,11.043831787109376,-4.247471858288347,-0.9854106747701763,0.6767039142996072
1726995696439817700,11.053817626953125,-3.8991245768249034,-1.644290178565681,1.7165443906545639
1726995696449804500,11.063804443359375,-3.5744402027606963,-2.2980755740925667,2.209021618372202
1726995696459790600,11.07379052734375,-3.40311332976222,-2.9008891995340584,2.5381676480203867
1726995696469776600,11.083776611328124,-3.0607348935753107,-3.415825219558179,2.865415735092759
1726995696479763700,11.093763671875,-2.7212685454428196,-3.53281552221328,3.2903356763660905
1726995696489749800,11.103749755859376,-1.943276340010762,-3.13731252182126,3.9252451065093275
1726995696499735600,11.113735595703124,-1.8200579566210506,-2.589501237155497,4.308609048557281
1726995696509722600,11.12372265625,-2.2290394472673536,-1.6586381451308727,4.399424460992217
1726995696519708700,11.133708740234376,-1.5599468847543,-1.3401973416313528,4.222925738313794
1726995696529694500,11.143694580078124,-1.0143386630907654,-1.3005179499328137,4.243999506002664
1726995696539680800,11.1536806640625,-0.3369119874745607,-1.1726771674394607,3.9557694241106507
1726995696549667600,11.16366748046875,0.14286387184113264,-0.7859428721755742,3.4308009626328944
1726995696559653600,11.173653564453126,0.7612368854641914,-0.5174594010218978,3.061446256715059
1726995696569639700,11.1836396484375,1.467017548905313,0.017718027520179747,2.5862358056187627
1726995696579626500,11.19362646484375,2.0881942217722536,1.0510568668961524,2.1761738262593746
1726995696589612800,11.20361279296875,2.528683780360222,2.3783102635413407,1.4826993944227695
1726995696599598600,11.2135986328125,3.061278791193664,4.023258029232919,0.9980781409025191
1726995696609585700,11.223585693359375,3.28267142534852,5.264850619727373,0.22595102811157702
1726995696619571700,11.23357177734375,2.8030656619027257,6.26052696018517,-0.8025012082666159
1726995696629557500,11.2435576171875,2.61935452362746,6.632857467043399,-1.3155477612823248
1726995696639543600,11.25354345703125,2.080719940368831,6.27453385822773,-1.3231968147307633
1726995696649530600,11.263530517578126,1.3490972719237209,4.867350015777349,-1.0192845950603484
1726995696659516700,11.2735166015625,1.0301476421192288,3.082377108801901,-0.7495522928893565
1726995696669502700,11.283502685546875,1.1609373375460506,1.6374457194983958,-0.4986106159061193
1726995696679489500,11.293489501953125,1.2489464603886007,0.6187789640754461,0.00019815292060375213
1726995696689475600,11.3034755859375,1.3382812788769602,0.21192279502004382,0.3217413063496351
1726995696699461600,11.313461669921875,1.3151084930822252,0.19513649539202452,0.24688977124392986
1726995696709448400,11.323448486328125,1.183974514262378,0.3417071127966046,-0.034627076745033264
1726995696719434800,11.333434814453126,0.8829054090633988,0.598237988089025,-0.2519774497717619
1726995696729420500,11.343420654296875,0.39443566342145203,0.7768672930553555,-0.25568507211804387
1726995696739406600,11.353406494140625,-0.026446985159814355,0.836578249913454,-0.25520225703716276
1726995696749393700,11.3633935546875,-0.361389718388021,0.8361337210163473,-0.2115530849248171
1726995696759379700,11.373379638671874,-0.5895484856769442,0.6817988993510603,-0.09994330626428127
1726995696769365500,11.383365478515625,-0.7316346511438488,0.3517091591119766,0.05116729265749454
1726995696779352600,11.3933525390625,-0.6990569081440567,0.0957471697486937,-0.004034954604506492
1726995696789338600,11.403338623046874,-0.7528112946853042,-0.21498174419924615,-0.046641924187541005
1726995696799324700,11.41332470703125,-0.9429051197350025,-0.5265142296150327,-0.12971592871546744
1726995696809311700,11.423311767578125,-0.8442413318872451,-0.859868524608016,-0.40730771221518514
1726995696819297500,11.433297607421874,-0.5230244878031313,-0.969933704175055,-0.6255120717227458
1726995696829283800,11.443283935546875,-0.43403322205543515,-1.0041643289484083,-1.0137117633640766
1726995696839270700,11.453270751953125,-0.3034558542050421,-1.033235379001498,-1.2307049935162067
1726995696849256700,11.463256591796876,-0.05427314971834421,-1.019239002352953,-1.017578960186243
1726995696859242800,11.47324267578125,0.028558862747251987,-0.7387022514425218,-0.7899760732144117
1726995696869228500,11.483228515625,0.26854192334264515,-0.37527488974705336,-0.6921054815709591
1726995696879215600,11.493215576171876,0.0009238368466496467,-0.32014658450409766,-0.6367126801729202
1726995696889201700,11.50320166015625,0.31602628970369695,-0.15455197154730557,-0.13016484152674673
1726995696899187500,11.5131875,-0.2879511188201606,-0.3672287998050451,0.3588450023412704
1726995696909174800,11.5231748046875,-0.8414113691583275,-0.14862725767344234,0.10139525863826274
1726995696919160600,11.53316064453125,-1.0389771375238894,0.050830023527145385,0.14180676400363446
1726995696929147000,11.54314697265625,-1.3811717415764928,0.13303265204802156,0.32908640841543674
1726995696939134200,11.55313427734375,-1.4533635559536515,0.20569515267685054,0.5552963797241449
1726995696949120000,11.5631201171875,-1.6720777646794913,0.1781019200913608,0.4771966564774513
1726995696959106000,11.57310595703125,-1.993773770582676,0.21783055775910615,0.5477098701179027
1726995696969092000,11.583092041015625,-2.1018121204972267,0.12452069815993308,0.7890402536690234
1726995696979079000,11.593078857421874,-2.232167516160011,-0.27042744482830167,0.7515349911391734
1726995696989065200,11.603065185546875,-2.2544553358137605,-0.4137909367546439,0.4436170429587364
1726995696999051000,11.613051025390625,-2.0806971440151334,-0.6131839205473661,0.08023381266593933
1726995697009038000,11.6230380859375,-1.8543430880606173,-0.7024363214492797,-0.6919441535294055
1726995697019024100,11.633024169921875,-1.2569725304558872,-0.74178268180117,-0.9640256491750478
1726995697029010200,11.64301025390625,-0.8574912740826606,-0.7577054964676498,-0.6683505119740962
1726995697038997200,11.652997314453126,0.40046997514963145,-0.6507885517984628,-1.3285340841054916
1726995697048983000,11.662983154296874,0.831636117336154,-0.4376026049748063,-1.336021224990487
1726995697058969000,11.672968994140625,0.7481836348846554,-0.018127923495322464,-1.0854694241076708
1726995697068955100,11.682955078125,0.6473539011746645,0.29754575337842104,-0.8651514334470033
1726995697078942000,11.69294189453125,0.3537359887644648,0.4586877708405256,-0.34876024617850776
1726995697088928000,11.702927978515625,-0.1461453777298331,0.5391258739069104,0.15419862806499005
1726995697098914000,11.7129140625,-0.4117360500514507,0.5408366233475506,0.7147966213285922
1726995697108901000,11.722901123046874,-0.32303134616017337,0.44338250355049963,1.2502782935142516
1726995697118887000,11.732886962890625,-0.08239742044061422,0.4372828715011477,1.5389584572613237
1726995697128873200,11.742873291015625,0.003419453054666519,0.5634609814792871,1.3404109843820333
1726995697138860000,11.752860107421874,0.14579408007413147,0.6997323231875896,1.0033569580882786
1726995697148846000,11.76284619140625,0.365293155567348,0.7357802265159785,0.7053419797629118
1726995697158832000,11.77283203125,0.6033645373225212,0.7051173772267997,0.6396738680660724
1726995697168818000,11.78281787109375,0.8963470744386315,0.4802911153614521,0.5222393287748098
1726995697178805000,11.792804931640624,1.3351643159002065,0.19924933753833174,0.11935001752376556
1726995697188791000,11.802791015625,1.7381810529232025,-0.023575813637673852,-0.7289297760993242
1726995697198777000,11.812777099609375,2.06503721806854,-0.10367167913764715,-1.7661118468999861
1726995697208764200,11.82276416015625,2.279041495537758,-0.32528847743719813,-2.8276480222344396
1726995697218750000,11.83275,1.9024895715922117,-0.5720974385298788,-3.428490932124853
1726995697228736300,11.842736328125,0.7707520250454545,-0.722121995780617,-3.369695044285059
1726995697238723000,11.85272314453125,-0.4353405052617192,-0.6923894130788744,-2.8498043244630096
1726995697248708900,11.862708984375,-0.5267234884515405,-0.5906621460072696,-2.8026404222279786
1726995697258695200,11.872695068359375,-0.584410830527544,-0.29057138432115315,-3.2804619326055047
1726995697268681000,11.882680908203126,-0.4138420824199915,-0.2637310159295797,-3.7866871151685713
1726995697278668300,11.892668212890625,-0.245940215434134,-0.1782376753002405,-4.090507564902305
1726995697288654000,11.902654052734375,-0.4505374898716807,0.19443214651495216,-4.224226299518347
1726995697298640100,11.91264013671875,-1.336573305915296,0.6158765206322073,-3.9660850664198395
1726995697308627200,11.922627197265625,-2.3837340421557425,0.6925052945435046,-3.584563537368178
1726995697318613000,11.932613037109375,-3.00436564836055,0.6595283230930566,-2.1896277665942905
1726995697328599000,11.94259912109375,-3.6335000022336836,0.38017391383498905,-0.8514899878412484
1726995697338586000,11.952586181640624,-4.112417783415317,-0.4066118389055133,0.30544249797761436
1726995697348572000,11.962572021484375,-4.185139320755004,-1.3445081905677914,1.7513234430909155
1726995697358558200,11.97255810546875,-4.236000616203248,-2.493055417618155,2.8184336191654205
1726995697368544000,11.9825439453125,-3.795020351488888,-3.5852217090159653,3.4375071822732686
1726995697378531000,11.992531005859375,-3.6436534397184848,-4.6120127341836685,3.598191080704331
1726995697388517000,12.00251708984375,-3.0480139436900613,-4.728864212889969,4.746283841985464
1726995697398503200,12.012503173828126,-3.2001150149539113,-4.514837431327998,5.462044924432039
1726995697408490200,12.022490234375,-2.39156225156337,-4.12952469329983,5.334258502474427
1726995697418476000,12.03247607421875,-1.3883967243939637,-2.920166146934032,5.777701357910037
1726995697428462000,12.042462158203126,-1.9923805626586077,-2.292711708971858,4.921005618119239
1726995697438449200,12.05244921875,-1.756497923119366,-1.8052967330798506,3.845169114753604
1726995697448435000,12.06243505859375,-0.8289028929799794,-1.7135650825828312,4.041425261825323
1726995697458421000,12.0724208984375,-0.21230361103117465,-1.438678758649528,3.9018022716015577
1726995697468407000,12.082406982421874,0.5262386275440454,-0.649568362353742,2.9913252572625875
1726995697478394000,12.09239404296875,1.441785784754157,0.21449147646427152,2.336371402478218
1726995697488380000,12.1023798828125,1.904452688358724,1.241709787133336,1.510388196337223
1726995697498366200,12.1123662109375,2.6103344740867613,2.945406386652589,0.28535248062908647
1726995697508353000,12.12235302734375,3.5025045551016927,5.287231962883472,-0.5226479095757007
1726995697518339000,12.132339111328125,4.65802103664279,6.971682594662904,-1.6183452977091073
1726995697528325000,12.1423251953125,5.232768551290035,7.8844491812437765,-2.206657811850309
1726995697538312000,12.15231201171875,4.237514820158482,7.983373081332445,-2.2500112158864733
1726995697548298200,12.16229833984375,3.503537113019824,7.546188117247819,-2.08336110252738
1726995697558284000,12.172283935546876,2.4373452208340165,5.612664524966478,-1.6660943063557148
1726995697568271000,12.18227099609375,1.6394906693294644,3.1336721194922923,-0.4783727145195007
1726995697578257200,12.192257080078125,1.4006784060791133,1.5788044376984238,0.41524084330201144
1726995697588243000,12.202242919921876,1.2623892948076127,0.7456848038062452,1.0377052178919315
1726995697598229200,12.212229248046874,0.9597700375571846,0.43255204358696936,0.9512000698715448
1726995697608216000,12.222216064453125,0.6943889163330197,0.6157347740739584,0.5796306105136871
1726995697618201900,12.232201904296875,0.343791517855227,0.7106351177349686,0.046048049947619435
1726995697628188200,12.242188232421874,0.21661416770666836,0.6985048272192478,-0.20069734438955783
1726995697638175000,12.252175048828125,0.11541881555467844,0.48667935509383675,-0.1475298178255558
1726995697648161300,12.262161376953125,-0.15265928966850043,0.4809124621301889,-0.15153905346691607
1726995697658147000,12.27214697265625,-0.33299539855271576,0.4157014465510845,-0.3727817577570677
1726995697668134000,12.2821337890625,-0.500537784576416,0.1784238455221057,-0.6458955190598964
1726995697678120200,12.2921201171875,-0.44640901176482434,0.10625263554155825,-0.7706897734642029
1726995697688106000,12.30210595703125,-0.5127376331970095,-0.1937215140275657,-0.8306050207227468
1726995697698092000,12.312092041015624,-0.6327618967205285,-0.5238029248297215,-0.6685533410698175
1726995697708079000,12.3220791015625,-0.6187351249337196,-0.8456057521082461,-0.3921732714474201
1726995697718065000,12.33206494140625,-0.5820438091352582,-1.0340873196557163,-0.11595569891035556
1726995697728051200,12.34205126953125,-0.6043298752233386,-1.2797642079785465,-0.19528467169106006
1726995697738038000,12.3520380859375,-0.721983025701344,-1.127729041557759,-0.4303285223186016
1726995697748024000,12.362024169921876,-0.4817968437492847,-0.8332241171799599,-0.6068804364889859
1726995697758010000,12.372010009765624,-0.4666531967617571,-0.5359022356852888,-0.6809890442728996
1726995697767997000,12.381996826171875,-0.5831634608149528,-0.26614114581122994,-0.625946371486783
1726995697777983000,12.39198291015625,-0.8793795730248093,-0.07381722362190485,-0.581425092715025
1726995697787969000,12.401968994140624,-0.8245150332845746,0.048188276846706866,-0.44096156001389025
1726995697797955000,12.411955078125,-0.7940870156645774,0.050153147178888316,-0.24745149677991865
1726995697807942100,12.421942138671875,-1.4282712002731859,-0.021350684934109448,-0.344863823261857
1726995697817928200,12.43192822265625,-1.1115639425680042,0.2782385569706559,-0.26932430589199063
1726995697827914000,12.4419140625,-1.1450804277226327,0.596149929768592,-0.26666823842525483
1726995697837901000,12.451901123046875,-1.7556081346727908,0.3501712820202112,0.04419745364487171
1726995697847887000,12.46188720703125,-1.6116174507588148,0.28013518437221646,0.5129267260283231
1726995697857873000,12.471872802734374,-1.553845499139279,-0.029881489653140306,1.0384434690386057
1726995697867860000,12.48185986328125,-1.5718135558977722,-0.27441052311509845,1.3201269057661293
1726995697877846000,12.491845947265626,-1.6541896412894128,-0.44494609960541126,1.233968379226327
1726995697887832000,12.50183203125,-1.9828882194310427,-0.4493696151360869,0.8263754203289747
