time,seconds_elapsed,z,y,x
1726995685404966400,0.01896630859375,-0.07005388289690018,-1.0675431489944458,2.0412254333496094
1726995685414952200,0.0289521484375,0.04639750346541405,-1.0642247200012207,2.0136313438415527
1726995685424938200,0.038938232421875,0.2225131392478943,-0.9542614817619324,2.0102458000183105
1726995685434924300,0.04892431640625,0.41272926330566406,-0.7388953566551208,2.0148987770080566
1726995685444911400,0.058911376953125,0.5764161348342896,-0.5301786065101624,1.9814610481262207
1726995685454897200,0.068897216796875,0.6817533373832703,-0.42240461707115173,1.891257643699646
1726995685464883200,0.07888330078125,0.7771688103675842,-0.4115418493747711,1.7598352432250977
1726995685474869200,0.088869140625,0.9289246201515198,-0.5544161796569824,1.6029688119888306
1726995685484856300,0.098856201171875,1.1780418157577515,-0.7981643676757812,1.5279371738433838
1726995685494842400,0.10884228515625,1.4791419506072998,-1.1418988704681396,1.5959510803222656
1726995685504828200,0.118828125,1.710025429725647,-1.5181382894515991,1.8224073648452759
1726995685514814500,0.128814453125,1.8052401542663574,-1.848520040512085,2.1710071563720703
1726995685524801300,0.13880126953125,1.7928663492202759,-2.016623020172119,2.604701519012451
1726995685534787000,0.148787109375,1.6891995668411255,-2.102630853652954,3.0008292198181152
1726995685544773400,0.1587734375,1.629548192024231,-2.253727912902832,3.2436559200286865
1726995685554760200,0.16876025390625,1.5605978965759277,-2.628469467163086,3.2172789573669434
1726995685564746500,0.17874658203125,1.3772797584533691,-3.187849521636963,3.1066324710845947
1726995685574732300,0.188732177734375,1.214961051940918,-3.8092925548553467,3.057987928390503
1726995685584718300,0.19871826171875,1.0716060400009155,-4.746001243591309,3.08975887298584
1726995685594705400,0.208705322265625,1.019547700881958,-5.439214706420898,3.224761724472046
1726995685604691200,0.218691162109375,1.2461880445480347,-5.77018404006958,3.3809633255004883
1726995685614677200,0.22867724609375,1.6184879541397095,-5.561683177947998,3.5220491886138916
1726995685624663300,0.238663330078125,1.9807335138320923,-4.570732116699219,3.5366175174713135
1726995685634650000,0.248650146484375,2.3037614822387695,-3.540813446044922,3.4292044639587402
1726995685644636400,0.258636474609375,2.53572154045105,-2.892484188079834,3.270838737487793
1726995685654622200,0.268622314453125,2.718412160873413,-2.4083995819091797,2.990344524383545
1726995685664609300,0.278609375,2.8963990211486816,-1.936718463897705,2.4607300758361816
1726995685674595300,0.28859521484375,2.971867561340332,-1.4736523628234863,1.856680154800415
1726995685684581400,0.298581298828125,2.390777587890625,-1.2991095781326294,1.4778577089309692
1726995685694567200,0.308567138671875,2.774550437927246,-1.3512197732925415,0.9616256356239319
1726995685704554200,0.31855419921875,3.1347601413726807,-1.2914104461669922,0.41935408115386963
1726995685714540300,0.328540283203125,3.1721465587615967,-1.315454125404358,-0.17486953735351562
1726995685724526000,0.338526123046875,3.343846559524536,-1.1657027006149292,-0.5851584672927856
1726995685734512400,0.348512451171875,3.7751481533050537,-1.0498713254928589,-0.8016873598098755
1726995685744499200,0.358499267578125,4.049144268035889,-1.5559192895889282,-0.7063899040222168
1726995685754485200,0.3684853515625,4.073637008666992,-2.2682387828826904,-0.44361722469329834
1726995685764471300,0.37847119140625,3.9462742805480957,-2.5215537548065186,-0.08614455908536911
1726995685774457300,0.388457275390625,3.5738985538482666,-2.879723310470581,0.34202831983566284
1726995685784444400,0.3984443359375,3.294384717941284,-2.9300222396850586,0.5114328265190125
1726995685794430200,0.40843017578125,2.9129221439361572,-2.799983263015747,0.5185902118682861
1726995685804416300,0.418416259765625,2.4105160236358643,-2.982186794281006,0.4076906144618988
1726995685814403300,0.4284033203125,2.006746292114258,-2.977574110031128,0.2130173295736313
1726995685824389000,0.43838916015625,1.8575336933135986,-3.1864278316497803,-0.0009455606341362
1726995685834375400,0.44837548828125,1.9124741554260254,-3.896083116531372,-0.01669735088944435
1726995685844361200,0.458361328125,2.1391782760620117,-4.76431131362915,0.07239524275064468
1726995685854348300,0.468348388671875,2.398646354675293,-5.286196231842041,0.20641247928142548
1726995685864334300,0.478334228515625,2.4178924560546875,-4.872585296630859,0.27371296286582947
1726995685874320400,0.4883203125,2.2162084579467773,-4.127202987670898,0.2908976376056671
1726995685884306200,0.49830615234375,1.896291971206665,-3.4677557945251465,0.21496425569057465
1726995685894293200,0.508293212890625,1.6869831085205078,-3.3231301307678223,0.0903533548116684
1726995685904279300,0.518279296875,1.597620964050293,-3.4231317043304443,0.051542576402425766
1726995685914265000,0.52826513671875,1.6172977685928345,-3.2620785236358643,0.19930636882781982
1726995685924253200,0.538253173828125,1.5074207782745361,-3.0483498573303223,0.2691184878349304
1726995685934239200,0.5482392578125,1.0046453475952148,-2.9255547523498535,0.45485571026802063
1726995685944225000,0.55822509765625,0.3202235996723175,-2.882390260696411,0.7717918753623962
1726995685954211300,0.56821142578125,-0.3247285485267639,-3.0357728004455566,1.142496943473816
1726995685964198100,0.5781982421875,-0.7777759432792664,-3.1564137935638428,1.5919543504714966
1726995685974184000,0.588183837890625,-0.8232578635215759,-2.7988595962524414,1.68219792842865
1726995685984170200,0.598170166015625,-0.8218469619750977,-2.508295774459839,1.4593217372894287
1726995685994156000,0.608156005859375,-0.9246390461921692,-2.216130256652832,0.8645402789115906
1726995686004143400,0.618143310546875,-0.632131040096283,-1.5620182752609253,0.19800062477588654
1726995686014129200,0.628129150390625,-0.34176209568977356,-1.0953644514083862,-0.2021532654762268
1726995686024115200,0.638115234375,-0.6343109011650085,-0.8433889150619507,-0.28177887201309204
1726995686034102300,0.648102294921875,-1.2687309980392456,-1.0166635513305664,0.001979513792321086
1726995686044088000,0.658088134765625,-1.627044677734375,-1.3168398141860962,0.33445653319358826
1726995686054074000,0.66807421875,-0.8653010129928589,-0.8737120032310486,0.9776293039321899
1726995686064060200,0.67806005859375,0.4231210947036743,-0.7872104048728943,1.3208305835723877
1726995686074047000,0.688046875,0.9228617548942566,-0.4384431540966034,0.9512521624565125
1726995686084033300,0.698033203125,0.8224802613258362,0.1084931492805481,0.2678874731063843
1726995686094019000,0.70801904296875,0.5213572382926941,0.6664832830429077,-0.48234280943870544
1726995686104006100,0.718006103515625,0.08274363726377487,1.122562050819397,-0.8169761896133423
1726995686113992200,0.7279921875,-0.502361536026001,1.2350422143936157,-0.8797285556793213
1726995686123978200,0.737978271484375,-0.7382920384407043,0.5547066330909729,-0.6340367794036865
1726995686133964000,0.747964111328125,-0.7657102942466736,-0.09391046315431595,-0.20665380358695984
1726995686143951000,0.757951171875,-0.770761251449585,-0.18379081785678864,0.16929373145103455
1726995686153937200,0.767937255859375,-0.4887656271457672,-0.25912749767303467,0.5470883250236511
1726995686163923200,0.777923095703125,-0.290596604347229,-0.310170441865921,0.8537947535514832
1726995686173910000,0.787909912109375,-0.1622651070356369,0.4625932276248932,1.1360969543457031
1726995686183896000,0.79789599609375,-0.07458452880382538,1.3557565212249756,1.264987826347351
1726995686193882000,0.807882080078125,-0.004856587387621403,1.486326813697815,1.2645965814590454
1726995686203868200,0.8178681640625,-0.021027034148573875,1.7403620481491089,1.425404667854309
1726995686213855200,0.827855224609375,0.10196134448051453,1.980600357055664,1.6678085327148438
1726995686223841300,0.83784130859375,0.03247520700097084,2.5517191886901855,1.7993879318237305
1726995686233827000,0.8478271484375,-0.20346340537071228,3.074110507965088,1.6561436653137207
1726995686243814100,0.857814208984375,-0.4411909878253937,3.200129270553589,1.2321662902832031
1726995686253800200,0.86780029296875,-0.7302089333534241,2.913876533508301,0.6413335204124451
1726995686263786000,0.877785888671875,-1.0524194240570068,2.3928310871124268,0.03315567970275879
1726995686273772300,0.887772216796875,-1.4416972398757935,1.6932684183120728,-0.38629961013793945
1726995686283759000,0.897759033203125,-1.6567105054855347,1.0163520574569702,-0.6242956519126892
1726995686293745200,0.9077451171875,-1.7471224069595337,0.7243216633796692,-0.8080443739891052
1726995686303731200,0.917731201171875,-1.7543272972106934,0.728508472442627,-1.0122449398040771
1726995686313718000,0.927718017578125,-1.692968487739563,0.8279537558555603,-1.0116798877716064
1726995686323704300,0.937704345703125,-1.4031063318252563,0.8919535279273987,-0.7627406120300293
1726995686333690000,0.947690185546875,-0.8976995944976807,0.8170306086540222,-0.42291635274887085
1726995686343676200,0.95767626953125,-0.32891708612442017,0.6267709136009216,-0.2477586269378662
1726995686353663200,0.967663330078125,0.09314337372779846,0.46627333760261536,-0.3660447299480438
1726995686363649000,0.97764892578125,0.2602737843990326,0.32490554451942444,-0.5936078429222107
1726995686373635000,0.987635009765625,0.28955504298210144,0.2038271278142929,-0.7489946484565735
1726995686383622100,0.9976220703125,0.31640905141830444,0.14831647276878357,-0.8555341362953186
1726995686393608200,1.007608154296875,0.3380327522754669,0.13240483403205872,-0.8934355974197388
1726995686403594200,1.01759423828125,0.33844608068466187,0.12612882256507874,-0.8663171529769897
1726995686413580300,1.027580322265625,0.29381290078163147,0.09854404628276825,-0.8120523691177368
1726995686423567000,1.037567138671875,0.22725439071655273,0.07113026827573776,-0.748833179473877
1726995686433553200,1.04755322265625,0.14323768019676208,0.08038225024938583,-0.6697355508804321
1726995686443539200,1.057539306640625,0.048866961151361465,0.15821446478366852,-0.5652296543121338
1726995686453525000,1.06752490234375,-0.055973779410123825,0.3150154650211334,-0.4545655846595764
1726995686463512000,1.077511962890625,-0.1459103226661682,0.4658409357070923,-0.3462337851524353
1726995686473498000,1.087498046875,-0.20477993786334991,0.5814857482910156,-0.2547806203365326
1726995686483484200,1.097484130859375,-0.24799638986587524,0.6489726901054382,-0.1857331097126007
1726995686493471200,1.10747119140625,-0.25366973876953125,0.6681306958198547,-0.12510822713375092
1726995686503457000,1.11745703125,-0.24528077244758606,0.704496443271637,-0.0814153254032135
1726995686513443300,1.127443359375,-0.23864643275737762,0.7008751034736633,0.027044551447033882
1726995686523430100,1.13743017578125,-0.21449290215969086,0.6643498539924622,0.17533761262893677
1726995686533416000,1.147416015625,-0.16266648471355438,0.657751739025116,0.2927018404006958
1726995686543402200,1.15740234375,-0.09039121866226196,0.6368126273155212,0.36249449849128723
1726995686553388000,1.167387939453125,-0.045761048793792725,0.5916138291358948,0.3721241056919098
1726995686563375400,1.177375244140625,-0.052205100655555725,0.5466437339782715,0.3831386864185333
1726995686573361200,1.187361083984375,-0.0922122523188591,0.5104728937149048,0.3957846164703369
1726995686583347200,1.19734716796875,-0.11278224736452103,0.4982771873474121,0.3904572129249573
1726995686593334300,1.207334228515625,-0.08412463963031769,0.45900359749794006,0.39596349000930786
1726995686603320000,1.217320068359375,-0.026887720450758934,0.40518510341644287,0.41713348031044006
1726995686613306000,1.22730615234375,0.04387836903333664,0.3556503653526306,0.4389866292476654
1726995686623292200,1.237292236328125,0.09348133951425552,0.3201938271522522,0.484633207321167
1726995686633279000,1.247279052734375,0.1322387456893921,0.31657421588897705,0.5448915958404541
1726995686643265300,1.257265380859375,0.15855450928211212,0.3537559509277344,0.6064955592155457
1726995686653251000,1.2672509765625,0.17196452617645264,0.3894639015197754,0.6505944728851318
1726995686663238100,1.277238037109375,0.1673082560300827,0.39954954385757446,0.6767070293426514
1726995686673224200,1.28722412109375,0.15588514506816864,0.38004595041275024,0.686631977558136
1726995686683210200,1.297210205078125,0.15701405704021454,0.35491397976875305,0.6750853061676025
1726995686693196000,1.307196044921875,0.1839899718761444,0.30456453561782837,0.6362584829330444
1726995686703183000,1.31718310546875,0.25397226214408875,0.2233668714761734,0.5640604496002197
1726995686713169200,1.327169189453125,0.3326844274997711,0.12924543023109436,0.4572906792163849
1726995686723155200,1.3371552734375,0.3961707353591919,0.038952820003032684,0.33276206254959106
1726995686733141200,1.347141357421875,0.43151795864105225,-0.0009239306091330945,0.2243860810995102
1726995686743128000,1.357128173828125,0.4331262409687042,0.013376711867749691,0.11011382937431335
1726995686753114000,1.367114013671875,0.40932995080947876,0.024542922154068947,-0.00688135577365756
1726995686763100200,1.37710009765625,0.3655688762664795,0.04098927229642868,-0.10335489362478256
1726995686773087200,1.387087158203125,0.3493516445159912,0.04076690226793289,-0.15734900534152985
1726995686783073300,1.3970732421875,0.3863173723220825,0.03214038908481598,-0.1800852119922638
1726995686793059000,1.40705908203125,0.4456144869327545,0.01958644576370716,-0.1589520126581192
1726995686803046100,1.417046142578125,0.4929351210594177,0.04209122061729431,-0.11325430124998093
1726995686813032200,1.4270322265625,0.5231371521949768,0.10273921489715576,-0.050350479781627655
1726995686823018000,1.43701806640625,0.5215038061141968,0.1633993685245514,-0.000929136062040925
1726995686833004300,1.44700439453125,0.4749586880207062,0.2093893587589264,0.022352688014507294
1726995686842991000,1.4569912109375,0.38564932346343994,0.2418287992477417,0.01871694065630436
1726995686852977200,1.46697705078125,0.29864397644996643,0.2579784393310547,-0.009709891863167286
1726995686862963200,1.476963134765625,0.20676572620868683,0.22038550674915314,-0.07503004372119904
1726995686872950000,1.486949951171875,0.1395827680826187,0.14562295377254486,-0.1378750503063202
1726995686882936300,1.496936279296875,0.14637808501720428,0.07560260593891144,-0.19784703850746155
1726995686892922000,1.506922119140625,0.2064811885356903,0.03843618929386139,-0.2378241866827011
1726995686902908200,1.516908203125,0.2313002496957779,0.04693060740828514,-0.26854029297828674
1726995686912895200,1.526895263671875,0.19485239684581757,0.043678365647792816,-0.31209126114845276
1726995686922880800,1.536880859375,0.14087490737438202,0.03762819617986679,-0.40151116251945496
1726995686932866800,1.54686669921875,0.11950946599245071,0.05072248354554176,-0.5051109790802002
1726995686942853600,1.556853515625,0.12020961195230484,0.15890701115131378,-0.6079164743423462
1726995686952840000,1.56683984375,0.18176688253879547,0.27499961853027344,-0.6652392148971558
1726995686962825700,1.57682568359375,0.2402123510837555,0.3756321966648102,-0.6601752042770386
1726995686972811800,1.586811767578125,0.25834915041923523,0.4396252930164337,-0.6286526322364807
1726995686982798800,1.596798828125,0.29400408267974854,0.5478636026382446,-0.585599958896637
1726995686992784600,1.60678466796875,0.394584059715271,0.695191502571106,-0.5614888072013855
1726995687002770700,1.616770751953125,0.5500588417053223,0.7280341386795044,-0.4882952868938446
1726995687012757800,1.6267578125,0.7343863844871521,0.7074301242828369,-0.36914709210395813
1726995687022743800,1.636743896484375,0.9421912431716919,0.8329315781593323,-0.2686809301376343
1726995687032729900,1.646729736328125,1.2427617311477661,1.0173627138137817,-0.18259631097316742
1726995687042716000,1.6567158203125,1.5470489263534546,1.2987048625946045,-0.09575861692428589
1726995687052702700,1.66670263671875,1.8490650653839111,1.5951076745986938,-0.09692443907260895
1726995687062688800,1.676688720703125,2.2775774002075195,1.7174633741378784,-0.24345076084136963
1726995687072674800,1.6866748046875,2.775285243988037,1.7008785009384155,-0.49923309683799744
1726995687082660600,1.69666064453125,3.136554718017578,1.4228570461273193,-0.8756213188171387
1726995687092647700,1.706647705078125,3.320396661758423,0.9817591309547424,-1.2269456386566162
1726995687102633700,1.7166337890625,3.281407594680786,0.5147548913955688,-1.4651480913162231
1726995687112619800,1.726619873046875,3.0896658897399902,0.06176559627056122,-1.5439461469650269
1726995687122606800,1.73660693359375,2.8690574169158936,-0.37251022458076477,-1.4915395975112915
1726995687132592600,1.746592529296875,2.5422871112823486,-0.8166576027870178,-1.3659842014312744
1726995687142579000,1.756578857421875,2.1320512294769287,-1.404671549797058,-1.1413109302520752
1726995687152565800,1.766565673828125,1.6878662109375,-1.907426118850708,-0.8093386888504028
1726995687162551800,1.7765517578125,1.1981902122497559,-2.072330951690674,-0.4039187431335449
1726995687172537900,1.786537841796875,0.671410322189331,-1.9431344270706177,0.030929140746593475
1726995687182523600,1.796523681640625,0.04355277121067047,-1.5401272773742676,0.48577573895454407
1726995687192510700,1.8065107421875,-0.7294296026229858,-1.0576480627059937,0.9765875935554504
1726995687202496800,1.816496826171875,-1.5978952646255493,-0.7018758654594421,1.5016229152679443
1726995687212482800,1.82648291015625,-2.3517558574676514,-0.3777897357940674,2.003730535507202
1726995687222468900,1.83646875,-2.687734603881836,-0.06804972141981125,2.4323291778564453
1726995687232455700,1.84645556640625,-2.781226396560669,0.10320371389389038,2.6545250415802
1726995687242442000,1.85644189453125,-2.6044321060180664,0.18175284564495087,2.699547529220581
1726995687252427800,1.866427734375,-1.8220136165618896,0.285334974527359,2.2813873291015625
1726995687262414600,1.87641455078125,-0.7557527422904968,-0.16804876923561096,1.7747098207473755
1726995687272401000,1.88640087890625,0.14514246582984924,-0.4043574929237366,1.2044119834899902
1726995687282386700,1.89638671875,0.4360363483428955,-0.4608234167098999,0.7582646012306213
1726995687292372700,1.906372802734375,0.2794092893600464,-0.5465046167373657,0.4668734073638916
1726995687302359800,1.91635986328125,0.05424783006310463,-0.7677395343780518,0.25061193108558655
1726995687312345900,1.926345947265625,-0.16256794333457947,-0.9023070335388184,0.10348410159349442
1726995687322331600,1.93633154296875,-0.3291345536708832,-0.7863202691078186,0.07138901203870773
1726995687332318700,1.946318603515625,-0.36465251445770264,-0.4323354959487915,0.18048258125782013
1726995687342304800,1.9563046875,-0.24041470885276794,-0.09748479723930359,0.36122122406959534
1726995687352290800,1.966290771484375,-0.04516231641173363,0.15300896763801575,0.4433063268661499
1726995687362277600,1.976277587890625,0.08196420967578888,0.24300384521484375,0.399511456489563
1726995687372263700,1.986263671875,0.12644317746162415,0.26517146825790405,0.24901095032691956
1726995687382249700,1.996249755859375,0.10222943872213364,0.25806722044944763,0.017545228824019432
1726995687392235800,2.00623583984375,0.041603896766901016,0.20813597738742828,-0.22015424072742462
1726995687402222800,2.016222900390625,-0.019704202190041542,0.16105635464191437,-0.36306053400039673
1726995687412209000,2.026208984375,-0.02533206157386303,0.1906985491514206,-0.4516095817089081
1726995687422194700,2.036194580078125,-0.00023070287716109306,0.29880237579345703,-0.5308657884597778
1726995687432181800,2.046181640625,0.031099123880267143,0.41023626923561096,-0.5955095291137695
1726995687442167800,2.056167724609375,0.06013024225831032,0.4440173804759979,-0.6213834881782532
1726995687452153600,2.066153564453125,0.0933692455291748,0.356438547372818,-0.5787093043327332
1726995687462140000,2.076139892578125,0.13296860456466675,0.19272549450397491,-0.4645313024520874
1726995687472126700,2.086126708984375,0.16094782948493958,0.10205847769975662,-0.3537256419658661
1726995687482112800,2.09611279296875,0.16457638144493103,0.08135959506034851,-0.3062734305858612
1726995687492098800,2.106098876953125,0.1472635716199875,0.08069683611392975,-0.28915026783943176
1726995687502084600,2.116084716796875,0.100680872797966,0.16528736054897308,-0.28000202775001526
1726995687512072000,2.126072021484375,0.03597647696733475,0.2861707806587219,-0.2824966609477997
1726995687522057700,2.1360576171875,-0.042923931032419205,0.3903981149196625,-0.3041950464248657
1726995687532043800,2.146043701171875,-0.1178370788693428,0.4550400674343109,-0.3524405360221863
1726995687542030800,2.15603076171875,-0.11243779212236404,0.47310587763786316,-0.39137089252471924
1726995687552016600,2.1660166015625,-0.06736699491739273,0.46288880705833435,-0.3985264301300049
1726995687562002700,2.176002685546875,-0.0787392258644104,0.41877034306526184,-0.4019182324409485
1726995687571989800,2.18598974609375,-0.10317021608352661,0.23099319636821747,-0.3902086615562439
1726995687581975800,2.195975830078125,-0.25406917929649353,0.13931147754192352,-0.37596020102500916
1726995687591961900,2.2059619140625,-0.39486178755760193,0.09224531799554825,-0.2588352560997009
1726995687601948000,2.215947998046875,-0.4676819443702698,0.0910242572426796,-0.11217950284481049
1726995687611934700,2.225934814453125,-0.4771941304206848,0.13564956188201904,-0.048489298671483994
1726995687621920800,2.235920654296875,-0.48186078667640686,0.18902462720870972,-0.06369062513113022
1726995687631906800,2.24590673828125,-0.522499680519104,0.2782832980155945,-0.13487812876701355
1726995687641894000,2.255893798828125,-0.6052126288414001,0.3357497751712799,-0.24068738520145416
1726995687651879700,2.265879638671875,-0.6495645046234131,0.3093551695346832,-0.39167314767837524
1726995687661865700,2.27586572265625,-0.6540519595146179,0.1903608739376068,-0.5937045216560364
1726995687671851800,2.285851806640625,-0.6360465288162231,0.034179240465164185,-0.8075026869773865
1726995687681838800,2.2958388671875,-0.5945981740951538,-0.038564737886190414,-0.9877244234085083
1726995687691824600,2.30582470703125,-0.4964073598384857,-0.03473586589097977,-1.0583395957946777
1726995687701811000,2.31581103515625,-0.3752109110355377,0.049160633236169815,-1.0323446989059448
1726995687711797800,2.3257978515625,-0.27692297101020813,0.18241651356220245,-0.9366642236709595
1726995687721783800,2.33578369140625,-0.21340127289295197,0.2996733486652374,-0.8104772567749023
1726995687731769900,2.345769775390625,-0.18671882152557373,0.3470257818698883,-0.6894835829734802
1726995687741755600,2.355755615234375,-0.15084870159626007,0.37793949246406555,-0.5645946264266968
1726995687751742700,2.36574267578125,-0.0634397640824318,0.3616740107536316,-0.4265284836292267
1726995687761728800,2.375728759765625,-0.0050081475637853146,0.24558016657829285,-0.26533186435699463
1726995687771714600,2.385714599609375,0.014464940875768661,0.07507679611444473,-0.07366637140512466
1726995687781702000,2.395701904296875,0.009339421056210995,-0.08007790148258209,0.09695596992969513
1726995687791687700,2.405687744140625,0.008487886749207973,-0.150103360414505,0.1384582221508026
1726995687801674000,2.415674072265625,-0.0032433373853564262,-0.14507664740085602,0.04639912769198418
1726995687811659800,2.42565966796875,-0.04044017568230629,-0.08623664826154709,-0.16474425792694092
1726995687821646600,2.435646484375,-0.10390729457139969,0.09045236557722092,-0.41085922718048096
1726995687831633000,2.4456328125,-0.1700102984905243,0.35451769828796387,-0.6241806745529175
1726995687841618700,2.45561865234375,-0.2387201189994812,0.5258633494377136,-0.8032262921333313
1726995687851606000,2.46560595703125,-0.2798158526420593,0.5660890340805054,-0.935650110244751
1726995687861591800,2.475591796875,-0.25330567359924316,0.5072954893112183,-0.9946207404136658
1726995687871577900,2.485577880859375,-0.17453788220882416,0.4035648703575134,-1.0011776685714722
1726995687881563600,2.495563720703125,-0.06364651769399643,0.30059799551963806,-0.9390865564346313
1726995687891550700,2.50555078125,-0.008785122074186802,0.18161365389823914,-0.8274033069610596
1726995687901536800,2.515536865234375,-0.017454244196414948,0.13055260479450226,-0.6888688206672668
1726995687911522800,2.525522705078125,-0.0775885283946991,0.1487191766500473,-0.5053960084915161
1726995687921509600,2.535509521484375,-0.1890101134777069,0.09486526995897293,-0.24865901470184326
1726995687931495700,2.54549560546875,-0.31203120946884155,0.04012002423405647,-0.027147086337208748
1726995687941481700,2.555481689453125,-0.41279512643814087,-0.022499149665236473,0.17304779589176178
1726995687951467800,2.5654677734375,-0.4744274914264679,-0.09201852977275848,0.3506583869457245
1726995687961454800,2.575454833984375,-0.5085465908050537,-0.17892439663410187,0.5032154321670532
1726995687971441000,2.58544091796875,-0.5243582725524902,-0.26809442043304443,0.616354763507843
1726995687981426700,2.5954267578125,-0.5015773177146912,-0.2988384962081909,0.6759166121482849
1726995687991413800,2.605413818359375,-0.43572738766670227,-0.2779873013496399,0.7215367555618286
1726995688001399800,2.61539990234375,-0.3737873435020447,-0.21504294872283936,0.7667417526245117
1726995688011385600,2.625385498046875,-0.3839545249938965,-0.12354438006877899,0.7892799377441406
1726995688021372000,2.635371826171875,-0.4840449094772339,-0.007720306981354952,0.8110158443450928
1726995688031358700,2.645358642578125,-0.5935945510864258,0.09949629008769989,0.8078287839889526
1726995688041344800,2.6553447265625,-0.6323712468147278,0.17906488478183746,0.796673059463501
1726995688051330800,2.665330810546875,-0.6362438201904297,0.2458881288766861,0.7395468950271606
1726995688061317600,2.675317626953125,-0.5759841799736023,0.2421695590019226,0.6415058374404907
1726995688071304000,2.685303955078125,-0.43743905425071716,0.24308522045612335,0.5254673361778259
1726995688081289700,2.695289794921875,-0.3050389289855957,0.2403072714805603,0.42983344197273254
1726995688091275800,2.70527587890625,-0.25419265031814575,0.2690858840942383,0.4041566252708435
1726995688101262800,2.715262939453125,-0.3136439919471741,0.32415953278541565,0.4542589485645294
1726995688111248600,2.72524853515625,-0.3672883212566376,0.4253655970096588,0.5442835688591003
1726995688121235000,2.73523486328125,-0.3488680422306061,0.542332112789154,0.648918628692627
1726995688131221800,2.7452216796875,-0.2261476218700409,0.6447498798370361,0.7435800433158875
1726995688141207800,2.755207763671875,-0.03498193249106407,0.6930308938026428,0.7952144742012024
1726995688151193900,2.76519384765625,0.16242234408855438,0.6475827097892761,0.7617698907852173
1726995688161180000,2.775179931640625,0.28093698620796204,0.500464916229248,0.6403204202651978
1726995688171166700,2.785166748046875,0.30337247252464294,0.31251609325408936,0.48758378624916077
1726995688181152800,2.79515283203125,0.2961617112159729,0.07439246773719788,0.3748846650123596
1726995688191138800,2.805138916015625,0.3509301245212555,-0.17514266073703766,0.369015097618103
1726995688201126000,2.8151259765625,0.44112205505371094,-0.36692702770233154,0.4908347427845001
1726995688211111700,2.825111572265625,0.5186505913734436,-0.48584097623825073,0.6720564365386963
1726995688221097700,2.83509765625,0.5609474778175354,-0.5164476037025452,0.824434220790863
1726995688231083800,2.845083740234375,0.5438437461853027,-0.4323485791683197,0.8442749381065369
1726995688241070800,2.85507080078125,0.4792945683002472,-0.30168378353118896,0.7066949605941772
1726995688251056600,2.865056640625,0.36291584372520447,-0.14211450517177582,0.3975556194782257
1726995688261043000,2.87504296875,0.19871945679187775,0.02750995010137558,-0.02729075588285923
1726995688271029800,2.88502978515625,0.03935396298766136,0.1588379442691803,-0.46930623054504395
1726995688281015800,2.895015869140625,-0.06625714898109436,0.27744796872138977,-0.8907362818717957
1726995688291001900,2.905001953125,-0.099286749958992,0.35162726044654846,-1.2377820014953613
1726995688300988700,2.91498876953125,-0.09757274389266968,0.4348209500312805,-1.502826452255249
1726995688310974700,2.924974609375,-0.10166874527931213,0.48233020305633545,-1.6545157432556152
1726995688320960800,2.934960693359375,-0.12817731499671936,0.6589366793632507,-1.7735211849212646
1726995688330946600,2.944946533203125,-0.1789277195930481,0.9050319194793701,-1.8781672716140747
1726995688340934000,2.954933837890625,-0.2630164921283722,1.1459707021713257,-2.0238189697265625
1726995688350919700,2.964919677734375,-0.33607766032218933,1.1785850524902344,-2.2111573219299316
1726995688360906000,2.974906005859375,-0.31940388679504395,1.0450128316879272,-2.358607292175293
1726995688370892800,2.984892822265625,-0.188641756772995,0.7256202101707458,-2.420379638671875
1726995688380878600,2.994878662109375,-0.06109737977385521,0.391203910112381,-2.4219155311584473
1726995688390865000,3.004864990234375,-0.014988870359957218,0.15633517503738403,-2.3674402236938477
1726995688400850700,3.0148505859375,-0.05205820873379707,0.02417554333806038,-2.3147737979888916
1726995688410838000,3.024838134765625,-0.14819659292697906,-0.08811447769403458,-2.2697997093200684
1726995688420823800,3.03482373046875,-0.25336936116218567,-0.11506513506174088,-2.2438747882843018
1726995688430809900,3.044809814453125,-0.29580414295196533,-0.12166299670934677,-2.2610015869140625
1726995688440797000,3.054796875,-0.2428482472896576,-0.15448112785816193,-2.3400113582611084
1726995688450782700,3.06478271484375,-0.1068393662571907,-0.16593216359615326,-2.4267830848693848
1726995688460768800,3.074768798828125,0.05966891720890999,-0.1638287901878357,-2.535065174102783
1726995688470754800,3.0847548828125,0.19405695796012878,-0.11334115266799927,-2.607173204421997
1726995688480741600,3.09474169921875,0.1951906681060791,-0.06367053091526031,-2.6971559524536133
1726995688490727700,3.104727783203125,0.050331421196460724,-0.05984802544116974,-2.718533992767334
1726995688500713700,3.114713623046875,-0.10776367783546448,-0.06663935631513596,-2.6453542709350586
1726995688510700800,3.12470068359375,-0.20873810350894928,-0.02890232391655445,-2.5141265392303467
1726995688520686800,3.134686767578125,-0.2561359703540802,0.054041292518377304,-2.3349456787109375
1726995688530673000,3.1446728515625,-0.29289475083351135,0.17926067113876343,-2.1110916137695312
1726995688540658700,3.15465869140625,-0.34858226776123047,0.3016667366027832,-1.858396053314209
1726995688550645800,3.164645751953125,-0.45022132992744446,0.4258978068828583,-1.6418631076812744
1726995688560631800,3.1746318359375,-0.5733171105384827,0.6105853915214539,-1.4554296731948853
1726995688570617600,3.18461767578125,-0.6562808156013489,0.7666038870811462,-1.3764978647232056
1726995688580604700,3.194604736328125,-0.699531614780426,0.733443558216095,-1.317080020904541
1726995688590590700,3.2045908203125,-0.7169070839881897,0.5833733081817627,-1.2746027708053589
1726995688600576800,3.21457666015625,-0.6597556471824646,0.3422326147556305,-1.2227632999420166
1726995688610562800,3.224562744140625,-0.5550280809402466,-0.013845750130712986,-1.085548996925354
1726995688620549600,3.234549560546875,-0.4500713348388672,-0.2715933918952942,-0.8400750756263733
1726995688630536000,3.244535888671875,-0.37992289662361145,-0.3839367926120758,-0.5604844093322754
1726995688640521700,3.254521728515625,-0.34600141644477844,-0.4127463102340698,-0.3267688751220703
1726995688650508800,3.2645087890625,-0.2531032860279083,-0.4449672996997833,-0.1903625875711441
1726995688660494800,3.274494873046875,-0.024789148941636086,-0.6569189429283142,-0.13453900814056396
1726995688670480600,3.284480712890625,0.2546406090259552,-0.9233884215354919,-0.1470697969198227
1726995688680467000,3.294467041015625,0.5823900103569031,-1.3187707662582397,-0.19009584188461304
1726995688690453800,3.304453857421875,0.9012158513069153,-1.7716041803359985,-0.21710242331027985
1726995688700439800,3.314439697265625,1.1521005630493164,-2.256340980529785,-0.25436750054359436
1726995688710425900,3.32442578125,1.2508448362350464,-2.6898579597473145,-0.35210809111595154
1726995688720412700,3.33441259765625,1.2544472217559814,-2.982541084289551,-0.42427149415016174
1726995688730399000,3.34439892578125,0.8886173367500305,-2.833275079727173,-0.4833252727985382
1726995688740384800,3.354384765625,0.22704418003559113,-2.5521764755249023,-0.5690468549728394
1726995688750370800,3.364370849609375,-0.5322526693344116,-2.1850335597991943,-0.642964780330658
1726995688760358000,3.37435791015625,-1.0632643699645996,-1.681191325187683,-0.6990472078323364
1726995688770343700,3.38434375,-1.2830852270126343,-1.1292359828948975,-0.7654753923416138
1726995688780329700,3.394329833984375,-1.332798957824707,-0.6043668389320374,-0.7831148505210876
1726995688790316800,3.40431689453125,-1.3247193098068237,-0.19857870042324066,-0.7176213264465332
1726995688800302800,3.414302734375,-1.222625970840454,0.027782801538705826,-0.5952571034431458
1726995688810288600,3.42428857421875,-1.083690881729126,0.12382668256759644,-0.42244264483451843
1726995688820275000,3.43427490234375,-0.9493213295936584,0.04329189658164978,-0.17986434698104858
1726995688830261800,3.44426171875,-0.6865664124488831,-0.13209344446659088,0.062431275844573975
1726995688840247800,3.454247802734375,-0.3926421105861664,-0.3001639246940613,0.31024134159088135
1726995688850233900,3.46423388671875,-0.14701712131500244,-0.4362143874168396,0.5651496052742004
1726995688860220700,3.474220703125,0.029993338510394096,-0.5095173716545105,0.8590919971466064
1726995688870206700,3.484206787109375,0.16967591643333435,-0.5423249006271362,1.1745120286941528
1726995688880192800,3.49419287109375,0.2869223952293396,-0.5117600560188293,1.4985694885253906
1726995688890178600,3.504178466796875,0.38792774081230164,-0.43578001856803894,1.8327847719192505
1726995688900166000,3.514165771484375,0.4579768776893616,-0.35741305351257324,2.1352412700653076
1726995688910151700,3.524151611328125,0.4928438067436218,-0.24114742875099182,2.393503427505493
1726995688920138000,3.534137939453125,0.5113759636878967,-0.1012614294886589,2.6217241287231445
1726995688930124500,3.54412451171875,0.4401482045650482,-0.010596797801554203,2.7999649047851562
1726995688940110300,3.5541103515625,0.31163814663887024,0.11336056888103485,2.8731844425201416
1726995688950096600,3.5640966796875,0.23861436545848846,0.2794480621814728,2.8067145347595215
1726995688960082400,3.57408251953125,0.28458160161972046,0.4194086194038391,2.6916301250457764
1726995688970069500,3.584069580078125,0.44940197467803955,0.43329840898513794,2.606045722961426
1726995688980055600,3.5940556640625,0.6243950724601746,0.28051283955574036,2.500491142272949
1726995688990041600,3.60404150390625,0.6612947583198547,-0.007196298334747553,2.4098074436187744
1726995689000028700,3.614028564453125,0.5445652604103088,-0.2788166403770447,2.3725833892822266
1726995689010014500,3.624014404296875,0.34812238812446594,-0.42681294679641724,2.392421007156372
1726995689020000500,3.63400048828125,0.16221459209918976,-0.47844311594963074,2.4499340057373047
1726995689029986600,3.643986572265625,0.13377608358860016,-0.4408397972583771,2.5138638019561768
1726995689039973400,3.653973388671875,0.20980586111545563,-0.4451618492603302,2.5428104400634766
1726995689049959400,3.66395947265625,0.31063318252563477,-0.5844311118125916,2.457334280014038
1726995689059945500,3.673945556640625,0.4456509053707123,-0.7245644927024841,2.2315616607666016
1726995689069932500,3.6839326171875,0.5822387933731079,-1.1978428363800049,1.6674195528030396
1726995689079918600,3.693918701171875,0.7082617282867432,-1.4433133602142334,0.8733807802200317
1726995689089904600,3.703904541015625,0.7434006333351135,-1.0417696237564087,0.20086096227169037
1726995689099890400,3.713890380859375,0.6723512411117554,-0.5175337195396423,-0.17096160352230072
1726995689109877500,3.72387744140625,0.5250153541564941,-0.1767924726009369,-0.27528682351112366
1726995689119863600,3.733863525390625,0.3069661557674408,0.08803971856832504,-0.21128174662590027
1726995689129849300,3.743849365234375,-0.01046669390052557,0.39408305287361145,-0.14276118576526642
1726995689139836700,3.753836669921875,-0.30298882722854614,0.6726193428039551,-0.10020838677883148
1726995689149822500,3.763822509765625,-0.5045052766799927,0.8803660869598389,0.0019430911634117365
1726995689159808500,3.77380859375,-0.5384371876716614,0.893349289894104,0.16989614069461823
1726995689169794600,3.783794677734375,-0.46124258637428284,0.6772719025611877,0.3467484414577484
1726995689179781400,3.793781494140625,-0.3288411498069763,0.400421142578125,0.46956703066825867
1726995689189767700,3.803767578125,-0.26902005076408386,0.23378488421440125,0.51934415102005
1726995689199753500,3.81375341796875,-0.3311297595500946,0.19486331939697266,0.5826413631439209
1726995689209740500,3.823740478515625,-0.434902548789978,0.25506436824798584,0.6838590502738953
1726995689219726600,3.8337265625,-0.45396918058395386,0.326779305934906,0.7835246324539185
1726995689229712400,3.84371240234375,-0.43608224391937256,0.28439897298812866,0.8512672185897827
1726995689239698400,3.853698486328125,-0.3659985065460205,0.14006257057189941,0.9056684374809265
1726995689249685500,3.863685546875,-0.2692890465259552,-0.017224498093128204,0.9822337031364441
1726995689259671600,3.873671630859375,-0.16981995105743408,-0.19410580396652222,1.0752525329589844
1726995689269657600,3.88365771484375,-0.08680816739797592,-0.31731677055358887,1.1651077270507812
1726995689279644400,3.89364453125,-0.030067650601267815,-0.349774569272995,1.217947244644165
1726995689289630500,3.90363037109375,-0.032152269035577774,-0.3226940333843231,1.2701300382614136
1726995689299616500,3.913616455078125,-0.11880034953355789,-0.17820529639720917,1.2757916450500488
1726995689309603300,3.923603271484375,-0.24767807126045227,0.05496002733707428,1.3637882471084595
1726995689319589600,3.933589599609375,-0.27663567662239075,0.05112587288022041,1.4234331846237183
1726995689329575400,3.943575439453125,-0.21248801052570343,0.037065353244543076,1.4277766942977905
1726995689339561500,3.9535615234375,-0.1693250983953476,0.01953003741800785,1.380001425743103
1726995689349548500,3.963548583984375,-0.2101602405309677,-0.04076024517416954,1.2859570980072021
1726995689359534600,3.97353466796875,-0.3204489052295685,-0.13451683521270752,1.1950668096542358
1726995689369520400,3.983520263671875,-0.42612871527671814,-0.2371717095375061,1.123504400253296
1726995689379506700,3.993506591796875,-0.4791503846645355,-0.3308483958244324,1.076329231262207
1726995689389493500,4.003493408203125,-0.4765304625034332,-0.38262054324150085,1.049998164176941
1726995689399479600,4.0134794921875,-0.4649747312068939,-0.43279317021369934,1.0385122299194336
1726995689409465600,4.023465576171875,-0.5246841907501221,-0.44150596857070923,1.0415359735488892
1726995689419452400,4.033452392578125,-0.5983930230140686,-0.4153982102870941,1.0559111833572388
1726995689429438500,4.0434384765625,-0.6421973705291748,-0.3490196168422699,1.0692728757858276
1726995689439424500,4.053424560546875,-0.6052805781364441,-0.30454936623573303,1.0940666198730469
1726995689449411600,4.06341162109375,-0.5109834671020508,-0.30515286326408386,1.135655164718628
1726995689459397600,4.073397705078125,-0.38880428671836853,-0.3201477825641632,1.1670492887496948
1726995689469383400,4.083383544921875,-0.2613327205181122,-0.3368983864784241,1.1803535223007202
1726995689479369700,4.09336962890625,-0.15264083445072174,-0.3604508638381958,1.153709053993225
1726995689489356500,4.1033564453125,-0.11633292585611343,-0.3697531819343567,1.091403603553772
1726995689499342300,4.11334228515625,-0.14549480378627777,-0.33161458373069763,1.00552499294281
1726995689509328600,4.12332861328125,-0.20716340839862823,-0.24161005020141602,0.921521782875061
1726995689519315500,4.1333154296875,-0.26459741592407227,-0.17716342210769653,0.8444251418113708
1726995689529301800,4.1433017578125,-0.2675120532512665,-0.1332576423883438,0.7715137004852295
1726995689539287600,4.15328759765625,-0.23941971361637115,-0.09483808279037476,0.7014800310134888
1726995689549273600,4.163273681640625,-0.20390614867210388,-0.09078457206487656,0.6357216835021973
1726995689559260700,4.1732607421875,-0.16858704388141632,-0.10006489604711533,0.5923819541931152
1726995689569246500,4.18324658203125,-0.14771023392677307,-0.10656440258026123,0.5867840647697449
1726995689579232500,4.193232421875,-0.14555813372135162,-0.10003406554460526,0.5973988771438599
1726995689589219600,4.203219482421875,-0.1357342004776001,-0.1298919916152954,0.6297962665557861
1726995689599205400,4.213205322265625,-0.11180996149778366,-0.15408627688884735,0.6719133853912354
1726995689609191400,4.22319140625,-0.07048875093460083,-0.15713536739349365,0.7204039096832275
1726995689619177500,4.233177490234375,-0.016016187146306038,-0.14112870395183563,0.7708356976509094
1726995689629164500,4.24316455078125,0.051015228033065796,-0.12281011044979095,0.8210054636001587
1726995689639150600,4.253150634765625,0.12208860367536545,-0.048033878207206726,0.8446077704429626
1726995689649136600,4.26313671875,0.19566406309604645,0.03487776592373848,0.8561438918113708
1726995689659123500,4.27312353515625,0.2552746534347534,0.11849809437990189,0.8489432334899902
1726995689669109500,4.283109619140625,0.3115460276603699,0.18326827883720398,0.8622695803642273
1726995689679095600,4.293095458984375,0.36544734239578247,0.21553221344947815,0.8953463435173035
1726995689689081300,4.303081298828125,0.401556134223938,0.2217641919851303,0.9251376986503601
1726995689699068700,4.313068603515625,0.4207649827003479,0.24702107906341553,0.9399246573448181
1726995689709054500,4.323054443359375,0.48389485478401184,0.27865567803382874,0.9242324233055115
1726995689719040500,4.33304052734375,0.6118965148925781,0.2841678857803345,0.9031015634536743
1726995689729027600,4.343027587890625,0.7871066331863403,0.19576510787010193,0.8340440988540649
1726995689739013400,4.353013427734375,0.9696234464645386,0.1355379819869995,0.7196972370147705
1726995689748999700,4.362999755859375,1.0898901224136353,0.07006313651800156,0.5774378180503845
1726995689758985500,4.3729853515625,1.1690155267715454,0.006141679361462593,0.41294288635253906
1726995689768972500,4.38297265625,1.256307601928711,-0.05898048356175423,0.24434135854244232
1726995689778958600,4.39295849609375,1.3480247259140015,-0.1377866119146347,0.0885365828871727
1726995689788944400,4.4029443359375,1.4304779767990112,-0.2183041274547577,-0.02257254347205162
1726995689798931700,4.412931640625,1.4865055084228516,-0.30852562189102173,-0.08790335059165955
1726995689808917500,4.42291748046875,1.4934489727020264,-0.3794279396533966,-0.11205954104661942
1726995689818903600,4.432903564453125,1.4715425968170166,-0.48717251420021057,-0.11147311329841614
1726995689828889600,4.4428896484375,1.4151198863983154,-0.5972874760627747,-0.0830644741654396
1726995689838876400,4.45287646484375,1.2897624969482422,-0.6983715295791626,-0.05024181306362152
1726995689848862500,4.462862548828125,1.1258586645126343,-0.8427517414093018,-0.003888403996825218
1726995689858848500,4.4728486328125,0.9536600112915039,-0.9886487722396851,0.031339358538389206
1726995689868835300,4.48283544921875,0.7555209994316101,-1.1141852140426636,0.04806346446275711
1726995689878821600,4.492821533203125,0.5390723347663879,-1.2302625179290771,0.057727012783288956
1726995689888807400,4.502807373046875,0.32408440113067627,-1.2300333976745605,0.13324010372161865
1726995689898793500,4.51279345703125,0.12447409331798553,-1.1222296953201294,0.1727137565612793
1726995689908780500,4.522780517578125,-0.04558977857232094,-1.0240070819854736,0.22926974296569824
1726995689918766600,4.5327666015625,-0.15595489740371704,-0.920992910861969,0.32485243678092957
1726995689928753200,4.542753173828125,-0.21516238152980804,-0.7731097340583801,0.41486719250679016
1726995689938740000,4.552739990234375,-0.2501051723957062,-0.5995606184005737,0.4486565887928009
1726995689948726300,4.562726318359375,-0.24512140452861786,-0.4409964084625244,0.40817421674728394
1726995689958712000,4.572712158203125,-0.1966012716293335,-0.29341334104537964,0.3018123507499695
1726995689968698000,4.582697998046875,-0.1321812868118286,-0.1834862381219864,0.18462279438972473
1726995689978685200,4.592685302734375,-0.10187982767820358,-0.08557005971670151,0.06706979125738144
1726995689988671000,4.6026708984375,-0.07467609643936157,0.04190618172287941,-0.07898157835006714
1726995689998657000,4.612656982421875,-0.047855667769908905,0.16740365326404572,-0.21262085437774658
1726995690008644000,4.62264404296875,-0.06306489557027817,0.25785183906555176,-0.3001716434955597
1726995690018630100,4.632630126953125,-0.1040181890130043,0.404692143201828,-0.36498498916625977
1726995690028616000,4.642615966796875,-0.15200062096118927,0.5468199849128723,-0.40004923939704895
1726995690038602200,4.652602294921875,-0.21372871100902557,0.6404716372489929,-0.39847317337989807
1726995690048589000,4.662589111328125,-0.2617405652999878,0.6732146739959717,-0.36891332268714905
1726995690058575000,4.6725751953125,-0.29850098490715027,0.709886908531189,-0.33153215050697327
1726995690068561200,4.68256103515625,-0.3006584644317627,0.7574220895767212,-0.2947824001312256
1726995690078548000,4.6925478515625,-0.2889315187931061,0.7750831246376038,-0.27274394035339355
1726995690088534000,4.702533935546875,-0.2652537524700165,0.7470399737358093,-0.28338783979415894
1726995690098520000,4.71252001953125,-0.2307778000831604,0.689594566822052,-0.3061104714870453
1726995690108505900,4.722505859375,-0.19955679774284363,0.6117138266563416,-0.33598315715789795
1726995690118493200,4.7324931640625,-0.19157983362674713,0.5173793435096741,-0.3411582112312317
1726995690128479000,4.74247900390625,-0.23199507594108582,0.39429131150245667,-0.3092380166053772
1726995690138465300,4.75246533203125,-0.33186760544776917,0.29868435859680176,-0.24856270849704742
1726995690148452000,4.7624521484375,-0.4751555323600769,0.21047548949718475,-0.16263745725154877
1726995690158438000,4.77243798828125,-0.6175739169120789,0.14620515704154968,-0.053504571318626404
1726995690168424200,4.782424072265625,-0.7480472922325134,0.09112785011529922,0.07872413843870163
1726995690178410000,4.792409912109375,-0.8755573034286499,0.04699554666876793,0.23273155093193054
1726995690188397000,4.80239697265625,-0.9791541695594788,0.0020250449888408184,0.38851505517959595
1726995690198383000,4.812383056640625,-1.0360801219940186,-0.0003044220502488315,0.521065354347229
1726995690208369000,4.822368896484375,-1.0279384851455688,0.05752410739660263,0.5985568165779114
1726995690218356200,4.832356201171875,-1.0127583742141724,0.08609876781702042,0.6587975025177002
1726995690228342000,4.842342041015625,-1.0078272819519043,0.08696669340133667,0.6739560961723328
1726995690238328000,4.852328125,-0.9872334003448486,0.09342245757579803,0.5850514769554138
1726995690248314000,4.862314208984375,-0.923846423625946,0.09145879745483398,0.39772647619247437
1726995690258301000,4.872301025390625,-0.7995308637619019,0.07606439292430878,0.1468588262796402
1726995690268287200,4.882287353515625,-0.6720906496047974,0.04843369498848915,-0.11047816276550293
1726995690278273000,4.89227294921875,-0.5835027694702148,-0.04688962548971176,-0.3214433789253235
1726995690288260000,4.902260009765625,-0.5584200024604797,-0.12782135605812073,-0.47025105357170105
1726995690298246100,4.91224609375,-0.5283190608024597,-0.16137932240962982,-0.5491405129432678
1726995690308232200,4.922232177734375,-0.5113930702209473,-0.12586994469165802,-0.5854864716529846
1726995690318219300,4.93221923828125,-0.47978129982948303,-0.029390817508101463,-0.6132389903068542
1726995690328205000,4.942205078125,-0.4313375651836395,0.09086620807647705,-0.6465047001838684
1726995690338191000,4.952191162109375,-0.3754982650279999,0.20370008051395416,-0.6903507113456726
1726995690348177000,4.962177001953125,-0.3255709409713745,0.32817184925079346,-0.7568246722221375
1726995690358164000,4.9721640625,-0.2707955837249756,0.472711980342865,-0.8037511706352234
1726995690368150000,4.98214990234375,-0.23529058694839478,0.6049163341522217,-0.8265520930290222
1726995690378136000,4.992135986328125,-0.2106528878211975,0.7194938063621521,-0.840108335018158
1726995690388122000,5.0021220703125,-0.19008247554302216,0.7877951860427856,-0.8464846014976501
1726995690398109000,5.01210888671875,-0.19605088233947754,0.8170950412750244,-0.87488853931427
1726995690408095200,5.02209521484375,-0.2223493754863739,0.8252761960029602,-0.9237743020057678
1726995690418081000,5.0320810546875,-0.26965779066085815,0.7938607335090637,-0.9663556218147278
1726995690428068000,5.042068115234375,-0.28849726915359497,0.7280324101448059,-1.0110483169555664
1726995690438054100,5.05205419921875,-0.2829357981681824,0.6220425963401794,-1.046717882156372
1726995690448040000,5.0620400390625,-0.23157750070095062,0.4948647916316986,-1.077031135559082
1726995690458026200,5.072026123046875,-0.14979155361652374,0.3639129102230072,-1.097062110900879
1726995690468013000,5.082012939453125,-0.08819753676652908,0.25117969512939453,-1.0904065370559692
1726995690477998800,5.091998779296875,-0.0725163146853447,0.20213228464126587,-1.0746160745620728
1726995690487985200,5.101985107421875,-0.07953201979398727,0.16798852384090424,-1.0819512605667114
1726995690497972000,5.111971923828125,-0.09402254223823547,0.11548377573490143,-1.1123933792114258
1726995690507958300,5.121958251953125,-0.11658868193626404,0.06564555317163467,-1.09300696849823
1726995690517944000,5.131944091796875,-0.14637960493564606,0.05858737230300903,-1.0208717584609985
1726995690527931000,5.141930908203125,-0.17261697351932526,0.10589360445737839,-0.9246692657470703
1726995690537917200,5.151917236328125,-0.15660817921161652,0.19271504878997803,-0.8279606103897095
1726995690547903000,5.161903076171875,-0.06277777999639511,0.3611029088497162,-0.7972815632820129
1726995690557889000,5.171888916015625,0.03276791796088219,0.5367423892021179,-0.7849210500717163
1726995690567876000,5.1818759765625,0.10688284784555435,0.6093297600746155,-0.7404209971427917
1726995690577862100,5.191862060546875,0.17880578339099884,0.6048561930656433,-0.7030525803565979
1726995690587848000,5.201847900390625,0.21553777158260345,0.5321197509765625,-0.6511560678482056
1726995690597835000,5.2118349609375,0.21586720645427704,0.3965328633785248,-0.586050271987915
1726995690607821000,5.221821044921875,0.17857955396175385,0.2514868974685669,-0.5439597964286804
1726995690617807000,5.23180712890625,0.12488170713186264,0.09517189115285873,-0.5147252082824707
1726995690627793200,5.241793212890625,0.07015776634216309,-0.07223835587501526,-0.48410797119140625
1726995690637780000,5.251780029296875,0.027288060635328293,-0.21077333390712738,-0.4468940198421478
1726995690647766000,5.26176611328125,0.0024651894345879555,-0.2947250008583069,-0.42255574464797974
1726995690657752000,5.271751953125,0.005677760578691959,-0.334731787443161,-0.40528514981269836
1726995690667739100,5.2817392578125,0.02928488701581955,-0.3193250596523285,-0.38681694865226746
1726995690677725200,5.29172509765625,0.057663001120090485,-0.24497677385807037,-0.3839077055454254
1726995690687711000,5.3017109375,0.08904372900724411,-0.11474383622407913,-0.4002935588359833
1726995690697697300,5.311697265625,0.13897240161895752,0.04355338588356972,-0.4373866021633148
1726995690707684000,5.32168408203125,0.19611996412277222,0.19078609347343445,-0.48722192645072937
1726995690717670000,5.331669921875,0.2316313534975052,0.3477054238319397,-0.4785349667072296
1726995690727656200,5.34165625,0.2606040835380554,0.4668504595756531,-0.4317239224910736
1726995690737643000,5.35164306640625,0.27207139134407043,0.46114835143089294,-0.38627123832702637
1726995690747629000,5.361629150390625,0.2520296573638916,0.3754843473434448,-0.40936675667762756
1726995690757615000,5.371614990234375,0.1860431730747223,0.36475473642349243,-0.46561697125434875
1726995690767601000,5.381600830078125,0.12040586024522781,0.42641982436180115,-0.5120255947113037
1726995690777588200,5.391588134765625,0.07260878384113312,0.46599438786506653,-0.5389229655265808
1726995690787574000,5.401573974609375,0.05344812199473381,0.44875526428222656,-0.5739870071411133
1726995690797560000,5.41156005859375,0.056055888533592224,0.41140976548194885,-0.6455341577529907
1726995690807547100,5.421547119140625,0.05826868116855621,0.4125766456127167,-0.7092409133911133
1726995690817533000,5.431532958984375,0.06986222416162491,0.4010677933692932,-0.7925422191619873
1726995690827519200,5.441519287109375,0.06233778968453407,0.400400310754776,-0.8847265243530273
1726995690837505000,5.451505126953125,0.07054431736469269,0.3710123300552368,-0.9767892956733704
1726995690847492000,5.4614921875,0.09031888097524643,0.3209269940853119,-1.0234462022781372
1726995690857478100,5.47147802734375,0.1336170881986618,0.25448140501976013,-1.031764030456543
1726995690867464200,5.481464111328125,0.16853997111320496,0.18058811128139496,-1.0089430809020996
1726995690877451300,5.491451171875,0.16906648874282837,0.10793440788984299,-0.9686822295188904
1726995690887437000,5.50143701171875,0.12799330055713654,0.04966825246810913,-0.899852454662323
1726995690897423000,5.511423095703125,0.03414803370833397,0.06304318457841873,-0.7916519641876221
1726995690907409000,5.521408935546875,-0.0847412645816803,0.1300702691078186,-0.6539915204048157
1726995690917396000,5.53139599609375,-0.1640331745147705,0.1537359058856964,-0.5218534469604492
1726995690927381800,5.5413818359375,-0.21689903736114502,0.08353811502456665,-0.3859807550907135
1726995690937367800,5.551367919921875,-0.2281239926815033,-0.029123183339834213,-0.2357470542192459
1726995690947355000,5.56135498046875,-0.19869010150432587,-0.12245741486549377,-0.10075360536575317
1726995690957340700,5.571340576171875,-0.14235225319862366,-0.20231522619724274,0.009708722122013569
1726995690967327000,5.581326904296875,-0.0805225744843483,-0.2641877830028534,0.08403260260820389
1726995690977312800,5.591312744140625,-0.04369211569428444,-0.3000616133213043,0.15992550551891327
1726995690987299800,5.6012998046875,-0.028181279078125954,-0.3155634105205536,0.2528843879699707
1726995690997286000,5.611285888671875,-0.015479331836104393,-0.3304632604122162,0.34499168395996094
1726995691007271700,5.621271728515625,-0.009434947744011879,-0.3331795632839203,0.4210667908191681
1726995691017259000,5.631259033203125,-0.004207428079098463,-0.30778074264526367,0.4755649268627167
1726995691027244800,5.641244873046875,0.01746295392513275,-0.28186166286468506,0.4894123673439026
1726995691037230800,5.65123095703125,0.025050831958651543,-0.26470476388931274,0.46490275859832764
1726995691047217000,5.661216796875,0.00703192874789238,-0.2651931941509247,0.4147009551525116
1726995691057203700,5.67120361328125,-0.003753873286768794,-0.24087747931480408,0.35261228680610657
1726995691067190000,5.68118994140625,0.025036104023456573,-0.1907498836517334,0.2809480130672455
1726995691077175800,5.69117578125,0.08589466661214828,-0.15338067710399628,0.20281139016151428
1726995691087162600,5.70116259765625,0.1623784452676773,-0.13843460381031036,0.1315702348947525
1726995691097149000,5.71114892578125,0.25327348709106445,-0.1320379674434662,0.0734613761305809
1726995691107134700,5.721134765625,0.3222436308860779,-0.1229247972369194,0.02635001577436924
1726995691117120800,5.731120849609375,0.34525975584983826,-0.10191325843334198,-0.015543637797236443
1726995691127107800,5.74110791015625,0.3102949261665344,-0.08391164243221283,-0.05552093684673309
1726995691137094000,5.751093994140625,0.2473071664571762,-0.08067217469215393,-0.06892995536327362
1726995691147079700,5.76107958984375,0.20766595005989075,-0.08701354265213013,-0.060792941600084305
1726995691157066800,5.771066650390625,0.20201179385185242,-0.10332806408405304,-0.03543485328555107
1726995691167052800,5.781052734375,0.24359281361103058,-0.13662829995155334,-0.01377478614449501
1726995691177038800,5.791038818359375,0.3183136284351349,-0.18144024908542633,-0.018084846436977386
1726995691187025000,5.80102490234375,0.4081905484199524,-0.20640937983989716,-0.05063433572649956
1726995691197011700,5.81101171875,0.5117409229278564,-0.19017767906188965,-0.09738612920045853
1726995691206997800,5.820997802734375,0.6094681024551392,-0.1574394553899765,-0.15106147527694702
1726995691216983800,5.83098388671875,0.7070260643959045,-0.13770516216754913,-0.20651407539844513
1726995691226971000,5.840970947265625,0.8039426803588867,-0.05169916898012161,-0.26404303312301636
1726995691236957000,5.85095703125,0.8951961994171143,0.08627467602491379,-0.34709957242012024
1726995691246942700,5.860942626953125,0.9762758016586304,0.17384181916713715,-0.44506189227104187
1726995691256929800,5.8709296875,1.083835244178772,0.27198731899261475,-0.5133602023124695
1726995691266915800,5.880915771484375,1.223691463470459,0.33812475204467773,-0.5438563227653503
1726995691276901600,5.890901611328125,1.3864315748214722,0.30313241481781006,-0.5574517250061035
1726995691286888000,5.900887939453125,1.51133394241333,0.1679544895887375,-0.5802573561668396
1726995691296874800,5.910874755859375,1.587699055671692,-0.013990554958581924,-0.6372023820877075
1726995691306860800,5.92086083984375,1.600157618522644,-0.08137798309326172,-0.659629762172699
1726995691316846800,5.930846923828125,1.605910062789917,-0.09888932853937149,-0.621889054775238
1726995691326833000,5.9408330078125,1.6125508546829224,-0.19639816880226135,-0.588927149772644
1726995691336820000,5.950820068359375,1.5856434106826782,-0.3582911789417267,-0.55141681432724
1726995691346805800,5.9608056640625,1.483905553817749,-0.4537908136844635,-0.5170274972915649
1726995691356791800,5.970791748046875,1.2902247905731201,-0.6023421883583069,-0.5009444355964661
1726995691366779000,5.98077880859375,0.9996092915534973,-0.8622768521308899,-0.47737422585487366
1726995691376764700,5.9907646484375,0.6525363326072693,-1.1947731971740723,-0.459227979183197
1726995691386750700,6.000750732421875,0.27056625485420227,-1.4761605262756348,-0.43450531363487244
1726995691396737800,6.01073779296875,-0.11162878572940826,-1.644173264503479,-0.45243212580680847
1726995691406723800,6.020723876953125,-0.4449704587459564,-1.7362384796142578,-0.3626749813556671
1726995691416710000,6.0307099609375,-0.6421807408332825,-1.6884618997573853,-0.11215619742870331
1726995691426696000,6.040696044921875,-0.6777333617210388,-1.4257200956344604,0.2721068859100342
1726995691436682800,6.050682861328125,-0.5844404101371765,-1.1105395555496216,0.6696643829345703
1726995691446668800,6.060668701171875,-0.4287499487400055,-0.8223215341567993,0.975501298904419
1726995691456654800,6.07065478515625,-0.2200648933649063,-0.6592751145362854,1.1245996952056885
1726995691466642000,6.080641845703125,-0.03138967975974083,-0.5706697106361389,1.1852442026138306
1726995691476627700,6.090627685546875,0.07974056899547577,-0.5282596945762634,1.2148408889770508
1726995691486613800,6.10061376953125,0.12105093896389008,-0.46737948060035706,1.232425570487976
1726995691496599800,6.110599853515625,0.08142070472240448,-0.3491891920566559,1.2498716115951538
1726995691506587000,6.1205869140625,0.00025232782354578376,-0.1782577782869339,1.2083370685577393
1726995691516572700,6.13057275390625,-0.10394518077373505,0.03628835082054138,1.133495807647705
1726995691526559000,6.14055908203125,-0.21639090776443481,0.24572575092315674,1.054452657699585
1726995691536545800,6.1505458984375,-0.3013734519481659,0.3942587673664093,0.9878760576248169
1726995691546531800,6.16053173828125,-0.38647517561912537,0.5026161074638367,0.9187235832214355
1726995691556518000,6.170517822265625,-0.48977041244506836,0.577306866645813,0.8686457872390747
1726995691566503700,6.180503662109375,-0.6096822023391724,0.6464430689811707,0.8543693423271179
1726995691576490800,6.19049072265625,-0.7286320328712463,0.7000098824501038,0.8534902334213257
1726995691586476800,6.200476806640625,-0.8445257544517517,0.7477246522903442,0.8565967679023743
1726995691596462800,6.210462890625,-0.9359046220779419,0.7872850894927979,0.8688467741012573
1726995691606450000,6.220449951171875,-1.034836769104004,0.7913862466812134,0.9021122455596924
1726995691616435700,6.230435791015625,-1.1285451650619507,0.7560104131698608,0.9132171273231506
1726995691626422000,6.240422119140625,-1.2346868515014648,0.6858814358711243,0.8518895506858826
1726995691636407800,6.25040771484375,-1.3205394744873047,0.5780830383300781,0.688592255115509
1726995691646394600,6.26039453125,-1.3541245460510254,0.4609544277191162,0.38927215337753296
1726995691656381000,6.270380859375,-1.31777822971344,0.3136405944824219,-0.011752251535654068
1726995691666366700,6.28036669921875,-1.198760747909546,0.14933162927627563,-0.48434120416641235
1726995691676354000,6.29035400390625,-1.0342473983764648,-0.0035950583405792713,-0.9300481081008911
1726995691686339800,6.30033984375,-0.8462664484977722,-0.08494739234447479,-1.2228671312332153
1726995691696326000,6.310325927734375,-0.6616822481155396,-0.006335405632853508,-1.3451600074768066
1726995691706311700,6.320311767578125,-0.4801695644855499,0.16204071044921875,-1.3648651838302612
1726995691716298800,6.330298828125,-0.3094148635864258,0.3599969446659088,-1.3211430311203003
1726995691726284800,6.340284912109375,-0.1732330173254013,0.4839969277381897,-1.2479807138442993
1726995691736270800,6.350270751953125,-0.0882083922624588,0.5484417080879211,-1.1712974309921265
1726995691746257700,6.360257568359375,-0.03970923274755478,0.5884605646133423,-1.0934282541275024
1726995691756243700,6.37024365234375,-0.028027279302477837,0.5664154887199402,-1.0423264503479004
1726995691766229800,6.380229736328125,-0.03457075357437134,0.5215598344802856,-1.019540548324585
1726995691776215800,6.3902158203125,-0.045029520988464355,0.45530280470848083,-1.0310176610946655
1726995691786203000,6.400202880859375,-0.052763696759939194,0.3696092367172241,-1.03571617603302
1726995691796189000,6.41018896484375,-0.05017270892858505,0.2711963653564453,-1.027413249015808
1726995691806174700,6.4201748046875,-0.04910171777009964,0.18750837445259094,-1.0144003629684448
1726995691816161800,6.430161865234375,-0.05874395743012428,0.11233719438314438,-0.9858781099319458
1726995691826147800,6.44014794921875,-0.08634725958108902,0.0550384595990181,-0.9432540535926819
1726995691836133600,6.450133544921875,-0.12518812716007233,0.051107633858919144,-0.8893793225288391
1726995691846120000,6.460119873046875,-0.15273869037628174,0.010576038621366024,-0.8506808280944824
1726995691856106800,6.470106689453125,-0.15801814198493958,-0.041739895939826965,-0.8070611953735352
1726995691866092800,6.4800927734375,-0.13908304274082184,-0.08492479473352432,-0.7573810815811157
1726995691876078800,6.490078857421875,-0.10784096270799637,-0.12126149982213974,-0.7059569954872131
1726995691886065700,6.500065673828125,-0.06940510123968124,-0.1696496158838272,-0.6475355625152588
1726995691896052000,6.510052001953125,-0.04723481461405754,-0.2172166109085083,-0.5842734575271606
1726995691906037800,6.520037841796875,-0.0382046177983284,-0.22711396217346191,-0.5015364289283752
1726995691916024800,6.53002490234375,-0.03629273176193237,-0.18832315504550934,-0.4095023572444916
1726995691926011000,6.540010986328125,-0.039655473083257675,-0.11178545653820038,-0.33364322781562805
1726995691935997000,6.549996826171875,-0.029482461512088776,-0.07188277691602707,-0.25824061036109924
1726995691945983000,6.55998291015625,0.003552856156602502,-0.059243980795145035,-0.18122971057891846
1726995691955970000,6.569969970703125,0.03664396330714226,-0.06971898674964905,-0.08651545643806458
1726995691965956000,6.5799560546875,0.058065976947546005,-0.10463245213031769,0.03695625811815262
1726995691975942000,6.58994189453125,0.045785609632730484,-0.14564619958400726,0.15512977540493011
1726995691985929000,6.599928955078125,0.015919798985123634,-0.15547017753124237,0.23355618119239807
1726995691995915000,6.6099150390625,0.02546163834631443,-0.22954148054122925,0.2318914383649826
1726995692005900800,6.61990087890625,-0.03925398364663124,-0.2015783041715622,0.2043527066707611
1726995692015887000,6.62988720703125,-0.08857972174882889,-0.043891727924346924,0.1972266137599945
1726995692025874000,6.6398740234375,-0.10395293682813644,0.11682993918657303,0.16887499392032623
1726995692035859700,6.649859619140625,-0.10459582507610321,0.2596805691719055,0.09790760278701782
1726995692045846000,6.659845947265625,-0.09787654131650925,0.40222203731536865,-0.007688355632126331
1726995692055832800,6.669832763671875,-0.07214055210351944,0.5332543849945068,-0.1364700347185135
1726995692065819100,6.679819091796875,-0.008375975303351879,0.596059262752533,-0.2586054801940918
1726995692075805000,6.689804931640625,0.05495452880859375,0.6070517301559448,-0.38926175236701965
1726995692085791000,6.699791015625,0.08851595222949982,0.5751643776893616,-0.49589791893959045
1726995692095778000,6.709778076171875,0.09618452191352844,0.5090324878692627,-0.5616124868392944
1726995692105763800,6.719763916015625,0.08011103421449661,0.3903248906135559,-0.5796879529953003
1726995692115750000,6.72975,0.06034798547625542,0.25898098945617676,-0.545113205909729
1726995692125737000,6.739737060546875,0.08418639749288559,0.16623449325561523,-0.45296207070350647
1726995692135722800,6.74972265625,0.07069535553455353,-0.03942599147558212,-0.39168328046798706
1726995692145709000,6.759708984375,0.04402078315615654,-0.1679488718509674,-0.29570943117141724
1726995692155695900,6.76969580078125,0.00803774781525135,-0.17591038346290588,-0.16417886316776276
1726995692165682000,6.779681884765625,-0.023259708657860756,-0.16500213742256165,-0.04273141920566559
1726995692175668000,6.78966796875,-0.05035417526960373,-0.15198859572410583,0.06401393562555313
1726995692185654000,6.799654052734375,-0.05053097754716873,-0.1171884834766388,0.13750572502613068
1726995692195641000,6.80964111328125,-0.015994040295481682,-0.0889187604188919,0.17850881814956665
1726995692205627000,6.819626953125,0.05046701058745384,-0.07476246356964111,0.17908671498298645
1726995692215613000,6.829613037109375,0.10438696295022964,-0.07004893571138382,0.1514500230550766
1726995692225600000,6.83960009765625,0.14829401671886444,-0.0740005299448967,0.13195016980171204
1726995692235586000,6.8495859375,0.1557583212852478,-0.09839268773794174,0.10734390467405319
1726995692245571800,6.85957177734375,0.1401381492614746,-0.10550376772880554,0.09052529186010361
1726995692255558000,6.869557861328125,0.11703017354011536,-0.1071232333779335,0.08526474982500076
1726995692265545000,6.879544921875,0.09431812167167664,-0.08986440300941467,0.08750249445438385
1726995692275531000,6.889531005859375,0.06471016258001328,-0.07701970636844635,0.097626231610775
1726995692285517000,6.89951708984375,0.031079363077878952,-0.06840700656175613,0.09734977781772614
1726995692295504000,6.90950390625,0.014529680833220482,-0.07795710116624832,0.08288642019033432
1726995692305490000,6.919489990234375,0.017870578914880753,-0.12495636194944382,0.056644126772880554
1726995692315476000,6.92947607421875,0.044671300798654556,-0.15701763331890106,0.022485092282295227
1726995692325461800,6.939461669921875,0.09734828025102615,-0.1617615520954132,-0.00972568616271019
1726995692335449000,6.949448974609375,0.1658887267112732,-0.15677478909492493,-0.04913727566599846
1726995692345435000,6.959434814453125,0.2368009388446808,-0.15124206244945526,-0.07332370430231094
1726995692355421000,6.9694208984375,0.2706206738948822,-0.15625439584255219,-0.07810301333665848
1726995692365408000,6.979407958984375,0.29449331760406494,-0.15231412649154663,-0.05207778513431549
1726995692375393800,6.989393798828125,0.30939212441444397,-0.12154263257980347,-0.018396787345409393
1726995692385380000,6.999380126953125,0.35092607140541077,-0.103322833776474,0.03986316919326782
1726995692395367000,7.009366943359375,0.4318872392177582,-0.10296411067247391,0.1011962965130806
1726995692405352700,7.019352783203125,0.522018313407898,-0.0457310788333416,0.16167177259922028
1726995692415339000,7.029339111328125,0.6416988968849182,0.05386502295732498,0.2324221134185791
1726995692425324800,7.03932470703125,0.7806158661842346,0.15810275077819824,0.2660271227359772
1726995692435312000,7.04931201171875,0.946831464767456,0.23035430908203125,0.2848418354988098
1726995692445298000,7.0592978515625,1.1172980070114136,0.23958657681941986,0.2763424813747406
1726995692455284000,7.069283935546875,1.2877925634384155,0.19076284766197205,0.1917780488729477
1726995692465271000,7.07927099609375,1.4277362823486328,0.046031150966882706,0.06189705431461334
1726995692475256800,7.0892568359375,1.5309114456176758,-0.17033524811267853,-0.07050865888595581
1726995692485243000,7.099242919921875,1.5865947008132935,-0.2432287335395813,-0.12067627906799316
1726995692495230000,7.10922998046875,1.6244834661483765,-0.28644996881484985,-0.10168233513832092
1726995692505216000,7.119216064453125,1.6159613132476807,-0.5025416612625122,-0.09363525360822678
1726995692515202000,7.1292021484375,1.5740998983383179,-0.7616768479347229,-0.10153259336948395
1726995692525188000,7.13918798828125,1.4698593616485596,-1.0157173871994019,-0.09891842305660248
1726995692535175000,7.1491748046875,1.2787437438964844,-1.2356127500534058,-0.08832649886608124
1726995692545161000,7.159160888671875,0.9800950288772583,-1.3933902978897095,-0.08473644405603409
1726995692555147000,7.16914697265625,0.6411600708961487,-1.539514183998108,-0.10013990104198456
1726995692565134000,7.179134033203125,0.2526443898677826,-1.6933274269104004,-0.10232534259557724
1726995692575120000,7.189119873046875,-0.1708914190530777,-1.8051210641860962,-0.07049151510000229
1726995692585106000,7.19910595703125,-0.5379423499107361,-1.7461423873901367,0.15944167971611023
1726995692595093000,7.209093017578125,-0.7072304487228394,-1.564255714416504,0.6815304160118103
1726995692605079000,7.2190791015625,-0.6815725564956665,-1.409733533859253,1.2060049772262573
1726995692615064800,7.22906494140625,-0.5103108286857605,-1.1635074615478516,1.5566638708114624
1726995692625051100,7.239051025390625,-0.34137478470802307,-0.9652329087257385,1.6856672763824463
1726995692635038000,7.249037841796875,-0.2204805612564087,-0.8219495415687561,1.649418830871582
1726995692645023700,7.259023681640625,-0.16795891523361206,-0.6620122790336609,1.5310078859329224
1726995692655010000,7.269010009765625,-0.16491225361824036,-0.5028111934661865,1.3931740522384644
1726995692664996900,7.278996826171875,-0.19056960940361023,-0.32411321997642517,1.2830559015274048
1726995692674983000,7.28898291015625,-0.24330471456050873,-0.12289302051067352,1.1754218339920044
1726995692684969000,7.298968994140625,-0.2975074350833893,0.1107790470123291,1.0601752996444702
1726995692694955800,7.308955810546875,-0.3841661810874939,0.26913830637931824,0.9472754001617432
1726995692704942000,7.318942138671875,-0.5032159090042114,0.41852378845214844,0.8141940236091614
1726995692714927900,7.328927978515625,-0.644315779209137,0.5944737195968628,0.6833926439285278
1726995692724914000,7.338913818359375,-0.7706541419029236,0.7609869241714478,0.5947552919387817
1726995692734901000,7.34890087890625,-0.8894319534301758,0.8987810015678406,0.5587717294692993
1726995692744886800,7.35888671875,-1.0137135982513428,1.0017752647399902,0.552855372428894
1726995692754873000,7.368873046875,-1.1426560878753662,1.089860200881958,0.5420660972595215
1726995692764860000,7.37885986328125,-1.2542049884796143,1.1506097316741943,0.47372278571128845
1726995692774846000,7.388845947265625,-1.306112289428711,1.1824791431427002,0.3059641420841217
1726995692784832000,7.39883203125,-1.3070071935653687,1.1122368574142456,0.022148119285702705
1726995692794818000,7.408818115234375,-1.2128921747207642,0.9375108480453491,-0.3902503550052643
1726995692804805000,7.41880517578125,-1.0586897134780884,0.7243033647537231,-0.8565202355384827
1726995692814791000,7.428791015625,-0.8619063496589661,0.48500290513038635,-1.3017650842666626
1726995692824777000,7.43877685546875,-0.6719211935997009,0.30393093824386597,-1.6398601531982422
1726995692834764000,7.448763916015625,-0.5023444294929504,0.20591889321804047,-1.830521821975708
1726995692844749800,7.458749755859375,-0.4034690856933594,0.1960185021162033,-1.881287932395935
1726995692854736000,7.46873583984375,-0.41650712490081787,0.25561872124671936,-1.848259449005127
1726995692864723000,7.478722900390625,-0.46387943625450134,0.3621388375759125,-1.751540184020996
1726995692874709000,7.488708984375,-0.46691781282424927,0.43973615765571594,-1.6767839193344116
1726995692884695000,7.498695068359375,-0.4368123412132263,0.48308154940605164,-1.590206265449524
1726995692894681900,7.508681884765625,-0.36556103825569153,0.5176717638969421,-1.4866747856140137
1726995692904668000,7.51866796875,-0.2939605414867401,0.5277596116065979,-1.3648771047592163
1726995692914654000,7.528654052734375,-0.24427874386310577,0.5809112191200256,-1.253190040588379
1726995692924640000,7.538639892578125,-0.22448697686195374,0.6859120726585388,-1.109139084815979
1726995692934626600,7.54862646484375,-0.23282161355018616,0.7702213525772095,-0.9490870833396912
1726995692944612900,7.55861279296875,-0.2892223596572876,0.7390181422233582,-0.7226934432983398
1726995692954598700,7.5685986328125,-0.34225308895111084,0.6046813726425171,-0.5675776600837708
1726995692964585500,7.57858544921875,-0.37632250785827637,0.4583125114440918,-0.47490155696868896
1726995692974571800,7.58857177734375,-0.33516228199005127,0.30261826515197754,-0.429473340511322
1726995692984557600,7.5985576171875,-0.24932093918323517,0.16272029280662537,-0.4036267399787903
1726995692994543600,7.608543701171875,-0.19173140823841095,-0.0015772950137034059,-0.3860727846622467
1726995693004530700,7.61853076171875,-0.14406277239322662,-0.0749494656920433,-0.3594222366809845
1726995693014516500,7.6285166015625,-0.10695642232894897,-0.1216738298535347,-0.2874239385128021
1726995693024502800,7.638502685546875,-0.07874288409948349,-0.10457827150821686,-0.21021027863025665
1726995693034489600,7.648489501953125,-0.07156779617071152,-0.08158320933580399,-0.12964485585689545
1726995693044475600,7.6584755859375,-0.0911649689078331,-0.0781954750418663,-0.0590420663356781
1726995693054461700,7.668461669921875,-0.10165276378393173,-0.09591348469257355,0.010196128860116005
1726995693064448500,7.678448486328125,-0.08866800367832184,-0.162156343460083,0.07816309481859207
1726995693074434800,7.688434814453125,-0.08365726470947266,-0.19731885194778442,0.13542106747627258
1726995693084420600,7.698420654296875,-0.06496879458427429,-0.2095898687839508,0.1868240386247635
1726995693094407700,7.70840771484375,-0.05404902994632721,-0.20482014119625092,0.23429620265960693
1726995693104393700,7.718393798828125,-0.09706448018550873,-0.12682108581066132,0.3040750026702881
1726995693114379500,7.728379638671875,-0.14771993458271027,0.034294307231903076,0.3633444607257843
1726995693124365600,7.738365478515625,-0.19365927577018738,0.13658086955547333,0.3260961174964905
1726995693134352600,7.7483525390625,-0.21870817244052887,0.2058054804801941,0.1938938945531845
1726995693144338700,7.758338623046875,-0.19581271708011627,0.23897415399551392,0.03168784826993942
1726995693154324500,7.768324462890625,-0.11683959513902664,0.23489606380462646,-0.09613509476184845
1726995693164311600,7.7783115234375,-0.01912301406264305,0.18312287330627441,-0.1634533852338791
1726995693174297600,7.788297607421875,0.0770927369594574,0.056804075837135315,-0.17293396592140198
1726995693184283600,7.79828369140625,0.13480105996131897,-0.07042303681373596,-0.15611694753170013
1726995693194270700,7.808270751953125,0.1227760761976242,-0.17743682861328125,-0.10338050127029419
1726995693204256500,7.818256591796875,0.0705752894282341,-0.2637997269630432,0.019790111109614372
1726995693214242800,7.828242919921875,-0.0357346385717392,-0.343060702085495,0.1588476002216339
1726995693224228600,7.838228515625,-0.09554582089185715,-0.3422990143299103,0.2862144708633423
1726995693234215700,7.848215576171875,-0.18012115359306335,-0.32543906569480896,0.30458521842956543
1726995693244201700,7.85820166015625,-0.20029346644878387,-0.3618912696838379,0.2733149826526642
1726995693254187500,7.8681875,-0.13048483431339264,-0.381755530834198,0.2664371132850647
1726995693264174600,7.878174560546875,-0.023949604481458664,-0.3716966509819031,0.2924765646457672
1726995693274160600,7.88816064453125,0.06346173584461212,-0.35425853729248047,0.3564230799674988
1726995693284146400,7.898146484375,0.1033853068947792,-0.3473590910434723,0.4316549301147461
1726995693294133800,7.9081337890625,0.07378426939249039,-0.32437974214553833,0.489828497171402
1726995693304119600,7.91811962890625,0.024042198434472084,-0.27580317854881287,0.5263009071350098
1726995693314105900,7.92810595703125,0.024243267253041267,-0.23494283854961395,0.5135182738304138
1726995693324091600,7.938091552734375,0.07928033918142319,-0.21513429284095764,0.457725465297699
1726995693334078500,7.948078369140625,0.15385816991329193,-0.21162690222263336,0.40445423126220703
1726995693344064800,7.958064697265625,0.19319963455200195,-0.23930880427360535,0.3876068592071533
1726995693354050600,7.968050537109375,0.17945346236228943,-0.2543676495552063,0.3906458020210266
1726995693364037600,7.97803759765625,0.143483504652977,-0.21192720532417297,0.3939491808414459
1726995693374023700,7.988023681640625,0.12233561277389526,-0.15605995059013367,0.3799166977405548
1726995693384009500,7.998009521484375,0.1318112164735794,-0.08828142285346985,0.34385526180267334
1726995693393996800,8.007996826171874,0.187301367521286,-0.04106064513325691,0.2985423803329468
1726995693403982600,8.017982666015625,0.28377577662467957,-0.01623430661857128,0.25524666905403137
1726995693413968600,8.02796875,0.39603549242019653,-0.0091851856559515,0.21303129196166992
1726995693423955700,8.037955810546874,0.493284672498703,-0.04140070453286171,0.17017762362957
1726995693433941500,8.04794140625,0.6007533669471741,-0.03778679668903351,0.151626318693161
1726995693443927800,8.057927734375,0.7317754626274109,0.049144573509693146,0.145448237657547
1726995693453913600,8.06791357421875,0.8618442416191101,0.1439909189939499,0.13895012438297272
1726995693463900700,8.077900634765625,0.9802600145339966,0.21664132177829742,0.130961611866951
1726995693473886700,8.08788671875,1.0956544876098633,0.3282272517681122,0.14191146194934845
1726995693483872800,8.097872802734376,1.174383521080017,0.513514518737793,0.15937620401382446
1726995693493859800,8.10785986328125,1.2277231216430664,0.6801186800003052,0.1688365489244461
1726995693503845600,8.117845703125,1.2755705118179321,0.745101809501648,0.14778143167495728
1726995693513831700,8.127831787109375,1.3166511058807373,0.7189133763313293,0.1135539561510086
1726995693523818800,8.13781884765625,1.3517160415649414,0.6065126657485962,0.06425577402114868
1726995693533804500,8.147804443359375,1.3675639629364014,0.4259849488735199,-0.021894287317991257
1726995693543790600,8.15779052734375,1.383344054222107,0.28366759419441223,-0.12562309205532074
1726995693553776600,8.167776611328126,1.3851196765899658,0.07866914570331573,-0.22944030165672302
1726995693563763700,8.177763671875,1.3785526752471924,-0.14622192084789276,-0.350929856300354
1726995693573749500,8.18774951171875,1.3240766525268555,-0.34872761368751526,-0.4470515847206116
1726995693583735800,8.19773583984375,1.2410224676132202,-0.40080609917640686,-0.45343080163002014
1726995693593722600,8.20772265625,1.1302461624145508,-0.48864275217056274,-0.42419329285621643
1726995693603708700,8.217708740234375,0.9384141564369202,-0.8152440190315247,-0.4169450104236603
1726995693613694700,8.22769482421875,0.6470102667808533,-1.2814183235168457,-0.34401169419288635
1726995693623681500,8.237681640625,0.22666695713996887,-1.8918120861053467,-0.2904590964317322
1726995693633667600,8.24766748046875,-0.23543943464756012,-2.452045440673828,-0.19476531445980072
1726995693643653600,8.257653564453125,-0.6842291951179504,-2.5707802772521973,0.20798169076442719
1726995693653639700,8.2676396484375,-0.9034726023674011,-1.976212739944458,0.8686760067939758
1726995693663626800,8.277626708984375,-0.8082435727119446,-1.1361634731292725,1.665934681892395
1726995693673612500,8.287612548828125,-0.6291132569313049,-0.703056275844574,2.250410795211792
1726995693683598800,8.297598876953124,-0.4907337725162506,-0.5855979323387146,2.575397491455078
1726995693693585700,8.307585693359375,-0.3818299174308777,-0.5366343855857849,2.580052375793457
1726995693703571500,8.317571533203125,-0.34126409888267517,-0.517166256904602,2.395261287689209
1726995693713557800,8.327557861328126,-0.32734906673431396,-0.4826924204826355,2.133737087249756
1726995693723544600,8.337544677734375,-0.3629971742630005,-0.3874356746673584,1.9638476371765137
1726995693733531000,8.34753076171875,-0.4439471662044525,-0.22410374879837036,1.894861102104187
1726995693743516700,8.3575166015625,-0.5476617217063904,-0.0073587046936154366,1.9011287689208984
1726995693753503500,8.36750341796875,-0.6737288236618042,0.21459607779979706,1.9482711553573608
1726995693763489800,8.37748974609375,-0.8053594827651978,0.46709877252578735,1.972157597541809
1726995693773475600,8.3874755859375,-0.9378266930580139,0.625510036945343,1.913711428642273
1726995693783461600,8.397461669921874,-1.1014167070388794,0.6940866708755493,1.7282408475875854
1726995693793448700,8.40744873046875,-1.2730624675750732,0.6857541799545288,1.4016728401184082
1726995693803434500,8.4174345703125,-1.441504716873169,0.6250263452529907,0.8753136396408081
1726995693813420500,8.427420654296874,-1.5270675420761108,0.5248683094978333,0.14796337485313416
1726995693823407600,8.43740771484375,-1.4839305877685547,0.43103426694869995,-0.5998899936676025
1726995693833393700,8.4473935546875,-1.319685697555542,0.31816285848617554,-1.1840479373931885
1726995693843379700,8.457379638671876,-1.0765104293823242,0.31071236729621887,-1.552026391029358
1726995693853366500,8.467366455078125,-0.8418110609054565,0.33759698271751404,-1.6942311525344849
1726995693863352600,8.4773525390625,-0.6994355320930481,0.37756893038749695,-1.6961193084716797
1726995693873338600,8.487338623046876,-0.6538618803024292,0.4712589383125305,-1.6345014572143555
1726995693883324700,8.49732470703125,-0.6698647737503052,0.5877428650856018,-1.5514718294143677
1726995693893311700,8.507311767578125,-0.6495440006256104,0.7013368010520935,-1.464394450187683
1726995693903297500,8.517297607421876,-0.5515406131744385,0.7651945352554321,-1.4153035879135132
1726995693913283600,8.52728369140625,-0.4361719489097595,0.7737259864807129,-1.405676245689392
1726995693923270700,8.537270751953125,-0.3643808960914612,0.7529435157775879,-1.4376696348190308
1726995693933256400,8.54725634765625,-0.34753134846687317,0.686207115650177,-1.484884262084961
1726995693943242200,8.5572421875,-0.37679323554039,0.5914092063903809,-1.5255217552185059
1726995693953229300,8.567229248046875,-0.42143768072128296,0.5239055156707764,-1.5313622951507568
1726995693963215400,8.57721533203125,-0.4562438428401947,0.48480525612831116,-1.4857271909713745
1726995693973201400,8.587201416015626,-0.4570412039756775,0.4271118640899658,-1.4074745178222656
1726995693983188500,8.5971884765625,-0.4202975630760193,0.35870346426963806,-1.3072757720947266
1726995693993174300,8.60717431640625,-0.3882056772708893,0.38785815238952637,-1.129259705543518
1726995694003160600,8.61716064453125,-0.3781983554363251,0.47201210260391235,-0.9721570014953613
1726995694013146400,8.627146484375,-0.3404320478439331,0.5387754440307617,-0.8459950685501099
1726995694023133400,8.637133544921875,-0.28001582622528076,0.6249202489852905,-0.787399411201477
1726995694033119500,8.647119384765626,-0.24311800301074982,0.6343507766723633,-0.7862311005592346
1726995694043105300,8.657105224609374,-0.24514269828796387,0.5006011128425598,-0.7215059399604797
1726995694053092400,8.66709228515625,-0.2346290796995163,0.39158329367637634,-0.677782416343689
1726995694063078400,8.677078369140625,-0.2550719380378723,0.2586970329284668,-0.6085503697395325
1726995694073064400,8.687064453125,-0.24806250631809235,0.08407251536846161,-0.5260924696922302
1726995694083051500,8.697051513671875,-0.23762191832065582,-0.07678855210542679,-0.42732977867126465
1726995694093037300,8.707037353515625,-0.2695457339286804,-0.17014220356941223,-0.3408960700035095
1726995694103023400,8.7170234375,-0.29114264249801636,-0.14963486790657043,-0.24255263805389404
1726995694113009400,8.727009521484375,-0.2917996644973755,-0.04471883550286293,-0.1644546389579773
1726995694122996200,8.736996337890625,-0.20661169290542603,0.12399479001760483,-0.09492596238851547
1726995694132982500,8.746982421875,-0.1177811548113823,0.20355194807052612,-0.09205666929483414
1726995694142968300,8.75696826171875,0.018695902079343796,0.22230087220668793,-0.09840825200080872
1726995694152955400,8.766955322265625,0.1516752541065216,0.15847182273864746,-0.1153946965932846
1726995694162941400,8.77694140625,0.19027133285999298,-0.02871929109096527,-0.12556122243404388
1726995694172927500,8.786927490234374,0.127154141664505,-0.17570501565933228,-0.08227846771478653
1726995694182914600,8.79691455078125,0.08636518567800522,-0.21426336467266083,-0.03731146082282066
1726995694192900400,8.806900390625,0.10512688755989075,-0.2384757548570633,0.011301616206765175
1726995694202886400,8.816886474609374,0.14691534638404846,-0.22242656350135803,0.06701317429542542
1726995694212872400,8.82687255859375,0.16253505647182465,-0.18097978830337524,0.16569900512695312
1726995694222859300,8.836859375,0.1385553628206253,-0.19295400381088257,0.2778675854206085
1726995694232845300,8.84684521484375,0.09034281969070435,-0.24680233001708984,0.355121910572052
1726995694242831400,8.856831298828125,0.06647303700447083,-0.3020152151584625,0.3802317678928375
1726995694252818400,8.866818359375,0.1071738600730896,-0.3587024509906769,0.3642551898956299
1726995694262804500,8.876804443359376,0.17099283635616302,-0.41303175687789917,0.34694525599479675
1726995694272790500,8.88679052734375,0.21376800537109375,-0.44697239995002747,0.3343256115913391
1726995694282777300,8.89677734375,0.22679607570171356,-0.4453622102737427,0.31903454661369324
1726995694292763400,8.906763427734376,0.24012786149978638,-0.409773588180542,0.2901805341243744
1726995694302749400,8.91674951171875,0.26302462816238403,-0.3620709478855133,0.2546703517436981
1726995694312735200,8.9267353515625,0.2832643985748291,-0.3133620023727417,0.1996060460805893
1726995694322722600,8.93672265625,0.28174883127212524,-0.2676205635070801,0.134180948138237
1726995694332708400,8.946708251953124,0.26188671588897705,-0.2159661501646042,0.06502745300531387
1726995694342694400,8.9566943359375,0.23464950919151306,-0.15741562843322754,-0.012703103944659233
1726995694352681500,8.966681396484375,0.2196202278137207,-0.062137577682733536,-0.0893174558877945
1726995694362667300,8.976667236328124,0.2034585326910019,0.016980361193418503,-0.169612854719162
1726995694372653600,8.986653564453125,0.19523122906684875,0.08631256222724915,-0.2368781715631485
1726995694382640400,8.996640380859375,0.194367453455925,0.13576585054397583,-0.2946713864803314
1726995694392626200,9.006626220703126,0.22730675339698792,0.13224169611930847,-0.33079370856285095
1726995694402612500,9.016612548828125,0.27139008045196533,0.10122940689325333,-0.31694409251213074
1726995694412598300,9.026598388671875,0.3252141773700714,0.05668484792113304,-0.2646907567977905
1726995694422585600,9.036585693359376,0.3743409812450409,0.00971813965588808,-0.17967598140239716
1726995694432571400,9.0465712890625,0.43650901317596436,-0.01336507499217987,-0.061776772141456604
1726995694442557400,9.056557373046875,0.556873083114624,0.059523485600948334,0.06717821955680847
1726995694452544500,9.06654443359375,0.7293891906738281,0.16530105471611023,0.1985096037387848
1726995694462530300,9.0765302734375,0.9157243967056274,0.24311165511608124,0.303433895111084
1726995694472516400,9.086516357421875,1.1004400253295898,0.2717267870903015,0.3521822392940521
1726995694482503400,9.09650341796875,1.260096549987793,0.2682541608810425,0.322604775428772
1726995694492489200,9.1064892578125,1.389797568321228,0.20277422666549683,0.2217245250940323
1726995694502475500,9.1164755859375,1.511611819267273,0.09500376880168915,0.08673516660928726
1726995694512461300,9.12646142578125,1.6295762062072754,-0.10542866587638855,-0.04545988887548447
1726995694522448400,9.136448486328124,1.7375121116638184,-0.3174624443054199,-0.1250367909669876
1726995694532434400,9.146434326171875,1.8319368362426758,-0.5395460724830627,-0.1818327009677887
1726995694542420500,9.15642041015625,1.870905876159668,-0.6950018405914307,-0.2109638750553131
1726995694552407600,9.166407470703126,1.834814429283142,-0.8586001396179199,-0.171895831823349
1726995694562393300,9.176393310546874,1.756592035293579,-0.996719241142273,-0.0809500515460968
1726995694572379400,9.18637939453125,1.5691018104553223,-1.155266523361206,0.042444054037332535
1726995694582366500,9.196366455078126,1.3031947612762451,-1.3698877096176147,0.16997021436691284
1726995694592352500,9.2063525390625,0.9603484869003296,-1.697433590888977,0.2976568043231964
1726995694602338300,9.21633837890625,0.5925943851470947,-2.0966105461120605,0.38304176926612854
1726995694612324400,9.226324462890625,0.18198587000370026,-2.2559266090393066,0.4768867790699005
1726995694622311400,9.2363115234375,-0.13200172781944275,-2.229766607284546,0.5229751467704773
1726995694632297500,9.24629736328125,-0.3397914171218872,-1.8992856740951538,0.5130058526992798
1726995694642283500,9.256283447265625,-0.5591121315956116,-1.3918417692184448,0.7841398119926453
1726995694652270300,9.266270263671874,-0.6125223636627197,-0.9318467378616333,1.3162615299224854
1726995694662256400,9.27625634765625,-0.5941461324691772,-0.7433731555938721,1.8981380462646484
1726995694672242400,9.286242431640625,-0.591176450252533,-0.5739005208015442,2.3793468475341797
1726995694682229500,9.2962294921875,-0.6603909730911255,-0.3051668703556061,2.6422924995422363
1726995694692215600,9.306215576171875,-0.7570785880088806,-0.031430646777153015,2.727043867111206
1726995694702201300,9.316201416015625,-0.8633043169975281,0.2038838267326355,2.6857714653015137
1726995694712187400,9.3261875,-0.9473448991775513,0.4514717757701874,2.555572032928467
1726995694722174500,9.336174560546874,-1.0270711183547974,0.6654820442199707,2.314368486404419
1726995694732160300,9.34616015625,-1.1193374395370483,0.8815594911575317,1.923930048942566
1726995694742146600,9.356146484375,-1.222919225692749,1.0011484622955322,1.3601534366607666
1726995694752133400,9.36613330078125,-1.2550976276397705,1.0207124948501587,0.6033000946044922
1726995694762119200,9.376119140625,-1.1495585441589355,0.964042603969574,-0.2416534721851349
1726995694772105500,9.38610546875,-0.9618682861328125,0.8461788296699524,-0.9595303535461426
1726995694782092300,9.39609228515625,-0.7967444658279419,0.6972599029541016,-1.426074504852295
1726995694792078600,9.40607861328125,-0.7158836722373962,0.6085484623908997,-1.5751886367797852
1726995694802064400,9.416064453125,-0.6881226301193237,0.7216699123382568,-1.606935739517212
1726995694812050400,9.426050537109376,-0.6757400035858154,0.8313817977905273,-1.557081937789917
1726995694822037500,9.43603759765625,-0.7723253965377808,0.8723506331443787,-1.4785165786743164
1726995694832023300,9.446023193359375,-0.8482406735420227,0.9808454513549805,-1.423117995262146
1726995694842009300,9.45600927734375,-0.858950138092041,1.1335783004760742,-1.394126057624817
1726995694851996400,9.465996337890624,-0.7899079918861389,1.2780218124389648,-1.4157077074050903
1726995694861982500,9.475982421875,-0.6808028221130371,1.3935471773147583,-1.4657964706420898
1726995694871968500,9.485968505859375,-0.5645278692245483,1.4159643650054932,-1.5057955980300903
1726995694881955300,9.495955322265624,-0.5127583146095276,1.3911209106445312,-1.5482815504074097
1726995694891941400,9.50594140625,-0.5484140515327454,1.3363971710205078,-1.5881799459457397
1726995694901927400,9.515927490234375,-0.6370823979377747,1.2413101196289062,-1.6005908250808716
1726995694911914200,9.525914306640624,-0.7308312654495239,1.107287883758545,-1.603079080581665
1726995694921900500,9.535900634765625,-0.7758578658103943,1.0002493858337402,-1.5439428091049194
1726995694931886300,9.54588623046875,-0.7898839116096497,0.9180311560630798,-1.4417411088943481
1726995694941872600,9.55587255859375,-0.786658763885498,0.8393544554710388,-1.3099459409713745
1726995694951859500,9.565859375,-0.7784698605537415,0.7431893348693848,-1.1707895994186401
1726995694961845800,9.575845703125,-0.7652520537376404,0.6664802432060242,-1.0243306159973145
1726995694971831600,9.58583154296875,-0.7304490208625793,0.48178336024284363,-0.9464317560195923
1726995694981818400,9.595818359375,-0.6918877959251404,0.30818966031074524,-0.8898056745529175
1726995694991804700,9.6058046875,-0.6319986581802368,0.20421533286571503,-0.8201935291290283
1726995695001790500,9.61579052734375,-0.5671070218086243,0.1865154355764389,-0.7735657095909119
1726995695011777500,9.625777587890624,-0.5205382108688354,0.1995745152235031,-0.8473403453826904
1726995695021763600,9.635763671875,-0.5709768533706665,0.14204761385917664,-0.8726749420166016
1726995695031749400,9.645749267578125,-0.5396212935447693,-0.03136039525270462,-0.8342463374137878
1726995695041735400,9.6557353515625,-0.4949607849121094,-0.12508516013622284,-0.8040571808815002
1726995695051722500,9.665722412109375,-0.42311614751815796,-0.2493772953748703,-0.6996359825134277
1726995695061708500,9.67570849609375,-0.3302118182182312,-0.20548786222934723,-0.5661395192146301
1726995695071694600,9.685694580078126,-0.26258429884910583,-0.1632314920425415,-0.43556469678878784
1726995695081681400,9.695681396484375,-0.22188541293144226,-0.0963875949382782,-0.3054714500904083
1726995695091667500,9.70566748046875,-0.18293775618076324,-0.057855118066072464,-0.20088058710098267
1726995695101653500,9.715653564453126,-0.16877540946006775,-0.05890700966119766,-0.09800025820732117
1726995695111639600,9.7256396484375,-0.1441321223974228,-0.05876985937356949,-0.0016827788203954697
1726995695121626600,9.735626708984375,-0.08281008154153824,-0.05056265741586685,0.08333684504032135
1726995695131612400,9.7456123046875,0.0030915159732103348,-0.08398879319429398,0.17517489194869995
1726995695141598500,9.755598388671874,0.06022113934159279,-0.1667194664478302,0.2776865065097809
1726995695151585500,9.76558544921875,0.08457814157009125,-0.27992913126945496,0.37859925627708435
1726995695161571600,9.775571533203125,0.10141436755657196,-0.40535807609558105,0.48673683404922485
1726995695171557400,9.785557373046874,0.12250447273254395,-0.5004633069038391,0.6166405081748962
1726995695181544400,9.79554443359375,0.17230966687202454,-0.5217442512512207,0.74086993932724
1726995695191530500,9.805530517578125,0.24634234607219696,-0.5268873572349548,0.7795898914337158
1726995695201516500,9.8155166015625,0.2713055908679962,-0.5852684378623962,0.7256600260734558
1726995695211502600,9.825502685546875,0.2599378824234009,-0.6233148574829102,0.6283318400382996
1726995695221489400,9.835489501953125,0.23325076699256897,-0.6212406754493713,0.5449210405349731
1726995695231475700,9.845475830078126,0.20303507149219513,-0.5973095297813416,0.48231494426727295
1726995695241461500,9.85546142578125,0.18445724248886108,-0.5812262892723083,0.4227723181247711
1726995695251448600,9.865448486328125,0.17951121926307678,-0.5457484722137451,0.3467923104763031
1726995695261434600,9.8754345703125,0.18108217418193817,-0.4703867435455322,0.28360307216644287
1726995695271420400,9.88542041015625,0.17562216520309448,-0.3802741467952728,0.2441808134317398
1726995695281407500,9.895407470703125,0.16698706150054932,-0.2614038288593292,0.23734579980373383
1726995695291393500,9.9053935546875,0.15179213881492615,-0.15842656791210175,0.2198248654603958
1726995695301379300,9.91537939453125,0.14392012357711792,-0.11857010424137115,0.1891867220401764
1726995695311366700,9.92536669921875,0.15367767214775085,-0.10260498523712158,0.1629149168729782
1726995695321352400,9.9353525390625,0.20465725660324097,-0.10989046096801758,0.14439889788627625
1726995695331338500,9.94533837890625,0.29638612270355225,-0.1841047704219818,0.10674632340669632
1726995695341324500,9.955324462890625,0.402166485786438,-0.2253984957933426,0.10594671219587326
1726995695351311400,9.965311279296875,0.5112799406051636,-0.23108941316604614,0.1427428126335144
1726995695361297700,9.975297607421876,0.6032969355583191,-0.21888509392738342,0.1948235183954239
1726995695371283500,9.985283447265624,0.6806538105010986,-0.11005953699350357,0.2593657672405243
1726995695381270500,9.9952705078125,0.7588939070701599,0.034388016909360886,0.3477349877357483
1726995695391256600,10.005256591796876,0.852125346660614,0.16167645156383514,0.45093780755996704
1726995695401242400,10.015242431640624,0.985541045665741,0.2731509208679199,0.5402113795280457
1726995695411229700,10.025229736328125,1.10573410987854,0.3617686927318573,0.5980453491210938
1726995695421215500,10.035215576171876,1.2134134769439697,0.3450583815574646,0.6020665168762207
1726995695431201500,10.045201416015624,1.3240967988967896,0.2651960551738739,0.5832579731941223
1726995695441187600,10.0551875,1.4324312210083008,0.08750982582569122,0.5019537806510925
1726995695451174400,10.06517431640625,1.5388312339782715,-0.10518159717321396,0.3926065266132355
1726995695461160400,10.075160400390626,1.6571640968322754,-0.26091399788856506,0.28939029574394226
1726995695471146500,10.085146484375,1.76365327835083,-0.36828094720840454,0.20907068252563477
1726995695481133600,10.095133544921875,1.7954992055892944,-0.5082656741142273,0.16940265893936157
1726995695491119600,10.10511962890625,1.7926830053329468,-0.6945388913154602,0.15856413543224335
1726995695501105700,10.115105712890625,1.7527371644973755,-0.8590323328971863,0.14939962327480316
1726995695511091500,10.125091552734375,1.5882019996643066,-1.129739761352539,0.16814348101615906
1726995695521078500,10.13507861328125,1.3347305059432983,-1.438093900680542,0.24677354097366333
1726995695531064600,10.145064697265624,0.9860029220581055,-1.8049882650375366,0.3577972650527954
1726995695541050400,10.15505029296875,0.5898973941802979,-2.2294809818267822,0.45159462094306946
1726995695551037400,10.165037353515626,0.17396704852581024,-2.5751712322235107,0.5008742809295654
1726995695561023500,10.1750234375,-0.1718616783618927,-2.649780511856079,0.4967819154262543
1726995695571009500,10.185009521484375,-0.4960016906261444,-2.237532615661621,0.8204824924468994
1726995695580996600,10.19499658203125,-0.6762072443962097,-1.6672842502593994,1.3843894004821777
1726995695590982400,10.204982421875,-0.7067747116088867,-1.261204719543457,1.9687052965164185
1726995695600968700,10.21496875,-0.6872873902320862,-0.9253771901130676,2.4050822257995605
1726995695610955500,10.22495556640625,-0.6884690523147583,-0.6345717310905457,2.628753662109375
1726995695620941600,10.234941650390626,-0.742729902267456,-0.35143500566482544,2.7102291584014893
1726995695630927600,10.244927734375,-0.8548734784126282,-0.14567677676677704,2.6960062980651855
1726995695640913400,10.254913330078125,-0.9657825231552124,0.06227670982480049,2.6285784244537354
1726995695650900500,10.264900390625,-1.0718451738357544,0.3083759844303131,2.4604530334472656
1726995695660886500,10.274886474609374,-1.2369824647903442,0.5247542262077332,2.225794553756714
1726995695670872600,10.28487255859375,-1.4374902248382568,0.678400456905365,1.8972482681274414
1726995695680859600,10.294859619140626,-1.6489169597625732,0.8027822375297546,1.4037755727767944
1726995695690845400,10.304845458984374,-1.7551488876342773,0.913499116897583,0.7063086628913879
1726995695700831500,10.31483154296875,-1.7402586936950684,0.8492302894592285,-0.15873172879219055
1726995695710817500,10.324817626953125,-1.6107816696166992,0.7304280400276184,-0.9351518154144287
1726995695720804400,10.334804443359374,-1.412079930305481,0.6564642190933228,-1.497066855430603
1726995695730790700,10.344790771484375,-1.1246592998504639,0.7176131010055542,-1.8057905435562134
1726995695740776400,10.3547763671875,-0.8436762094497681,0.8173097968101501,-1.911068081855774
1726995695750763500,10.364763427734376,-0.6618244051933289,0.9971085786819458,-1.8636904954910278
1726995695760749600,10.37474951171875,-0.6297451853752136,1.1612787246704102,-1.7433658838272095
1726995695770735600,10.384735595703125,-0.709874153137207,1.3131645917892456,-1.626319169998169
1726995695780722700,10.39472265625,-0.762263298034668,1.419744610786438,-1.5432425737380981
1726995695790708500,10.40470849609375,-0.7608653903007507,1.3723781108856201,-1.489227294921875
1726995695800694500,10.414694580078125,-0.7144455313682556,1.2555227279663086,-1.4614754915237427
1726995695810680600,10.4246806640625,-0.6711401343345642,1.141743779182434,-1.483046054840088
1726995695820667400,10.43466748046875,-0.6565379500389099,1.029596209526062,-1.5160478353500366
1726995695830653400,10.4446533203125,-0.6696329712867737,0.8959318399429321,-1.5252938270568848
1726995695840639500,10.454639404296875,-0.6628105044364929,0.8062573671340942,-1.5214431285858154
1726995695850626600,10.46462646484375,-0.6284903287887573,0.782225489616394,-1.4815607070922852
1726995695860612600,10.474612548828125,-0.591252863407135,0.7273030281066895,-1.4404460191726685
1726995695870598700,10.4845986328125,-0.5347253680229187,0.7072041630744934,-1.3740395307540894
1726995695880585500,10.49458544921875,-0.4853721857070923,0.7206135392189026,-1.2832443714141846
1726995695890571500,10.504571533203125,-0.44365641474723816,0.7068090438842773,-1.1907421350479126
1726995695900557600,10.5145576171875,-0.39746564626693726,0.7383426427841187,-1.0840662717819214
1726995695910544600,10.524544677734376,-0.36204665899276733,0.6378429532051086,-1.0401334762573242
1726995695920530400,10.534530517578125,-0.36499282717704773,0.5273849368095398,-1.0244488716125488
1726995695930516700,10.544516845703125,-0.36477896571159363,0.35777565836906433,-0.9824737906455994
1726995695940502500,10.55450244140625,-0.3754693865776062,0.220613032579422,-0.9404700398445129
1726995695950489900,10.56448974609375,-0.3683062791824341,0.04692458733916283,-0.884583055973053
1726995695960475600,10.5744755859375,-0.34365344047546387,-0.19064217805862427,-0.864227831363678
1726995695970461700,10.584461669921875,-0.30223941802978516,-0.3978869616985321,-0.8465290069580078
1726995695980448800,10.59444873046875,-0.22235742211341858,-0.5569031834602356,-0.7797878980636597
1726995695990434600,10.6044345703125,-0.165039524435997,-0.6137079000473022,-0.6534097194671631
1726995696000420600,10.614420654296875,-0.12034668028354645,-0.5421578288078308,-0.4894288182258606
1726995696010407700,10.62440771484375,-0.10326329618692398,-0.3616253435611725,-0.42326951026916504
1726995696020393700,10.634393798828125,-0.07827609032392502,-0.2020682692527771,-0.35304030776023865
1726995696030379500,10.644379638671875,-0.047385554760694504,-0.19289793074131012,-0.24033455550670624
1726995696040365600,10.654365478515626,-0.022314250469207764,-0.13132530450820923,-0.13533304631710052
1726995696050352600,10.6643525390625,0.004181806463748217,-0.05060995742678642,-0.04549635946750641
1726995696060338700,10.674338623046875,-0.013799954205751419,-0.06203972175717354,0.025733698159456253
1726995696070324700,10.68432470703125,-0.057716015726327896,-0.16212716698646545,0.06053401902318001
1726995696080311600,10.6943115234375,-0.10612230747938156,-0.25730738043785095,0.09936834126710892
1726995696090297600,10.704297607421875,-0.11767270416021347,-0.3059239089488983,0.11773243546485901
1726995696100283600,10.71428369140625,-0.09851863235235214,-0.35901743173599243,0.13890893757343292
1726995696110270700,10.724270751953124,-0.04906852915883064,-0.4341960549354553,0.15979665517807007
1726995696120256800,10.7342568359375,0.016724180430173874,-0.49217912554740906,0.18799805641174316
1726995696130242600,10.74424267578125,0.10627669841051102,-0.40682241320610046,0.2862769663333893
1726995696140228900,10.754228759765626,0.1135515347123146,-0.38553470373153687,0.3140527009963989
1726995696150215700,10.764215576171875,0.08491509407758713,-0.3565235435962677,0.32270053029060364
1726995696160201500,10.774201416015625,0.09412277489900589,-0.34036633372306824,0.3133203685283661
1726995696170187800,10.784187744140626,0.10282758623361588,-0.3060155510902405,0.27506035566329956
1726995696180174600,10.794174560546875,0.1077176108956337,-0.2570848762989044,0.22914928197860718
1726995696190160600,10.80416064453125,0.11835747212171555,-0.22993557155132294,0.20848822593688965
1726995696200146700,10.814146728515626,0.10988742858171463,-0.19192710518836975,0.22249290347099304
1726995696210133500,10.824133544921875,0.07885494083166122,-0.15464231371879578,0.2551525831222534
1726995696220119800,10.834119873046875,0.06117767468094826,-0.16350355744361877,0.2875383496284485
1726995696230105600,10.844105712890626,0.07090912759304047,-0.25073859095573425,0.3004125952720642
1726995696240091600,10.854091552734374,0.10973931849002838,-0.28356504440307617,0.30087462067604065
1726995696250078700,10.86407861328125,0.17485228180885315,-0.30489644408226013,0.28894367814064026
1726995696260064500,10.874064453125,0.2704779803752899,-0.3225371241569519,0.2819644510746002
1726995696270050800,10.88405078125,0.372307151556015,-0.29721978306770325,0.2964504361152649
1726995696280037600,10.89403759765625,0.4693962633609772,-0.2201756089925766,0.35320937633514404
1726995696290023700,10.904023681640625,0.5784394145011902,-0.04013339802622795,0.43717217445373535
1726995696300009700,10.914009765625,0.7159153819084167,0.04033144190907478,0.5296223163604736
1726995696309996500,10.92399658203125,0.9062197804450989,0.155708909034729,0.6617201566696167
1726995696319982800,10.93398291015625,1.1178607940673828,0.24369552731513977,0.8156645894050598
1726995696329968600,10.94396875,1.3034498691558838,0.23282290995121002,0.9153435230255127
1726995696339954700,10.95395458984375,1.447651982307434,0.10215689986944199,0.9460947513580322
1726995696349941800,10.963941650390625,1.581740379333496,-0.09327251464128494,0.9096161127090454
1726995696359927600,10.973927490234376,1.709183931350708,-0.3433665633201599,0.7907663583755493
1726995696369913600,10.98391357421875,1.8506438732147217,-0.5451111197471619,0.6250490546226501
1726995696379900700,10.993900634765625,1.9667690992355347,-0.5848562717437744,0.4990638196468353
1726995696389886700,11.00388671875,2.0574111938476562,-0.5456356406211853,0.4284365177154541
1726995696399872500,11.01387255859375,2.0799970626831055,-0.5990818738937378,0.3825312554836273
1726995696409859600,11.023859619140625,2.0503640174865723,-0.7807478308677673,0.3878210783004761
1726995696419845600,11.033845703125,1.9275529384613037,-0.9932113289833069,0.41606274247169495
1726995696429831700,11.043831787109376,1.7167201042175293,-1.2636702060699463,0.42523306608200073
1726995696439817700,11.053817626953125,1.3907500505447388,-1.617235779762268,0.44115981459617615
1726995696449804500,11.063804443359375,0.9738375544548035,-2.024489164352417,0.5209504961967468
1726995696459790600,11.07379052734375,0.5186231732368469,-2.4211244583129883,0.6199225187301636
1726995696469776600,11.083776611328124,0.07943969964981079,-2.5868489742279053,0.6969065070152283
1726995696479763700,11.093763671875,-0.29845568537712097,-2.446748971939087,0.7295046448707581
1726995696489749800,11.103749755859376,-0.6068236231803894,-2.0364890098571777,0.8973615169525146
1726995696499735600,11.113735595703124,-0.8054379224777222,-1.369444727897644,1.603955864906311
1726995696509722600,11.12372265625,-0.8541870713233948,-1.0892157554626465,2.254594326019287
1726995696519708700,11.133708740234376,-0.872282087802887,-0.7878862619400024,2.707879066467285
1726995696529694500,11.143694580078124,-0.8899825215339661,-0.43534713983535767,2.942650556564331
1726995696539680800,11.1536806640625,-0.947945237159729,-0.16205725073814392,3.01059889793396
1726995696549667600,11.16366748046875,-1.0498970746994019,0.09878286719322205,2.9237496852874756
1726995696559653600,11.173653564453126,-1.1968588829040527,0.3474276661872864,2.6968250274658203
1726995696569639700,11.1836396484375,-1.3797152042388916,0.5100619196891785,2.361778736114502
1726995696579626500,11.19362646484375,-1.5912455320358276,0.70013827085495,1.8946287631988525
1726995696589612800,11.20361279296875,-1.6504827737808228,0.8487775325775146,1.210692286491394
1726995696599598600,11.2135986328125,-1.5742416381835938,0.7976648807525635,0.3179788887500763
1726995696609585700,11.223585693359375,-1.43546462059021,0.6425328254699707,-0.5950794816017151
1726995696619571700,11.23357177734375,-1.270209789276123,0.6463771462440491,-1.3782395124435425
1726995696629557500,11.2435576171875,-1.0671885013580322,0.8280113935470581,-1.8746196031570435
1726995696639543600,11.25354345703125,-0.8999731540679932,0.9803213477134705,-2.053415536880493
1726995696649530600,11.263530517578126,-0.8256072998046875,1.098021388053894,-2.031022310256958
1726995696659516700,11.2735166015625,-0.8584126234054565,1.2589589357376099,-1.941048502922058
1726995696669502700,11.283502685546875,-0.8951152563095093,1.3609936237335205,-1.823743462562561
1726995696679489500,11.293489501953125,-0.8739545345306396,1.3863019943237305,-1.7162730693817139
1726995696689475600,11.3034755859375,-0.8046590685844421,1.3405377864837646,-1.6403112411499023
1726995696699461600,11.313461669921875,-0.7147328853607178,1.2845680713653564,-1.6060266494750977
1726995696709448400,11.323448486328125,-0.6466861963272095,1.2230274677276611,-1.6057462692260742
1726995696719434800,11.333434814453126,-0.5932842493057251,1.1298314332962036,-1.602310061454773
1726995696729420500,11.343420654296875,-0.5831496119499207,1.020058035850525,-1.5749703645706177
1726995696739406600,11.353406494140625,-0.6024794578552246,0.913422703742981,-1.5120495557785034
1726995696749393700,11.3633935546875,-0.6530608534812927,0.7963607907295227,-1.4321904182434082
1726995696759379700,11.373379638671874,-0.6721231341362,0.72751784324646,-1.350560188293457
1726995696769365500,11.383365478515625,-0.6844498515129089,0.6383626461029053,-1.267615795135498
1726995696779352600,11.3933525390625,-0.6953051686286926,0.6231663227081299,-1.1661641597747803
1726995696789338600,11.403338623046874,-0.6761101484298706,0.6757832169532776,-1.0394272804260254
1726995696799324700,11.41332470703125,-0.6449442505836487,0.7871677875518799,-0.9290364980697632
1726995696809311700,11.423311767578125,-0.5870809555053711,0.8493637442588806,-0.8659304976463318
1726995696819297500,11.433297607421874,-0.537205159664154,0.8072729110717773,-0.8322675824165344
1726995696829283800,11.443283935546875,-0.4992882013320923,0.7212077975273132,-0.8292446732521057
1726995696839270700,11.453270751953125,-0.4352748692035675,0.5975431799888611,-0.8418976664543152
1726995696849256700,11.463256591796876,-0.40227246284484863,0.6365997195243835,-0.8252132534980774
1726995696859242800,11.47324267578125,-0.40371111035346985,0.7307637929916382,-0.7975816130638123
1726995696869228500,11.483228515625,-0.40080586075782776,0.5580652356147766,-0.7433769702911377
1726995696879215600,11.493215576171876,-0.3708958923816681,0.33454641699790955,-0.7664732336997986
1726995696889201700,11.50320166015625,-0.3046191334724426,0.25215139985084534,-0.7494588494300842
1726995696899187500,11.5131875,-0.27721962332725525,0.12343543767929077,-0.6765829920768738
1726995696909174800,11.5231748046875,-0.25803473591804504,-0.04927295073866844,-0.5673382878303528
1726995696919160600,11.53316064453125,-0.2485913783311844,-0.2057441622018814,-0.4402560293674469
1726995696929147000,11.54314697265625,-0.2220045030117035,-0.3516952395439148,-0.34238430857658386
1726995696939134200,11.55313427734375,-0.17903797328472137,-0.4781862199306488,-0.26998817920684814
1726995696949120000,11.5631201171875,-0.09721686691045761,-0.582286536693573,-0.19216209650039673
1726995696959106000,11.57310595703125,0.015010599046945572,-0.6876997947692871,-0.11340177804231644
1726995696969092000,11.583092041015625,0.12995769083499908,-0.696744441986084,-0.04554709419608116
1726995696979079000,11.593078857421874,0.22373569011688232,-0.7317211031913757,0.03825703263282776
1726995696989065200,11.603065185546875,0.2749149799346924,-0.669983446598053,0.1350323110818863
1726995696999051000,11.613051025390625,0.23148952424526215,-0.5391311645507812,0.25387755036354065
1726995697009038000,11.6230380859375,0.18610180914402008,-0.4157804846763611,0.3420984745025635
1726995697019024100,11.633024169921875,0.22930708527565002,-0.2508185803890228,0.4326866865158081
1726995697029010200,11.64301025390625,0.22926980257034302,-0.2940550148487091,0.41554099321365356
1726995697038997200,11.652997314453126,0.23948346078395844,-0.35382845997810364,0.3507382273674011
1726995697048983000,11.662983154296874,0.2610902190208435,-0.40923553705215454,0.31787827610969543
1726995697058969000,11.672968994140625,0.27310800552368164,-0.4747014343738556,0.2782721221446991
1726995697068955100,11.682955078125,0.2600926160812378,-0.5490835309028625,0.242868572473526
1726995697078942000,11.69294189453125,0.23396500945091248,-0.5653780102729797,0.2421761006116867
1726995697088928000,11.702927978515625,0.2105395793914795,-0.5661327242851257,0.2511373460292816
1726995697098914000,11.7129140625,0.2001314014196396,-0.5650835633277893,0.23531854152679443
1726995697108901000,11.722901123046874,0.20772700011730194,-0.5769908428192139,0.18266679346561432
1726995697118887000,11.732886962890625,0.21022799611091614,-0.554023027420044,0.12134822458028793
1726995697128873200,11.742873291015625,0.21311114728450775,-0.4945075213909149,0.05256276950240135
1726995697138860000,11.752860107421874,0.22345232963562012,-0.3950693607330322,-0.030323892831802368
1726995697148846000,11.76284619140625,0.24410594999790192,-0.30582496523857117,-0.11529310792684555
1726995697158832000,11.77283203125,0.27046820521354675,-0.23674286901950836,-0.17790253460407257
1726995697168818000,11.78281787109375,0.3033912777900696,-0.17759034037590027,-0.2241230309009552
1726995697178805000,11.792804931640624,0.3449120819568634,-0.11520805954933167,-0.2509766221046448
1726995697188791000,11.802791015625,0.4044824540615082,-0.051842931658029556,-0.27303051948547363
1726995697198777000,11.812777099609375,0.459198534488678,0.010125169530510902,-0.28952208161354065
1726995697208764200,11.82276416015625,0.5616313815116882,0.13754570484161377,-0.26488012075424194
1726995697218750000,11.83275,0.723203718662262,0.40065670013427734,-0.17000404000282288
1726995697228736300,11.842736328125,0.9589358568191528,0.7169139981269836,0.005984830670058727
1726995697238723000,11.85272314453125,1.1930662393569946,0.8286309838294983,0.12485650181770325
1726995697248708900,11.862708984375,1.4036223888397217,0.7931965589523315,0.19792672991752625
1726995697258695200,11.872695068359375,1.5862048864364624,0.6233205199241638,0.19177162647247314
1726995697268681000,11.882680908203126,1.7300118207931519,0.33514702320098877,0.10885542631149292
1726995697278668300,11.892668212890625,1.861688494682312,-0.0006996559677645564,-0.03010861761868
1726995697288654000,11.902654052734375,2.0008676052093506,-0.24597997963428497,-0.15771052241325378
1726995697298640100,11.91264013671875,2.061541795730591,-0.43851542472839355,-0.23965376615524292
1726995697308627200,11.922627197265625,2.0876352787017822,-0.6974852085113525,-0.2900785803794861
1726995697318613000,11.932613037109375,2.0709097385406494,-1.0439099073410034,-0.2694287896156311
1726995697328599000,11.94259912109375,1.9345945119857788,-1.3269789218902588,-0.1963183879852295
1726995697338586000,11.952586181640624,1.7137451171875,-1.5828654766082764,-0.08978710323572159
1726995697348572000,11.962572021484375,1.4205262660980225,-1.8945757150650024,0.0900372564792633
1726995697358558200,11.97255810546875,1.0648711919784546,-2.302570343017578,0.2547627091407776
1726995697368544000,11.9825439453125,0.6191741228103638,-2.682999849319458,0.40004053711891174
1726995697378531000,11.992531005859375,0.25853434205055237,-2.949960947036743,0.4752703905105591
1726995697388517000,12.00251708984375,-0.029515312984585762,-2.634591817855835,0.5895468592643738
1726995697398503200,12.012503173828126,-0.40936240553855896,-1.9134023189544678,1.0009794235229492
1726995697408490200,12.022490234375,-0.5883452296257019,-1.1401811838150024,1.5934520959854126
1726995697418476000,12.03247607421875,-0.6906251311302185,-0.6884292960166931,2.2699503898620605
1726995697428462000,12.042462158203126,-0.8801157474517822,-0.5759424567222595,2.856365442276001
1726995697438449200,12.05244921875,-1.0421406030654907,-0.46874764561653137,3.1704931259155273
1726995697448435000,12.06243505859375,-1.144768476486206,-0.07778336107730865,3.2602083683013916
1726995697458421000,12.0724208984375,-1.3003177642822266,0.13082270324230194,3.2436790466308594
1726995697468407000,12.082406982421874,-1.496950626373291,0.26355117559432983,3.1352875232696533
1726995697478394000,12.09239404296875,-1.70350182056427,0.3997756838798523,2.9836719036102295
1726995697488380000,12.1023798828125,-2.002049446105957,0.5076014995574951,2.688559055328369
1726995697498366200,12.1123662109375,-2.11635160446167,0.8258731961250305,2.058852434158325
1726995697508353000,12.12235302734375,-1.9035707712173462,1.0221772193908691,0.9775270819664001
1726995697518339000,12.132339111328125,-1.4184833765029907,0.9682065844535828,-0.3522140383720398
1726995697528325000,12.1423251953125,-1.0104269981384277,0.895637571811676,-1.4029924869537354
1726995697538312000,12.15231201171875,-0.7472396492958069,0.9676157236099243,-1.9916383028030396
1726995697548298200,12.16229833984375,-0.6397006511688232,1.192254662513733,-2.159806489944458
1726995697558284000,12.172283935546876,-0.6004322171211243,1.3136465549468994,-2.080232858657837
1726995697568271000,12.18227099609375,-0.6161645650863647,1.4173167943954468,-1.9028232097625732
1726995697578257200,12.192257080078125,-0.677697479724884,1.4201167821884155,-1.7180684804916382
1726995697588243000,12.202242919921876,-0.7816465497016907,1.345012903213501,-1.5732288360595703
1726995697598229200,12.212229248046874,-0.8931087255477905,1.2054078578948975,-1.4880772829055786
1726995697608216000,12.222216064453125,-0.9982303380966187,1.0083699226379395,-1.4519256353378296
1726995697618201900,12.232201904296875,-1.0189570188522339,0.8839710354804993,-1.4990742206573486
1726995697628188200,12.242188232421874,-0.9420454502105713,0.7724764347076416,-1.5643885135650635
1726995697638175000,12.252175048828125,-0.8490338921546936,0.7003529071807861,-1.5921474695205688
1726995697648161300,12.262161376953125,-0.7931365370750427,0.6871838569641113,-1.555907964706421
1726995697658147000,12.27214697265625,-0.7500869035720825,0.7514488101005554,-1.4962893724441528
1726995697668134000,12.2821337890625,-0.712620735168457,0.7766013145446777,-1.4315545558929443
1726995697678120200,12.2921201171875,-0.688817024230957,0.7893999218940735,-1.370073914527893
1726995697688106000,12.30210595703125,-0.6593965291976929,0.8111989498138428,-1.2784239053726196
1726995697698092000,12.312092041015624,-0.6424091458320618,0.8360195159912109,-1.1751892566680908
1726995697708079000,12.3220791015625,-0.602713942527771,0.7792313098907471,-1.0806635618209839
1726995697718065000,12.33206494140625,-0.5830095410346985,0.6907262206077576,-0.9896968007087708
1726995697728051200,12.34205126953125,-0.5593934059143066,0.6115714907646179,-0.893532931804657
1726995697738038000,12.3520380859375,-0.5272781252861023,0.43879833817481995,-0.8229759931564331
1726995697748024000,12.362024169921876,-0.47342848777770996,0.23940400779247284,-0.7855069041252136
1726995697758010000,12.372010009765624,-0.39434170722961426,0.09249313175678253,-0.7556337714195251
1726995697767997000,12.381996826171875,-0.320841908454895,0.010053381323814392,-0.69752037525177
1726995697777983000,12.39198291015625,-0.2467612326145172,-0.1140444353222847,-0.654410719871521
1726995697787969000,12.401968994140624,-0.17383748292922974,-0.2550036907196045,-0.6391012668609619
