time,seconds_elapsed,z,y,x
1726995685397476000,0.01147607421875,-0.12231419235467911,-1.0621427297592163,2.043735980987549
1726995685407463400,0.02146337890625,-0.04647322744131088,-1.068769097328186,2.0305750370025635
1726995685417449200,0.03144921875,0.08638442307710648,-1.0515060424804688,2.007175922393799
1726995685427435300,0.041435302734375,0.2692170739173889,-0.9051586389541626,2.0098743438720703
1726995685437422300,0.05142236328125,0.45932736992836,-0.6774168014526367,2.0097997188568115
1726995685447408000,0.061408203125,0.6066926121711731,-0.49305951595306396,1.9591690301895142
1726995685457394400,0.07139453125,0.7033426761627197,-0.4066503047943115,1.8583178520202637
1726995685467380200,0.081380126953125,0.8049002289772034,-0.43278712034225464,1.7160158157348633
1726995685477367000,0.091366943359375,0.9831980466842651,-0.6053754091262817,1.5698060989379883
1726995685487353300,0.101353271484375,1.2522656917572021,-0.8753339052200317,1.5283503532409668
1726995685497339100,0.111339111328125,1.5500478744506836,-1.2329671382904053,1.6337525844573975
1726995685507325200,0.1213251953125,1.7471580505371094,-1.6098054647445679,1.8941000699996948
1726995685517312300,0.131312255859375,1.811904788017273,-1.9051120281219482,2.269913673400879
1726995685527298300,0.14129833984375,1.7711172103881836,-2.038933753967285,2.706247091293335
1726995685537284400,0.151284423828125,1.6639121770858765,-2.1296799182891846,3.079441547393799
1726995685547270400,0.1612705078125,1.628456473350525,-2.315058708190918,3.2623214721679688
1726995685557257200,0.17125732421875,1.5214735269546509,-2.7568349838256836,3.1836190223693848
1726995685567243300,0.1812431640625,1.3325879573822021,-3.3370776176452637,3.0813755989074707
1726995685577229300,0.191229248046875,1.181223750114441,-4.005779266357422,3.0473031997680664
1726995685587216400,0.20121630859375,1.0475701093673706,-4.9312520027160645,3.1185600757598877
1726995685597202200,0.2112021484375,1.0437359809875488,-5.565279006958008,3.2584340572357178
1726995685607188200,0.221188232421875,1.339077353477478,-5.784136772155762,3.417527437210083
1726995685617174300,0.23117431640625,1.7078367471694946,-5.381077766418457,3.5339815616607666
1726995685627161300,0.241161376953125,2.0682482719421387,-4.2534098625183105,3.514859676361084
1726995685637147100,0.251147216796875,2.3712053298950195,-3.3606786727905273,3.3890860080718994
1726995685647133400,0.261133544921875,2.582275629043579,-2.761711597442627,3.2156927585601807
1726995685657119200,0.271119140625,2.764418601989746,-2.2977023124694824,2.8753442764282227
1726995685667106300,0.281106201171875,2.94069504737854,-1.8222514390945435,2.294642448425293
1726995685677092400,0.29109228515625,2.7458813190460205,-1.3231425285339355,1.7922818660736084
1726995685687078100,0.301078125,2.4082789421081543,-1.2991701364517212,1.3573676347732544
1726995685697064200,0.311064208984375,2.900322914123535,-1.3512903451919556,0.8323898911476135
1726995685707051300,0.32105126953125,3.1589772701263428,-1.276908278465271,0.27568724751472473
1726995685717037300,0.331037353515625,3.191230297088623,-1.2897460460662842,-0.30570825934410095
1726995685727023400,0.3410234375,3.4393837451934814,-1.125174880027771,-0.6533317565917969
1726995685737010200,0.35101025390625,3.8753280639648438,-1.1038246154785156,-0.8168367743492126
1726995685746996200,0.360996337890625,4.0723185539245605,-1.7658175230026245,-0.6490933299064636
1726995685756982300,0.370982177734375,4.068326473236084,-2.356313943862915,-0.37713396549224854
1726995685766968300,0.38096826171875,3.865975856781006,-2.5918965339660645,0.0330817885696888
1726995685776955400,0.390955322265625,3.493488311767578,-2.9447081089019775,0.4058939814567566
1726995685786941200,0.400941162109375,3.222440242767334,-2.8824737071990967,0.5207201838493347
1726995685796927200,0.41092724609375,2.7848384380340576,-2.8260133266448975,0.4972608983516693
1726995685806913300,0.420913330078125,2.294184923171997,-3.009679079055786,0.3594609498977661
1726995685816900400,0.430900390625,1.9437294006347656,-2.976637125015259,0.15539199113845825
1726995685826886100,0.44088623046875,1.8585766553878784,-3.3370306491851807,-0.03476330637931824
1726995685836872400,0.45087255859375,1.9436708688735962,-4.070376873016357,-0.0184067040681839
1726995685846859300,0.460859375,2.2189950942993164,-5.002574443817139,0.12661918997764587
1726995685856845300,0.47084521484375,2.4298806190490723,-5.2529497146606445,0.21656133234500885
1726995685866831400,0.480831298828125,2.382840633392334,-4.701096534729004,0.28908559679985046
1726995685876817200,0.490817138671875,2.1419837474823,-3.9192912578582764,0.2732320725917816
1726995685886804200,0.50080419921875,1.824136734008789,-3.3863823413848877,0.18995928764343262
1726995685896790300,0.510790283203125,1.657828688621521,-3.338057279586792,0.05607498809695244
1726995685906776000,0.520776123046875,1.5911537408828735,-3.428445816040039,0.08144506067037582
1726995685916762400,0.530762451171875,1.6266193389892578,-3.1652870178222656,0.20859581232070923
1726995685926750200,0.540750244140625,1.401789665222168,-2.9916257858276367,0.2922859191894531
1726995685936736000,0.550736083984375,0.8524094223976135,-2.8999500274658203,0.5167475342750549
1726995685946722000,0.56072216796875,0.1413310319185257,-2.9116318225860596,0.8592414855957031
1726995685956709000,0.570709228515625,-0.4538865387439728,-3.080961227416992,1.2517986297607422
1726995685966695200,0.580695068359375,-0.8283107280731201,-3.119880437850952,1.6583682298660278
1726995685976681200,0.59068115234375,-0.8231133222579956,-2.686121940612793,1.6662181615829468
1726995685986667300,0.600667236328125,-0.8519103527069092,-2.4753644466400146,1.3212271928787231
1726995685996654000,0.610654052734375,-0.8941129446029663,-2.0516700744628906,0.682850182056427
1726995686006640000,0.62064013671875,-0.5082062482833862,-1.4399330615997314,0.07587425410747528
1726995686016626200,0.630626220703125,-0.3668358027935028,-0.9577603340148926,-0.2520783245563507
1726995686026612000,0.640612060546875,-0.7905489802360535,-0.8684336543083191,-0.2378746122121811
1726995686036599000,0.65059912109375,-1.375114917755127,-1.1190024614334106,0.05977145582437515
1726995686046585000,0.660585205078125,-1.5543270111083984,-1.196005940437317,0.490634948015213
1726995686056571100,0.670571044921875,-0.5119940638542175,-0.8194022178649902,1.13205087184906
1726995686066558200,0.68055810546875,0.6200496554374695,-0.7572099566459656,1.2716623544692993
1726995686076544000,0.6905439453125,0.9406862854957581,-0.2998426556587219,0.8014394640922546
1726995686086530300,0.7005302734375,0.7609050869941711,0.2704205811023712,0.06602668762207031
1726995686096516000,0.71051611328125,0.43395569920539856,0.7487764954566956,-0.6128594279289246
1726995686106503200,0.720503173828125,-0.08410529047250748,1.3230717182159424,-0.8450721502304077
1726995686116489200,0.7304892578125,-0.6116535067558289,1.093549370765686,-0.8592649102210999
1726995686126475000,0.74047509765625,-0.7206700444221497,0.35334980487823486,-0.5319240689277649
1726995686136462300,0.75046240234375,-0.7978963851928711,-0.173566997051239,-0.10355328768491745
1726995686146448100,0.7604482421875,-0.7195778489112854,-0.18367183208465576,0.25382134318351746
1726995686156434200,0.77043408203125,-0.4185812771320343,-0.2823464870452881,0.6309720873832703
1726995686166420200,0.780420166015625,-0.2537827491760254,-0.25868189334869385,0.9263632893562317
1726995686176407000,0.790406982421875,-0.13352477550506592,0.7866532802581787,1.1815004348754883
1726995686186393300,0.800393310546875,-0.05522037670016289,1.4202712774276733,1.2422761917114258
1726995686196379100,0.810379150390625,0.006671485025435686,1.5238062143325806,1.2806587219238281
1726995686206365200,0.820365234375,-0.013953632675111294,1.8131849765777588,1.4880234003067017
1726995686216352300,0.830352294921875,0.12838007509708405,2.066977024078369,1.7006560564041138
1726995686226338000,0.840338134765625,-0.03196033090353012,2.7208690643310547,1.8001551628112793
1726995686236324000,0.850323974609375,-0.2617383897304535,3.145165205001831,1.563462495803833
1726995686246311200,0.860311279296875,-0.5052562355995178,3.1651651859283447,1.0944366455078125
1726995686256297200,0.870297119140625,-0.8042171001434326,2.803389310836792,0.4747079312801361
1726995686266283000,0.880282958984375,-1.143932819366455,2.2361791133880615,-0.08837833255529404
1726995686276269300,0.890269287109375,-1.5223041772842407,1.5053770542144775,-0.47182559967041016
1726995686286256000,0.900256103515625,-1.6852099895477295,0.9067139029502869,-0.6637489795684814
1726995686296242200,0.9102421875,-1.7611063718795776,0.703325629234314,-0.861266553401947
1726995686306228200,0.920228271484375,-1.7457228899002075,0.7454440593719482,-1.0382405519485474
1726995686316215000,0.930215087890625,-1.6540794372558594,0.8412542343139648,-0.9706063866615295
1726995686326201000,0.940201171875,-1.2847176790237427,0.8958095908164978,-0.682175874710083
1726995686336187100,0.950187255859375,-0.7586624026298523,0.765929102897644,-0.35643455386161804
1726995686346174200,0.96017431640625,-0.19667284190654755,0.590564489364624,-0.25630661845207214
1726995686356160300,0.97016015625,0.16048261523246765,0.4259324073791504,-0.42934417724609375
1726995686366146000,0.98014599609375,0.2744547128677368,0.2922699451446533,-0.6417296528816223
1726995686376132400,0.99013232421875,0.295729398727417,0.18321563303470612,-0.7860484719276428
1726995686386119200,1.000119140625,0.32565373182296753,0.1410956084728241,-0.8763245940208435
1726995686396105000,1.01010498046875,0.3416502773761749,0.13287335634231567,-0.8949949741363525
1726995686406091300,1.02009130859375,0.3302396833896637,0.12236133217811584,-0.8584814071655273
1726995686416078000,1.030078125,0.279331773519516,0.0900111123919487,-0.8008602261543274
1726995686426064100,1.040064208984375,0.2067134976387024,0.07005738466978073,-0.7335847616195679
1726995686436050200,1.05005029296875,0.12115439027547836,0.09388361871242523,-0.647347629070282
1726995686446036200,1.0600361328125,0.024119185283780098,0.1927071362733841,-0.5419144034385681
1726995686456023300,1.070023193359375,-0.08279554545879364,0.3551461100578308,-0.4303079843521118
1726995686466009000,1.080009033203125,-0.1629316657781601,0.4983448088169098,-0.32358551025390625
1726995686475995100,1.0899951171875,-0.220229834318161,0.6035508513450623,-0.2409747987985611
1726995686485981200,1.099981201171875,-0.2513193190097809,0.6575190424919128,-0.17239201068878174
1726995686495968000,1.109968017578125,-0.2516553997993469,0.6763662099838257,-0.11991921067237854
1726995686505954300,1.119954345703125,-0.24534398317337036,0.7150166630744934,-0.06570950150489807
1726995686515940000,1.129940185546875,-0.23556512594223022,0.6929638385772705,0.06197149306535721
1726995686525927200,1.13992724609375,-0.2027888000011444,0.6594442129135132,0.20323380827903748
1726995686535913200,1.149913330078125,-0.14875298738479614,0.6592857837677002,0.3105112612247467
1726995686545899300,1.159899169921875,-0.07565188407897949,0.6232491731643677,0.3668555021286011
1726995686555886300,1.16988623046875,-0.043109919875860214,0.5844472050666809,0.36755749583244324
1726995686565872000,1.1798720703125,-0.059542689472436905,0.5338727235794067,0.383522093296051
1726995686575858200,1.189858154296875,-0.09979183971881866,0.5067393779754639,0.3910521864891052
1726995686585844000,1.199843994140625,-0.10969240963459015,0.49138757586479187,0.38601186871528625
1726995686595831000,1.2098310546875,-0.07323719561100006,0.44865289330482483,0.3962043225765228
1726995686605817000,1.219817138671875,-0.0075609805062413216,0.3918199837207794,0.41790056228637695
1726995686615803100,1.22980322265625,0.05943669378757477,0.3480208218097687,0.4442794620990753
1726995686625789200,1.2397890625,0.10512242466211319,0.3162466585636139,0.49387630820274353
1726995686635776000,1.24977587890625,0.13991768658161163,0.32262250781059265,0.557312548160553
1726995686645762300,1.25976220703125,0.16257639229297638,0.36463069915771484,0.6156194806098938
1726995686655748000,1.269748046875,0.17323224246501923,0.39382001757621765,0.654374897480011
1726995686665735200,1.279735107421875,0.16358838975429535,0.3983396589756012,0.677470862865448
1726995686675721200,1.28972119140625,0.15519145131111145,0.37295040488243103,0.6833527684211731
1726995686685707000,1.29970703125,0.15942694246768951,0.3477875292301178,0.6648219227790833
1726995686695693300,1.309693359375,0.19835622608661652,0.2858751714229584,0.6178616285324097
1726995686705680100,1.31968017578125,0.27224111557006836,0.20273952186107635,0.5340501070022583
1726995686715666200,1.329666259765625,0.3549538254737854,0.10294289141893387,0.4249294400215149
1726995686725652200,1.33965234375,0.4057312607765198,0.02767716720700264,0.2995281219482422
1726995686735639000,1.34963916015625,0.43590059876441956,-0.003233876544982195,0.19500517845153809
1726995686745625300,1.359625244140625,0.43139320611953735,0.02002670429646969,0.07600235939025879
1726995686755611100,1.369611083984375,0.40045714378356934,0.027043068781495094,-0.037585459649562836
1726995686765598000,1.379597900390625,0.35747265815734863,0.04190164431929588,-0.12552542984485626
1726995686775584300,1.389584228515625,0.3545602262020111,0.03831010311841965,-0.16879834234714508
1726995686785570000,1.399570068359375,0.40175142884254456,0.03278191387653351,-0.18304544687271118
1726995686795556000,1.40955615234375,0.45761629939079285,0.020729247480630875,-0.15282602608203888
1726995686805543200,1.419543212890625,0.5039270520210266,0.055958341807127,-0.10248775780200958
1726995686815529200,1.429529296875,0.5247609615325928,0.11990270018577576,-0.04032798111438751
1726995686825515000,1.439514892578125,0.5160553455352783,0.17679794132709503,0.003439206164330244
1726995686835502000,1.449502197265625,0.45651721954345703,0.2200665920972824,0.02002803608775139
1726995686845488000,1.459488037109375,0.36465200781822205,0.24906547367572784,0.010927748866379261
1726995686855474200,1.46947412109375,0.2760920524597168,0.2556522786617279,-0.02760899066925049
1726995686865460200,1.479460205078125,0.18607479333877563,0.20501014590263367,-0.0935046523809433
1726995686875447000,1.489447021484375,0.13517992198467255,0.1280042976140976,-0.157279372215271
1726995686885433000,1.49943310546875,0.15936888754367828,0.06290093809366226,-0.2125258445739746
1726995686895419100,1.509419189453125,0.2175496369600296,0.038604382425546646,-0.2497325986623764
1726995686905406200,1.51940625,0.22850960493087769,0.04930123686790466,-0.28050968050956726
1726995686915392300,1.529392333984375,0.18210987746715546,0.04271097853779793,-0.3336578607559204
1726995686925377800,1.539377685546875,0.13463370501995087,0.03357953205704689,-0.43211865425109863
1726995686935363800,1.54936376953125,0.11625710129737854,0.07400977611541748,-0.5336423516273499
1726995686945351000,1.559350830078125,0.13170982897281647,0.18887777626514435,-0.6327537298202515
1726995686955336700,1.569336669921875,0.19989393651485443,0.30493593215942383,-0.6715940833091736
1726995686965322800,1.57932275390625,0.24909424781799316,0.3938048183917999,-0.6593683362007141
1726995686975309800,1.589309814453125,0.26328757405281067,0.4574117660522461,-0.6218925714492798
1726995686985296000,1.5992958984375,0.31276988983154297,0.5864275097846985,-0.5828596949577332
1726995686995281700,1.60928173828125,0.42795002460479736,0.7173053622245789,-0.5518386363983154
1726995687005268000,1.61926806640625,0.5921514630317688,0.719517171382904,-0.4639516770839691
1726995687015254800,1.6292548828125,0.7797074913978577,0.7221619486808777,-0.347322016954422
1726995687025240600,1.639240478515625,1.006438136100769,0.8830152750015259,-0.25071823596954346
1726995687035227000,1.649226806640625,1.3242698907852173,1.0724952220916748,-0.15953826904296875
1726995687045212700,1.659212646484375,1.6216800212860107,1.3811733722686768,-0.08832613378763199
1726995687055199700,1.66919970703125,1.9403871297836304,1.6461763381958008,-0.12949727475643158
1726995687065185800,1.679185791015625,2.4073617458343506,1.73367178440094,-0.293977826833725
1726995687075171600,1.689171630859375,2.878166913986206,1.6616636514663696,-0.5955874919891357
1726995687085159000,1.699158935546875,3.203930377960205,1.3171252012252808,-0.9738466143608093
1726995687095144700,1.709144775390625,3.3267407417297363,0.8594052791595459,-1.3017723560333252
1726995687105130800,1.719130859375,3.2463321685791016,0.40747082233428955,-1.5033410787582397
1726995687115117800,1.729117919921875,3.0376088619232178,-0.05180780217051506,-1.5428248643875122
1726995687125103600,1.739103515625,2.7944419384002686,-0.47239282727241516,-1.467908501625061
1726995687135090000,1.74908984375,2.4458093643188477,-0.9545661211013794,-1.3263567686080933
1726995687145075700,1.75907568359375,2.023764133453369,-1.5500071048736572,-1.0682644844055176
1726995687155062800,1.769062744140625,1.568099021911621,-1.985826849937439,-0.7189218997955322
1726995687165048800,1.779048828125,1.071388602256775,-2.0616962909698486,-0.30155158042907715
1726995687175035000,1.789034912109375,0.5299807786941528,-1.8667962551116943,0.13872112333774567
1726995687185022000,1.79902197265625,-0.1389371156692505,-1.4150272607803345,0.6013082265853882
1726995687195007700,1.8090078125,-0.9400923848152161,-0.9587611556053162,1.1119587421417236
1726995687204993800,1.818993896484375,-1.8162214756011963,-0.6217753887176514,1.6234427690505981
1726995687214979800,1.828979736328125,-2.4783263206481934,-0.2932819426059723,2.1230530738830566
1726995687224966700,1.838966552734375,-2.7180347442626953,0.0026698189321905375,2.4925129413604736
1726995687234952700,1.84895263671875,-2.7796273231506348,0.11360086500644684,2.6790246963500977
1726995687244938800,1.858938720703125,-2.4606857299804688,0.29246169328689575,2.6143009662628174
1726995687254924800,1.8689248046875,-1.5617133378982544,0.190638929605484,2.1533946990966797
1726995687264912000,1.878911865234375,-0.49750351905822754,-0.2562884986400604,1.6312655210494995
1726995687274898000,1.88889794921875,0.28781846165657043,-0.42826345562934875,1.0708434581756592
1726995687284883700,1.8988837890625,0.4116528034210205,-0.4740019142627716,0.6682382225990295
1726995687294870800,1.908870849609375,0.22320511937141418,-0.5921738147735596,0.40280789136886597
1726995687304856800,1.91885693359375,-0.0014559502014890313,-0.818002462387085,0.20334406197071075
1726995687314842600,1.928842529296875,-0.20944057404994965,-0.8941915035247803,0.07924395799636841
1726995687324829700,1.93882958984375,-0.35488566756248474,-0.7137748599052429,0.08063066005706787
1726995687334815700,1.948815673828125,-0.3445912003517151,-0.3366038501262665,0.22313109040260315
1726995687344801800,1.9588017578125,-0.19388984143733978,-0.0312199704349041,0.38976800441741943
1726995687354787800,1.968787841796875,-0.00008096009696600959,0.19522355496883392,0.4406743347644806
1726995687364774700,1.978774658203125,0.10196790844202042,0.2523512840270996,0.3704747259616852
1726995687374761000,1.988760986328125,0.1242164894938469,0.26577016711235046,0.19330847263336182
1726995687384746800,1.998746826171875,0.09182632714509964,0.24928759038448334,-0.05143842473626137
1726995687394732800,2.00873291015625,0.021684521809220314,0.19389037787914276,-0.2675422132015228
1726995687404719900,2.018719970703125,-0.027891818434000015,0.15911348164081573,-0.3931606113910675
1726995687414705700,2.02870556640625,-0.019270634278655052,0.2126198559999466,-0.4765889048576355
1726995687424691700,2.038691650390625,0.007413174957036972,0.3299619257450104,-0.550290584564209
1726995687434678800,2.0486787109375,0.0385655015707016,0.4291257858276367,-0.6118495464324951
1726995687444664800,2.058664794921875,0.06844989955425262,0.4345298707485199,-0.6232982277870178
1726995687454651000,2.06865087890625,0.10725215077400208,0.32238897681236267,-0.5580009818077087
1726995687464637000,2.078636962890625,0.14034965634346008,0.15982215106487274,-0.4369528293609619
1726995687474623700,2.088623779296875,0.16470612585544586,0.09786690771579742,-0.3414529263973236
1726995687484609800,2.09860986328125,0.16112497448921204,0.07490726560354233,-0.3042818605899811
1726995687494595800,2.108595947265625,0.13897626101970673,0.09369586408138275,-0.29091307520866394
1726995687504583000,2.1185830078125,0.08528906852006912,0.19582462310791016,-0.28312918543815613
1726995687514568700,2.128568603515625,0.0166183914989233,0.3164503872394562,-0.2891146242618561
1726995687524554800,2.1385546875,-0.06292890012264252,0.4113720953464508,-0.31832870841026306
1726995687534541800,2.148541748046875,-0.12872256338596344,0.4629881680011749,-0.3654613196849823
1726995687544528000,2.15852783203125,-0.08966197818517685,0.49110233783721924,-0.3947864770889282
1726995687554513700,2.168513671875,-0.07037243247032166,0.4758312404155731,-0.4093787372112274
1726995687564500000,2.1785,-0.07724525034427643,0.36578038334846497,-0.39548420906066895
1726995687574486800,2.18848681640625,-0.13065122067928314,0.20143431425094604,-0.3978610932826996
1726995687584472600,2.19847265625,-0.2958495020866394,0.12286254018545151,-0.35798531770706177
1726995687594459000,2.208458984375,-0.4171522259712219,0.0905139222741127,-0.22362883388996124
1726995687604445700,2.21844580078125,-0.47688665986061096,0.09864562004804611,-0.08970964699983597
1726995687614431700,2.228431640625,-0.47382137179374695,0.15067286789417267,-0.05047675594687462
1726995687624417800,2.238417724609375,-0.48749083280563354,0.21425610780715942,-0.08071908354759216
1726995687634403600,2.248403564453125,-0.5395684242248535,0.2947632074356079,-0.16225628554821014
1726995687644391000,2.258390869140625,-0.6200180053710938,0.3384731113910675,-0.27788886427879333
1726995687654376700,2.268376708984375,-0.6521010994911194,0.28951916098594666,-0.44326531887054443
1726995687664362800,2.27836279296875,-0.6627848744392395,0.17235685884952545,-0.6397493481636047
1726995687674349800,2.288349853515625,-0.6321260333061218,0.004840828012675047,-0.8671095371246338
1726995687684335600,2.298335693359375,-0.5746380090713501,-0.043112847954034805,-1.0194979906082153
1726995687694322000,2.308322021484375,-0.46513599157333374,-0.02093963697552681,-1.064968228340149
1726995687704307700,2.3183076171875,-0.34505271911621094,0.07942957431077957,-1.017256736755371
1726995687714294800,2.328294677734375,-0.25850746035575867,0.22058430314064026,-0.9099137187004089
1726995687724280800,2.33828076171875,-0.20235763490200043,0.31583866477012634,-0.7817927598953247
1726995687734267000,2.348266845703125,-0.1829809993505478,0.358829528093338,-0.6650557518005371
1726995687744254000,2.35825390625,-0.1287502497434616,0.38040992617607117,-0.534074604511261
1726995687754239700,2.36823974609375,-0.043956272304058075,0.3443664312362671,-0.3957878053188324
1726995687764225800,2.378225830078125,0.0018977685831487179,0.20498137176036835,-0.22291509807109833
1726995687774211800,2.3882119140625,0.014750982634723186,0.03254569321870804,-0.02888970449566841
1726995687784198700,2.39819873046875,0.005853361915796995,-0.10888547450304031,0.11655377596616745
1726995687794184700,2.408184814453125,0.010094179771840572,-0.15187421441078186,0.12199781090021133
1726995687804170800,2.418170654296875,-0.010067547671496868,-0.13792698085308075,-0.0005760417552664876
1726995687814157800,2.42815771484375,-0.052624594420194626,-0.050406184047460556,-0.2313525378704071
1726995687824144000,2.438143798828125,-0.12134453654289246,0.15529398620128632,-0.4715116024017334
1726995687834130000,2.4481298828125,-0.18580129742622375,0.4128786623477936,-0.6769717931747437
1726995687844115700,2.45811572265625,-0.2530596852302551,0.5496183633804321,-0.8452575206756592
1726995687854102800,2.468102783203125,-0.2792668044567108,0.5587402582168579,-0.9591193199157715
1726995687864088800,2.4780888671875,-0.23756355047225952,0.48551344871520996,-1.0052008628845215
1726995687874074600,2.48807470703125,-0.14674390852451324,0.38065600395202637,-0.9950413703918457
1726995687884061700,2.498061767578125,-0.04550676420331001,0.2707257568836212,-0.9213288426399231
1726995687894047700,2.5080478515625,-0.005833654198795557,0.15696671605110168,-0.7955682277679443
1726995687904033500,2.518033447265625,-0.024504277855157852,0.14227885007858276,-0.6566905379295349
1726995687914019800,2.528019775390625,-0.10164034366607666,0.13887318968772888,-0.4469473958015442
1726995687924006700,2.538006591796875,-0.2200080007314682,0.07918110489845276,-0.19360995292663574
1726995687933993000,2.547992919921875,-0.3409615755081177,0.02834615297615528,0.019210712984204292
1726995687943978800,2.557978759765625,-0.42917293310165405,-0.038547392934560776,0.21604441106319427
1726995687953965600,2.567965576171875,-0.48569613695144653,-0.11283121258020401,0.3885416090488434
1726995687963951900,2.577951904296875,-0.5103162527084351,-0.2073928713798523,0.5317475199699402
1726995687973937700,2.587937744140625,-0.5202935338020325,-0.2803587019443512,0.6303231120109558
1726995687983923700,2.597923828125,-0.4904698431491852,-0.2979044020175934,0.6816336512565613
1726995687993910800,2.607910888671875,-0.4176611602306366,-0.2641770541667938,0.7290616631507874
1726995688003896800,2.617896728515625,-0.3652655780315399,-0.1960965394973755,0.7717838287353516
1726995688013883000,2.6278828125,-0.40367770195007324,-0.07849640399217606,0.7982228994369507
1726995688023869700,2.63786962890625,-0.5153328776359558,0.018923090770840645,0.804182767868042
1726995688033855700,2.647855712890625,-0.6101645827293396,0.13214924931526184,0.8080885410308838
1726995688043841800,2.657841796875,-0.6364177465438843,0.2020319253206253,0.7851443290710449
1726995688053827800,2.667827880859375,-0.6278111934661865,0.2498340755701065,0.7153652906417847
1726995688063815000,2.67781494140625,-0.5478255748748779,0.24912966787815094,0.6075738072395325
1726995688073800700,2.68780078125,-0.4001668393611908,0.24126560986042023,0.4956749975681305
1726995688083786800,2.697786865234375,-0.28124552965164185,0.2434707134962082,0.4096442461013794
1726995688093773800,2.70777392578125,-0.26001080870628357,0.2789352238178253,0.4072180986404419
1726995688103760000,2.717759765625,-0.3318503797054291,0.34670335054397583,0.4718506336212158
1726995688113745700,2.72774560546875,-0.3723996579647064,0.45454567670822144,0.5662354230880737
1726995688123732000,2.73773193359375,-0.3289046585559845,0.5722824335098267,0.6704622507095337
1726995688133718800,2.74771875,-0.18530488014221191,0.6644373536109924,0.7591636180877686
1726995688143704800,2.757704833984375,0.015933426097035408,0.6913475394248962,0.7911679148674011
1726995688153691000,2.76769091796875,0.20297043025493622,0.6194294095039368,0.7333275079727173
1726995688163677700,2.777677734375,0.29341110587120056,0.4575662314891815,0.5989049673080444
1726995688173663700,2.787663818359375,0.2982966899871826,0.26050907373428345,0.44812825322151184
1726995688183649800,2.79764990234375,0.305188924074173,0.010385262779891491,0.3563080430030823
1726995688193635600,2.807635498046875,0.37129685282707214,-0.2285064160823822,0.38543689250946045
1726995688203623000,2.817622802734375,0.46422892808914185,-0.40353867411613464,0.5290222764015198
1726995688213608700,2.827608642578125,0.5334798693656921,-0.5003712177276611,0.7113960981369019
1726995688223594800,2.8375947265625,0.5625813007354736,-0.5044935345649719,0.840125322341919
1726995688233581800,2.847581787109375,0.5296643972396851,-0.39827919006347656,0.8224341869354248
1726995688243567600,2.857567626953125,0.45726901292800903,-0.26557496190071106,0.6414843797683716
1726995688253554000,2.867553955078125,0.3237982988357544,-0.09991621226072311,0.2956247329711914
1726995688263539700,2.877539794921875,0.15703701972961426,0.06606157124042511,-0.1418282389640808
1726995688273526800,2.88752685546875,0.004905010107904673,0.19267064332962036,-0.5811368823051453
1726995688283512800,2.897512939453125,-0.07947751134634018,0.302750825881958,-0.9888942837715149
1726995688293499000,2.907498779296875,-0.1001734733581543,0.3744406998157501,-1.3139187097549438
1726995688303486000,2.91748583984375,-0.09473929554224014,0.44547173380851746,-1.5520740747451782
1726995688313471700,2.9274716796875,-0.10789264738559723,0.5145376324653625,-1.6918984651565552
1726995688323457800,2.937457763671875,-0.13825933635234833,0.7215733528137207,-1.8033651113510132
1726995688333444900,2.94744482421875,-0.19610905647277832,0.9726194739341736,-1.9115890264511108
1726995688343430700,2.9574306640625,-0.2845555543899536,1.1792993545532227,-2.076287269592285
1726995688353416700,2.967416748046875,-0.3458956182003021,1.1556015014648438,-2.257660150527954
1726995688363402800,2.97740283203125,-0.2935439944267273,0.9814270734786987,-2.3826935291290283
1726995688373389800,2.987389892578125,-0.14985553920269012,0.6405355334281921,-2.4307239055633545
1726995688383376000,2.9973759765625,-0.044263601303100586,0.322035014629364,-2.4136109352111816
1726995688393362000,3.00736181640625,-0.013806359842419624,0.11909522861242294,-2.3572802543640137
1726995688403348700,3.0173486328125,-0.07171386480331421,-0.002211222657933831,-2.305389165878296
1726995688413334800,3.027334716796875,-0.17549192905426025,-0.1024845615029335,-2.264954090118408
1726995688423320800,3.03732080078125,-0.27130046486854553,-0.11251642554998398,-2.245429515838623
1726995688433306600,3.047306640625,-0.2910827100276947,-0.1253315508365631,-2.281508445739746
1726995688443293700,3.057293701171875,-0.21516317129135132,-0.1615833044052124,-2.3656418323516846
1726995688453279700,3.06727978515625,-0.06596676260232925,-0.16193057596683502,-2.45707106590271
1726995688463265500,3.077265625,0.1026717871427536,-0.15702344477176666,-2.558671236038208
1726995688473252900,3.0872529296875,0.20754386484622955,-0.1005745455622673,-2.6344428062438965
1726995688483238700,3.09723876953125,0.17132142186164856,-0.05494847148656845,-2.7130117416381836
1726995688493225000,3.107224853515625,0.010518953204154968,-0.06331425905227661,-2.710942268371582
1726995688503210800,3.117210693359375,-0.14364264905452728,-0.05922630429267883,-2.6193714141845703
1726995688513197600,3.127197509765625,-0.22704167664051056,-0.008844890631735325,-2.473662853240967
1726995688523183900,3.137183837890625,-0.2625274956226349,0.0821438729763031,-2.2891907691955566
1726995688533169700,3.147169677734375,-0.30437082052230835,0.21221904456615448,-2.052544355392456
1726995688543156700,3.15715673828125,-0.3670712113380432,0.327630877494812,-1.804595708847046
1726995688553142800,3.167142822265625,-0.4827195107936859,0.4666966199874878,-1.5945756435394287
1726995688563128800,3.17712890625,-0.5975440740585327,0.6546326875686646,-1.433305263519287
1726995688573115000,3.187114990234375,-0.6689775586128235,0.7800691723823547,-1.3642913103103638
1726995688583101700,3.197101806640625,-0.7090373635292053,0.7025083303451538,-1.307114601135254
1726995688593087700,3.207087646484375,-0.7097353339195251,0.5380072593688965,-1.26998770236969
1726995688603073800,3.21707373046875,-0.6350874900817871,0.25571778416633606,-1.2044532299041748
1726995688613060600,3.227060546875,-0.5276121497154236,-0.09370039403438568,-1.0328001976013184
1726995688623047000,3.237046875,-0.4323202669620514,-0.31331318616867065,-0.7747665643692017
1726995688633032700,3.24703271484375,-0.3673311471939087,-0.3934415578842163,-0.4997197985649109
1726995688643018800,3.257018798828125,-0.3319297432899475,-0.41264402866363525,-0.2889100909233093
1726995688653005800,3.267005859375,-0.20569510757923126,-0.47592073678970337,-0.17208175361156464
1726995688662992000,3.276991943359375,0.04023690149188042,-0.725203275680542,-0.13661403954029083
1726995688672977700,3.286977783203125,0.3341532051563263,-1.0098589658737183,-0.15873292088508606
1726995688682964700,3.29696484375,0.6682385206222534,-1.4307523965835571,-0.20525701344013214
1726995688692950800,3.30695068359375,0.9759225845336914,-1.891405701637268,-0.2242027372121811
1726995688702936800,3.316936767578125,1.1888446807861328,-2.3742337226867676,-0.27747103571891785
1726995688712923000,3.3269228515625,1.2690961360931396,-2.7750306129455566,-0.3795377314090729
1726995688722909700,3.33690966796875,1.2047394514083862,-2.990201473236084,-0.43921199440956116
1726995688732895700,3.346895751953125,0.7419130206108093,-2.763143301010132,-0.5062525272369385
1726995688742881800,3.3568818359375,0.038305312395095825,-2.471893072128296,-0.5964862704277039
1726995688752868900,3.366868896484375,-0.7139114737510681,-2.079244375228882,-0.6615526676177979
1726995688762855000,3.37685498046875,-1.1428039073944092,-1.5476078987121582,-0.7138637900352478
1726995688772840700,3.3868408203125,-1.3091870546340942,-0.9960432648658752,-0.7823967933654785
1726995688782826800,3.39682666015625,-1.3319387435913086,-0.4901369512081146,-0.7789221405982971
1726995688792813800,3.406813720703125,-1.3078155517578125,-0.12280794233083725,-0.6985015869140625
1726995688802799600,3.416799560546875,-1.183677077293396,0.06460269540548325,-0.557836651802063
1726995688812786000,3.426785888671875,-1.0585296154022217,0.12558642029762268,-0.37473711371421814
1726995688822772700,3.436772705078125,-0.8914252519607544,0.002320412313565612,-0.11823396384716034
1726995688832758800,3.4467587890625,-0.614101231098175,-0.17141036689281464,0.1183926910161972
1726995688842744800,3.456744873046875,-0.3235306739807129,-0.34097862243652344,0.3681013286113739
1726995688852730600,3.466730712890625,-0.100580133497715,-0.4645809829235077,0.6320264339447021
1726995688862718000,3.476718017578125,0.06834443658590317,-0.519810676574707,0.9356808662414551
1726995688872703700,3.486703857421875,0.2005368322134018,-0.5393937230110168,1.2500883340835571
1726995688882689800,3.496689697265625,0.3145486116409302,-0.49181047081947327,1.5795629024505615
1726995688892676900,3.5066767578125,0.4108293354511261,-0.41945719718933105,1.911808729171753
1726995688902662700,3.51666259765625,0.47307008504867554,-0.32845059037208557,2.1995065212249756
1726995688912648700,3.526648681640625,0.4972081780433655,-0.2086685299873352,2.449592351913452
1726995688922634500,3.536634521484375,0.5059502720832825,-0.07111572474241257,2.668123960494995
1726995688932621600,3.54662158203125,0.4052811861038208,0.014125406742095947,2.825336217880249
1726995688942607600,3.556607666015625,0.2841007113456726,0.15172109007835388,2.864494562149048
1726995688952593700,3.56659375,0.23529666662216187,0.32039132714271545,2.77351975440979
1726995688962580500,3.57658056640625,0.31806692481040955,0.4448288679122925,2.6630136966705322
1726995688972566500,3.58656640625,0.49684038758277893,0.4064154326915741,2.578852653503418
1726995688982552600,3.596552490234375,0.6466708779335022,0.21805642545223236,2.4701976776123047
1726995688992538400,3.606538330078125,0.6462959051132202,-0.0799957662820816,2.392960786819458
1726995689002525700,3.616525634765625,0.49191007018089294,-0.330215185880661,2.3694069385528564
1726995689012511500,3.626511474609375,0.29071706533432007,-0.4543829560279846,2.3979804515838623
1726995689022497500,3.63649755859375,0.14444133639335632,-0.46653255820274353,2.4623637199401855
1726995689032484600,3.646484619140625,0.1469561606645584,-0.4288826584815979,2.5219857692718506
1726995689042470400,3.656470458984375,0.2356117218732834,-0.47978445887565613,2.528545379638672
1726995689052456700,3.666456787109375,0.3316791355609894,-0.5995030999183655,2.4175846576690674
1726995689062442500,3.6764423828125,0.48008298873901367,-0.8186959028244019,2.121633291244507
1726995689072429300,3.68642919921875,0.6205556988716125,-1.320252537727356,1.4745672941207886
1726995689082415600,3.69641552734375,0.7293127775192261,-1.3850488662719727,0.6813772320747375
1726995689092401400,3.7064013671875,0.735596776008606,-0.8979332447052002,0.07147365063428879
1726995689102388700,3.716388671875,0.6388798356056213,-0.4179096221923828,-0.22237688302993774
1726995689112374500,3.72637451171875,0.4831288456916809,-0.11064369231462479,-0.27453380823135376
1726995689122360600,3.736360595703125,0.23312300443649292,0.16097557544708252,-0.1928243190050125
1726995689132346600,3.7463466796875,-0.08992482721805573,0.4679514765739441,-0.13672909140586853
1726995689142333400,3.75633349609375,-0.3652573227882385,0.7365778684616089,-0.08722038567066193
1726995689152319500,3.766319580078125,-0.5299118161201477,0.9099989533424377,0.03538568690419197
1726995689162305500,3.776305419921875,-0.5276763439178467,0.8561751246452332,0.21201159060001373
1726995689172292400,3.786292236328125,-0.428318589925766,0.6056662201881409,0.37985917925834656
1726995689182278700,3.796278564453125,-0.3016922175884247,0.3444886803627014,0.4850471317768097
1726995689192264400,3.806264404296875,-0.2750888168811798,0.21614614129066467,0.5277088284492493
1726995689202250500,3.81625048828125,-0.3598303496837616,0.2036583125591278,0.6022539138793945
1726995689212237600,3.826237548828125,-0.4465087950229645,0.27483662962913513,0.7083334922790527
1726995689222223600,3.8362236328125,-0.4535621702671051,0.33378756046295166,0.8002908229827881
1726995689232209400,3.84620947265625,-0.42348602414131165,0.2539076507091522,0.8598250150680542
1726995689242196500,3.856196533203125,-0.34040871262550354,0.10356128215789795,0.9171838760375977
1726995689252182500,3.8661826171875,-0.243558868765831,-0.06070675700902939,1.0004143714904785
1726995689262168300,3.876168212890625,-0.14602059125900269,-0.23224255442619324,1.0960841178894043
1726995689272155600,3.88615576171875,-0.0689425840973854,-0.32936030626296997,1.1771405935287476
1726995689282141400,3.896141357421875,-0.026728017255663872,-0.35188373923301697,1.2243072986602783
1726995689292127500,3.90612744140625,-0.04372990503907204,-0.2889100909233093,1.2779327630996704
1726995689302113500,3.916113525390625,-0.1602000594139099,-0.11850108206272125,1.29059636592865
1726995689312100400,3.926100341796875,-0.26297491788864136,0.07714671641588211,1.3746174573898315
1726995689322086700,3.936086669921875,-0.2634497582912445,0.040553018450737,1.431719422340393
1726995689332072400,3.946072509765625,-0.19909605383872986,0.04044755920767784,1.4132956266403198
1726995689342059500,3.9560595703125,-0.1693674623966217,0.005495166406035423,1.3564070463180542
1726995689352045600,3.966045654296875,-0.23157010972499847,-0.0608215406537056,1.2565675973892212
1726995689362031400,3.97603125,-0.35155192017555237,-0.15614992380142212,1.1727371215820312
1726995689372017700,3.986017578125,-0.4440799653530121,-0.2640992999076843,1.1071655750274658
1726995689382004500,3.99600439453125,-0.484169065952301,-0.34781548380851746,1.0642950534820557
1726995689391990500,4.005990478515625,-0.4681594669818878,-0.388495534658432,1.0403844118118286
1726995689401976600,4.0159765625,-0.47349298000335693,-0.4417864680290222,1.0345972776412964
1726995689411963400,4.02596337890625,-0.5444401502609253,-0.436870276927948,1.0392881631851196
1726995689421949700,4.03594970703125,-0.6158144474029541,-0.4029626250267029,1.0566061735153198
1726995689431935500,4.045935546875,-0.6404955387115479,-0.33439210057258606,1.0704184770584106
1726995689441921500,4.055921630859375,-0.5832016468048096,-0.30088260769844055,1.0994935035705566
1726995689451908600,4.06590869140625,-0.48449769616127014,-0.3084467947483063,1.1414237022399902
1726995689461894400,4.075894287109375,-0.35658395290374756,-0.3247399926185608,1.1720068454742432
1726995689471880400,4.08588037109375,-0.23272885382175446,-0.3421157896518707,1.174386978149414
1726995689481866500,4.095866455078125,-0.13481001555919647,-0.36708879470825195,1.1380542516708374
1726995689491853600,4.105853515625,-0.1180504709482193,-0.3630724847316742,1.0652143955230713
1726995689501839600,4.115839599609375,-0.158178448677063,-0.31084734201431274,0.9804770946502686
1726995689511825700,4.12582568359375,-0.22436200082302094,-0.21985593438148499,0.8965712785720825
1726995689521812500,4.1358125,-0.2703888714313507,-0.16470105946063995,0.8242616653442383
1726995689531798500,4.145798583984375,-0.26079297065734863,-0.12510065734386444,0.7513184547424316
1726995689541784600,4.15578466796875,-0.22870880365371704,-0.09056238830089569,0.6801792979240417
1726995689551771600,4.165771728515625,-0.19482727348804474,-0.09157891571521759,0.6188573837280273
1726995689561757400,4.17575732421875,-0.15931110084056854,-0.1034100130200386,0.5849335193634033
1726995689571743500,4.185743408203125,-0.14948056638240814,-0.10477381944656372,0.5846219062805176
1726995689581729500,4.1957294921875,-0.14393186569213867,-0.10707585513591766,0.6012179255485535
1726995689591716600,4.205716552734375,-0.1335735023021698,-0.13726703822612762,0.6348328590393066
1726995689601702400,4.215702392578125,-0.10301852971315384,-0.15652543306350708,0.6806062459945679
1726995689611688700,4.225688720703125,-0.0554741770029068,-0.15281830728054047,0.7287002801895142
1726995689621675500,4.235675537109375,-0.0002822950773406774,-0.13752377033233643,0.7803272604942322
1726995689631661300,4.245661376953125,0.06861528009176254,-0.1051943302154541,0.8272638320922852
1726995689641647600,4.255647705078125,0.14064446091651917,-0.02491387166082859,0.8444084525108337
1726995689651633400,4.26563330078125,0.20825733244419098,0.05763107165694237,0.8517606854438782
1726995689661620700,4.275620849609375,0.27223098278045654,0.13387897610664368,0.8476812243461609
1726995689671606500,4.2856064453125,0.32465532422065735,0.19659002125263214,0.8671489357948303
1726995689681592600,4.295592529296875,0.37700799107551575,0.22148844599723816,0.9015657901763916
1726995689691578600,4.30557861328125,0.40669506788253784,0.2273854911327362,0.9260833859443665
1726995689701565400,4.3155654296875,0.43025338649749756,0.2566347122192383,0.9330185055732727
1726995689711551500,4.325551513671875,0.5107372999191284,0.28757184743881226,0.9181897640228271
1726995689721537500,4.33553759765625,0.6536262631416321,0.26918378472328186,0.8864443302154541
1726995689731524400,4.3455244140625,0.8349193930625916,0.17685626447200775,0.805080235004425
1726995689741510700,4.3555107421875,1.0062849521636963,0.1268940269947052,0.6834547519683838
1726995689751496400,4.365496337890625,1.1090859174728394,0.05263151973485947,0.5342226624488831
1726995689761483500,4.3754833984375,1.1901302337646484,-0.0046331011690199375,0.36709359288215637
1726995689771469600,4.385469482421875,1.2794784307479858,-0.07719758152961731,0.199980229139328
1726995689781455600,4.39545556640625,1.3699806928634644,-0.15800347924232483,0.05067383125424385
1726995689791441400,4.40544140625,1.4484179019927979,-0.24023151397705078,-0.04554671049118042
1726995689801428500,4.415428466796875,1.4934391975402832,-0.3289419412612915,-0.10174021124839783
1726995689811414500,4.42541455078125,1.4890074729919434,-0.3952099084854126,-0.1181522086262703
1726995689821400600,4.435400634765625,1.4678398370742798,-0.5140659809112549,-0.10987137258052826
1726995689831387400,4.445387451171875,1.3880491256713867,-0.6203799247741699,-0.08016540855169296
1726995689841373400,4.45537353515625,1.250857949256897,-0.7309463620185852,-0.04241829738020897
1726995689851359500,4.465359375,1.0850096940994263,-0.8796564936637878,0.003573962254449725
1726995689861345500,4.475345458984375,0.9074723720550537,-1.0206996202468872,0.03428686782717705
1726995689871332400,4.485332275390625,0.7035275101661682,-1.1463803052902222,0.045167479664087296
1726995689881318700,4.495318603515625,0.4841102063655853,-1.252410650253296,0.06482426822185516
1726995689891304400,4.505304443359375,0.27011191844940186,-1.20794677734375,0.14659583568572998
1726995689901291500,4.51529150390625,0.07612992078065872,-1.0906310081481934,0.17845362424850464
1726995689911277600,4.525277587890625,-0.07866578549146652,-1.0023443698883057,0.24678927659988403
1726995689921263400,4.535263427734375,-0.17526289820671082,-0.889129102230072,0.34491610527038574
1726995689931250200,4.545250244140625,-0.22655537724494934,-0.7299772500991821,0.4259544909000397
1726995689941237000,4.555237060546875,-0.2558506727218628,-0.5570531487464905,0.44143038988113403
1726995689951223000,4.56522314453125,-0.23838993906974792,-0.4047725200653076,0.3822365701198578
1726995689961209000,4.575208984375,-0.18118762969970703,-0.2579417824745178,0.2666516602039337
1726995689971196200,4.585196044921875,-0.12183163315057755,-0.16054892539978027,0.15347717702388763
1726995689981182200,4.59518212890625,-0.0952218547463417,-0.05686061829328537,0.027059847488999367
1726995689991168000,4.60516796875,-0.06425142288208008,0.07596001029014587,-0.11877831816673279
1726995690001154300,4.615154296875,-0.04669985920190811,0.1897885799407959,-0.2433849573135376
1726995690011141000,4.62514111328125,-0.0693788081407547,0.28982996940612793,-0.3234313130378723
1726995690021127000,4.635126953125,-0.11472605168819427,0.445162296295166,-0.38143762946128845
1726995690031113200,4.64511328125,-0.16537857055664062,0.5754398703575134,-0.40756216645240784
1726995690041100000,4.65510009765625,-0.22748242318630219,0.6541759371757507,-0.3973798453807831
1726995690051085800,4.6650859375,-0.27385711669921875,0.6808054447174072,-0.36326077580451965
1726995690061072100,4.675072021484375,-0.3016434609889984,0.7227838039398193,-0.3248790204524994
1726995690071058000,4.685057861328125,-0.29798775911331177,0.7676223516464233,-0.2897689640522003
1726995690081045200,4.695045166015625,-0.2846567630767822,0.7746831774711609,-0.27728700637817383
1726995690091031000,4.705031005859375,-0.2569260597229004,0.734549343585968,-0.2920664846897125
1726995690101017000,4.71501708984375,-0.22236382961273193,0.6728655099868774,-0.3186506927013397
1726995690111004200,4.725004150390625,-0.19331780076026917,0.5923786163330078,-0.3447541892528534
1726995690120990000,4.734989990234375,-0.19773811101913452,0.4867504835128784,-0.33941030502319336
1726995690130976000,4.74497607421875,-0.25076723098754883,0.36792847514152527,-0.30073532462120056
1726995690140962000,4.754962158203125,-0.3660906255245209,0.27674371004104614,-0.23218822479248047
1726995690150949000,4.76494921875,-0.5124151110649109,0.19154119491577148,-0.14162291586399078
1726995690160935200,4.77493505859375,-0.6517836451530457,0.12995320558547974,-0.027537085115909576
1726995690170921000,4.7849208984375,-0.780499279499054,0.08031880855560303,0.11254066228866577
1726995690180908000,4.794907958984375,-0.9029002785682678,0.034086063504219055,0.2689494490623474
1726995690190894000,4.80489404296875,-0.9962587356567383,0.0010311759542673826,0.42240503430366516
1726995690200880000,4.814880126953125,-1.0416467189788818,0.00805925764143467,0.5425043106079102
1726995690210866000,4.824865966796875,-1.0227659940719604,0.06971357017755508,0.6090700030326843
1726995690220853000,4.83485302734375,-1.010693073272705,0.08791973441839218,0.6684606075286865
1726995690230839000,4.844839111328125,-1.0045448541641235,0.08569519966840744,0.6608203053474426
1726995690240825000,4.8548251953125,-0.9796730875968933,0.09561893343925476,0.5422166585922241
1726995690250812200,4.864812255859375,-0.8931972980499268,0.09058050066232681,0.33625125885009766
1726995690260798000,4.8747978515625,-0.7673478126525879,0.07905620336532593,0.07607506215572357
1726995690270784300,4.8847841796875,-0.6406311392784119,0.02833683229982853,-0.17398111522197723
1726995690280771000,4.89477099609375,-0.5774667859077454,-0.06883339583873749,-0.36938124895095825
1726995690290757000,4.904757080078125,-0.5501906871795654,-0.13393355906009674,-0.49816983938217163
1726995690300743200,4.9147431640625,-0.5241045355796814,-0.16369572281837463,-0.5668128132820129
1726995690310729000,4.92472900390625,-0.505613386631012,-0.10299748927354813,-0.5941203236579895
1726995690320716000,4.934716064453125,-0.46837225556373596,-0.0008103998843580484,-0.6252926588058472
1726995690330702000,4.9447021484375,-0.4178291857242584,0.12123668193817139,-0.6595166325569153
1726995690340688000,4.95468798828125,-0.36159494519233704,0.23266014456748962,-0.7079965472221375
1726995690350675200,4.96467529296875,-0.3113754689693451,0.3651247024536133,-0.7746973037719727
1726995690360661000,4.974660888671875,-0.26011839509010315,0.5075263381004333,-0.8132806420326233
1726995690370647000,4.98464697265625,-0.22880229353904724,0.6385916471481323,-0.8346402645111084
1726995690380633000,4.994633056640625,-0.20432357490062714,0.7445668578147888,-0.8456940054893494
1726995690390620000,5.004619873046875,-0.18921999633312225,0.7966859936714172,-0.8552715182304382
1726995690400606200,5.014606201171875,-0.19940365850925446,0.8222419023513794,-0.8892659544944763
1726995690410592000,5.024592041015625,-0.23366495966911316,0.8179364204406738,-0.9380894303321838
1726995690420578000,5.034578125,-0.2753998935222626,0.7836974859237671,-0.9821072220802307
1726995690430565000,5.044565185546875,-0.2893950641155243,0.7043778896331787,-1.0234203338623047
1726995690440551200,5.05455126953125,-0.27298787236213684,0.5944319367408752,-1.0607357025146484
1726995690450537000,5.064536865234375,-0.21169812977313995,0.4637053310871124,-1.085434913635254
1726995690460524000,5.07452392578125,-0.1311977058649063,0.32983410358428955,-1.1012940406799316
1726995690470510000,5.084510009765625,-0.08195345848798752,0.23676620423793793,-1.0928715467453003
1726995690480496000,5.09449609375,-0.07201880216598511,0.1954459249973297,-1.07584547996521
1726995690490483000,5.10448291015625,-0.08391807228326797,0.1599142998456955,-1.0934007167816162
1726995690500469000,5.114468994140625,-0.09765838086605072,0.09943418204784393,-1.1173012256622314
1726995690510455000,5.124455078125,-0.12102548778057098,0.05800977349281311,-1.0825456380844116
1726995690520441000,5.134441162109375,-0.15329980850219727,0.06609859317541122,-1.000921607017517
1726995690530428200,5.14442822265625,-0.17483732104301453,0.12372726947069168,-0.9023737907409668
1726995690540414200,5.154414306640625,-0.14095258712768555,0.22992613911628723,-0.8165672421455383
1726995690550400000,5.16439990234375,-0.03498008847236633,0.41037100553512573,-0.8014317154884338
1726995690560387000,5.174386962890625,0.05186319723725319,0.5670953989028931,-0.7787626385688782
1726995690570373000,5.184373046875,0.12626978754997253,0.6122961640357971,-0.7352883815765381
1726995690580359000,5.19435888671875,0.19129513204097748,0.5947773456573486,-0.6957138180732727
1726995690590345200,5.20434521484375,0.22079496085643768,0.5039507746696472,-0.6390353441238403
1726995690600332000,5.21433203125,0.2099553644657135,0.3634815514087677,-0.5772603750228882
1726995690610318000,5.224318115234375,0.16494740545749664,0.21372640132904053,-0.5388972759246826
1726995690620304100,5.23430419921875,0.11169324070215225,0.052510347217321396,-0.5120118856430054
1726995690630291000,5.244291015625,0.05808167904615402,-0.11060614138841629,-0.4773215651512146
1726995690640277200,5.25427734375,0.020668260753154755,-0.23705488443374634,-0.44095900654792786
1726995690650263000,5.264262939453125,0.0001102548703784123,-0.30794665217399597,-0.4217728078365326
1726995690660249000,5.2742490234375,0.007858987897634506,-0.3347657322883606,-0.40366411209106445
1726995690670236200,5.284236083984375,0.03790077567100525,-0.30691972374916077,-0.38879621028900146
1726995690680222000,5.294221923828125,0.06705466657876968,-0.21694189310073853,-0.39047160744667053
1726995690690208000,5.3042080078125,0.09949862957000732,-0.06725040823221207,-0.41222885251045227
1726995690700195000,5.314195068359375,0.15273788571357727,0.07968071103096008,-0.4551132023334503
1726995690710181000,5.32418115234375,0.20420533418655396,0.23072348535060883,-0.4937894642353058
1726995690720167200,5.334167236328125,0.24165762960910797,0.38522759079933167,-0.4733033776283264
1726995690730153000,5.344153076171875,0.266368567943573,0.4766693413257599,-0.41976797580718994
1726995690740140000,5.35414013671875,0.2740701735019684,0.4434022009372711,-0.3895248472690582
1726995690750126000,5.3641259765625,0.23960939049720764,0.3611089289188385,-0.4269806146621704
1726995690760112000,5.374112060546875,0.16792695224285126,0.37872228026390076,-0.48160871863365173
1726995690770099200,5.38409912109375,0.10833606123924255,0.4412916600704193,-0.5240858793258667
1726995690780085000,5.3940849609375,0.06651777774095535,0.470011442899704,-0.5491736531257629
1726995690790071000,5.404071044921875,0.05392155423760414,0.43635281920433044,-0.5923304557800293
1726995690800057000,5.41405712890625,0.056014534085989,0.41605740785598755,-0.6647279262542725
1726995690810044200,5.424044189453125,0.059969861060380936,0.40922853350639343,-0.7311682105064392
1726995690820030000,5.434030029296875,0.06978893280029297,0.3948778212070465,-0.8176490664482117
1726995690830016300,5.444016357421875,0.061597585678100586,0.40249472856521606,-0.9100484848022461
1726995690840003000,5.454003173828125,0.07464547455310822,0.3569173812866211,-0.9969649910926819
1726995690849989000,5.463989013671875,0.09918863326311111,0.3038131594657898,-1.0312281847000122
1726995690859975200,5.47397509765625,0.14555826783180237,0.24278254806995392,-1.0336154699325562
1726995690869961000,5.4839609375,0.17345407605171204,0.16691255569458008,-1.0039129257202148
1726995690879948000,5.493947998046875,0.1631324589252472,0.08631118386983871,-0.9606083035469055
1726995690889934000,5.50393408203125,0.11112891882658005,0.048952363431453705,-0.8778703212738037
1726995690899920000,5.513919921875,0.002141980454325676,0.07417116314172745,-0.7605013251304626
1726995690909907200,5.5239072265625,-0.10664734989404678,0.1490749716758728,-0.6237176656723022
1726995690919893000,5.53389306640625,-0.1833743453025818,0.13835175335407257,-0.49579083919525146
1726995690929878800,5.543878662109375,-0.22219204902648926,0.057022806257009506,-0.35117506980895996
1726995690939864800,5.55386474609375,-0.22164930403232574,-0.05397189036011696,-0.2034417986869812
1726995690949851600,5.5638515625,-0.1880314201116562,-0.14066630601882935,-0.07222838699817657
1726995690959838000,5.573837890625,-0.12729564309120178,-0.22358542680740356,0.026943733915686607
1726995690969823700,5.58382373046875,-0.06653428822755814,-0.2717691957950592,0.09812843054533005
1726995690979810800,5.593810791015625,-0.03876976668834686,-0.3040642738342285,0.1772506833076477
1726995690989796900,5.603796875,-0.022041385993361473,-0.3143009543418884,0.2715289890766144
1726995690999783000,5.613782958984375,-0.011994345113635063,-0.3319838047027588,0.36239469051361084
1726995691009768700,5.623768798828125,-0.008898952975869179,-0.32755735516548157,0.43362119793891907
1726995691019755800,5.633755859375,0.0030280142091214657,-0.3001502454280853,0.48018258810043335
1726995691029741800,5.643741943359375,0.021454425528645515,-0.2739327549934387,0.48017460107803345
1726995691039727900,5.653727783203125,0.021891983225941658,-0.2676175832748413,0.4494289457798004
1726995691049714700,5.663714599609375,0.003163036424666643,-0.26163241267204285,0.3963436186313629
1726995691059700700,5.67370068359375,0.0012522183824330568,-0.22974185645580292,0.3310554325580597
1726995691069686800,5.683686767578125,0.037328995764255524,-0.17740567028522491,0.25531965494155884
1726995691079672800,5.6936728515625,0.10429471731185913,-0.14655880630016327,0.1808512806892395
1726995691089660000,5.703659912109375,0.18456372618675232,-0.13658420741558075,0.11245730519294739
1726995691099646000,5.71364599609375,0.2731870710849762,-0.13127253949642181,0.060148559510707855
1726995691109631700,5.7236318359375,0.3336040675640106,-0.11664805561304092,0.012232164852321148
1726995691119618800,5.733618896484375,0.34246042370796204,-0.09655210375785828,-0.032283637672662735
1726995691129604900,5.74360498046875,0.2949581444263458,-0.08290766924619675,-0.0644298568367958
1726995691139590700,5.753590576171875,0.2368175983428955,-0.0797709971666336,-0.07137351483106613
1726995691149577000,5.763576904296875,0.20339812338352203,-0.08830749243497849,-0.05752081796526909
1726995691159563800,5.773563720703125,0.21126990020275116,-0.11229857802391052,-0.03057282231748104
1726995691169549800,5.7835498046875,0.2597607374191284,-0.146295428276062,-0.01715102419257164
1726995691179536000,5.793535888671875,0.3387676775455475,-0.1899595558643341,-0.02695252187550068
1726995691189522700,5.803522705078125,0.43463560938835144,-0.20567646622657776,-0.06401200592517853
1726995691199509000,5.813509033203125,0.5388216376304626,-0.18004566431045532,-0.1156134158372879
1726995691209494800,5.823494873046875,0.6330235600471497,-0.1534034013748169,-0.16931553184986115
1726995691219480800,5.833480712890625,0.730431854724884,-0.12153495103120804,-0.22260858118534088
1726995691229468000,5.843468017578125,0.8280268311500549,-0.014941665343940258,-0.28520163893699646
1726995691239453700,5.85345361328125,0.9170113205909729,0.11497079581022263,-0.37514352798461914
1726995691249439700,5.863439697265625,0.9978694319725037,0.19542914628982544,-0.4711150527000427
1726995691259426800,5.8734267578125,1.1169010400772095,0.2975914776325226,-0.5260592699050903
1726995691269412900,5.883412841796875,1.2636473178863525,0.347318559885025,-0.5530954003334045
1726995691279399000,5.89339892578125,1.4194326400756836,0.2765865921974182,-0.5650210380554199
1726995691289385700,5.9033857421875,1.5384535789489746,0.11990616470575333,-0.5960716605186462
1726995691299371800,5.913371826171875,1.5926265716552734,-0.042391400784254074,-0.6533895134925842
1726995691309357800,5.92335791015625,1.6010758876800537,-0.08360461890697479,-0.6585273146629333
1726995691319343900,5.93334375,1.6072601079940796,-0.10879066586494446,-0.6138213276863098
1726995691329331000,5.9433310546875,1.6113687753677368,-0.23762373626232147,-0.5844346880912781
1726995691339316700,5.953316650390625,1.5689622163772583,-0.3839452564716339,-0.5443293452262878
1726995691349302800,5.963302734375,1.4452348947525024,-0.48124971985816956,-0.5147325992584229
1726995691359288800,5.973288818359375,1.223120093345642,-0.6539559960365295,-0.49985989928245544
1726995691369276000,5.98327587890625,0.9179002642631531,-0.9371107220649719,-0.4770547151565552
1726995691379261700,5.99326171875,0.5607160329818726,-1.2762911319732666,-0.4574791491031647
1726995691389248000,6.003248046875,0.17569752037525177,-1.5240203142166138,-0.45507538318634033
1726995691399234800,6.01323486328125,-0.20062018930912018,-1.679057002067566,-0.44616976380348206
1726995691409220900,6.023220947265625,-0.5116033554077148,-1.7395062446594238,-0.31949278712272644
1726995691419207000,6.03320703125,-0.6638349890708923,-1.639379858970642,-0.029161347076296806
1726995691429193700,6.04319384765625,-0.6660435199737549,-1.3473522663116455,0.36991360783576965
1726995691439179800,6.0531796875,-0.5488221049308777,-1.0301584005355835,0.7553672790527344
1726995691449165800,6.063165771484375,-0.3775150775909424,-0.768764853477478,1.0205683708190918
1726995691459152000,6.07315185546875,-0.1696619987487793,-0.6292503476142883,1.1425352096557617
1726995691469139000,6.083138916015625,0.0021145499777048826,-0.5539708137512207,1.1898740530014038
1726995691479124700,6.093124755859375,0.0980522632598877,-0.5169547200202942,1.2163572311401367
1726995691489110800,6.10311083984375,0.11619158834218979,-0.4436376392841339,1.2338523864746094
1726995691499097900,6.113097900390625,0.06556516140699387,-0.3122934401035309,1.240825891494751
1726995691509083600,6.123083740234375,-0.021945245563983917,-0.13018782436847687,1.184646725654602
1726995691519070000,6.133070068359375,-0.13301052153110504,0.09537232667207718,1.108651041984558
1726995691529055700,6.1430556640625,-0.2377619594335556,0.28674042224884033,1.0317589044570923
1726995691539042800,6.153042724609375,-0.3201338052749634,0.422820508480072,0.9665037393569946
1726995691549028900,6.16302880859375,-0.40994569659233093,0.5275213122367859,0.9012978672981262
1726995691559015000,6.173014892578125,-0.518393874168396,0.5934692025184631,0.8563168048858643
1726995691569002000,6.183001953125,-0.6389277577400208,0.663575291633606,0.8508375883102417
1726995691578987800,6.19298779296875,-0.7590632438659668,0.7111942172050476,0.8506232500076294
1726995691588973800,6.202973876953125,-0.8662570714950562,0.7583098411560059,0.8529742956161499
1726995691598959900,6.2129599609375,-0.959510862827301,0.7937628626823425,0.8705263733863831
1726995691608946700,6.22294677734375,-1.057534098625183,0.788042426109314,0.9055562615394592
1726995691618932700,6.2329326171875,-1.1576521396636963,0.7431154251098633,0.9017002582550049
1726995691628918800,6.242918701171875,-1.2585843801498413,0.6598948240280151,0.8189311027526855
1726995691638905900,6.25290576171875,-1.3358879089355469,0.5543721318244934,0.6237754225730896
1726995691648892000,6.262891845703125,-1.3515446186065674,0.4312933385372162,0.29396530985832214
1726995691658878000,6.2728779296875,-1.2959258556365967,0.27399614453315735,-0.1308474987745285
1726995691668863700,6.28286376953125,-1.1602668762207031,0.10988309234380722,-0.6088867783546448
1726995691678850800,6.292850830078125,-0.9877057075500488,-0.0330817885696888,-1.0229233503341675
1726995691688836900,6.3028369140625,-0.7994855046272278,-0.07467743009328842,-1.2733891010284424
1726995691698822700,6.31282275390625,-0.6146570444107056,0.029714485630393028,-1.360984444618225
1726995691708809700,6.322809814453125,-0.43644070625305176,0.21582522988319397,-1.360895037651062
1726995691718795800,6.332795654296875,-0.2703814208507538,0.4021921753883362,-1.3064168691635132
1726995691728781800,6.34278173828125,-0.14671939611434937,0.5053632855415344,-1.2326265573501587
1726995691738768000,6.352767822265625,-0.07316555827856064,0.5645094513893127,-1.1532566547393799
1726995691748754700,6.362754638671875,-0.03443147614598274,0.5879543423652649,-1.0823848247528076
1726995691758741000,6.372740966796875,-0.028773857280611992,0.5575700402259827,-1.0382972955703735
1726995691768726800,6.382726806640625,-0.03628929704427719,0.5064616203308105,-1.0259904861450195
1726995691778713600,6.392713623046875,-0.04736458510160446,0.43817681074142456,-1.0361390113830566
1726995691788700000,6.402699951171875,-0.05254283547401428,0.34561440348625183,-1.0403393507003784
1726995691798685700,6.412685791015625,-0.048888977617025375,0.2482481598854065,-1.0283408164978027
1726995691808671700,6.422671630859375,-0.049308694899082184,0.1700926423072815,-1.0102925300598145
1726995691818658800,6.432658935546875,-0.06530337035655975,0.09713693708181381,-0.9817469120025635
1726995691828644900,6.442644775390625,-0.09634064882993698,0.05553968995809555,-0.933896005153656
1726995691838631000,6.452630859375,-0.133853942155838,0.044930990785360336,-0.8805646300315857
1726995691848617700,6.46261767578125,-0.1560892015695572,0.000002663161012605997,-0.845504105091095
1726995691858603800,6.472603759765625,-0.15716113150119781,-0.052258677780628204,-0.8004865646362305
1726995691868589800,6.48258984375,-0.13309547305107117,-0.09275443851947784,-0.7475786209106445
1726995691878576600,6.49257666015625,-0.09658965468406677,-0.1330944001674652,-0.6982576847076416
1726995691888563000,6.50256298828125,-0.06187615171074867,-0.17859770357608795,-0.6401520371437073
1726995691898548700,6.512548828125,-0.0468071848154068,-0.22088603675365448,-0.5679782032966614
1726995691908534800,6.52253466796875,-0.0380144938826561,-0.22744007408618927,-0.47816869616508484
1726995691918521900,6.53252197265625,-0.03650394827127457,-0.1643601804971695,-0.3945033848285675
1726995691928508200,6.542508056640625,-0.037102628499269485,-0.10018066316843033,-0.3176514804363251
1726995691938494000,6.552493896484375,-0.021763619035482407,-0.06395980715751648,-0.24273142218589783
1726995691948480800,6.562480712890625,0.013107280246913433,-0.06031261011958122,-0.16585394740104675
1726995691958467000,6.572467041015625,0.044717937707901,-0.07528463751077652,-0.059733372181653976
1726995691968452900,6.582452880859375,0.056763678789138794,-0.11330578476190567,0.06154085695743561
1726995691978439000,6.59243896484375,0.036603815853595734,-0.14812901616096497,0.1771199256181717
1726995691988426000,6.602426025390625,0.018257834017276764,-0.16552025079727173,0.2402040809392929
1726995691998411800,6.612411865234375,0.011740013025701046,-0.24478258192539215,0.21668890118598938
1726995692008398000,6.622398193359375,-0.05272872373461723,-0.16201446950435638,0.2004590630531311
1726995692018385000,6.632385009765625,-0.09439761191606522,-0.0017297230660915375,0.18958990275859833
1726995692028371000,6.642370849609375,-0.10468406975269318,0.15361139178276062,0.1507359892129898
1726995692038357000,6.65235693359375,-0.1056116446852684,0.2958974242210388,0.06871648132801056
1726995692048343000,6.662343017578125,-0.09216427803039551,0.4388095736503601,-0.04254240170121193
1726995692058330000,6.672330078125,-0.05615647882223129,0.5554760098457336,-0.17098931968212128
1726995692068316000,6.68231591796875,0.009760751388967037,0.6055439710617065,-0.2953365743160248
1726995692078302000,6.692302001953125,0.06528739631175995,0.6079778075218201,-0.42574170231819153
1726995692088289000,6.7022890625,0.09496832638978958,0.5624092817306519,-0.5202866196632385
1726995692098275000,6.712275146484375,0.09275630116462708,0.48779788613319397,-0.5747474431991577
1726995692108260900,6.7222607421875,0.0759887769818306,0.3571208417415619,-0.5785312652587891
1726995692118248000,6.732248046875,0.05866704136133194,0.22048230469226837,-0.5341757535934448
1726995692128234000,6.74223388671875,0.08290313929319382,0.1181119903922081,-0.4387967884540558
1726995692138219800,6.7522197265625,0.0683702677488327,-0.08551250398159027,-0.377920925617218
1726995692148206000,6.7622060546875,0.032705217599868774,-0.173476442694664,-0.2692759335041046
1726995692158193000,6.77219287109375,0.001261273049749434,-0.1723611205816269,-0.13415540754795074
1726995692168179000,6.782178955078125,-0.029461219906806946,-0.15803517401218414,-0.01872122287750244
1726995692178165000,6.7921650390625,-0.055573247373104095,-0.14546744525432587,0.08127834647893906
1726995692188151800,6.80215185546875,-0.04507187008857727,-0.1069893017411232,0.14692287147045135
1726995692198138000,6.81213818359375,-0.001449292292818427,-0.08568667620420456,0.1788720190525055
1726995692208124000,6.8221240234375,0.06543413549661636,-0.07258285582065582,0.16886571049690247
1726995692218110000,6.83210986328125,0.11589304357767105,-0.06753136962652206,0.14289936423301697
1726995692228097000,6.842096923828125,0.1511988341808319,-0.07641434669494629,0.1204017773270607
1726995692238082800,6.852082763671875,0.15364041924476624,-0.10420975834131241,0.09782935678958893
1726995692248069000,6.862069091796875,0.13532213866710663,-0.10604361444711685,0.0842035636305809
1726995692258056000,6.872055908203125,0.11010359972715378,-0.10235913097858429,0.0813547745347023
1726995692268041700,6.882041748046875,0.08895490318536758,-0.08605285733938217,0.08692983537912369
1726995692278028000,6.892028076171875,0.05450904741883278,-0.07438022643327713,0.09507378190755844
1726995692288013800,6.902013916015625,0.02624358795583248,-0.07129734754562378,0.09232034534215927
1726995692298001200,6.912001220703125,0.014709170907735825,-0.08529891818761826,0.07311948388814926
1726995692307987000,6.921987060546875,0.022960176691412926,-0.1342124044895172,0.044982388615608215
1726995692317973000,6.931972900390625,0.056709885597229004,-0.1592455804347992,0.012402873486280441
1726995692327960000,6.9419599609375,0.11439847946166992,-0.16048847138881683,-0.022352444007992744
1726995692337945900,6.95194580078125,0.18694831430912018,-0.1534380316734314,-0.06054430454969406
1726995692347932000,6.961931884765625,0.2474295049905777,-0.14449486136436462,-0.08127461373806
1726995692357919000,6.9719189453125,0.2785724997520447,-0.15811826288700104,-0.07775205373764038
1726995692367905000,6.981905029296875,0.30030497908592224,-0.14577504992485046,-0.047691889107227325
1726995692377890800,6.991890869140625,0.3157808482646942,-0.1141795665025711,-0.00884888507425785
1726995692387876900,7.001876953125,0.36724352836608887,-0.10418712347745895,0.051604337990283966
1726995692397864000,7.011864013671875,0.4546481966972351,-0.0929722860455513,0.1140139177441597
1726995692407850000,7.02185009765625,0.5494290590286255,-0.02635783702135086,0.17594146728515625
1726995692417836000,7.0318359375,0.6732040047645569,0.08565232157707214,0.23992684483528137
1726995692427822800,7.04182275390625,0.8223708271980286,0.18282628059387207,0.27055346965789795
1726995692437809000,7.051808837890625,0.9881677627563477,0.24067306518554688,0.2845472991466522
1726995692447795000,7.061794921875,1.1613774299621582,0.23023933172225952,0.25907257199287415
1726995692457780700,7.07178076171875,1.3247992992401123,0.16456177830696106,0.15651877224445343
1726995692467768000,7.08176806640625,1.4593837261199951,-0.0065140919759869576,0.02408003620803356
1726995692477753900,7.09175390625,1.5480848550796509,-0.20673507452011108,-0.09935854375362396
1726995692487740200,7.101740234375,1.5989922285079956,-0.24418869614601135,-0.1235475018620491
1726995692497727000,7.11172705078125,1.6258294582366943,-0.32795950770378113,-0.10065151005983353
1726995692507712800,7.121712646484375,1.6100372076034546,-0.5623006224632263,-0.09820406138896942
1726995692517699000,7.131698974609375,1.5531238317489624,-0.8216847777366638,-0.1060691773891449
1726995692527686000,7.141685791015625,1.431506872177124,-1.0792102813720703,-0.09907891601324081
1726995692537672000,7.151671875,1.2106764316558838,-1.2812737226486206,-0.08672291040420532
1726995692547658000,7.161657958984375,0.896977424621582,-1.427242398262024,-0.09228971600532532
1726995692557643800,7.171643798828125,0.5507848262786865,-1.5802446603775024,-0.11097285896539688
1726995692567631000,7.181631103515625,0.14738252758979797,-1.722003698348999,-0.0968349352478981
1726995692577617000,7.191616943359375,-0.27425578236579895,-1.8225712776184082,-0.06937667727470398
1726995692587603000,7.20160302734375,-0.5995593070983887,-1.6787800788879395,0.2793877124786377
1726995692597590000,7.211590087890625,-0.719298779964447,-1.535133957862854,0.8106606602668762
1726995692607575800,7.221575927734375,-0.6469345688819885,-1.3552664518356323,1.3130015134811401
1726995692617562000,7.23156201171875,-0.46300414204597473,-1.1055375337600708,1.603367805480957
1726995692627549000,7.241548828125,-0.30372899770736694,-0.932396411895752,1.686091423034668
1726995692637535000,7.251534912109375,-0.20102259516716003,-0.77818763256073,1.6203505992889404
1726995692647521000,7.26152099609375,-0.16442222893238068,-0.6267395615577698,1.4910290241241455
1726995692657506800,7.2715068359375,-0.16614849865436554,-0.45959049463272095,1.3573431968688965
1726995692667494100,7.281494140625,-0.20287056267261505,-0.27686887979507446,1.2534316778182983
1726995692677480000,7.29147998046875,-0.2542554438114166,-0.05998024716973305,1.1439642906188965
1726995692687466000,7.301466064453125,-0.31429827213287354,0.15721172094345093,1.0277361869812012
1726995692697453000,7.311453125,-0.4120863676071167,0.3067370355129242,0.9122756719589233
1726995692707438800,7.32143896484375,-0.5374192595481873,0.45955854654312134,0.7777175903320312
1726995692717425000,7.3314248046875,-0.6793316602706909,0.6393150091171265,0.6532494425773621
1726995692727412000,7.341411865234375,-0.8001957535743713,0.800896942615509,0.5773240327835083
1726995692737398000,7.35139794921875,-0.9194739460945129,0.9251163601875305,0.5533284544944763
1726995692747383800,7.3613837890625,-1.0422136783599854,1.0254557132720947,0.5478532314300537
1726995692757370000,7.3713701171875,-1.1736079454421997,1.1089682579040527,0.5295695662498474
1726995692767357000,7.38135693359375,-1.2754325866699219,1.1646682024002075,0.43731847405433655
1726995692777343000,7.391343017578125,-1.3123325109481812,1.1748780012130737,0.24332450330257416
1726995692787329000,7.4013291015625,-1.292242407798767,1.0752891302108765,-0.07233305275440216
1726995692797315800,7.41131591796875,-1.1802538633346558,0.8897261619567871,-0.5053891539573669
1726995692807302000,7.421302001953125,-1.011162519454956,0.6606269478797913,-0.9792608618736267
1726995692817288000,7.431287841796875,-0.8173496723175049,0.44100961089134216,-1.4038752317428589
1726995692827275000,7.44127490234375,-0.6260191798210144,0.27419987320899963,-1.7039605379104614
1726995692837261000,7.451260986328125,-0.46421560645103455,0.195646733045578,-1.8584054708480835
1726995692847246800,7.461246826171875,-0.3968711793422699,0.20195282995700836,-1.886988878250122
1726995692857233200,7.471233154296875,-0.430141806602478,0.28099384903907776,-1.8271108865737915
1726995692867220000,7.481219970703125,-0.46699753403663635,0.3887445628643036,-1.7375805377960205
1726995692877205800,7.491205810546875,-0.46291518211364746,0.4546127915382385,-1.6617014408111572
1726995692887192000,7.501192138671875,-0.42474809288978577,0.4942704439163208,-1.5688303709030151
1726995692897179000,7.511178955078125,-0.34815850853919983,0.5185467600822449,-1.4611343145370483
1726995692907165000,7.5211650390625,-0.27242007851600647,0.5398209095001221,-1.338404893875122
1726995692917151000,7.53115087890625,-0.2376634180545807,0.6069881916046143,-1.223287582397461
1726995692927137500,7.541137451171875,-0.2203661948442459,0.7067805528640747,-1.0785597562789917
1726995692937123600,7.55112353515625,-0.2437141239643097,0.7846258282661438,-0.8995963931083679
1726995692947109600,7.561109619140625,-0.30404403805732727,0.7055480480194092,-0.6751153469085693
1726995692957095700,7.571095703125,-0.3501146137714386,0.5763075351715088,-0.5451253652572632
1726995692967082800,7.581082763671875,-0.3740617334842682,0.41948968172073364,-0.4615119695663452
1726995692977068500,7.591068603515625,-0.3178972899913788,0.2680293321609497,-0.4264479875564575
1726995692987054600,7.6010546875,-0.23291900753974915,0.11727096885442734,-0.40489262342453003
1726995692997041700,7.611041748046875,-0.17762379348278046,-0.02243660017848015,-0.38834667205810547
1726995693007027700,7.62102783203125,-0.1368025839328766,-0.0880877822637558,-0.3502131402492523
1726995693017013500,7.631013427734375,-0.0981753021478653,-0.12189501523971558,-0.27346697449684143
1726995693027000600,7.64100048828125,-0.07323053479194641,-0.09569510072469711,-0.19466109573841095
1726995693036986600,7.650986572265625,-0.07504414767026901,-0.07599543035030365,-0.11563339084386826
1726995693046972700,7.66097265625,-0.09745651483535767,-0.07790012657642365,-0.045042574405670166
1726995693056958700,7.670958740234375,-0.09785892069339752,-0.10615226626396179,0.022724486887454987
1726995693066945500,7.680945556640625,-0.08698896318674088,-0.17373424768447876,0.08768591284751892
1726995693076931800,7.690931884765625,-0.07923942804336548,-0.20135389268398285,0.14441123604774475
1726995693086917600,7.700917724609375,-0.058163437992334366,-0.20798861980438232,0.1929689198732376
1726995693096904700,7.71090478515625,-0.058222293853759766,-0.19808591902256012,0.24330267310142517
1726995693106890800,7.720890869140625,-0.11108071357011795,-0.08165571093559265,0.32106271386146545
1726995693116876500,7.73087646484375,-0.15979818999767303,0.06528659164905548,0.3632913827896118
1726995693126863600,7.740863525390625,-0.20269478857517242,0.15693555772304535,0.2953813076019287
1726995693136849700,7.750849609375,-0.2207755148410797,0.2211475670337677,0.1503082811832428
1726995693146835500,7.76083544921875,-0.18021823465824127,0.24328802525997162,-0.007242732681334019
1726995693156821800,7.77082177734375,-0.09526180475950241,0.23048806190490723,-0.12392140924930573
1726995693166808600,7.78080859375,0.005114600993692875,0.15557387471199036,-0.17623920738697052
1726995693176795000,7.790794921875,0.09575076401233673,0.02231942117214203,-0.173776313662529
1726995693186780700,7.80078076171875,0.13766439259052277,-0.10003498941659927,-0.15168140828609467
1726995693196767500,7.810767578125,0.11572899669408798,-0.19938580691814423,-0.08140670508146286
1726995693206753800,7.82075390625,0.04787831008434296,-0.279441237449646,0.0542222261428833
1726995693216739600,7.830739501953125,-0.05855598673224449,-0.37013277411460876,0.1835128366947174
1726995693226726700,7.8407265625,-0.11774314194917679,-0.31665465235710144,0.3000365197658539
1726995693236712700,7.850712646484375,-0.1960054636001587,-0.33643049001693726,0.2936529219150543
1726995693246698500,7.860698486328125,-0.18871265649795532,-0.3681735098361969,0.2647134065628052
1726995693256685800,7.870685791015625,-0.10293570160865784,-0.383001446723938,0.265581339597702
1726995693266671600,7.880671630859375,0.002223206916823983,-0.36590340733528137,0.3021095097064972
1726995693276657700,7.89065771484375,0.07897204905748367,-0.347587525844574,0.3734841048717499
1726995693286643700,7.900643798828125,0.10142409056425095,-0.34290727972984314,0.4428962171077728
1726995693296630500,7.910630615234375,0.060922205448150635,-0.3131645619869232,0.49966973066329956
1726995693306616600,7.920616455078125,0.01896330527961254,-0.26271605491638184,0.5241292715072632
1726995693316602600,7.9306025390625,0.03301360830664635,-0.22547493875026703,0.49907639622688293
1726995693326589700,7.940589599609375,0.09683333337306976,-0.21192637085914612,0.4371168911457062
1726995693336575700,7.95057568359375,0.17026999592781067,-0.21591365337371826,0.39208894968032837
1726995693346561800,7.960561767578125,0.19495777785778046,-0.24695172905921936,0.3834672272205353
1726995693356548600,7.970548583984375,0.1699184626340866,-0.24741272628307343,0.38900846242904663
1726995693366534700,7.98053466796875,0.1364220231771469,-0.1974310427904129,0.38728487491607666
1726995693376520700,7.990520751953125,0.1203964501619339,-0.13954883813858032,0.36623552441596985
1726995693386506500,8.000506591796874,0.1405310183763504,-0.07257779687643051,0.32963675260543823
1726995693396493600,8.01049365234375,0.20811006426811218,-0.032520391047000885,0.2821994721889496
1726995693406479600,8.020479736328125,0.3130559027194977,-0.011326956562697887,0.24024829268455505
1726995693416465700,8.030465576171874,0.4195290803909302,-0.014846057631075382,0.19920551776885986
1726995693426452700,8.04045263671875,0.5179787278175354,-0.043532297015190125,0.15975211560726166
1726995693436438500,8.0504384765625,0.6338717341423035,-0.0205145962536335,0.14365489780902863
1726995693446424800,8.0604248046875,0.7646713256835938,0.07151386141777039,0.1417992115020752
1726995693456411600,8.07041162109375,0.8882089853286743,0.16843241453170776,0.13377776741981506
1726995693466397700,8.080397705078125,1.0137258768081665,0.2371278554201126,0.12744984030723572
1726995693476383700,8.0903837890625,1.1181116104125977,0.36739611625671387,0.14136750996112823
1726995693486369500,8.10036962890625,1.1907339096069336,0.5637331604957581,0.15990418195724487
1726995693496356600,8.110356689453125,1.239722490310669,0.7065603137016296,0.16204722225666046
1726995693506342700,8.1203427734375,1.2856253385543823,0.7444525957107544,0.13747183978557587
1726995693516328400,8.130328369140624,1.3280260562896729,0.7033749222755432,0.0996490940451622
1726995693526315800,8.140315673828125,1.3581831455230713,0.5628553628921509,0.04338715597987175
1726995693536301600,8.150301513671875,1.3696269989013672,0.38876134157180786,-0.05041230842471123
1726995693546287600,8.16028759765625,1.3864099979400635,0.24040888249874115,-0.1549224704504013
1726995693556274700,8.170274658203125,1.3830879926681519,0.02002590522170067,-0.2600347697734833
1726995693566260500,8.180260498046875,1.37345290184021,-0.20137812197208405,-0.3859972357749939
1726995693576246800,8.190246826171874,1.3031078577041626,-0.38045546412467957,-0.4649639427661896
1726995693586232600,8.200232666015625,1.2178115844726562,-0.40165048837661743,-0.445758581161499
1726995693596219600,8.2102197265625,1.0910840034484863,-0.5472524166107178,-0.4288429617881775
1726995693606205700,8.220205810546876,0.87770676612854,-0.9227312207221985,-0.4072612524032593
1726995693616191700,8.230191650390625,0.5524229407310486,-1.4178283214569092,-0.3330240249633789
1726995693626178800,8.2401787109375,0.11459315568208694,-2.060037136077881,-0.2836764454841614
1726995693636164600,8.25016455078125,-0.3575807809829712,-2.5165765285491943,-0.12553662061691284
1726995693646150700,8.260150634765624,-0.7703635692596436,-2.4841697216033936,0.3485691547393799
1726995693656137700,8.2701376953125,-0.8994075655937195,-1.7640379667282104,1.0557119846343994
1726995693666123500,8.28012353515625,-0.761225700378418,-0.9834478497505188,1.8359925746917725
1726995693676109600,8.290109619140624,-0.5949312448501587,-0.6513633728027344,2.356029987335205
1726995693686096600,8.3000966796875,-0.45824986696243286,-0.573232889175415,2.6003665924072266
1726995693696082700,8.310082763671875,-0.36762648820877075,-0.525713324546814,2.544804334640503
1726995693706068700,8.32006884765625,-0.33828431367874146,-0.5115506052970886,2.328641176223755
1726995693716054800,8.3300546875,-0.3311081528663635,-0.4625074565410614,2.073179006576538
1726995693726041600,8.34004150390625,-0.3789246678352356,-0.34829646348953247,1.9326131343841553
1726995693736027600,8.350027587890626,-0.46858957409858704,-0.17142075300216675,1.8873976469039917
1726995693746013700,8.360013671875,-0.576290488243103,0.046487607061862946,1.9064925909042358
1726995693756000800,8.370000732421875,-0.707270085811615,0.2812527120113373,1.9547966718673706
1726995693765986600,8.379986572265626,-0.8382371664047241,0.5190037488937378,1.9619417190551758
1726995693775972600,8.38997265625,-0.9753904938697815,0.6438165307044983,1.8753257989883423
1726995693785959700,8.399959716796875,-1.1420875787734985,0.7074714303016663,1.6590033769607544
1726995693795945700,8.40994580078125,-1.3161089420318604,0.6701551675796509,1.2865289449691772
1726995693805931500,8.419931640625,-1.4755613803863525,0.6061801910400391,0.7033962607383728
1726995693815918600,8.429918701171875,-1.526935338973999,0.5013294219970703,-0.04458903893828392
1726995693825904600,8.439904541015625,-1.455729365348816,0.3995463252067566,-0.7709196209907532
1726995693835890400,8.449890380859374,-1.2625846862792969,0.30713143944740295,-1.3014801740646362
1726995693845876700,8.459876708984375,-1.0094006061553955,0.3182632029056549,-1.609707236289978
1726995693855863600,8.469863525390625,-0.7973882555961609,0.3488514721393585,-1.7080026865005493
1726995693865849900,8.479849853515624,-0.6815087795257568,0.39694148302078247,-1.688181757926941
1726995693875835600,8.489835693359375,-0.6569514870643616,0.4966004490852356,-1.621127963066101
1726995693885822500,8.499822509765625,-0.6701189875602722,0.6209673881530762,-1.5299268960952759
1726995693895808800,8.509808837890626,-0.6318240165710449,0.7209815979003906,-1.4529085159301758
1726995693905794600,8.519794677734374,-0.5208994150161743,0.7738456130027771,-1.4141614437103271
1726995693915781600,8.52978173828125,-0.41254016757011414,0.7767740488052368,-1.416778802871704
1726995693925767700,8.539767578125,-0.3576902151107788,0.7446725368499756,-1.455189824104309
1726995693935753500,8.54975341796875,-0.35188135504722595,0.6602767109870911,-1.5013182163238525
1726995693945739500,8.559739501953125,-0.3863900601863861,0.5719090700149536,-1.5343005657196045
1726995693955726300,8.569726318359375,-0.4326472878456116,0.5166561603546143,-1.5285698175430298
1726995693965712400,8.57971240234375,-0.46136656403541565,0.47720277309417725,-1.470289945602417
1726995693975698400,8.589698486328125,-0.4499141573905945,0.40826818346977234,-1.3897138833999634
1726995693985685200,8.599685302734375,-0.41358837485313416,0.3495398759841919,-1.2762839794158936
1726995693995671600,8.609671630859374,-0.3870702087879181,0.4033578336238861,-1.0903223752975464
1726995694005657300,8.6196572265625,-0.3693956136703491,0.49102938175201416,-0.9398798942565918
1726995694015644400,8.62964453125,-0.3256998062133789,0.5603458881378174,-0.8276712894439697
1726995694025630500,8.63963037109375,-0.26430994272232056,0.6405195593833923,-0.7892760038375854
1726995694035616500,8.649616455078124,-0.24257615208625793,0.6132330298423767,-0.7796545028686523
1726995694045602300,8.659602294921875,-0.2422611117362976,0.47170573472976685,-0.7105351090431213
1726995694055589400,8.66958935546875,-0.23918382823467255,0.3645784854888916,-0.6686957478523254
1726995694065575400,8.679575439453124,-0.2532980442047119,0.21622417867183685,-0.5962069034576416
1726995694075561200,8.689561279296875,-0.24270425736904144,0.04385747015476227,-0.503901481628418
1726995694085548300,8.69954833984375,-0.2405870407819748,-0.11169510334730148,-0.41048872470855713
1726995694095534300,8.709534423828124,-0.2787810266017914,-0.17765147984027863,-0.32027333974838257
1726995694105520400,8.719520263671875,-0.2946971356868744,-0.12383965402841568,-0.2227689027786255
1726995694115507500,8.729507568359375,-0.282912939786911,-0.008617190644145012,-0.15116235613822937
1726995694125493200,8.7394931640625,-0.18611900508403778,0.14348872005939484,-0.09160501509904861
1726995694135479600,8.7494794921875,-0.09016504883766174,0.22228074073791504,-0.1010696291923523
1726995694145465300,8.75946533203125,0.055688828229904175,0.21550406515598297,-0.10325714945793152
1726995694155452400,8.769452392578126,0.17625971138477325,0.11708720773458481,-0.12465644627809525
1726995694165438500,8.7794384765625,0.17752471566200256,-0.07497704029083252,-0.12296826392412186
1726995694175424300,8.78942431640625,0.109974704682827,-0.18721462786197662,-0.07591606676578522
1726995694185411300,8.799411376953126,0.08632556349039078,-0.22490261495113373,-0.028254540637135506
1726995694195397400,8.8093974609375,0.11579051613807678,-0.23980966210365295,0.019951071590185165
1726995694205383400,8.819383544921875,0.15391525626182556,-0.20899982750415802,0.08486402779817581
1726995694215370500,8.82937060546875,0.16051484644412994,-0.1749422550201416,0.19150525331497192
1726995694225356300,8.839356201171874,0.1288605034351349,-0.2049022763967514,0.29664283990859985
1726995694235342600,8.849342529296875,0.07847137004137039,-0.2617194950580597,0.3622242510318756
1726995694245329400,8.859329345703125,0.07189176976680756,-0.3148213326931,0.374036967754364
1726995694255315200,8.869315185546874,0.1250378042459488,-0.37186703085899353,0.3565232455730438
1726995694265301500,8.879301513671875,0.1846207082271576,-0.4243435561656952,0.3394608795642853
1726995694275287300,8.889287353515625,0.21790915727615356,-0.4493541121482849,0.326438307762146
1726995694285274600,8.899274658203124,0.23008114099502563,-0.43640899658203125,0.3085365295410156
1726995694295260400,8.909260498046875,0.24468457698822021,-0.39876389503479004,0.28047746419906616
1726995694305246500,8.91924658203125,0.26806554198265076,-0.34744319319725037,0.2383771538734436
1726995694315233500,8.929233642578126,0.28765869140625,-0.3041148781776428,0.1803564578294754
1726995694325219300,8.93921923828125,0.27872776985168457,-0.25678732991218567,0.1116519644856453
1726995694335205400,8.949205322265625,0.25434812903404236,-0.2034415304660797,0.04242362454533577
1726995694345192400,8.9591923828125,0.22925688326358795,-0.135480597615242,-0.035587556660175323
1726995694355178200,8.96917822265625,0.2150459885597229,-0.03778812661767006,-0.11391565203666687
1726995694365164500,8.97916455078125,0.1987977772951126,0.029155755415558815,-0.19137156009674072
1726995694375150300,8.989150390625,0.1951569765806198,0.10291572660207748,-0.2535973787307739
1726995694385137400,8.999137451171874,0.20142978429794312,0.14166179299354553,-0.3130015730857849
1726995694395123500,9.00912353515625,0.23723411560058594,0.12528495490550995,-0.33526721596717834
1726995694405109500,9.019109619140625,0.28354117274284363,0.09500347822904587,-0.3109336495399475
1726995694415096300,9.029096435546874,0.340781033039093,0.042957853525877,-0.25018054246902466
1726995694425082400,9.039082275390625,0.3846171796321869,0.00016964336100500077,-0.15689347684383392
1726995694435068400,9.049068359375,0.4606932997703552,-0.00506826164200902,-0.03593136742711067
1726995694445055500,9.059055419921876,0.5982429385185242,0.08734262734651566,0.09503410011529922
1726995694455041500,9.06904150390625,0.7763093113899231,0.18900373578071594,0.22638307511806488
1726995694465027300,9.07902734375,0.9598245620727539,0.25147297978401184,0.3141973316669464
1726995694475013400,9.089013427734375,1.144067406654358,0.27972590923309326,0.3501843810081482
1726995694485000400,9.09900048828125,1.2955693006515503,0.2613847255706787,0.30095529556274414
1726995694494986200,9.108986328125,1.4230369329452515,0.1799468696117401,0.18562231957912445
1726995694504972500,9.11897265625,1.5388474464416504,0.053111687302589417,0.047389086335897446
1726995694514959400,9.12895947265625,1.6582305431365967,-0.15040680766105652,-0.07279138267040253
1726995694524945400,9.1389453125,1.7646427154541016,-0.3789888620376587,-0.14194248616695404
1726995694534931500,9.148931396484375,1.8504903316497803,-0.5851079225540161,-0.1994372010231018
1726995694544918300,9.158918212890624,1.8637824058532715,-0.7307719588279724,-0.20799846947193146
1726995694554904600,9.168904541015625,1.8212248086929321,-0.8951113224029541,-0.15786872804164886
1726995694564890400,9.178890380859375,1.7201498746871948,-1.0391370058059692,-0.05462249740958214
1726995694574876400,9.18887646484375,1.5124748945236206,-1.1990635395050049,0.06909331679344177
1726995694584863500,9.198863525390625,1.2193427085876465,-1.4412295818328857,0.20088863372802734
1726995694594849300,9.208849365234375,0.875312864780426,-1.7988941669464111,0.31645092368125916
1726995694604835600,9.218835693359376,0.48839685320854187,-2.168898582458496,0.399851530790329
1726995694614822400,9.228822509765624,0.09279598295688629,-2.271864652633667,0.4907374978065491
1726995694624808200,9.23880810546875,-0.1937771886587143,-2.1812686920166016,0.5262914896011353
1726995694634794500,9.24879443359375,-0.39605334401130676,-1.7974421977996826,0.5439876914024353
1726995694644781300,9.25878125,-0.5920060873031616,-1.2655370235443115,0.9015982747077942
1726995694654767600,9.268767578125,-0.60513836145401,-0.8615597486495972,1.4567115306854248
1726995694664753400,9.27875341796875,-0.5928665399551392,-0.7136006951332092,2.0328521728515625
1726995694674739500,9.288739501953126,-0.5987606048583984,-0.5207377672195435,2.4580800533294678
1726995694684726500,9.2987265625,-0.6840614080429077,-0.23139621317386627,2.6784956455230713
1726995694694712300,9.30871240234375,-0.7823352813720703,0.027773573994636536,2.718702793121338
1726995694704698400,9.318698486328126,-0.8858366012573242,0.2689478397369385,2.6589958667755127
1726995694714685400,9.328685546875,-0.9650464653968811,0.5107865929603577,2.5016772747039795
1726995694724671500,9.33867138671875,-1.0472683906555176,0.719370424747467,2.2286288738250732
1726995694734657300,9.3486572265625,-1.1466317176818848,0.9212782382965088,1.7960914373397827
1726995694744644400,9.358644287109374,-1.2397992610931396,1.0197643041610718,1.1809806823730469
1726995694754630400,9.36863037109375,-1.2477306127548218,1.0103939771652222,0.38645556569099426
1726995694764616400,9.378616455078125,-1.1173803806304932,0.9330448508262634,-0.4404996335506439
1726995694774602500,9.3886025390625,-0.909306526184082,0.8072342276573181,-1.1129049062728882
1726995694784589300,9.39858935546875,-0.771603524684906,0.6639547944068909,-1.4887763261795044
1726995694794575400,9.408575439453125,-0.7068897485733032,0.6265171766281128,-1.595523715019226
1726995694804561400,9.4185615234375,-0.6778647899627686,0.7571201920509338,-1.603894591331482
1726995694814548500,9.428548583984375,-0.688593327999115,0.8452156782150269,-1.5408408641815186
1726995694824534500,9.438534423828125,-0.8016951084136963,0.8918172717094421,-1.465585708618164
1726995694834520300,9.448520263671876,-0.8582939505577087,1.0250663757324219,-1.4172635078430176
1726995694844507400,9.45850732421875,-0.848785936832428,1.1653203964233398,-1.4007772207260132
1726995694854493400,9.468493408203125,-0.7668902277946472,1.3149034976959229,-1.4304008483886719
1726995694864479200,9.478479248046876,-0.6502328515052795,1.407833218574524,-1.4793574810028076
1726995694874465500,9.488465576171874,-0.5450167059898376,1.4132215976715088,-1.5210322141647339
1726995694884452400,9.498452392578125,-0.5143008828163147,1.3803411722183228,-1.5630979537963867
1726995694894438400,9.5084384765625,-0.5656626224517822,1.3120739459991455,-1.5977669954299927
1726995694904424400,9.518424560546874,-0.6653143763542175,1.2160502672195435,-1.6069012880325317
1726995694914411300,9.528411376953125,-0.7451314330101013,1.073023796081543,-1.5976755619049072
1726995694924397600,9.5383974609375,-0.779895007610321,0.9778245687484741,-1.5275439023971558
1726995694934383600,9.548383544921874,-0.791329562664032,0.9037812352180481,-1.4149539470672607
1726995694944370400,9.558370361328125,-0.7847930788993835,0.8163334131240845,-1.275871992111206
1726995694954356500,9.5683564453125,-0.7798806428909302,0.716844379901886,-1.144232988357544
1726995694964342500,9.578342529296876,-0.7554146647453308,0.6283771395683289,-1.0014622211456299
1726995694974328600,9.58832861328125,-0.7204825282096863,0.42513638734817505,-0.9347013831138611
1726995694984315600,9.598315673828125,-0.6798735857009888,0.27396735548973083,-0.8801813721656799
1726995694994301400,9.608301513671876,-0.6169649362564087,0.1983245462179184,-0.807025671005249
1726995695004287500,9.61828759765625,-0.5481166243553162,0.18927858769893646,-0.7866120338439941
1726995695014274600,9.628274658203125,-0.5295717120170593,0.20366337895393372,-0.8664035201072693
1726995695024260600,9.638260498046876,-0.5644692182540894,0.11479635536670685,-0.863281786441803
1726995695034246400,9.648246337890624,-0.5316585898399353,-0.06853804737329483,-0.8335241675376892
1726995695044233500,9.6582333984375,-0.4779926836490631,-0.15615898370742798,-0.7915524840354919
1726995695054219500,9.668219482421875,-0.4012177288532257,-0.2529022991657257,-0.6625129580497742
1726995695064205300,9.678205322265624,-0.3113328516483307,-0.19647523760795593,-0.539306104183197
1726995695074191600,9.688191650390625,-0.2515459358692169,-0.1501239836215973,-0.4064052999019623
1726995695084178400,9.698178466796875,-0.20999105274677277,-0.07829134166240692,-0.2800103425979614
1726995695094164700,9.708164794921874,-0.17937961220741272,-0.05644623190164566,-0.17675399780273438
1726995695104150500,9.718150634765625,-0.1626562923192978,-0.06364955008029938,-0.07942238450050354
1726995695114137300,9.728137451171875,-0.13261237740516663,-0.05153216794133186,0.017612548545002937
1726995695124123600,9.73812353515625,-0.06416939944028854,-0.0528927743434906,0.10017666965723038
1726995695134109400,9.748109375,0.02166508138179779,-0.09812790155410767,0.19730880856513977
1726995695144096500,9.758096435546875,0.06887174397706985,-0.19469305872917175,0.29817816615104675
1726995695154082600,9.76808251953125,0.08947688341140747,-0.31013789772987366,0.39998629689216614
1726995695164068400,9.778068359375,0.10498180985450745,-0.43012234568595886,0.5149797201156616
1726995695174054700,9.7880546875,0.13296949863433838,-0.516308605670929,0.6418662667274475
1726995695184041500,9.79804150390625,0.19280806183815002,-0.5202746391296387,0.7565872669219971
1726995695194027500,9.808027587890624,0.26108378171920776,-0.5355808734893799,0.7706685066223145
1726995695204013600,9.818013671875,0.2700232267379761,-0.6005534529685974,0.6988259553909302
1726995695214000400,9.82800048828125,0.2558671832084656,-0.6265634894371033,0.6029894948005676
1726995695223986700,9.837986572265624,0.2249729335308075,-0.6169226169586182,0.5229223370552063
1726995695233972500,9.847972412109375,0.1971879005432129,-0.5906723737716675,0.4653399884700775
1726995695243959600,9.85795947265625,0.1816835105419159,-0.5746545195579529,0.3999314308166504
1726995695253945600,9.867945556640626,0.18002410233020782,-0.53041672706604,0.3259029984474182
1726995695263931400,9.877931396484374,0.18099002540111542,-0.44755086302757263,0.26620903611183167
1726995695273917400,9.88791748046875,0.17368070781230927,-0.3511146306991577,0.2374058961868286
1726995695283904500,9.897904541015626,0.1609494686126709,-0.2269980013370514,0.22999884188175201
1726995695293890600,9.907890625,0.1481713503599167,-0.1441153585910797,0.21023526787757874
1726995695303876600,9.917876708984375,0.1414836347103119,-0.1142277717590332,0.1789761483669281
1726995695313863400,9.927863525390626,0.1627574861049652,-0.09998811781406403,0.15633447468280792
1726995695323849500,9.937849365234374,0.22576095163822174,-0.12842801213264465,0.13064509630203247
1726995695333835500,9.94783544921875,0.32137322425842285,-0.1955053210258484,0.09670177847146988
1726995695343822600,9.957822509765625,0.4294549524784088,-0.23019805550575256,0.107864148914814
1726995695353808600,9.96780859375,0.5380426645278931,-0.22957752645015717,0.1521162986755371
1726995695363794700,9.977794677734375,0.6211903095245361,-0.20172220468521118,0.20570309460163116
1726995695373780500,9.987780517578125,0.7005724906921387,-0.07473229616880417,0.2733156979084015
1726995695383767600,9.997767578125,0.7791813015937805,0.07185102254152298,0.369850218296051
1726995695393753600,10.007753662109375,0.8814544081687927,0.19194333255290985,0.4705083966255188
1726995695403739400,10.017739501953125,1.0170122385025024,0.2972519099712372,0.5553039908409119
1726995695413726500,10.0277265625,1.1322418451309204,0.37028804421424866,0.5965728759765625
1726995695423712500,10.03771240234375,1.2398698329925537,0.3279288709163666,0.5989633202552795
1726995695433698300,10.0476982421875,1.3517459630966187,0.23530173301696777,0.5639800429344177
1726995695443685600,10.057685546875,1.4589158296585083,0.03543549031019211,0.4724205434322357
1726995695453671400,10.06767138671875,1.566750168800354,-0.14630155265331268,0.3603754937648773
1726995695463657700,10.07765771484375,1.6818349361419678,-0.28696706891059875,0.26360180974006653
1726995695473643500,10.0876435546875,1.784091591835022,-0.3949214816093445,0.19215479493141174
1726995695483630300,10.09763037109375,1.7893654108047485,-0.5560568571090698,0.16177745163440704
1726995695493616600,10.10761669921875,1.792776346206665,-0.7395324110984802,0.15428544580936432
1726995695503602400,10.1176025390625,1.7193975448608398,-0.9119725823402405,0.14398939907550812
1726995695513589500,10.127589599609376,1.5368947982788086,-1.2025914192199707,0.18010292947292328
1726995695523575600,10.137575439453125,1.2549126148223877,-1.520725965499878,0.2679542303085327
1726995695533561300,10.147561279296875,0.8947145342826843,-1.9131309986114502,0.3797409236431122
1726995695543548700,10.157548583984376,0.48322656750679016,-2.3245551586151123,0.4636984169483185
1726995695553534500,10.167534423828124,0.07851451635360718,-2.6290502548217773,0.4995940923690796
1726995695563520500,10.1775205078125,-0.2509147822856903,-2.596376657485962,0.5294209718704224
1726995695573506600,10.187506591796875,-0.5608950257301331,-2.1072452068328857,0.9478738903999329
1726995695583493400,10.197493408203124,-0.7002643346786499,-1.5293580293655396,1.529750108718872
1726995695593479700,10.207479736328125,-0.6984752416610718,-1.1860132217407227,2.0921759605407715
1726995695603465500,10.217465576171875,-0.6861194968223572,-0.8426449298858643,2.476090669631958
1726995695613452500,10.22745263671875,-0.7015501260757446,-0.5662679672241211,2.656597375869751
1726995695623438600,10.2374384765625,-0.7506921291351318,-0.2852458655834198,2.7098779678344727
1726995695633424600,10.247424560546875,-0.8956503868103027,-0.09928956627845764,2.680845022201538
1726995695643411700,10.25741162109375,-0.9873371124267578,0.11959031224250793,2.5908243656158447
1726995695653397500,10.2673974609375,-1.106711745262146,0.37227264046669006,2.405538558959961
1726995695663383600,10.277383544921875,-1.2801258563995361,0.5780095458030701,2.1517372131347656
1726995695673369300,10.287369384765626,-1.4963018894195557,0.7024020552635193,1.788954496383667
1726995695683356400,10.2973564453125,-1.6868840456008911,0.8381737470626831,1.2461683750152588
1726995695693342500,10.307342529296875,-1.7618820667266846,0.916784405708313,0.49476340413093567
1726995695703328500,10.31732861328125,-1.717756986618042,0.8183507919311523,-0.3732103407382965
1726995695713315600,10.327315673828124,-1.565796971321106,0.7103849053382874,-1.1025042533874512
1726995695723301400,10.33730126953125,-1.3493316173553467,0.669015109539032,-1.5994762182235718
1726995695733287700,10.34728759765625,-1.0510649681091309,0.7325937747955322,-1.8541641235351562
1726995695743274500,10.3572744140625,-0.7871561050415039,0.8582736849784851,-1.912383794784546
1726995695753260500,10.367260498046875,-0.6423890590667725,1.042030692100525,-1.8410613536834717
1726995695763246600,10.37724658203125,-0.6437057256698608,1.1974354982376099,-1.714544653892517
1726995695773232400,10.387232421875,-0.7330196499824524,1.3469583988189697,-1.6063129901885986
1726995695783219500,10.397219482421875,-0.7625826001167297,1.426145076751709,-1.533205270767212
1726995695793205500,10.40720556640625,-0.7517099976539612,1.3480545282363892,-1.482613205909729
1726995695803191300,10.41719140625,-0.6992254853248596,1.2260648012161255,-1.4649546146392822
1726995695813178600,10.4271787109375,-0.6663506031036377,1.1222933530807495,-1.4958019256591797
1726995695823164400,10.437164306640625,-0.6560401916503906,0.9903888702392578,-1.5215883255004883
1726995695833150700,10.447150634765626,-0.6731389760971069,0.870468020439148,-1.530348777770996
1726995695843137500,10.457137451171874,-0.6575728058815002,0.7832471132278442,-1.5238354206085205
1726995695853123300,10.467123291015625,-0.6196044087409973,0.7784795165061951,-1.4710646867752075
1726995695863109600,10.477109619140625,-0.5753629207611084,0.7239417433738708,-1.4308325052261353
1726995695873095400,10.487095458984374,-0.5220924615859985,0.7094203233718872,-1.3550519943237305
1726995695883082800,10.497082763671875,-0.4731161594390869,0.720730721950531,-1.261772632598877
1726995695893068500,10.507068603515625,-0.434028685092926,0.707648754119873,-1.1712769269943237
1726995695903054600,10.5170546875,-0.3814951479434967,0.7291282415390015,-1.0696258544921875
1726995695913041700,10.527041748046875,-0.3599613606929779,0.6053221225738525,-1.045591950416565
1726995695923027500,10.53702734375,-0.36496758460998535,0.5001533627510071,-1.0173981189727783
1726995695933013800,10.547013671875,-0.36924248933792114,0.3143499493598938,-0.9760842323303223
1726995695943000600,10.55700048828125,-0.3769243657588959,0.18853555619716644,-0.9269257187843323
1726995695952986600,10.566986572265625,-0.3645039200782776,-0.008011055178940296,-0.8819582462310791
1726995695962972700,10.57697265625,-0.3350253999233246,-0.2477855682373047,-0.8651899099349976
1726995695972959700,10.586959716796875,-0.286125510931015,-0.4390791058540344,-0.8394249081611633
1726995695982945800,10.59694580078125,-0.2048812359571457,-0.582417368888855,-0.7538809776306152
1726995695992931600,10.606931640625,-0.15260818600654602,-0.6116588711738586,-0.6185204982757568
1726995696002918000,10.61691796875,-0.1139228418469429,-0.5121604800224304,-0.4656502604484558
1726995696012904700,10.62690478515625,-0.09990396350622177,-0.3055809438228607,-0.41640201210975647
1726995696022890500,10.636890380859375,-0.07147311419248581,-0.19764330983161926,-0.3284263610839844
1726995696032876800,10.646876708984376,-0.0430326871573925,-0.17842912673950195,-0.2176729440689087
1726995696042863600,10.656863525390625,-0.01318238116800785,-0.11555429548025131,-0.11413323134183884
1726995696052849400,10.666849365234375,0.0028826056513935328,-0.042624957859516144,-0.02894030511379242
1726995696062835700,10.676835693359376,-0.03182317689061165,-0.08437640219926834,0.03651966154575348
1726995696072821500,10.686821533203124,-0.07032689452171326,-0.18385052680969238,0.06079597398638725
1726995696082808800,10.696808837890625,-0.11192227154970169,-0.2742842733860016,0.1012941300868988
1726995696092794600,10.706794677734376,-0.11409008502960205,-0.3160855174064636,0.1174512654542923
1726995696102780700,10.71678076171875,-0.08820229768753052,-0.37858858704566956,0.14210361242294312
1726995696112767700,10.726767822265625,-0.03417075425386429,-0.44896236062049866,0.16131804883480072
1726995696122753500,10.73675341796875,0.03642485290765762,-0.48614275455474854,0.2023983746767044
1726995696132739600,10.746739501953124,0.11875168234109879,-0.4022632837295532,0.29782795906066895
1726995696142726700,10.7567265625,0.1041056290268898,-0.3764442205429077,0.3109549582004547
1726995696152712700,10.766712646484375,0.08502008765935898,-0.35280945897102356,0.3199132978916168
1726995696162698800,10.77669873046875,0.09699258953332901,-0.33380141854286194,0.30116117000579834
1726995696172684500,10.7866845703125,0.10315488278865814,-0.2966497838497162,0.2596624791622162
1726995696182671600,10.796671630859375,0.10892914980649948,-0.24596768617630005,0.2170284539461136
1726995696192657700,10.80665771484375,0.11982253938913345,-0.21799172461032867,0.20622719824314117
1726995696202643700,10.816643798828125,0.10432747006416321,-0.18031038343906403,0.22468850016593933
1726995696212630800,10.826630859375,0.06774602085351944,-0.14796416461467743,0.26340794563293457
1726995696222616600,10.836616455078126,0.06306951493024826,-0.18730410933494568,0.2873063385486603
1726995696232602600,10.8466025390625,0.07717787474393845,-0.26201191544532776,0.2991374433040619
1726995696242589700,10.856589599609375,0.12427294999361038,-0.2866205871105194,0.2947642505168915
1726995696252575700,10.86657568359375,0.19640280306339264,-0.308132529258728,0.28259867429733276
1726995696262561500,10.8765615234375,0.2925815284252167,-0.31932634115219116,0.2793419063091278
1726995696272547800,10.8865478515625,0.4034598469734192,-0.28813591599464417,0.3042224645614624
1726995696282534700,10.89653466796875,0.4930861294269562,-0.17704029381275177,0.3640725016593933
1726995696292520700,10.906520751953124,0.6080856919288635,-0.011654258705675602,0.45624688267707825
1726995696302506800,10.9165068359375,0.7621394395828247,0.0648394525051117,0.552987813949585
1726995696312493600,10.92649365234375,0.9602085947990417,0.18309286236763,0.6968091726303101
1726995696322479600,10.936479736328126,1.1661028861999512,0.24754081666469574,0.8409383893013
1726995696332465700,10.946465576171875,1.3421155214309692,0.20977427065372467,0.9266181588172913
1726995696342452700,10.95645263671875,1.480818271636963,0.06083458662033081,0.9370715618133545
1726995696352438800,10.966438720703126,1.6138854026794434,-0.15493552386760712,0.884435772895813
1726995696362424600,10.976424560546874,1.7437409162521362,-0.39465489983558655,0.7462624907493591
1726995696372411600,10.98641162109375,1.8856855630874634,-0.5738004446029663,0.5842245817184448
1726995696382397700,10.996397705078126,1.991957664489746,-0.576440155506134,0.47497451305389404
1726995696392383500,11.006383544921874,2.072489023208618,-0.5406264662742615,0.41148874163627625
1726995696402369800,11.016369873046875,2.0783705711364746,-0.6357676386833191,0.3749874532222748
1726995696412356600,11.026356689453126,2.029527187347412,-0.8262872695922852,0.3919169008731842
1726995696422342700,11.0363427734375,1.8852511644363403,-1.047675609588623,0.4174603521823883
1726995696432328700,11.04632861328125,1.6506019830703735,-1.3450113534927368,0.42318055033683777
1726995696442315500,11.0563154296875,1.2894937992095947,-1.713502287864685,0.4521685242652893
1726995696452301800,11.0663017578125,0.8628473877906799,-2.1300714015960693,0.5419615507125854
1726995696462287600,11.07628759765625,0.40480366349220276,-2.490701198577881,0.6403922438621521
1726995696472274400,11.0862744140625,-0.020111925899982452,-2.5797839164733887,0.7040268778800964
1726995696482260700,11.0962607421875,-0.3807276487350464,-2.356868028640747,0.7240634560585022
1726995696492246500,11.10624658203125,-0.6777550578117371,-1.8815432786941528,1.0649914741516113
1726995696502232600,11.116232666015625,-0.8292266130447388,-1.2755156755447388,1.7738341093063354
1726995696512219600,11.1262197265625,-0.8633244037628174,-1.0275708436965942,2.385188102722168
1726995696522205700,11.136205810546874,-0.8733716607093811,-0.6944546699523926,2.780463457107544
1726995696532191700,11.146191650390625,-0.8985154032707214,-0.36028626561164856,2.9675068855285645
1726995696542178600,11.156178466796876,-0.9673069715499878,-0.10267311334609985,2.999485731124878
1726995696552164600,11.16616455078125,-1.0839571952819824,0.16923004388809204,2.8740689754486084
1726995696562150700,11.176150634765625,-1.2408442497253418,0.39378219842910767,2.6218972206115723
1726995696572136700,11.18613671875,-1.4349298477172852,0.5459866523742676,2.2593891620635986
1726995696582123800,11.196123779296874,-1.6268936395645142,0.7546727061271667,1.738011121749878
1726995696592109600,11.206109619140625,-1.643498182296753,0.8427882194519043,1.0037225484848022
1726995696602095600,11.216095703125,-1.5402599573135376,0.7594781517982483,0.07778800278902054
1726995696612082700,11.226082763671876,-1.3977364301681519,0.6219676733016968,-0.8108862042427063
1726995696622068700,11.23606884765625,-1.2203136682510376,0.6797654628753662,-1.5386133193969727
1726995696632054500,11.246054443359375,-1.020175814628601,0.8753677010536194,-1.9520933628082275
1726995696642041600,11.25604150390625,-0.8703378438949585,1.0046671628952026,-2.066563367843628
1726995696652027600,11.266027587890624,-0.8271504044532776,1.1383748054504395,-2.0173168182373047
1726995696662013400,11.276013427734375,-0.87007737159729,1.2897244691848755,-1.9155888557434082
1726995696671999700,11.285999755859375,-0.8944202661514282,1.3762739896774292,-1.7993144989013672
1726995696681986600,11.295986572265624,-0.8606960773468018,1.3815028667449951,-1.696150541305542
1726995696691972600,11.30597265625,-0.7832551002502441,1.3247852325439453,-1.6313347816467285
1726995696701958700,11.315958740234375,-0.6932884454727173,1.2704486846923828,-1.6066977977752686
1726995696711945500,11.325945556640624,-0.632859468460083,1.2009479999542236,-1.6091711521148682
1726995696721931800,11.335931884765625,-0.584220290184021,1.1053324937820435,-1.600286602973938
1726995696731917600,11.34591748046875,-0.5841130018234253,0.9940088987350464,-1.566511869430542
1726995696741904600,11.355904541015626,-0.6134969592094421,0.8803195953369141,-1.4960134029388428
1726995696751890700,11.365890625,-0.6622219085693359,0.7792332172393799,-1.4162222146987915
1726995696761876500,11.37587646484375,-0.6744124889373779,0.705711841583252,-1.335425853729248
1726995696771863800,11.38586376953125,-0.6880247592926025,0.6299161314964294,-1.2470762729644775
1726995696781849600,11.395849609375,-0.6945396065711975,0.6244465708732605,-1.1414673328399658
1726995696791835600,11.405835693359375,-0.6688123941421509,0.7001668810844421,-1.015569806098938
1726995696801821700,11.41582177734375,-0.6321462988853455,0.8192660808563232,-0.913280725479126
1726995696811808500,11.42580859375,-0.5717431306838989,0.8411956429481506,-0.8605309724807739
1726995696821794800,11.435794921875,-0.5278497338294983,0.7931482195854187,-0.8347614407539368
1726995696831780600,11.445780517578125,-0.48218101263046265,0.6903808116912842,-0.8353713154792786
1726995696841767400,11.455767333984374,-0.418902188539505,0.5816106796264648,-0.8462314009666443
1726995696851753700,11.465753662109375,-0.39950186014175415,0.677092969417572,-0.8232917189598083
1726995696861739500,11.475739501953125,-0.4007735252380371,0.7074123024940491,-0.7856032252311707
1726995696871726800,11.485726806640624,-0.3986128866672516,0.502924382686615,-0.7463130950927734
1726995696881712600,11.495712646484375,-0.3552720844745636,0.294499009847641,-0.7776403427124023
1726995696891698700,11.50569873046875,-0.2890656292438507,0.22228500247001648,-0.739555835723877
1726995696901684700,11.515684814453126,-0.2734405994415283,0.08971364051103592,-0.655643880367279
1726995696911671600,11.525671630859375,-0.2564954459667206,-0.08957089483737946,-0.5394102334976196
1726995696921657600,11.53565771484375,-0.24538765847682953,-0.251270055770874,-0.4191165566444397
1726995696931644000,11.545643798828126,-0.21114791929721832,-0.3816845118999481,-0.3279525637626648
1726995696941631000,11.555630859375,-0.1623004972934723,-0.510848879814148,-0.257436603307724
1726995696951617000,11.565616943359375,-0.07279564440250397,-0.60312819480896,-0.17294567823410034
1726995696961603000,11.57560302734375,0.046115029603242874,-0.688886821269989,-0.0996597483754158
1726995696971590100,11.585590087890624,0.15791825950145721,-0.7039927840232849,-0.03141092136502266
1726995696981576000,11.595575927734375,0.24079503118991852,-0.7242304086685181,0.05630401894450188
1726995696991562200,11.605562255859375,0.26924237608909607,-0.6423240900039673,0.15989965200424194
1726995697001548000,11.615548095703126,0.2208080142736435,-0.5016852021217346,0.27671894431114197
1726995697011535000,11.62553515625,0.18145474791526794,-0.3860481083393097,0.35419055819511414
1726995697021521200,11.635521240234375,0.23702053725719452,-0.24330639839172363,0.4409390389919281
1726995697031507000,11.6455068359375,0.22446133196353912,-0.3136788308620453,0.39021995663642883
1726995697041494000,11.655493896484375,0.2452387809753418,-0.36594176292419434,0.337274968624115
1726995697051480000,11.66547998046875,0.2669893503189087,-0.4237688481807709,0.30385416746139526
1726995697061465900,11.6754658203125,0.27052149176597595,-0.49404728412628174,0.26462578773498535
1726995697071453200,11.685453125,0.25557878613471985,-0.556341290473938,0.23480132222175598
1726995697081439000,11.69543896484375,0.228019580245018,-0.5666631460189819,0.23980726301670074
1726995697091425300,11.70542529296875,0.20527538657188416,-0.5597091317176819,0.25029265880584717
1726995697101411000,11.7154111328125,0.20258213579654694,-0.5718382000923157,0.21865670382976532
1726995697111398000,11.72539794921875,0.20914629101753235,-0.5721993446350098,0.1627923846244812
1726995697121384200,11.73538427734375,0.20938171446323395,-0.5424355864524841,0.10302358865737915
1726995697131370000,11.745369873046876,0.2169743925333023,-0.46986204385757446,0.029219670221209526
1726995697141357000,11.755357177734375,0.2298363894224167,-0.37195491790771484,-0.057305365800857544
1726995697151343000,11.765343017578125,0.2499413937330246,-0.28662538528442383,-0.13817118108272552
1726995697161329200,11.7753291015625,0.2769801914691925,-0.21903593838214874,-0.19667871296405792
1726995697171316200,11.785316162109375,0.31557154655456543,-0.15894651412963867,-0.2364511489868164
1726995697181302000,11.795302001953125,0.3577165901660919,-0.09754173457622528,-0.26035967469215393
1726995697191288000,11.8052880859375,0.42043083906173706,-0.03581072762608528,-0.27859434485435486
1726995697201275100,11.815275146484375,0.4888666272163391,0.03057575225830078,-0.2925058901309967
1726995697211261000,11.825260986328125,0.5955033302307129,0.1882585883140564,-0.25506317615509033
1726995697221247000,11.8352470703125,0.7793359756469727,0.47964224219322205,-0.13285231590270996
1726995697231233000,11.84523291015625,1.0230720043182373,0.768099844455719,0.03545119985938072
1726995697241220000,11.85522021484375,1.2441723346710205,0.8300465941429138,0.14261440932750702
1726995697251206100,11.8652060546875,1.4532523155212402,0.768170177936554,0.20149023830890656
1726995697261192200,11.875192138671874,1.625166893005371,0.5625669360160828,0.17320400476455688
1726995697271179000,11.885178955078125,1.761978030204773,0.24532000720500946,0.07369339466094971
1726995697281165000,11.8951650390625,1.898940920829773,-0.07157192379236221,-0.06966429948806763
1726995697291151000,11.905151123046876,2.027974843978882,-0.295467346906662,-0.18946073949337006
1726995697301138200,11.91513818359375,2.067566156387329,-0.49361157417297363,-0.2581857442855835
1726995697311124000,11.9251240234375,2.0940446853637695,-0.7740416526794434,-0.2983611226081848
1726995697321110000,11.935110107421876,2.0448617935180664,-1.1219381093978882,-0.255235493183136
1726995697331096000,11.945095947265624,1.8830000162124634,-1.3846701383590698,-0.1796232908964157
1726995697341083100,11.955083251953125,1.6459931135177612,-1.6449261903762817,-0.05395803973078728
1726995697351069000,11.96506884765625,1.3421732187271118,-1.9973007440567017,0.1285204291343689
1726995697361055200,11.97505517578125,0.9542497396469116,-2.394815683364868,0.29223984479904175
1726995697371042000,11.9850419921875,0.5185962915420532,-2.774268388748169,0.4209722578525543
1726995697381028000,11.995028076171875,0.18811637163162231,-2.9539926052093506,0.48136264085769653
1726995697391014100,12.00501416015625,-0.12004651129245758,-2.4025778770446777,0.6629531979560852
1726995697401001000,12.0150009765625,-0.4756954312324524,-1.7280972003936768,1.123763918876648
1726995697410987300,12.0249873046875,-0.6191679239273071,-0.9944661259651184,1.7639076709747314
1726995697420973000,12.03497314453125,-0.7194881439208984,-0.6339362263679504,2.4219069480895996
1726995697430959000,12.044958984375,-0.9402098655700684,-0.5683936476707458,2.963926076889038
1726995697440946200,12.0549462890625,-1.0485960245132446,-0.37655261158943176,3.1993539333343506
1726995697450932000,12.064931884765626,-1.1832983493804932,-0.0067660268396139145,3.2631733417510986
1726995697460918000,12.07491796875,-1.3443785905838013,0.16698046028614044,3.219545602798462
1726995697470905000,12.084905029296875,-1.5459316968917847,0.3016546666622162,3.095911741256714
1726995697480891000,12.094890869140626,-1.7697757482528687,0.41847795248031616,2.929265260696411
1726995697490877200,12.104877197265624,-2.0567734241485596,0.5694680213928223,2.565898895263672
1726995697500864000,12.114864013671875,-2.096544027328491,0.8919346928596497,1.830353021621704
1726995697510850000,12.12485009765625,-1.7953606843948364,1.0366644859313965,0.646449089050293
1726995697520836000,12.134836181640624,-1.2999762296676636,0.9399983882904053,-0.6626983284950256
1726995697530822100,12.144822265625,-0.929413378238678,0.9037343859672546,-1.5994013547897339
1726995697540809200,12.154809326171875,-0.709286630153656,1.0181951522827148,-2.0701444149017334
1726995697550795000,12.164794921875,-0.6271834969520569,1.2347184419631958,-2.1594717502593994
1726995697560781000,12.174781005859375,-0.5972767472267151,1.3388762474060059,-2.0432088375091553
1726995697570768100,12.18476806640625,-0.6248196363449097,1.4361889362335205,-1.8585588932037354
1726995697580754000,12.19475390625,-0.69375079870224,1.4066708087921143,-1.681808590888977
1726995697590740000,12.204739990234375,-0.8106614351272583,1.3239428997039795,-1.5485740900039673
1726995697600727000,12.21472705078125,-0.9221067428588867,1.152374267578125,-1.4770429134368896
1726995697610713000,12.224713134765626,-1.0144963264465332,0.9674888849258423,-1.4599579572677612
1726995697620699100,12.23469921875,-1.0029927492141724,0.8578428030014038,-1.5199488401412964
1726995697630685200,12.244685302734375,-0.9164062142372131,0.7516534924507141,-1.581446886062622
1726995697640672000,12.254672119140626,-0.8317294120788574,0.6878822445869446,-1.592378854751587
1726995697650658000,12.264657958984374,-0.7783128023147583,0.6923584938049316,-1.5447971820831299
1726995697660644000,12.27464404296875,-0.7403137683868408,0.7637216448783875,-1.484627604484558
1726995697670631200,12.284631103515625,-0.700853168964386,0.7870996594429016,-1.4201359748840332
1726995697680617200,12.2946171875,-0.6830446124076843,0.7974047660827637,-1.3579514026641846
1726995697690603000,12.30460302734375,-0.655045747756958,0.818225622177124,-1.2538691759109497
1726995697700590000,12.314590087890625,-0.633747935295105,0.8338205218315125,-1.1564295291900635
1726995697710576000,12.324576171875,-0.5950037240982056,0.755465567111969,-1.0610997676849365
1726995697720562000,12.33456201171875,-0.5782657265663147,0.6676691174507141,-0.9721328616142273
1726995697730548200,12.34454833984375,-0.5543907880783081,0.5806575417518616,-0.8738347887992859
1726995697740535000,12.35453515625,-0.5169499516487122,0.39054885506629944,-0.8167589902877808
1726995697750521000,12.36452099609375,-0.45360344648361206,0.19263921678066254,-0.7830817103385925
1726995697760507100,12.374507080078125,-0.3733951449394226,0.06865523010492325,-0.747327983379364
1726995697770494000,12.384493896484376,-0.30437347292900085,-0.004853078629821539,-0.6831018924713135
1726995697780480300,12.394480224609374,-0.22591088712215424,-0.16028155386447906,-0.6571648120880127
