time,seconds_elapsed,z,y,x
1726407097067435000,0.01643505859375,-1.0309906005859375,-0.3175811767578125,0.026031494140625
1726407097077431000,0.02643115234375,-1.0410919189453125,-0.3191986083984375,-0.0611114501953125
1726407097087428000,0.036427978515625,-1.0630340576171875,-0.2694091796875,-0.122894287109375
1726407097097424100,0.046424072265625,-1.09442138671875,-0.2857208251953125,-0.11309814453125
1726407097107421000,0.0564208984375,-1.147247314453125,-0.3177032470703125,-0.0631256103515625
1726407097117417200,0.066417236328125,-1.1485137939453125,-0.31451416015625,-0.0765380859375
1726407097127413000,0.0764130859375,-1.0843505859375,-0.30548095703125,-0.0305938720703125
1726407097137410000,0.08641015625,-1.0017242431640625,-0.292999267578125,0.08819580078125
1726407097147406000,0.096406005859375,-0.943267822265625,-0.37249755859375,0.1285247802734375
1726407097157403000,0.10640283203125,-0.910614013671875,-0.4295806884765625,0.1183929443359375
1726407097167399000,0.11639892578125,-0.9464874267578125,-0.38885498046875,0.103912353515625
1726407097177396000,0.12639599609375,-0.962127685546875,-0.363800048828125,0.090301513671875
1726407097187392000,0.13639208984375,-0.9397125244140625,-0.3757781982421875,0.104888916015625
1726407097197388000,0.146387939453125,-0.9337615966796875,-0.39483642578125,0.1177520751953125
1726407097207385000,0.156385009765625,-0.9566650390625,-0.41107177734375,0.1302490234375
1726407097217381000,0.166381103515625,-0.967529296875,-0.4461822509765625,0.150390625
1726407097227378200,0.176378173828125,-0.9488525390625,-0.4231109619140625,0.1373291015625
1726407097237374000,0.1863740234375,-0.9308929443359375,-0.3803863525390625,0.111602783203125
1726407097247371000,0.19637109375,-0.9414215087890625,-0.3519134521484375,0.0953369140625
1726407097257367000,0.206366943359375,-0.9371337890625,-0.3303985595703125,0.0765380859375
1726407097267363000,0.216363037109375,-0.8730926513671875,-0.31329345703125,0.0787811279296875
1726407097277359900,0.22635986328125,-0.8139190673828125,-0.3164825439453125,0.079345703125
1726407097287356200,0.236356201171875,-0.9080810546875,-0.2875213623046875,0.0312347412109375
1726407097297353000,0.24635302734375,-0.9789276123046875,-0.2259368896484375,-0.0753021240234375
1726407097307349000,0.256348876953125,-1.0218505859375,-0.266510009765625,-0.1763916015625
1726407097317346000,0.266345947265625,-1.016143798828125,-0.27728271484375,-0.1537628173828125
1726407097327342000,0.276342041015625,-1.0215301513671875,-0.334075927734375,-0.1245880126953125
1726407097337337900,0.286337890625,-1.0321502685546875,-0.43951416015625,-0.1147918701171875
1726407097347335200,0.296335205078125,-0.9520721435546875,-0.4675140380859375,-0.0524444580078125
1726407097357331000,0.3063310546875,-0.8652801513671875,-0.4268951416015625,0.0001373291015625
1726407097367328000,0.316327880859375,-0.8206787109375,-0.3555908203125,-0.01214599609375
1726407097377324000,0.326323974609375,-0.81793212890625,-0.318206787109375,-0.050750732421875
1726407097387321000,0.336321044921875,-0.942535400390625,-0.381744384765625,0.1651153564453125
1726407097397316900,0.34631689453125,-0.746337890625,-0.4682159423828125,0.38543701171875
1726407097407313200,0.356313232421875,-0.5964813232421875,-0.3974456787109375,0.08734130859375
1726407097417310000,0.36631005859375,-0.56610107421875,-0.3199920654296875,-0.222930908203125
1726407097427306000,0.376305908203125,-0.6687164306640625,-0.331787109375,-0.24078369140625
1726407097437303000,0.386302978515625,-0.7836456298828125,-0.2985687255859375,-0.2547607421875
1726407097447299000,0.396299072265625,-0.8328094482421875,-0.225341796875,-0.30303955078125
1726407097457296100,0.406296142578125,-0.758880615234375,-0.1939697265625,-0.344451904296875
1726407097467292200,0.416292236328125,-0.3803253173828125,-0.1071014404296875,-0.4370269775390625
1726407097477289000,0.4262890625,-0.2454376220703125,-0.157196044921875,-0.470672607421875
1726407097487285200,0.43628515625,-0.3614501953125,-0.305450439453125,-0.53887939453125
1726407097497281000,0.446281005859375,-0.526611328125,-0.284027099609375,-0.5829620361328125
1726407097507278000,0.456278076171875,-0.633056640625,-0.1966705322265625,-0.7272186279296875
1726407097517274000,0.466274169921875,-0.6107330322265625,-0.1190185546875,-0.789794921875
1726407097527271000,0.47627099609375,-0.519805908203125,-0.1165618896484375,-0.843109130859375
1726407097537267000,0.486266845703125,-0.408416748046875,-0.10357666015625,-0.84893798828125
1726407097547264000,0.496263916015625,-0.309722900390625,0.056671142578125,-0.80853271484375
1726407097557260000,0.506260009765625,-0.298431396484375,0.20849609375,-0.7541046142578125
1726407097567256000,0.516256103515625,-0.289520263671875,0.280487060546875,-0.6477508544921875
1726407097577253000,0.526253173828125,-0.2330474853515625,0.410491943359375,-0.5211029052734375
1726407097587249200,0.536249267578125,-0.0503082275390625,0.6027984619140625,-0.40960693359375
1726407097597246000,0.546245849609375,0.2403717041015625,0.78643798828125,-0.33599853515625
1726407097607242000,0.556241943359375,0.48724365234375,0.932647705078125,-0.3497314453125
1726407097617239000,0.566239013671875,0.5390472412109375,1.0826416015625,-0.40655517578125
1726407097627234800,0.57623486328125,0.2254791259765625,1.20831298828125,-0.4128570556640625
1726407097637231000,0.586231201171875,-0.0132598876953125,1.3615875244140625,-0.5220794677734375
1726407097647228000,0.596227783203125,-0.05462646484375,1.5934600830078125,-0.771575927734375
1726407097657224000,0.606223876953125,-0.1918182373046875,1.782989501953125,-1.0068511962890625
1726407097667221000,0.616220947265625,-0.36865234375,1.8564910888671875,-1.1469879150390625
1726407097677217000,0.626217041015625,-0.4436492919921875,2.0059356689453125,-1.261627197265625
1726407097687214000,0.636214111328125,-0.3356170654296875,2.119781494140625,-1.349151611328125
1726407097697210000,0.646210205078125,-0.0752410888671875,2.12640380859375,-1.5760650634765625
1726407097707206000,0.656205810546875,-0.0298614501953125,2.0511016845703125,-2.0259552001953125
1726407097717203200,0.666203125,-0.0106964111328125,1.8377227783203125,-2.5220947265625
1726407097727199000,0.676198974609375,-0.08209228515625,1.66363525390625,-2.8940582275390625
1726407097737196000,0.686196044921875,-0.5260772705078125,1.5012664794921875,-2.8679046630859375
1726407097747192000,0.696192138671875,-0.811553955078125,1.4592437744140625,-2.8807525634765625
1726407097757189000,0.706189208984375,-0.6649627685546875,1.294952392578125,-3.25634765625
1726407097767185000,0.716184814453125,-0.3291778564453125,0.9930267333984375,-3.6558837890625
1726407097777181200,0.72618115234375,0.0445404052734375,0.5352325439453125,-3.6645050048828125
1726407097787178000,0.736177978515625,0.7551116943359375,0.25714111328125,-3.6895294189453125
1726407097797174000,0.746174072265625,1.3991546630859375,0.0628814697265625,-3.6219635009765625
1726407097807171000,0.756171142578125,1.7360687255859375,-0.1489715576171875,-3.411163330078125
1726407097817167000,0.7661669921875,1.7433319091796875,-0.24615478515625,-3.143157958984375
1726407097827164000,0.776163818359375,1.6293487548828125,-0.2490386962890625,-2.91259765625
1726407097837160200,0.78616015625,1.4998779296875,-0.1334381103515625,-2.60076904296875
1726407097847156000,0.796156005859375,1.3325042724609375,0.0068359375,-2.203582763671875
1726407097857153000,0.806153076171875,1.1762542724609375,0.088897705078125,-1.8887176513671875
1726407097867149000,0.816149169921875,1.2446746826171875,0.1113433837890625,-1.53814697265625
1726407097877146000,0.82614599609375,1.284912109375,0.2478485107421875,-1.35528564453125
1726407097887142000,0.836141845703125,1.1308746337890625,0.2380523681640625,-1.3367156982421875
1726407097897139200,0.84613916015625,1.0213623046875,0.251678466796875,-1.223907470703125
1726407097907135000,0.856135009765625,0.9168243408203125,0.40185546875,-1.1540985107421875
1726407097917131000,0.866131103515625,0.7221221923828125,0.58013916015625,-1.0698699951171875
1726407097927128000,0.876128173828125,0.2714691162109375,0.9079132080078125,-0.84808349609375
1726407097937124000,0.8861240234375,-0.41534423828125,1.0558929443359375,-0.5417327880859375
1726407097947121200,0.89612109375,-0.3076019287109375,0.9242706298828125,-0.5795440673828125
1726407097957117200,0.9061171875,-0.18701171875,0.871429443359375,-0.5380401611328125
1726407097967114000,0.916114013671875,0.11004638671875,0.658050537109375,-0.6848297119140625
1726407097977110300,0.9261103515625,0.1713409423828125,0.637237548828125,-0.767425537109375
1726407097987106000,0.93610595703125,0.1139373779296875,0.7284088134765625,-0.8354034423828125
1726407097997102800,0.946102783203125,-0.1345062255859375,0.8649444580078125,-0.7635040283203125
1726407098007098600,0.9560986328125,-0.18707275390625,0.9086761474609375,-0.9534759521484375
1726407098017095700,0.966095703125,-0.0317535400390625,0.9515838623046875,-0.8855743408203125
1726407098027091500,0.976091552734375,0.0599212646484375,0.841064453125,-0.844696044921875
1726407098037088500,0.986088623046875,0.067596435546875,0.818450927734375,-0.8131866455078125
1726407098047084500,0.99608447265625,0.365997314453125,0.3567962646484375,-1.0539398193359375
1726407098057080600,1.00608056640625,-0.40399169921875,0.5748443603515625,-0.8830108642578125
1726407098067077600,1.01607763671875,-0.3530426025390625,0.5310516357421875,-1.070556640625
1726407098077073700,1.02607373046875,0.010040283203125,0.66876220703125,-1.2008514404296875
1726407098087070700,1.03607080078125,0.04937744140625,0.855255126953125,-1.1870574951171875
1726407098097066800,1.046066650390625,0.1148834228515625,0.9658966064453125,-0.9317626953125
1726407098107063600,1.0560634765625,0.16082763671875,1.17041015625,-0.523284912109375
1726407098117059600,1.0660595703125,0.1690521240234375,1.2520904541015625,-0.2742156982421875
1726407098127055600,1.0760556640625,0.22119140625,1.1448974609375,-0.1221771240234375
1726407098137052400,1.086052490234375,0.4842529296875,0.882354736328125,-0.059600830078125
1726407098147048700,1.096048583984375,0.67327880859375,0.54986572265625,-0.2027587890625
1726407098157045500,1.10604541015625,0.6784210205078125,0.3989410400390625,-0.4902801513671875
1726407098167041500,1.11604150390625,0.7332000732421875,0.1107025146484375,-0.703857421875
1726407098177038600,1.12603857421875,0.8572540283203125,0.2280120849609375,-0.435150146484375
1726407098187034600,1.13603466796875,0.9248199462890625,0.9703216552734375,-0.4221649169921875
1726407098197030700,1.14603076171875,1.0401153564453125,1.489044189453125,-0.5733795166015625
1726407098207027700,1.15602783203125,1.020782470703125,1.53680419921875,-0.7000274658203125
1726407098217023500,1.1660234375,0.8708648681640625,1.4451904296875,-0.66290283203125
1726407098227020500,1.1760205078125,0.39215087890625,1.297821044921875,-0.817474365234375
1726407098237016600,1.1860166015625,-0.3265838623046875,1.21124267578125,-1.0132293701171875
1726407098247013600,1.196013671875,-1.09393310546875,0.95452880859375,-0.9614105224609375
1726407098257009400,1.206009521484375,-0.93792724609375,0.7770233154296875,-1.173980712890625
1726407098267005700,1.216005615234375,-0.7373046875,0.7347564697265625,-1.13421630859375
1726407098277002500,1.22600244140625,-0.6571807861328125,0.77117919921875,-1.060821533203125
1726407098286998500,1.23599853515625,-0.619964599609375,0.76678466796875,-0.8217926025390625
1726407098296995600,1.24599560546875,-0.4505462646484375,0.57733154296875,-0.7343902587890625
1726407098306991600,1.25599169921875,0.0518341064453125,0.3819580078125,-0.756805419921875
1726407098316988700,1.26598876953125,0.3641510009765625,0.3599090576171875,-0.7170867919921875
1726407098326984700,1.275984619140625,0.40203857421875,0.66595458984375,-0.78643798828125
1726407098336980500,1.28598046875,0.73883056640625,1.4753570556640625,-1.3220367431640625
1726407098346977800,1.295977783203125,0.9028472900390625,2.2506866455078125,-1.441986083984375
1726407098356973600,1.3059736328125,0.57666015625,2.0333251953125,-1.0878143310546875
1726407098366970600,1.315970703125,0.4771270751953125,1.4955596923828125,-0.7639617919921875
1726407098376966700,1.325966552734375,0.477447509765625,1.2095184326171875,-0.4362030029296875
1726407098386963700,1.335963623046875,0.4615631103515625,1.072601318359375,-0.124176025390625
1726407098396959500,1.34595947265625,0.48504638671875,1.0561065673828125,0.0493316650390625
1726407098406955800,1.355955810546875,0.5296783447265625,0.91790771484375,0.01409912109375
1726407098416952600,1.36595263671875,0.6747894287109375,0.698333740234375,-0.129913330078125
1726407098426948600,1.375948486328125,0.6591339111328125,0.554107666015625,-0.290557861328125
1726407098436945700,1.385945556640625,0.55035400390625,0.5186920166015625,-0.405609130859375
1726407098446941700,1.395941650390625,0.4295806884765625,0.4888458251953125,-0.4925537109375
1726407098456937500,1.4059375,0.3537445068359375,0.519073486328125,-0.527099609375
1726407098466934800,1.415934814453125,0.295196533203125,0.744537353515625,-0.578704833984375
1726407098476930600,1.4259306640625,0.3297119140625,0.6891326904296875,-0.653839111328125
1726407098486927600,1.435927734375,0.2084808349609375,0.4276885986328125,-0.592742919921875
1726407098496923600,1.445923583984375,0.0597686767578125,0.32861328125,-0.4516754150390625
1726407098506920700,1.455920654296875,-0.021484375,0.28155517578125,-0.46990966796875
1726407098516916500,1.46591650390625,-0.091522216796875,0.3398284912109375,-0.4257659912109375
1726407098526912800,1.475912841796875,0.0994415283203125,0.71685791015625,-0.237823486328125
1726407098536909600,1.48590966796875,0.2713165283203125,0.863433837890625,-0.18060302734375
1726407098546905600,1.495905517578125,0.307891845703125,0.90838623046875,-0.154144287109375
1726407098556902700,1.505902587890625,0.28192138671875,0.9571533203125,-0.1159210205078125
1726407098566898700,1.515898681640625,0.2500762939453125,0.9282989501953125,-0.04718017578125
1726407098576895700,1.525895751953125,0.252685546875,0.920166015625,-0.0016632080078125
1726407098586891800,1.535891845703125,0.1832275390625,0.8731231689453125,-0.0488433837890625
1726407098596887600,1.545887451171875,0.1147003173828125,0.854583740234375,-0.09466552734375
1726407098606884600,1.555884521484375,0.069305419921875,0.9339447021484375,-0.0606231689453125
1726407098616880600,1.565880615234375,0.0839691162109375,0.982635498046875,-0.006011962890625
1726407098626877400,1.57587744140625,0.0008087158203125,1.041290283203125,-0.04705810546875
1726407098636873700,1.585873779296875,-0.03369140625,1.028564453125,-0.09844970703125
1726407098646870500,1.59587060546875,-0.157257080078125,0.951507568359375,-0.2262725830078125
1726407098656866600,1.605866455078125,-0.159027099609375,0.992462158203125,-0.2623443603515625
1726407098666862800,1.61586279296875,-0.08831787109375,1.0612335205078125,-0.1346588134765625
1726407098676859600,1.625859619140625,-0.063232421875,1.0947418212890625,0.0569610595703125
1726407098686855700,1.635855712890625,-0.05419921875,1.232574462890625,0.19940185546875
1726407098696852700,1.645852783203125,-0.1646728515625,1.3050384521484375,0.2592010498046875
1726407098706848500,1.6558486328125,-0.320648193359375,1.280487060546875,0.2246856689453125
1726407098716845600,1.665845458984375,-0.398590087890625,1.19879150390625,0.1640472412109375
1726407098726841600,1.675841552734375,-0.4235687255859375,1.140411376953125,0.122467041015625
1726407098736837600,1.685837646484375,-0.4656524658203125,1.091644287109375,0.0111083984375
1726407098746834400,1.69583447265625,-0.454986572265625,1.1266632080078125,0.034637451171875
1726407098756830700,1.705830810546875,-0.31719970703125,1.1518707275390625,0.0810546875
1726407098766827500,1.71582763671875,-0.2574310302734375,1.0993499755859375,0.0212860107421875
1726407098776823600,1.725823486328125,-0.12921142578125,1.08563232421875,-0.0319061279296875
1726407098786819600,1.735819580078125,0.041046142578125,1.0913238525390625,-0.035125732421875
1726407098796816600,1.745816650390625,0.1116943359375,1.0578460693359375,-0.0423431396484375
1726407098806812400,1.7558125,0.1631927490234375,1.00177001953125,-0.0257415771484375
1726407098816809700,1.765809814453125,0.2220458984375,0.9603424072265625,-0.0299224853515625
1726407098826805500,1.775805419921875,0.287872314453125,0.9292755126953125,-0.0520477294921875
1726407098836802800,1.785802734375,0.385498046875,0.8663177490234375,-0.0997467041015625
1726407098846798600,1.795798583984375,0.4191131591796875,0.7862091064453125,-0.0921783447265625
1726407098856794600,1.805794677734375,0.46942138671875,0.7325439453125,-0.1307525634765625
1726407098866791700,1.815791748046875,0.504638671875,0.699615478515625,-0.1790313720703125
1726407098876787700,1.82578759765625,0.56329345703125,0.7193756103515625,-0.0998992919921875
1726407098886784500,1.835784423828125,0.5900115966796875,0.7422943115234375,-0.0196990966796875
1726407098896780800,1.84578076171875,0.5396270751953125,0.822296142578125,0.0444183349609375
1726407098906777600,1.855777587890625,0.4964599609375,0.9765777587890625,0.1723480224609375
1726407098916773600,1.865773681640625,0.52520751953125,1.1553802490234375,0.338104248046875
1726407098926769700,1.875769775390625,0.4493865966796875,1.250732421875,0.3663787841796875
1726407098936766700,1.8857666015625,0.3531036376953125,1.1737213134765625,0.38543701171875
1726407098946762500,1.895762451171875,0.3576812744140625,1.030364990234375,0.4319305419921875
1726407098956759800,1.905759765625,0.387298583984375,0.914031982421875,0.4293975830078125
1726407098966755600,1.915755615234375,0.544891357421875,0.9076385498046875,0.4723358154296875
1726407098976751600,1.925751708984375,0.803131103515625,0.9657745361328125,0.5558929443359375
1726407098986748700,1.935748779296875,1.17364501953125,0.9495391845703125,0.680816650390625
1726407098996744700,1.94574462890625,1.4479217529296875,0.91314697265625,0.8608551025390625
1726407099006741500,1.955741455078125,1.4969482421875,0.78216552734375,0.8025360107421875
1726407099016737500,1.965737548828125,1.1016845703125,0.63592529296875,0.57818603515625
1726407099026734600,1.975734619140625,0.7165374755859375,0.5990447998046875,0.337738037109375
1726407099036730600,1.985730712890625,0.517333984375,0.630523681640625,0.3347320556640625
1726407099046726400,1.995726318359375,0.4180145263671875,0.6704864501953125,0.3114471435546875
1726407099056723700,2.0057236328125,0.421051025390625,0.8134613037109375,0.2740325927734375
1726407099066719500,2.015719482421875,0.422210693359375,0.963592529296875,0.2432708740234375
1726407099076716500,2.025716552734375,0.4269561767578125,1.090728759765625,0.2667999267578125
1726407099086712600,2.035712646484375,0.440582275390625,1.12872314453125,0.2117919921875
1726407099096709400,2.04570947265625,0.3826751708984375,1.06756591796875,0.155548095703125
1726407099106705400,2.055705322265625,0.3549346923828125,1.0389251708984375,0.1320037841796875
1726407099116701700,2.06570166015625,0.3447113037109375,1.0440216064453125,0.1163482666015625
1726407099126698500,2.075698486328125,0.3422698974609375,1.0445709228515625,0.09869384765625
1726407099136694500,2.085694580078125,0.3570556640625,1.076629638671875,0.121917724609375
1726407099146691600,2.095691650390625,0.34075927734375,1.057952880859375,0.1070709228515625
1726407099156687600,2.1056875,0.322265625,0.9988250732421875,0.0867462158203125
1726407099166683400,2.115683349609375,0.325836181640625,1.02081298828125,0.0992889404296875
1726407099176680400,2.125680419921875,0.3436126708984375,1.049957275390625,0.060516357421875
1726407099186676500,2.135676513671875,0.2969818115234375,0.9874267578125,0.0316619873046875
1726407099196673500,2.145673583984375,0.2685089111328125,0.9345703125,0.016571044921875
1726407099206669600,2.155669677734375,0.241973876953125,0.9031219482421875,0.0360565185546875
1726407099216666400,2.165666259765625,0.192169189453125,0.8278656005859375,0.050933837890625
1726407099226662700,2.17566259765625,0.1674041748046875,0.7660064697265625,0.08282470703125
1726407099236658700,2.18565869140625,0.1573028564453125,0.735198974609375,0.124053955078125
1726407099246655500,2.195655517578125,0.1486663818359375,0.751556396484375,0.1840972900390625
1726407099256651500,2.205651611328125,0.14373779296875,0.8152008056640625,0.2613525390625
1726407099266648600,2.215648681640625,0.1333160400390625,0.8982086181640625,0.344635009765625
1726407099276644400,2.225644287109375,0.0944061279296875,0.964996337890625,0.4922332763671875
1726407099286641700,2.2356416015625,0.1243743896484375,1.013824462890625,0.600372314453125
1726407099296637400,2.245637451171875,0.1312103271484375,1.0312652587890625,0.6550140380859375
1726407099306633500,2.255633544921875,0.0946807861328125,1.0215606689453125,0.7362213134765625
1726407099316630500,2.265630615234375,0.0462188720703125,0.9659881591796875,0.739501953125
1726407099326626600,2.27562646484375,-0.0075531005859375,0.880584716796875,0.7503662109375
1726407099336623400,2.285623291015625,-0.026153564453125,0.7801513671875,0.73858642578125
1726407099346619600,2.29561962890625,-0.0366973876953125,0.700439453125,0.742279052734375
1726407099356615400,2.305615478515625,-0.0292816162109375,0.6582489013671875,0.7686767578125
1726407099366612500,2.315612548828125,0.0112152099609375,0.6370086669921875,0.7911834716796875
1726407099376608500,2.3256083984375,0.0995330810546875,0.6273040771484375,0.8097381591796875
1726407099386605600,2.33560546875,0.21807861328125,0.63739013671875,0.86175537109375
1726407099396601300,2.345601318359375,0.352203369140625,0.66168212890625,0.9464111328125
1726407099406598700,2.3555986328125,0.5020751953125,0.6399993896484375,0.96929931640625
1726407099416594400,2.365594482421875,0.65399169921875,0.56109619140625,0.945953369140625
1726407099426590500,2.375590576171875,0.722747802734375,0.480255126953125,0.88165283203125
1726407099436587500,2.38558740234375,0.6943511962890625,0.430511474609375,0.73443603515625
1726407099446583600,2.39558349609375,0.61370849609375,0.45208740234375,0.6874237060546875
1726407099456580600,2.40558056640625,0.5403900146484375,0.5155029296875,0.70758056640625
1726407099466576600,2.41557666015625,0.4788818359375,0.590301513671875,0.69122314453125
1726407099476572400,2.425572509765625,0.4289703369140625,0.678558349609375,0.67315673828125
1726407099486569700,2.43556982421875,0.413299560546875,0.759979248046875,0.6425628662109375
1726407099496565500,2.4455654296875,0.4259796142578125,0.8401031494140625,0.6003570556640625
1726407099506562600,2.4555625,0.4320526123046875,0.9194183349609375,0.5516510009765625
1726407099516558600,2.46555859375,0.4176025390625,0.9689483642578125,0.5185089111328125
1726407099526555600,2.4755556640625,0.3794097900390625,0.9880523681640625,0.493927001953125
1726407099536551400,2.485551513671875,0.318389892578125,0.9940185546875,0.455780029296875
1726407099546547500,2.49554736328125,0.295623779296875,0.974822998046875,0.426727294921875
1726407099556544500,2.50554443359375,0.30548095703125,0.95263671875,0.399658203125
1726407099566540500,2.51554052734375,0.335693359375,0.943389892578125,0.3623504638671875
1726407099576537600,2.52553759765625,0.3803253173828125,0.947784423828125,0.3150634765625
1726407099586533600,2.53553369140625,0.392608642578125,0.948150634765625,0.289764404296875
1726407099596529400,2.545529296875,0.39801025390625,0.9314117431640625,0.276611328125
1726407099606526700,2.555526611328125,0.4138336181640625,0.8996429443359375,0.2646484375
1726407099616522500,2.5655224609375,0.4151611328125,0.86895751953125,0.2669219970703125
1726407099626519600,2.57551953125,0.4323883056640625,0.85321044921875,0.276275634765625
1726407099636515600,2.585515625,0.435272216796875,0.8492584228515625,0.30218505859375
1726407099646512400,2.595512451171875,0.422332763671875,0.857330322265625,0.3199005126953125
1726407099656508400,2.60550830078125,0.4091949462890625,0.852325439453125,0.3145751953125
1726407099666504700,2.615504638671875,0.3743896484375,0.8227386474609375,0.31787109375
1726407099676501500,2.62550146484375,0.3520050048828125,0.8069915771484375,0.3563385009765625
1726407099686497500,2.63549755859375,0.358184814453125,0.8117523193359375,0.4022979736328125
1726407099696494600,2.64549462890625,0.373199462890625,0.836517333984375,0.432464599609375
1726407099706490600,2.65549072265625,0.3863677978515625,0.8411712646484375,0.469940185546875
1726407099716487700,2.66548779296875,0.3978118896484375,0.829437255859375,0.5083770751953125
1726407099726483500,2.6754833984375,0.38787841796875,0.812286376953125,0.5296630859375
1726407099736479500,2.6854794921875,0.3734283447265625,0.800750732421875,0.5433197021484375
1726407099746476500,2.6954765625,0.3680877685546875,0.7985687255859375,0.562347412109375
1726407099756472600,2.70547265625,0.3681793212890625,0.79986572265625,0.5904998779296875
1726407099766469400,2.715469482421875,0.3611297607421875,0.798583984375,0.6316986083984375
1726407099776465400,2.72546533203125,0.3666229248046875,0.7978057861328125,0.65521240234375
1726407099786461700,2.735461669921875,0.370086669921875,0.7923126220703125,0.659912109375
1726407099796458500,2.74545849609375,0.3610382080078125,0.7758026123046875,0.650054931640625
1726407099806454500,2.75545458984375,0.3575439453125,0.7518768310546875,0.63897705078125
1726407099816451600,2.76545166015625,0.3643341064453125,0.735382080078125,0.6286773681640625
1726407099826447400,2.775447265625,0.376861572265625,0.7190093994140625,0.607147216796875
1726407099836444700,2.785444580078125,0.3819122314453125,0.697296142578125,0.5789337158203125
1726407099846440400,2.7954404296875,0.3889312744140625,0.685150146484375,0.5562744140625
1726407099856436500,2.8054365234375,0.3997039794921875,0.702392578125,0.53271484375
1726407099866433500,2.81543359375,0.402130126953125,0.72845458984375,0.5096435546875
1726407099876429600,2.8254296875,0.3882293701171875,0.755035400390625,0.48876953125
1726407099886426400,2.83542626953125,0.358856201171875,0.7690277099609375,0.47418212890625
1726407099896422700,2.845422607421875,0.3307647705078125,0.783935546875,0.4593658447265625
1726407099906418700,2.855418701171875,0.311126708984375,0.7955780029296875,0.4516448974609375
1726407099916415500,2.86541552734375,0.301849365234375,0.806396484375,0.447265625
1726407099926411500,2.87541162109375,0.2922210693359375,0.811553955078125,0.4565582275390625
1726407099936408600,2.88540869140625,0.2790985107421875,0.8141326904296875,0.4546966552734375
1726407099946404400,2.895404296875,0.25897216796875,0.81280517578125,0.4576568603515625
1726407099956401700,2.905401611328125,0.2415618896484375,0.81689453125,0.4577789306640625
1726407099966397400,2.9153974609375,0.2146148681640625,0.8225860595703125,0.4637451171875
1726407099976393500,2.9253935546875,0.2039947509765625,0.8291778564453125,0.4734649658203125
1726407099986390500,2.935390625,0.205413818359375,0.8260498046875,0.4762420654296875
1726407099996386600,2.945386474609375,0.205352783203125,0.8185272216796875,0.476837158203125
1726407100006384000,2.955384033203125,0.2260284423828125,0.813385009765625,0.4844970703125
1726407100016380200,2.965380126953125,0.2571868896484375,0.812408447265625,0.5023956298828125
1726407100026376200,2.975376220703125,0.2744598388671875,0.8198394775390625,0.5185546875
1726407100036373200,2.985373291015625,0.285552978515625,0.8284149169921875,0.5230712890625
1726407100046369000,2.995369140625,0.3119964599609375,0.8337249755859375,0.519683837890625
1726407100056366000,3.005365966796875,0.339385986328125,0.8313751220703125,0.52972412109375
1726407100066362000,3.015362060546875,0.36199951171875,0.818878173828125,0.5394439697265625
1726407100076358100,3.025358154296875,0.384735107421875,0.7969818115234375,0.5489349365234375
1726407100086355200,3.035355224609375,0.3838958740234375,0.7692718505859375,0.541961669921875
1726407100096351200,3.045351318359375,0.38824462890625,0.7639007568359375,0.5404815673828125
1726407100106348000,3.05534814453125,0.393157958984375,0.7768402099609375,0.536041259765625
1726407100116344300,3.06534423828125,0.4119415283203125,0.7819366455078125,0.5350341796875
1726407100126341000,3.075341064453125,0.415557861328125,0.78692626953125,0.529754638671875
1726407100136337200,3.085337158203125,0.4097747802734375,0.7928009033203125,0.5213470458984375
1726407100146333200,3.095333251953125,0.4051971435546875,0.7899322509765625,0.5185699462890625
1726407100156330000,3.105330078125,0.383880615234375,0.7786865234375,0.5242462158203125
1726407100166326000,3.115325927734375,0.367706298828125,0.7725677490234375,0.5228118896484375
1726407100176323000,3.125322998046875,0.3794097900390625,0.7724456787109375,0.5246124267578125
1726407100186319000,3.135319091796875,0.3752288818359375,0.7683258056640625,0.52557373046875
1726407100196315100,3.145315185546875,0.3885040283203125,0.756195068359375,0.5211944580078125
1726407100206312200,3.155312255859375,0.38824462890625,0.73590087890625,0.5110321044921875
1726407100216308200,3.16530810546875,0.3887481689453125,0.722747802734375,0.5077362060546875
1726407100226305300,3.17530517578125,0.4324798583984375,0.7306365966796875,0.532318115234375
1726407100236301000,3.185301025390625,0.4795379638671875,0.7308807373046875,0.5537261962890625
1726407100246298000,3.195298095703125,0.4894866943359375,0.7167510986328125,0.554534912109375
1726407100256294100,3.205294189453125,0.5090789794921875,0.6922149658203125,0.5408477783203125
1726407100266290200,3.215290283203125,0.5279388427734375,0.664886474609375,0.523040771484375
1726407100276287000,3.225286865234375,0.5296478271484375,0.6474761962890625,0.51446533203125
1726407100286283300,3.235283203125,0.5261077880859375,0.6554107666015625,0.514556884765625
1726407100296280000,3.245280029296875,0.4966278076171875,0.6730804443359375,0.5230865478515625
1726407100306276000,3.255276123046875,0.4749298095703125,0.70660400390625,0.5301055908203125
1726407100316272400,3.2652724609375,0.45263671875,0.7349700927734375,0.5324554443359375
1726407100326269200,3.275269287109375,0.42193603515625,0.7594146728515625,0.536651611328125
1726407100336265000,3.285264892578125,0.4052734375,0.7837677001953125,0.5447235107421875
1726407100346262300,3.29526220703125,0.3838958740234375,0.799896240234375,0.55535888671875
1726407100356258000,3.305258056640625,0.3605499267578125,0.7951507568359375,0.53033447265625
1726407100366255000,3.315255126953125,0.3481597900390625,0.7841949462890625,0.5076751708984375
1726407100376251100,3.325251220703125,0.3493804931640625,0.779144287109375,0.497955322265625
1726407100386247200,3.3352470703125,0.3614044189453125,0.7817535400390625,0.479248046875
1726407100396244000,3.345243896484375,0.3712005615234375,0.7734832763671875,0.4506683349609375
1726407100406240300,3.355240234375,0.3459014892578125,0.7721710205078125,0.4304046630859375
1726407100416237000,3.365237060546875,0.3441925048828125,0.7876434326171875,0.44610595703125
1726407100426233000,3.375233154296875,0.340301513671875,0.809295654296875,0.4539794921875
1726407100436229000,3.38522900390625,0.3199310302734375,0.8129425048828125,0.449432373046875
1726407100446226200,3.39522607421875,0.298980712890625,0.801116943359375,0.4527435302734375
1726407100456222000,3.405221923828125,0.2808074951171875,0.7889251708984375,0.45770263671875
1726407100466219300,3.41521923828125,0.26654052734375,0.788787841796875,0.4766998291015625
1726407100476215000,3.425215087890625,0.271514892578125,0.7823944091796875,0.4819183349609375
1726407100486211000,3.435211181640625,0.2840118408203125,0.78009033203125,0.487274169921875
1726407100496208100,3.4452080078125,0.2933807373046875,0.7744293212890625,0.4995269775390625
1726407100506204200,3.4552041015625,0.30267333984375,0.7602691650390625,0.4972381591796875
1726407100516201200,3.465201171875,0.3158721923828125,0.7425689697265625,0.501617431640625
1726407100526197200,3.475197265625,0.321380615234375,0.7173919677734375,0.5036468505859375
1726407100536194000,3.485194091796875,0.3130645751953125,0.6948089599609375,0.501861572265625
1726407100546190300,3.4951904296875,0.3079833984375,0.6910552978515625,0.5069732666015625
1726407100556186000,3.50518603515625,0.314697265625,0.6949615478515625,0.515106201171875
1726407100566183200,3.51518310546875,0.33734130859375,0.703216552734375,0.5192108154296875
1726407100576179200,3.52517919921875,0.3749542236328125,0.718780517578125,0.5381927490234375
1726407100586176300,3.53517626953125,0.4023895263671875,0.7301483154296875,0.5454254150390625
1726407100596172000,3.545172119140625,0.409271240234375,0.7312469482421875,0.54962158203125
1726407100606168300,3.555168212890625,0.4155426025390625,0.7236480712890625,0.564300537109375
1726407100616165000,3.5651650390625,0.4282073974609375,0.7080230712890625,0.5718231201171875
1726407100626161200,3.5751611328125,0.4354705810546875,0.7046051025390625,0.5813140869140625
1726407100636158200,3.585158203125,0.43084716796875,0.70068359375,0.5816192626953125
1726407100646154200,3.595154296875,0.4151611328125,0.7064666748046875,0.5773468017578125
1726407100656151000,3.605151123046875,0.4151153564453125,0.7219390869140625,0.58319091796875
1726407100666147300,3.615147216796875,0.415679931640625,0.7339630126953125,0.588043212890625
1726407100676143000,3.62514306640625,0.402801513671875,0.7315673828125,0.594635009765625
1726407100686140200,3.63514013671875,0.3778533935546875,0.7227783203125,0.6118011474609375
1726407100696136200,3.64513623046875,0.3578033447265625,0.7333526611328125,0.632720947265625
1726407100706133200,3.65513330078125,0.3417205810546875,0.7347564697265625,0.626251220703125
1726407100716129000,3.66512890625,0.32916259765625,0.7306976318359375,0.6161956787109375
1726407100726125300,3.675125244140625,0.3230133056640625,0.7284698486328125,0.617523193359375
1726407100736122000,3.6851220703125,0.323516845703125,0.7330780029296875,0.6198577880859375
1726407100746118100,3.6951181640625,0.3265228271484375,0.733612060546875,0.6043548583984375
1726407100756115200,3.705115234375,0.33563232421875,0.7333526611328125,0.5953369140625
1726407100766111200,3.715111328125,0.349853515625,0.7289581298828125,0.5782012939453125
1726407100776107000,3.72510693359375,0.3520965576171875,0.717132568359375,0.56768798828125
1726407100786104300,3.735104248046875,0.359130859375,0.716033935546875,0.5567474365234375
1726407100796100000,3.74510009765625,0.355010986328125,0.7156829833984375,0.55340576171875
1726407100806097200,3.75509716796875,0.3468780517578125,0.7213287353515625,0.5557098388671875
1726407100816093200,3.76509326171875,0.33990478515625,0.7199554443359375,0.5573272705078125
1726407100826089200,3.775089111328125,0.3228759765625,0.7252044677734375,0.56011962890625
1726407100836086300,3.785086181640625,0.32666015625,0.7375946044921875,0.5588836669921875
1726407100846082300,3.795082275390625,0.322418212890625,0.7353515625,0.5524444580078125
1726407100856079000,3.8050791015625,0.31622314453125,0.7343292236328125,0.547027587890625
1726407100866075100,3.8150751953125,0.3217620849609375,0.732666015625,0.5362396240234375
1726407100876072200,3.825072265625,0.32843017578125,0.727691650390625,0.5297698974609375
1726407100886068200,3.835068115234375,0.33880615234375,0.7205810546875,0.520111083984375
1726407100896064000,3.84506396484375,0.346649169921875,0.7121124267578125,0.5167999267578125
1726407100906061000,3.85506103515625,0.362548828125,0.7272186279296875,0.520294189453125
1726407100916057000,3.86505712890625,0.36773681640625,0.7547760009765625,0.5297393798828125
1726407100926054100,3.87505419921875,0.359893798828125,0.779296875,0.531097412109375
1726407100936050200,3.88505029296875,0.3470458984375,0.795013427734375,0.5252838134765625
1726407100946046200,3.895046142578125,0.335693359375,0.811279296875,0.5230865478515625
1726407100956043300,3.905043212890625,0.3300018310546875,0.81634521484375,0.5140228271484375
1726407100966039300,3.915039306640625,0.3188018798828125,0.83197021484375,0.5098876953125
1726407100976036000,3.9250361328125,0.3030853271484375,0.8460693359375,0.50079345703125
1726407100986032000,3.9350322265625,0.28179931640625,0.8510894775390625,0.499481201171875
1726407100996029200,3.945029296875,0.25653076171875,0.847869873046875,0.496978759765625
1726407101006024700,3.955024658203125,0.2339935302734375,0.8455352783203125,0.498748779296875
1726407101016020500,3.9650205078125,0.2217864990234375,0.842071533203125,0.5038604736328125
1726407101026017800,3.975017822265625,0.2119598388671875,0.8311309814453125,0.4929046630859375
1726407101036013600,3.985013671875,0.21490478515625,0.82476806640625,0.47967529296875
1726407101046010600,3.9950107421875,0.2357330322265625,0.8165130615234375,0.463531494140625
1726407101056006700,4.005006591796875,0.2593994140625,0.806640625,0.448760986328125
1726407101066002700,4.015002685546875,0.2655792236328125,0.79473876953125,0.439971923828125
1726407101075999500,4.02499951171875,0.2678680419921875,0.785736083984375,0.434783935546875
1726407101085995800,4.034995849609375,0.269195556640625,0.78009033203125,0.43377685546875
1726407101095992600,4.04499267578125,0.2793426513671875,0.787872314453125,0.441192626953125
1726407101105988600,4.054988525390625,0.2944793701171875,0.810577392578125,0.4531097412109375
1726407101115984600,4.064984619140625,0.30615234375,0.8325958251953125,0.4677734375
1726407101125981700,4.074981689453125,0.3205108642578125,0.850555419921875,0.4837188720703125
1726407101135977500,4.0849775390625,0.337615966796875,0.8597259521484375,0.4926910400390625
1726407101145974500,4.094974609375,0.34149169921875,0.87176513671875,0.496063232421875
1726407101155970600,4.104970458984375,0.3348388671875,0.870025634765625,0.5016632080078125
1726407101165966600,4.114966552734375,0.3236236572265625,0.8640289306640625,0.495452880859375
1726407101175963600,4.124963623046875,0.323455810546875,0.855072021484375,0.4855804443359375
1726407101185959700,4.134959716796875,0.33135986328125,0.85009765625,0.478485107421875
1726407101195956700,4.144956787109375,0.3321990966796875,0.847381591796875,0.468658447265625
1726407101205952800,4.154952880859375,0.327178955078125,0.848876953125,0.4682464599609375
1726407101215949600,4.164949462890625,0.3266754150390625,0.86029052734375,0.4644012451171875
1726407101225945600,4.174945556640625,0.3306121826171875,0.8662109375,0.467193603515625
1726407101235941600,4.184941650390625,0.3258209228515625,0.8682861328125,0.467376708984375
1726407101245938400,4.1949384765625,0.313262939453125,0.864288330078125,0.4645538330078125
1726407101255934700,4.204934814453125,0.30511474609375,0.8658294677734375,0.475616455078125
1726407101265931500,4.214931640625,0.29644775390625,0.8634185791015625,0.485107421875
1726407101275927600,4.224927490234375,0.292816162109375,0.863037109375,0.4898681640625
1726407101285923800,4.234923828125,0.2913818359375,0.8636932373046875,0.4990081787109375
1726407101295920600,4.244920654296875,0.297149658203125,0.85302734375,0.5066986083984375
1726407101305916700,4.254916748046875,0.294342041015625,0.836761474609375,0.5187530517578125
1726407101315913700,4.264913818359375,0.2816009521484375,0.8192596435546875,0.524566650390625
1726407101325909500,4.274909423828125,0.2758026123046875,0.8014373779296875,0.530792236328125
1726407101335905500,4.284905517578125,0.28082275390625,0.7992401123046875,0.535186767578125
1726407101345902600,4.294902587890625,0.2865142822265625,0.8048095703125,0.543792724609375
1726407101355898600,4.304898681640625,0.2828826904296875,0.8023529052734375,0.552215576171875
1726407101365895400,4.3148955078125,0.2753143310546875,0.7988128662109375,0.565643310546875
1726407101375891700,4.3248916015625,0.260833740234375,0.79791259765625,0.59063720703125
1726407101385888500,4.334888427734375,0.253814697265625,0.802734375,0.6047515869140625
1726407101395884500,4.344884521484375,0.2454376220703125,0.7956390380859375,0.6103515625
1726407101405880600,4.354880615234375,0.2589263916015625,0.789947509765625,0.6111602783203125
1726407101415877600,4.364877685546875,0.282257080078125,0.791778564453125,0.61163330078125
1726407101425873400,4.374873291015625,0.3046875,0.7902984619140625,0.6058502197265625
1726407101435870700,4.38487060546875,0.32879638671875,0.795440673828125,0.5978851318359375
1726407101445866500,4.394866455078125,0.3419342041015625,0.81085205078125,0.58056640625
1726407101455862500,4.404862548828125,0.34722900390625,0.812042236328125,0.550994873046875
1726407101465859600,4.414859619140625,0.33599853515625,0.8107452392578125,0.5232391357421875
1726407101475855600,4.424855712890625,0.3149566650390625,0.8077392578125,0.503997802734375
1726407101485852700,4.434852783203125,0.3147430419921875,0.8069610595703125,0.49444580078125
1726407101495848700,4.4448486328125,0.3164520263671875,0.8264007568359375,0.48394775390625
1726407101505844500,4.454844482421875,0.324310302734375,0.8377227783203125,0.4830780029296875
1726407101515841800,4.464841796875,0.3244171142578125,0.8441619873046875,0.47601318359375
1726407101525837600,4.474837646484375,0.3072052001953125,0.850799560546875,0.4676513671875
1726407101535834600,4.484834716796875,0.3003082275390625,0.8553009033203125,0.461273193359375
1726407101545830700,4.49483056640625,0.2848663330078125,0.857208251953125,0.46380615234375
1726407101555826700,4.50482666015625,0.264434814453125,0.847747802734375,0.459747314453125
1726407101565823500,4.514823486328125,0.2459716796875,0.836395263671875,0.4603118896484375
1726407101575819800,4.52481982421875,0.227294921875,0.8206939697265625,0.4664306640625
1726407101585816600,4.534816650390625,0.2032928466796875,0.7928466796875,0.470550537109375
1726407101595812600,4.5448125,0.19720458984375,0.7788238525390625,0.479736328125
1726407101605808400,4.554808349609375,0.2096405029296875,0.7793426513671875,0.4815521240234375
1726407101615805700,4.5648056640625,0.2183837890625,0.78680419921875,0.48944091796875
1726407101625801500,4.574801513671875,0.2203369140625,0.7924652099609375,0.5049896240234375
1726407101635798800,4.584798828125,0.21844482421875,0.791961669921875,0.512939453125
1726407101645794600,4.594794677734375,0.2115631103515625,0.7729644775390625,0.51019287109375
1726407101655791600,4.60479150390625,0.2297515869140625,0.7530975341796875,0.498565673828125
1726407101665787600,4.61478759765625,0.2614593505859375,0.7497100830078125,0.48956298828125
1726407101675783700,4.62478369140625,0.2997894287109375,0.7551422119140625,0.4943695068359375
1726407101685780500,4.634780517578125,0.3263092041015625,0.764892578125,0.49615478515625
1726407101695776800,4.64477685546875,0.3273773193359375,0.773834228515625,0.4984893798828125
1726407101705773600,4.654773681640625,0.32501220703125,0.7925262451171875,0.5099029541015625
1726407101715769600,4.66476953125,0.3252105712890625,0.8173065185546875,0.5262908935546875
1726407101725765600,4.674765625,0.3333282470703125,0.82958984375,0.539947509765625
1726407101735762700,4.6847626953125,0.338287353515625,0.8323974609375,0.5474700927734375
1726407101745758500,4.694758544921875,0.341552734375,0.8350982666015625,0.546112060546875
1726407101755755800,4.704755859375,0.3426513671875,0.8235626220703125,0.524078369140625
1726407101765751600,4.71475146484375,0.336212158203125,0.8105926513671875,0.5037841796875
1726407101775747600,4.72474755859375,0.3334503173828125,0.8096160888671875,0.4917449951171875
1726407101785744600,4.73474462890625,0.3348541259765625,0.806610107421875,0.47991943359375
1726407101795740700,4.74474072265625,0.3294525146484375,0.812408447265625,0.4759063720703125
1726407101805737500,4.754737548828125,0.3270263671875,0.8173828125,0.47991943359375
1726407101815733800,4.764733642578125,0.324310302734375,0.8226318359375,0.495361328125
1726407101825729500,4.7747294921875,0.324859619140625,0.8210601806640625,0.496490478515625
1726407101835726600,4.7847265625,0.326690673828125,0.8235626220703125,0.4968109130859375
1726407101845722600,4.79472265625,0.325042724609375,0.8328094482421875,0.492034912109375
1726407101855719700,4.8047197265625,0.3252716064453125,0.8405303955078125,0.484344482421875
1726407101865715500,4.814715576171875,0.3228302001953125,0.838409423828125,0.47406005859375
1726407101875711700,4.824711669921875,0.3123931884765625,0.8394317626953125,0.4652557373046875
1726407101885708500,4.83470849609375,0.3197174072265625,0.822509765625,0.45318603515625
1726407101895704600,4.84470458984375,0.3259124755859375,0.808624267578125,0.4394989013671875
1726407101905701600,4.85470166015625,0.334381103515625,0.7980194091796875,0.428192138671875
1726407101915697700,4.86469775390625,0.3336181640625,0.7934722900390625,0.4224700927734375
1726407101925694700,4.87469482421875,0.337432861328125,0.79437255859375,0.422698974609375
1726407101935690800,4.884690673828125,0.34564208984375,0.8038177490234375,0.4161224365234375
1726407101945686500,4.8946865234375,0.3513336181640625,0.8174896240234375,0.4141082763671875
1726407101955683600,4.90468359375,0.3401031494140625,0.8338470458984375,0.420318603515625
1726407101965679600,4.9146796875,0.3359832763671875,0.845672607421875,0.42596435546875
1726407101975676400,4.924676513671875,0.3346710205078125,0.858642578125,0.439117431640625
1726407101985672700,4.934672607421875,0.335418701171875,0.870269775390625,0.4518890380859375
1726407101995668700,4.944668701171875,0.331695556640625,0.877471923828125,0.472412109375
1726407102005665500,4.95466552734375,0.3243255615234375,0.88916015625,0.487823486328125
1726407102015661600,4.96466162109375,0.3188018798828125,0.8942108154296875,0.501922607421875
1726407102025658600,4.97465869140625,0.3085784912109375,0.8879852294921875,0.5203704833984375
1726407102035654700,4.984654541015625,0.3053131103515625,0.8690338134765625,0.532745361328125
1726407102045650400,4.994650390625,0.302093505859375,0.8452301025390625,0.54193115234375
1726407102055647500,5.0046474609375,0.29974365234375,0.829010009765625,0.5514678955078125
1726407102065643500,5.0146435546875,0.3126678466796875,0.816680908203125,0.555145263671875
1726407102075640300,5.024640380859375,0.3121337890625,0.8108673095703125,0.547943115234375
1726407102085636400,5.03463623046875,0.3184661865234375,0.7980804443359375,0.5386505126953125
1726407102095632600,5.044632568359375,0.3227691650390625,0.7724761962890625,0.5286865234375
1726407102105629400,5.05462939453125,0.33856201171875,0.748687744140625,0.52911376953125
1726407102115625500,5.06462548828125,0.355316162109375,0.7245635986328125,0.5258941650390625
1726407102125622500,5.07462255859375,0.3619537353515625,0.7079315185546875,0.5227203369140625
1726407102135618600,5.08461865234375,0.36590576171875,0.6995391845703125,0.5124053955078125
1726407102145614300,5.0946142578125,0.3582305908203125,0.6936492919921875,0.505645751953125
1726407102155611400,5.104611328125,0.346435546875,0.69195556640625,0.499114990234375
1726407102165607400,5.114607421875,0.3439178466796875,0.6912384033203125,0.498809814453125
1726407102175604500,5.1246044921875,0.3362884521484375,0.7047576904296875,0.500396728515625
1726407102185600500,5.1346005859375,0.329193115234375,0.7160491943359375,0.49993896484375
1726407102195597300,5.144597412109375,0.314117431640625,0.72796630859375,0.505889892578125
1726407102205593600,5.154593505859375,0.2920074462890625,0.74493408203125,0.513946533203125
1726407102215589600,5.164589599609375,0.2722015380859375,0.759429931640625,0.5229949951171875
1726407102225586400,5.17458642578125,0.2671051025390625,0.77587890625,0.529693603515625
1726407102235582500,5.18458251953125,0.2630462646484375,0.7972412109375,0.5350799560546875
1726407102245579500,5.19457958984375,0.2516326904296875,0.802459716796875,0.5416412353515625
1726407102255575300,5.2045751953125,0.2449493408203125,0.80047607421875,0.5333251953125
1726407102265571600,5.214571533203125,0.2493133544921875,0.8012847900390625,0.5093841552734375
1726407102275568400,5.224568359375,0.269561767578125,0.799835205078125,0.490936279296875
1726407102285564400,5.234564453125,0.30474853515625,0.8011322021484375,0.4779510498046875
1726407102295561500,5.2445615234375,0.3392181396484375,0.80999755859375,0.463836669921875
1726407102305557500,5.2545576171875,0.358642578125,0.8289031982421875,0.4621124267578125
1726407102315553500,5.264553466796875,0.37030029296875,0.8467559814453125,0.4732818603515625
1726407102325550600,5.274550537109375,0.361328125,0.863739013671875,0.4915313720703125
1726407102335546400,5.28454638671875,0.339385986328125,0.8607940673828125,0.5021514892578125
1726407102345543400,5.29454345703125,0.3183135986328125,0.8378753662109375,0.517974853515625
1726407102355539500,5.30453955078125,0.295928955078125,0.811004638671875,0.5336151123046875
1726407102365535500,5.314535400390625,0.2700653076171875,0.77435302734375,0.541839599609375
1726407102375532300,5.3245322265625,0.256256103515625,0.73193359375,0.546356201171875
1726407102385528600,5.334528564453125,0.261688232421875,0.6957550048828125,0.5577392578125
1726407102395525400,5.344525390625,0.271209716796875,0.666900634765625,0.570770263671875
1726407102405521400,5.354521484375,0.2858734130859375,0.6436614990234375,0.5811309814453125
1726407102415517700,5.364517578125,0.3054046630859375,0.6325836181640625,0.6009674072265625
1726407102425514500,5.374514404296875,0.325531005859375,0.638885498046875,0.615692138671875
1726407102435510300,5.38451025390625,0.3564300537109375,0.6542510986328125,0.6174468994140625
1726407102445507600,5.394507568359375,0.39111328125,0.6658935546875,0.62744140625
1726407102455503400,5.40450341796875,0.407196044921875,0.670562744140625,0.616546630859375
1726407102465499400,5.41449951171875,0.4117279052734375,0.680633544921875,0.5923919677734375
1726407102475496400,5.424496337890625,0.409576416015625,0.6971893310546875,0.572265625
1726407102485492500,5.434492431640625,0.4011383056640625,0.70831298828125,0.538055419921875
1726407102495489500,5.444489501953125,0.3734588623046875,0.7172088623046875,0.5114288330078125
1726407102505485600,5.454485595703125,0.345703125,0.7365570068359375,0.4962005615234375
1726407102515481600,5.464481689453125,0.32586669921875,0.7690887451171875,0.5051727294921875
1726407102525478700,5.474478759765625,0.2974090576171875,0.80029296875,0.5213775634765625
1726407102535474400,5.484474365234375,0.27520751953125,0.8182525634765625,0.5326080322265625
1726407102545471500,5.494471435546875,0.2677459716796875,0.8321075439453125,0.5493316650390625
1726407102555467500,5.504467529296875,0.26483154296875,0.832672119140625,0.5650482177734375
1726407102565464600,5.514464599609375,0.261016845703125,0.8362884521484375,0.5837860107421875
1726407102575460400,5.52446044921875,0.2758331298828125,0.83935546875,0.6098785400390625
1726407102585456400,5.534456298828125,0.2910308837890625,0.83050537109375,0.624969482421875
1726407102595453400,5.544453369140625,0.2994232177734375,0.81378173828125,0.61993408203125
1726407102605449500,5.554449462890625,0.3094635009765625,0.783538818359375,0.62432861328125
1726407102615446500,5.564446533203125,0.33306884765625,0.7533416748046875,0.62652587890625
1726407102625442600,5.574442626953125,0.362823486328125,0.7367401123046875,0.624603271484375
1726407102635438300,5.584438232421875,0.3915557861328125,0.7269287109375,0.6161346435546875
1726407102645435600,5.594435546875,0.4061126708984375,0.725372314453125,0.605682373046875
1726407102655431400,5.604431396484375,0.4070281982421875,0.7173309326171875,0.5853271484375
1726407102665428500,5.614428466796875,0.390045166015625,0.7126922607421875,0.5643768310546875
1726407102675424500,5.624424560546875,0.3642578125,0.7154541015625,0.5375518798828125
1726407102685420500,5.634420654296875,0.3544921875,0.715240478515625,0.5166778564453125
1726407102695417300,5.644417236328125,0.3511505126953125,0.71533203125,0.4959869384765625
1726407102705413600,5.65441357421875,0.3528289794921875,0.73382568359375,0.48114013671875
1726407102715410400,5.664410400390625,0.35101318359375,0.7699737548828125,0.47833251953125
1726407102725406500,5.674406494140625,0.3461456298828125,0.8049468994140625,0.4789581298828125
1726407102735402500,5.684402587890625,0.3287353515625,0.8325042724609375,0.4914398193359375
1726407102745399600,5.694399658203125,0.3107757568359375,0.8437957763671875,0.491607666015625
1726407102755395300,5.704395263671875,0.3042449951171875,0.8490753173828125,0.4969635009765625
1726407102765392600,5.714392578125,0.317626953125,0.85784912109375,0.4839019775390625
1726407102775388400,5.724388427734375,0.3510894775390625,0.876007080078125,0.4806365966796875
1726407102785384400,5.734384521484375,0.3809051513671875,0.8774261474609375,0.46514892578125
1726407102795381500,5.744381591796875,0.3881988525390625,0.8573760986328125,0.447296142578125
1726407102805377500,5.75437744140625,0.3887481689453125,0.84405517578125,0.449310302734375
1726407102815374300,5.764374267578125,0.381988525390625,0.8376922607421875,0.4586334228515625
1726407102825370600,5.77437060546875,0.3746490478515625,0.8310394287109375,0.4813385009765625
1726407102835366400,5.784366455078125,0.3746337890625,0.8197479248046875,0.4872894287109375
1726407102845363500,5.794363525390625,0.365692138671875,0.803802490234375,0.488616943359375
1726407102855359500,5.804359375,0.342559814453125,0.7807769775390625,0.4976654052734375
1726407102865356500,5.8143564453125,0.3448638916015625,0.768280029296875,0.509429931640625
1726407102875352300,5.824352294921875,0.346343994140625,0.75201416015625,0.5153961181640625
1726407102885348600,5.8343486328125,0.336517333984375,0.7386627197265625,0.5101318359375
1726407102895345400,5.844345458984375,0.331634521484375,0.735748291015625,0.5105438232421875
1726407102905341400,5.854341552734375,0.3385467529296875,0.7395477294921875,0.5178985595703125
1726407102915338500,5.86433837890625,0.3238067626953125,0.742218017578125,0.5234222412109375
1726407102925334500,5.87433447265625,0.328948974609375,0.75518798828125,0.521087646484375
1726407102935330300,5.884330322265625,0.3314056396484375,0.7677459716796875,0.51605224609375
1726407102945327600,5.89432763671875,0.330810546875,0.7793426513671875,0.512481689453125
1726407102955323400,5.904323486328125,0.34173583984375,0.7871856689453125,0.51177978515625
1726407102965320700,5.91432080078125,0.3417205810546875,0.7968902587890625,0.5177764892578125
1726407102975316500,5.92431640625,0.3268890380859375,0.797637939453125,0.52972412109375
1726407102985312500,5.9343125,0.3141326904296875,0.7877655029296875,0.52972412109375
1726407102995309600,5.9443095703125,0.31890869140625,0.7861175537109375,0.525238037109375
1726407103005305900,5.954305908203125,0.3296661376953125,0.7909393310546875,0.5256195068359375
1726407103015303000,5.964302978515625,0.3363800048828125,0.804534912109375,0.5320281982421875
1726407103025299000,5.974298828125,0.344482421875,0.8170013427734375,0.5318145751953125
1726407103035294700,5.984294677734375,0.3473663330078125,0.8082122802734375,0.5213775634765625
1726407103045291800,5.994291748046875,0.3472747802734375,0.7891082763671875,0.5178375244140625
1726407103055287800,6.004287841796875,0.34796142578125,0.777252197265625,0.515716552734375
1726407103065284900,6.014284912109375,0.3502197265625,0.7762603759765625,0.5194244384765625
1726407103075281000,6.024281005859375,0.3446197509765625,0.7728271484375,0.522186279296875
1726407103085277000,6.03427685546875,0.3428802490234375,0.7651214599609375,0.5206298828125
1726407103095274000,6.04427392578125,0.33258056640625,0.753570556640625,0.5213775634765625
1726407103105270000,6.05427001953125,0.3332672119140625,0.7413330078125,0.515655517578125
1726407103115266800,6.064266845703125,0.335723876953125,0.731536865234375,0.517974853515625
1726407103125262800,6.074262939453125,0.3404693603515625,0.7337188720703125,0.5225067138671875
1726407103135259000,6.0842587890625,0.3453369140625,0.7548675537109375,0.537994384765625
1726407103145255700,6.094255615234375,0.34210205078125,0.770172119140625,0.5427703857421875
1726407103155252000,6.104251953125,0.3457794189453125,0.7726898193359375,0.53887939453125
1726407103165248800,6.114248779296875,0.3368377685546875,0.7651519775390625,0.530975341796875
1726407103175244800,6.124244873046875,0.3214569091796875,0.754302978515625,0.5254364013671875
1726407103185240800,6.13424072265625,0.3313446044921875,0.7559967041015625,0.5223388671875
1726407103195238000,6.14423779296875,0.3562774658203125,0.75335693359375,0.5121002197265625
1726407103205234000,6.15423388671875,0.353424072265625,0.754730224609375,0.50823974609375
1726407103215231000,6.16423095703125,0.3449554443359375,0.755035400390625,0.50115966796875
1726407103225226800,6.174226806640625,0.337371826171875,0.754241943359375,0.495025634765625
1726407103235222800,6.184222900390625,0.3333282470703125,0.769256591796875,0.4978790283203125
1726407103245219800,6.1942197265625,0.329132080078125,0.7715911865234375,0.485137939453125
1726407103255215900,6.2042158203125,0.321136474609375,0.7755889892578125,0.4932098388671875
1726407103265212700,6.214212646484375,0.3070526123046875,0.78521728515625,0.4955291748046875
1726407103275209000,6.224208984375,0.307647705078125,0.799591064453125,0.4917449951171875
1726407103285205000,6.234205078125,0.3337860107421875,0.8094940185546875,0.4948272705078125
1726407103295201800,6.244201904296875,0.365997314453125,0.8046112060546875,0.493072509765625
1726407103305198000,6.254197998046875,0.3886260986328125,0.794891357421875,0.503448486328125
1726407103315195000,6.26419482421875,0.4140777587890625,0.7796173095703125,0.4931182861328125
1726407103325190700,6.274190673828125,0.423309326171875,0.782501220703125,0.49383544921875
1726407103335187000,6.28418701171875,0.43426513671875,0.796234130859375,0.5018157958984375
1726407103345183700,6.294183837890625,0.4381561279296875,0.7964324951171875,0.515228271484375
1726407103355179800,6.3041796875,0.4221649169921875,0.78826904296875,0.5205230712890625
1726407103365176800,6.3141767578125,0.381927490234375,0.7648773193359375,0.522125244140625
1726407103375172900,6.3241728515625,0.3544158935546875,0.737823486328125,0.52874755859375
1726407103385169000,6.3341689453125,0.352081298828125,0.7368621826171875,0.5388031005859375
1726407103395166000,6.344166015625,0.353363037109375,0.741302490234375,0.542572021484375
1726407103405162000,6.354161865234375,0.3494110107421875,0.7474212646484375,0.5330352783203125
1726407103415158800,6.36415869140625,0.3433685302734375,0.7559967041015625,0.525665283203125
1726407103425154800,6.37415478515625,0.33978271484375,0.7565460205078125,0.5303497314453125
1726407103435150800,6.38415087890625,0.3226165771484375,0.7542877197265625,0.5469970703125
1726407103445147600,6.394147705078125,0.30975341796875,0.743316650390625,0.5487060546875
1726407103455144000,6.40414404296875,0.291717529296875,0.73492431640625,0.5463409423828125
1726407103465140700,6.414140625,0.292755126953125,0.7323455810546875,0.552459716796875
1726407103475136800,6.42413671875,0.2968902587890625,0.7256317138671875,0.563690185546875
1726407103485133000,6.434133056640625,0.30126953125,0.7232513427734375,0.5633392333984375
1726407103495129900,6.4441298828125,0.303009033203125,0.72100830078125,0.5531768798828125
1726407103505126000,6.4541259765625,0.31182861328125,0.71270751953125,0.5444488525390625
1726407103515123000,6.464123046875,0.327301025390625,0.7156829833984375,0.5478363037109375
1726407103525118700,6.47411865234375,0.3465728759765625,0.71929931640625,0.5508880615234375
1726407103535114800,6.48411474609375,0.34423828125,0.7143402099609375,0.5528106689453125
1726407103545111800,6.49411181640625,0.32684326171875,0.7241058349609375,0.5587005615234375
1726407103555107800,6.50410791015625,0.3153228759765625,0.73529052734375,0.560638427734375
1726407103565105000,6.51410498046875,0.304290771484375,0.750396728515625,0.5612945556640625
1726407103575101000,6.524100830078125,0.3038177490234375,0.7677459716796875,0.550384521484375
1726407103585097000,6.534096923828125,0.31329345703125,0.776123046875,0.5391387939453125
1726407103595094000,6.544093994140625,0.3131561279296875,0.775665283203125,0.529510498046875
1726407103605089800,6.55408984375,0.3136749267578125,0.779937744140625,0.521942138671875
1726407103615086800,6.5640869140625,0.3361663818359375,0.802703857421875,0.5152587890625
1726407103625083000,6.574082763671875,0.3546600341796875,0.823394775390625,0.50640869140625
1726407103635079000,6.584078857421875,0.3585968017578125,0.8341827392578125,0.4959564208984375
1726407103645075700,6.59407568359375,0.3584442138671875,0.8458404541015625,0.4831085205078125
1726407103655072000,6.604072021484375,0.367034912109375,0.855682373046875,0.4826507568359375
1726407103665068800,6.61406884765625,0.3847503662109375,0.8545684814453125,0.4886016845703125
1726407103675064800,6.62406494140625,0.406585693359375,0.8435211181640625,0.4934539794921875
1726407103685060900,6.634060791015625,0.412994384765625,0.8184661865234375,0.5104522705078125
1726407103695058000,6.644057861328125,0.4002685546875,0.791839599609375,0.5300140380859375
1726407103705053700,6.6540537109375,0.3728485107421875,0.75762939453125,0.5385589599609375
1726407103715051000,6.664051025390625,0.3452911376953125,0.734466552734375,0.5424346923828125
1726407103725046800,6.674046875,0.3227691650390625,0.72503662109375,0.5444793701171875
1726407103735042800,6.684042724609375,0.308502197265625,0.7201080322265625,0.5328216552734375
1726407103745040000,6.694039794921875,0.2832794189453125,0.7244110107421875,0.510467529296875
1726407103755036000,6.704035888671875,0.2631988525390625,0.72528076171875,0.4774932861328125
1726407103765032700,6.71403271484375,0.259368896484375,0.735107421875,0.449798583984375
1726407103775029000,6.724029052734375,0.2660369873046875,0.7541961669921875,0.434326171875
1726407103785024800,6.734024658203125,0.2664337158203125,0.769989013671875,0.424468994140625
1726407103795021800,6.744021728515625,0.2661590576171875,0.7765960693359375,0.421356201171875
1726407103805017900,6.754017822265625,0.265594482421875,0.7872772216796875,0.4273834228515625
1726407103815014000,6.764013916015625,0.27301025390625,0.8128662109375,0.435272216796875
1726407103825010700,6.7740107421875,0.28643798828125,0.8326416015625,0.4427490234375
1726407103835007000,6.784007080078125,0.2970733642578125,0.8512115478515625,0.449737548828125
1726407103845003800,6.794003662109375,0.301727294921875,0.8669891357421875,0.4624786376953125
1726407103854999800,6.803999755859375,0.2982177734375,0.8709564208984375,0.471710205078125
1726407103864995800,6.813995849609375,0.286865234375,0.8612060546875,0.4825592041015625
1726407103874993000,6.823992919921875,0.2742156982421875,0.8473663330078125,0.4882659912109375
1726407103884988700,6.83398876953125,0.273773193359375,0.842041015625,0.4917449951171875
1726407103894986000,6.843986083984375,0.282989501953125,0.843994140625,0.4987335205078125
1726407103904981800,6.853981689453125,0.2915496826171875,0.844970703125,0.5073699951171875
1726407103914977800,6.863977783203125,0.3011627197265625,0.842864990234375,0.51446533203125
1726407103924974800,6.873974853515625,0.31011962890625,0.835723876953125,0.526458740234375
1726407103934971000,6.883970947265625,0.3111572265625,0.8301239013671875,0.53704833984375
1726407103944967700,6.8939677734375,0.3081207275390625,0.8230438232421875,0.5426177978515625
1726407103954964000,6.9039638671875,0.30377197265625,0.8115081787109375,0.54827880859375
1726407103964959700,6.913959716796875,0.3098297119140625,0.805572509765625,0.5547332763671875
1726407103974956800,6.923956787109375,0.3294677734375,0.793243408203125,0.548095703125
1726407103984952800,6.933952880859375,0.334014892578125,0.7743072509765625,0.5410614013671875
1726407103994950000,6.943949951171875,0.3350677490234375,0.7579498291015625,0.53692626953125
1726407104004945400,6.9539453125,0.33258056640625,0.751617431640625,0.5290679931640625
1726407104014941700,6.963941650390625,0.336334228515625,0.75836181640625,0.5294189453125
1726407104024938500,6.9739384765625,0.3412628173828125,0.7736053466796875,0.530975341796875
1726407104034934500,6.9839345703125,0.343292236328125,0.783660888671875,0.519805908203125
1726407104044931600,6.993931640625,0.35504150390625,0.78851318359375,0.51837158203125
1726407104054927600,7.003927734375,0.360687255859375,0.7927093505859375,0.5227508544921875
1726407104064923600,7.013923583984375,0.3563385009765625,0.794830322265625,0.5152587890625
1726407104074920700,7.023920654296875,0.3564300537109375,0.7955474853515625,0.502105712890625
1726407104084916500,7.03391650390625,0.3614044189453125,0.805145263671875,0.485595703125
1726407104094913800,7.043913818359375,0.3708953857421875,0.8173065185546875,0.4848175048828125
1726407104104909600,7.05390966796875,0.362762451171875,0.8277435302734375,0.4880218505859375
1726407104114905600,7.063905517578125,0.3469696044921875,0.8445587158203125,0.4830169677734375
1726407104124902700,7.073902587890625,0.337127685546875,0.8554229736328125,0.477203369140625
1726407104134898700,7.083898681640625,0.3193817138671875,0.869140625,0.4823455810546875
1726407104144895500,7.0938955078125,0.295654296875,0.8710479736328125,0.4871673583984375
1726407104154891800,7.103891845703125,0.288787841796875,0.8606109619140625,0.493011474609375
1726407104164887600,7.113887451171875,0.292144775390625,0.846405029296875,0.486236572265625
1726407104174884600,7.123884521484375,0.2940673828125,0.8456878662109375,0.478729248046875
1726407104184880600,7.133880615234375,0.2983245849609375,0.844451904296875,0.473602294921875
1726407104194877700,7.143877685546875,0.304840087890625,0.848236083984375,0.4753570556640625
1726407104204873500,7.15387353515625,0.3081512451171875,0.858184814453125,0.48431396484375
1726407104214869500,7.163869384765625,0.3111724853515625,0.8541412353515625,0.484130859375
1726407104224866600,7.173866455078125,0.3166961669921875,0.8432464599609375,0.4813995361328125
1726407104234862600,7.183862548828125,0.313995361328125,0.8368988037109375,0.4908294677734375
1726407104244858600,7.193858642578125,0.313507080078125,0.8294830322265625,0.492950439453125
1726407104254855700,7.203855712890625,0.3219757080078125,0.8189697265625,0.48858642578125
1726407104264851500,7.2138515625,0.318939208984375,0.823822021484375,0.4830169677734375
1726407104274848800,7.223848876953125,0.2957305908203125,0.82012939453125,0.4770355224609375
1726407104284844500,7.233844482421875,0.3004302978515625,0.8077850341796875,0.4903717041015625
1726407104294840600,7.243840576171875,0.3130340576171875,0.8029022216796875,0.5012359619140625
1726407104304837600,7.253837646484375,0.311004638671875,0.794677734375,0.5004119873046875
1726407104314833700,7.263833740234375,0.302490234375,0.78192138671875,0.48956298828125
1726407104324830500,7.27383056640625,0.3072357177734375,0.7904510498046875,0.488433837890625
1726407104334826800,7.28382666015625,0.2998504638671875,0.813812255859375,0.50823974609375
1726407104344822500,7.293822509765625,0.2789154052734375,0.8024139404296875,0.5142669677734375
1726407104354819600,7.303819580078125,0.2695159912109375,0.7935791015625,0.508880615234375
1726407104364815600,7.313815673828125,0.2992706298828125,0.79833984375,0.5103759765625
1726407104374812700,7.323812744140625,0.3215789794921875,0.8041534423828125,0.51275634765625
1726407104384808400,7.333808349609375,0.3159942626953125,0.799285888671875,0.4986724853515625
1726407104394804700,7.3438046875,0.3197174072265625,0.788330078125,0.4938812255859375
1726407104404801500,7.353801513671875,0.3324432373046875,0.7848968505859375,0.49041748046875
1726407104414797600,7.363797607421875,0.3297576904296875,0.7853851318359375,0.49005126953125
1726407104424794600,7.373794677734375,0.325927734375,0.7877044677734375,0.4949493408203125
1726407104434790700,7.383790771484375,0.331634521484375,0.7984161376953125,0.50506591796875
1726407104444786400,7.393786376953125,0.328033447265625,0.80987548828125,0.5059356689453125
1726407104454783700,7.40378369140625,0.3261260986328125,0.8035888671875,0.496124267578125
1726407104464779500,7.413779541015625,0.3288421630859375,0.795196533203125,0.4871063232421875
1726407104474776600,7.423776611328125,0.3250732421875,0.8056488037109375,0.4847564697265625
1726407104484772600,7.433772705078125,0.331573486328125,0.8115386962890625,0.4850921630859375
1726407104494768600,7.4437685546875,0.3306884765625,0.809814453125,0.4911956787109375
1726407104504765400,7.453765380859375,0.3115081787109375,0.8097076416015625,0.498199462890625
1726407104514761700,7.46376171875,0.2906341552734375,0.8157196044921875,0.5110931396484375
1726407104524758500,7.473758544921875,0.28326416015625,0.8323211669921875,0.5218353271484375
1726407104534754600,7.483754638671875,0.283294677734375,0.839813232421875,0.512542724609375
1726407104544750600,7.49375048828125,0.2913818359375,0.8332061767578125,0.5041351318359375
1726407104554747600,7.50374755859375,0.3084869384765625,0.826263427734375,0.491485595703125
1726407104564743400,7.513743408203125,0.320587158203125,0.8170928955078125,0.4867095947265625
1726407104574739700,7.52373974609375,0.333251953125,0.828521728515625,0.4891357421875
1726407104584736500,7.533736572265625,0.34814453125,0.85498046875,0.4975128173828125
1726407104594732500,7.543732666015625,0.36199951171875,0.881988525390625,0.4986724853515625
1726407104604729600,7.5537294921875,0.3674774169921875,0.8963470458984375,0.4926605224609375
1726407104614725600,7.5637255859375,0.3812408447265625,0.913543701171875,0.4883880615234375
1726407104624721400,7.573721435546875,0.3883209228515625,0.917724609375,0.47308349609375
1726407104634718700,7.58371875,0.379425048828125,0.8978424072265625,0.4632110595703125
1726407104644714500,7.593714599609375,0.366973876953125,0.8785247802734375,0.4536590576171875
1726407104654711800,7.6037119140625,0.3510589599609375,0.85931396484375,0.454803466796875
1726407104664707600,7.61370751953125,0.3376312255859375,0.8125762939453125,0.4402313232421875
1726407104674703600,7.62370361328125,0.3358612060546875,0.7595977783203125,0.418609619140625
1726407104684700700,7.63370068359375,0.3328094482421875,0.723480224609375,0.4088287353515625
1726407104694696700,7.64369677734375,0.3382568359375,0.71319580078125,0.4132232666015625
1726407104704693500,7.653693603515625,0.34527587890625,0.70745849609375,0.4156036376953125
1726407104714689800,7.663689697265625,0.3390045166015625,0.69281005859375,0.408905029296875
1726407104724685600,7.673685546875,0.333831787109375,0.6962890625,0.407379150390625
1726407104734682600,7.6836826171875,0.3333587646484375,0.695709228515625,0.4214630126953125
1726407104744678400,7.693678466796875,0.3237152099609375,0.685821533203125,0.433380126953125
1726407104754675700,7.70367578125,0.3143157958984375,0.6740570068359375,0.448883056640625
1726407104764671500,7.71367138671875,0.300445556640625,0.67724609375,0.469329833984375
1726407104774667500,7.72366748046875,0.286163330078125,0.6876983642578125,0.4958648681640625
1726407104784664600,7.73366455078125,0.2664794921875,0.7068634033203125,0.5218505859375
1726407104794660600,7.74366064453125,0.2592010498046875,0.7325897216796875,0.5390777587890625
1726407104804656400,7.753656494140625,0.276275634765625,0.75738525390625,0.55364990234375
1726407104814653700,7.76365380859375,0.3036041259765625,0.7669677734375,0.549957275390625
1726407104824649500,7.7736494140625,0.32891845703125,0.7628173828125,0.53326416015625
1726407104834646800,7.783646728515625,0.3357696533203125,0.7577362060546875,0.5279693603515625
1726407104844642600,7.793642578125,0.3303070068359375,0.7516326904296875,0.536956787109375
1726407104854638600,7.803638671875,0.3332977294921875,0.7425994873046875,0.551605224609375
1726407104864635600,7.8136357421875,0.3299102783203125,0.7487640380859375,0.566162109375
1726407104874631700,7.823631591796875,0.331268310546875,0.7684783935546875,0.595001220703125
1726407104884628500,7.83362841796875,0.3300628662109375,0.7730865478515625,0.6114959716796875
1726407104894624800,7.843624755859375,0.324920654296875,0.7732391357421875,0.614715576171875
1726407104904620500,7.85362060546875,0.316314697265625,0.7718353271484375,0.62579345703125
1726407104914617600,7.86361767578125,0.3289031982421875,0.7615814208984375,0.6301422119140625
1726407104924613600,7.873613525390625,0.34271240234375,0.741455078125,0.6074066162109375
1726407104934610700,7.883610595703125,0.3590087890625,0.7288970947265625,0.600982666015625
1726407104944606500,7.8936064453125,0.3563385009765625,0.726348876953125,0.5822296142578125
1726407104954602800,7.903602783203125,0.356353759765625,0.7225189208984375,0.5521240234375
1726407104964599600,7.913599609375,0.3553314208984375,0.7255401611328125,0.535552978515625
1726407104974595600,7.923595703125,0.3512420654296875,0.74359130859375,0.523193359375
1726407104984592600,7.933592529296875,0.3397064208984375,0.7657318115234375,0.506439208984375
1726407104994588700,7.943588623046875,0.3331756591796875,0.777191162109375,0.4897308349609375
1726407105004584200,7.953584228515625,0.318450927734375,0.7849578857421875,0.47210693359375
1726407105014581200,7.963581298828125,0.32666015625,0.8052825927734375,0.47039794921875
1726407105024577000,7.973576904296875,0.3424224853515625,0.817230224609375,0.4581451416015625
1726407105034574300,7.98357421875,0.35595703125,0.8170623779296875,0.445587158203125
1726407105044570000,7.993570068359375,0.3625335693359375,0.8279571533203125,0.43701171875
1726407105054566100,8.003566162109376,0.37860107421875,0.841949462890625,0.4336700439453125
1726407105064563200,8.013563232421875,0.381927490234375,0.8438262939453125,0.4283905029296875
1726407105074559200,8.023559326171876,0.3886260986328125,0.8448486328125,0.41778564453125
1726407105084555300,8.03355517578125,0.386962890625,0.8470611572265625,0.4254608154296875
1726407105094552300,8.04355224609375,0.3878173828125,0.86322021484375,0.4369964599609375
1726407105104548000,8.053548095703125,0.3831787109375,0.8865814208984375,0.4430999755859375
1726407105114545400,8.06354541015625,0.37744140625,0.89398193359375,0.4466400146484375
1726407105124541200,8.073541259765625,0.362701416015625,0.880523681640625,0.4343719482421875
1726407105134537200,8.083537109375,0.3601837158203125,0.8760223388671875,0.439971923828125
1726407105144534300,8.0935341796875,0.3570098876953125,0.868438720703125,0.432830810546875
1726407105154530300,8.1035302734375,0.3543701171875,0.8519287109375,0.431427001953125
1726407105164527000,8.113527099609374,0.3556671142578125,0.82843017578125,0.425628662109375
1726407105174523400,8.1235234375,0.360870361328125,0.800750732421875,0.4201202392578125
1726407105184519200,8.133519287109374,0.3613433837890625,0.772796630859375,0.426788330078125
1726407105194516200,8.14351611328125,0.36395263671875,0.762908935546875,0.4403533935546875
1726407105204512300,8.15351220703125,0.361297607421875,0.7587127685546875,0.44866943359375
1726407105214509300,8.16350927734375,0.3550872802734375,0.7582244873046875,0.473785400390625
1726407105224505000,8.173505126953126,0.3590087890625,0.7676544189453125,0.498809814453125
1726407105234501000,8.183501220703125,0.354949951171875,0.7687530517578125,0.5265960693359375
1726407105244498200,8.193498291015626,0.345550537109375,0.75146484375,0.529571533203125
1726407105254494200,8.203494140625,0.3525543212890625,0.7389068603515625,0.534393310546875
1726407105264490200,8.213490234375,0.358245849609375,0.735107421875,0.553619384765625
1726407105274487300,8.2234873046875,0.3628082275390625,0.7352142333984375,0.5766143798828125
1726407105284483000,8.233483154296875,0.365753173828125,0.7347412109375,0.5910797119140625
1726407105294480400,8.24348046875,0.368927001953125,0.7431640625,0.608001708984375
1726407105304476200,8.25347607421875,0.370391845703125,0.7537689208984375,0.6079864501953125
1726407105314472200,8.26347216796875,0.375732421875,0.7620849609375,0.6086883544921875
1726407105324469200,8.27346923828125,0.377655029296875,0.7648468017578125,0.60858154296875
1726407105334465300,8.28346533203125,0.3647918701171875,0.76898193359375,0.600433349609375
1726407105344462000,8.293462158203125,0.3626708984375,0.766937255859375,0.5821533203125
1726407105354458400,8.303458251953124,0.366973876953125,0.761444091796875,0.5656890869140625
1726407105364454100,8.3134541015625,0.368988037109375,0.7547760009765625,0.5531768798828125
1726407105374451200,8.323451171875,0.3565673828125,0.7482452392578125,0.5438690185546875
1726407105384447200,8.333447265625,0.3509368896484375,0.73248291015625,0.521148681640625
1726407105394444300,8.3434443359375,0.3694000244140625,0.7254486083984375,0.4963226318359375
1726407105404440000,8.353440185546875,0.397491455078125,0.7300262451171875,0.4890899658203125
1726407105414436400,8.363436279296875,0.4106597900390625,0.738372802734375,0.486785888671875
1726407105424433200,8.37343310546875,0.4062347412109375,0.7474822998046875,0.48565673828125
1726407105434429200,8.38342919921875,0.39898681640625,0.7613067626953125,0.4868927001953125
1726407105444425500,8.393425537109374,0.38671875,0.7684326171875,0.4937896728515625
1726407105454422300,8.40342236328125,0.3931427001953125,0.790924072265625,0.49749755859375
1726407105464418000,8.41341796875,0.405029296875,0.8155517578125,0.501739501953125
1726407105474415400,8.423415283203125,0.427001953125,0.833587646484375,0.499725341796875
1726407105484411100,8.4334111328125,0.4370880126953125,0.8401336669921875,0.4978179931640625
1726407105494407200,8.4434072265625,0.4224395751953125,0.8201751708984375,0.48614501953125
1726407105504404200,8.453404296875,0.3978271484375,0.7987823486328125,0.474273681640625
1726407105514400300,8.463400146484375,0.3864288330078125,0.7826385498046875,0.464111328125
1726407105524397000,8.47339697265625,0.395111083984375,0.7593231201171875,0.4453277587890625
1726407105534393300,8.483393310546875,0.4014129638671875,0.751617431640625,0.448883056640625
1726407105544389000,8.49338916015625,0.39129638671875,0.7515106201171875,0.456024169921875
1726407105554386200,8.50338623046875,0.365203857421875,0.76409912109375,0.45367431640625
1726407105564382200,8.51338232421875,0.3558197021484375,0.7970123291015625,0.473236083984375
1726407105574379300,8.523379150390625,0.33258056640625,0.8123016357421875,0.4912109375
1726407105584375000,8.533375,0.311920166015625,0.8113555908203125,0.4925079345703125
1726407105594371300,8.543371337890624,0.298980712890625,0.8027801513671875,0.5018768310546875
1726407105604368100,8.5533681640625,0.2943115234375,0.7890472412109375,0.50689697265625
1726407105614364200,8.5633642578125,0.31866455078125,0.7839813232421875,0.5200347900390625
1726407105624360400,8.5733603515625,0.3176422119140625,0.767364501953125,0.5233917236328125
1726407105634357200,8.583357177734374,0.3208465576171875,0.766815185546875,0.50103759765625
1726407105644353000,8.59335302734375,0.35504150390625,0.767059326171875,0.5125274658203125
1726407105654350300,8.603350341796874,0.370941162109375,0.7450408935546875,0.5135650634765625
1726407105664346000,8.61334619140625,0.3795928955078125,0.7324676513671875,0.5233306884765625
1726407105674342100,8.623342041015626,0.3716888427734375,0.7244873046875,0.5432281494140625
1726407105684339200,8.633339111328125,0.3812408447265625,0.713165283203125,0.547088623046875
1726407105694335200,8.643335205078126,0.382171630859375,0.704071044921875,0.5347747802734375
1726407105704332300,8.653332275390625,0.3866119384765625,0.7013397216796875,0.5313873291015625
1726407105714328300,8.663328369140626,0.3881378173828125,0.7098388671875,0.5352935791015625
1726407105724324400,8.673324462890625,0.4001617431640625,0.714019775390625,0.544219970703125
1726407105734321400,8.6833212890625,0.3886871337890625,0.7270050048828125,0.544281005859375
1726407105744317200,8.693317138671874,0.37908935546875,0.7335357666015625,0.536590576171875
1726407105754314200,8.703314208984375,0.36578369140625,0.7281341552734375,0.537841796875
1726407105764310000,8.71331005859375,0.3589630126953125,0.7265625,0.5284576416015625
1726407105774306300,8.723306396484375,0.353057861328125,0.7243499755859375,0.534912109375
1726407105784303000,8.73330322265625,0.348785400390625,0.718841552734375,0.5317840576171875
1726407105794299100,8.743299072265625,0.3580169677734375,0.72259521484375,0.5369873046875
1726407105804295400,8.75329541015625,0.354156494140625,0.725616455078125,0.529693603515625
1726407105814292200,8.763292236328125,0.3632354736328125,0.72259521484375,0.51446533203125
1726407105824288300,8.773288330078126,0.363067626953125,0.7165069580078125,0.5037689208984375
1726407105834285300,8.783285400390625,0.378753662109375,0.717132568359375,0.489349365234375
1726407105844281000,8.793281005859376,0.3909454345703125,0.7373046875,0.487548828125
1726407105854277000,8.803277099609375,0.39959716796875,0.7353057861328125,0.4747314453125
1726407105864274200,8.813274169921876,0.3994140625,0.739959716796875,0.463104248046875
1726407105874270200,8.823270263671875,0.3918304443359375,0.7778778076171875,0.4640350341796875
1726407105884267300,8.833267333984375,0.40576171875,0.8066253662109375,0.45538330078125
1726407105894263300,8.84326318359375,0.40631103515625,0.82476806640625,0.453643798828125
1726407105904259300,8.85325927734375,0.3951263427734375,0.8365020751953125,0.4618072509765625
1726407105914256400,8.86325634765625,0.3682861328125,0.8403472900390625,0.469085693359375
1726407105924252200,8.873252197265625,0.3570404052734375,0.830413818359375,0.4644317626953125
1726407105934249200,8.883249267578124,0.360382080078125,0.8139495849609375,0.4508514404296875
1726407105944245200,8.893245361328125,0.3524017333984375,0.805389404296875,0.4481964111328125
1726407105954241300,8.9032412109375,0.343353271484375,0.79345703125,0.4381256103515625
1726407105964238000,8.913238037109375,0.336212158203125,0.7849578857421875,0.4275970458984375
1726407105974234400,8.923234375,0.340240478515625,0.79071044921875,0.426971435546875
1726407105984230400,8.93323046875,0.3505401611328125,0.8002166748046875,0.4404449462890625
1726407105994227200,8.943227294921876,0.3476409912109375,0.7878265380859375,0.4459075927734375
1726407106004223200,8.95322314453125,0.34136962890625,0.7859344482421875,0.464385986328125
1726407106014221000,8.963220947265626,0.3283233642578125,0.7826385498046875,0.4700927734375
1726407106024216800,8.973216796875,0.3323822021484375,0.779541015625,0.48065185546875
1726407106034213000,8.983213134765625,0.343017578125,0.7926788330078125,0.5056610107421875
1726407106044210000,8.9932099609375,0.341583251953125,0.799835205078125,0.543701171875
1726407106054206000,9.0032060546875,0.3511199951171875,0.802276611328125,0.57421875
1726407106064203000,9.013203125,0.362701416015625,0.807769775390625,0.5968017578125
1726407106074199000,9.023198974609375,0.3709564208984375,0.80401611328125,0.6092529296875
1726407106084194800,9.03319482421875,0.384857177734375,0.786376953125,0.606689453125
1726407106094192000,9.043192138671875,0.401824951171875,0.7689361572265625,0.6007232666015625
1726407106104188000,9.05318798828125,0.426055908203125,0.7575836181640625,0.5911865234375
1726407106114184000,9.063183837890625,0.445465087890625,0.741851806640625,0.5633697509765625
1726407106124181000,9.073180908203126,0.4642791748046875,0.741546630859375,0.527587890625
1726407106134177000,9.083177001953125,0.4575958251953125,0.7445526123046875,0.492218017578125
1726407106144174000,9.093174072265626,0.45599365234375,0.7541656494140625,0.458343505859375
1726407106154170000,9.103170166015625,0.4514923095703125,0.7767181396484375,0.45318603515625
1726407106164166000,9.113165771484375,0.42498779296875,0.807525634765625,0.450286865234375
1726407106174163200,9.1231630859375,0.407623291015625,0.824951171875,0.455780029296875
1726407106184159000,9.133158935546875,0.3932342529296875,0.8297119140625,0.461273193359375
1726407106194156000,9.143156005859375,0.381988525390625,0.829010009765625,0.4593353271484375
1726407106204152000,9.153152099609375,0.372528076171875,0.832427978515625,0.460205078125
1726407106214148000,9.163148193359374,0.370635986328125,0.8445892333984375,0.461578369140625
1726407106224145000,9.173144775390625,0.3820648193359375,0.8523406982421875,0.4477996826171875
1726407106234141000,9.183140869140624,0.3962249755859375,0.8406524658203125,0.440643310546875
1726407106244138000,9.193137939453125,0.4009857177734375,0.8231658935546875,0.4401092529296875
1726407106254134000,9.203134033203124,0.392181396484375,0.8227081298828125,0.4493255615234375
1726407106264129800,9.2131298828125,0.37078857421875,0.8128509521484375,0.4514007568359375
1726407106274127000,9.223127197265624,0.383331298828125,0.8017425537109375,0.452728271484375
1726407106284123000,9.233122802734375,0.4053955078125,0.79388427734375,0.4608154296875
1726407106294119000,9.243118896484376,0.407562255859375,0.8016510009765625,0.466278076171875
1726407106304116000,9.253115966796875,0.407501220703125,0.813232421875,0.467193603515625
1726407106314112000,9.263112060546876,0.3991241455078125,0.807861328125,0.453765869140625
1726407106324109000,9.273109130859375,0.4030914306640625,0.785400390625,0.4480438232421875
1726407106334105000,9.28310498046875,0.4037322998046875,0.785247802734375,0.449462890625
1726407106344100900,9.293100830078124,0.383056640625,0.779998779296875,0.454010009765625
1726407106354098200,9.30309814453125,0.3625030517578125,0.7777099609375,0.4581756591796875
1726407106364094000,9.313093994140624,0.3460845947265625,0.7704925537109375,0.4569244384765625
1726407106374090000,9.323090087890625,0.342315673828125,0.7817230224609375,0.473785400390625
1726407106384087000,9.333087158203124,0.3302001953125,0.7894287109375,0.4806060791015625
1726407106394083000,9.3430830078125,0.3389892578125,0.7950592041015625,0.496246337890625
1726407106404079900,9.353079833984374,0.3421173095703125,0.808990478515625,0.499542236328125
1726407106414076200,9.363076171875,0.340850830078125,0.8116302490234375,0.5022735595703125
1726407106424072000,9.373072021484376,0.3271026611328125,0.7974395751953125,0.5063323974609375
1726407106434069000,9.383069091796875,0.32818603515625,0.7968292236328125,0.5001678466796875
1726407106444065000,9.39306494140625,0.3360137939453125,0.793670654296875,0.48895263671875
1726407106454062000,9.40306201171875,0.3294830322265625,0.780731201171875,0.481689453125
1726407106464057900,9.413057861328125,0.3281097412109375,0.7728118896484375,0.4747467041015625
1726407106474054100,9.42305419921875,0.32684326171875,0.7834014892578125,0.483428955078125
1726407106484051000,9.433051025390625,0.33331298828125,0.7799224853515625,0.4881591796875
1726407106494047000,9.443046875,0.3432464599609375,0.7578125,0.4752044677734375
1726407106504043000,9.45304296875,0.3521881103515625,0.7407684326171875,0.4566650390625
1726407106514040000,9.4630400390625,0.36395263671875,0.7561798095703125,0.4481964111328125
1726407106524035800,9.473035888671875,0.3706207275390625,0.7771759033203125,0.455413818359375
1726407106534033200,9.483033203125,0.3659210205078125,0.7940826416015625,0.470550537109375
1726407106544029000,9.49302880859375,0.375518798828125,0.816192626953125,0.4963226318359375
1726407106554025000,9.50302490234375,0.3768310546875,0.81341552734375,0.499114990234375
1726407106564022000,9.51302197265625,0.3724212646484375,0.80523681640625,0.4805450439453125
1726407106574018000,9.52301806640625,0.392852783203125,0.8102264404296875,0.4707489013671875
1726407106584014800,9.533014892578125,0.4176483154296875,0.8145599365234375,0.460357666015625
1726407106594011100,9.54301123046875,0.415313720703125,0.8221282958984375,0.4491729736328125
1726407106604007000,9.5530068359375,0.397186279296875,0.831787109375,0.446014404296875
1726407106614004000,9.56300390625,0.383148193359375,0.825408935546875,0.4409027099609375
1726407106624000000,9.573,0.3838958740234375,0.794586181640625,0.4293975830078125
1726407106633996000,9.58299609375,0.3887176513671875,0.77874755859375,0.427734375
1726407106643992800,9.592992919921874,0.391204833984375,0.773773193359375,0.4300994873046875
1726407106653989000,9.602989013671875,0.3807220458984375,0.7633514404296875,0.4281768798828125
1726407106663986000,9.61298583984375,0.378875732421875,0.7576904296875,0.4375
1726407106673982000,9.62298193359375,0.3746185302734375,0.752777099609375,0.4363250732421875
1726407106683978000,9.63297802734375,0.3699493408203125,0.75872802734375,0.4450836181640625
1726407106693975000,9.64297509765625,0.373138427734375,0.766082763671875,0.45074462890625
1726407106703970800,9.652970703125,0.36865234375,0.7661590576171875,0.4574432373046875
1726407106713968000,9.662968017578125,0.36553955078125,0.7690582275390625,0.46624755859375
1726407106723964000,9.6729638671875,0.3799896240234375,0.7890472412109375,0.4783935546875
1726407106733960000,9.6829599609375,0.399139404296875,0.7986907958984375,0.486968994140625
1726407106743957000,9.69295703125,0.3858184814453125,0.787445068359375,0.4941253662109375
1726407106753953000,9.702953125,0.3932647705078125,0.7882080078125,0.5116119384765625
1726407106763948800,9.71294873046875,0.3967132568359375,0.8051910400390625,0.5318756103515625
1726407106773946000,9.722946044921875,0.388427734375,0.82122802734375,0.5453033447265625
1726407106783942000,9.73294189453125,0.3953094482421875,0.828826904296875,0.5449676513671875
1726407106793939000,9.74293896484375,0.3839874267578125,0.819091796875,0.5368194580078125
1726407106803935000,9.75293505859375,0.3804779052734375,0.7871246337890625,0.526641845703125
1726407106813931000,9.762930908203124,0.3779449462890625,0.75506591796875,0.5165557861328125
1726407106823927800,9.772927734375,0.3769683837890625,0.7371826171875,0.52447509765625
1726407106833924000,9.782924072265626,0.3858184814453125,0.7408599853515625,0.534698486328125
1726407106843921000,9.7929208984375,0.375701904296875,0.7395477294921875,0.5391693115234375
1726407106853917000,9.8029169921875,0.378173828125,0.74188232421875,0.537567138671875
1726407106863913000,9.812912841796875,0.3846893310546875,0.748565673828125,0.5260009765625
1726407106873910000,9.822909912109376,0.38922119140625,0.75634765625,0.5084686279296875
1726407106883905800,9.83290576171875,0.3856658935546875,0.7454681396484375,0.48651123046875
1726407106893902000,9.842902099609375,0.3871002197265625,0.724456787109375,0.4600982666015625
1726407106903899000,9.85289892578125,0.3908233642578125,0.7133941650390625,0.4467620849609375
1726407106913895000,9.86289501953125,0.40948486328125,0.7298126220703125,0.4483795166015625
1726407106923892000,9.87289208984375,0.4220428466796875,0.7588348388671875,0.455718994140625
1726407106933888000,9.882887939453125,0.417510986328125,0.788818359375,0.4614410400390625
1726407106943883800,9.8928837890625,0.3998565673828125,0.8077850341796875,0.4687347412109375
1726407106953881000,9.902881103515625,0.3774566650390625,0.8087005615234375,0.4597625732421875
1726407106963876900,9.912876953125,0.369384765625,0.81597900390625,0.4477691650390625
1726407106973874200,9.922874267578125,0.37353515625,0.835723876953125,0.4533843994140625
1726407106983870000,9.932869873046876,0.364501953125,0.8411102294921875,0.4644927978515625
1726407106993866000,9.942865966796875,0.361907958984375,0.84381103515625,0.471710205078125
1726407107003863000,9.952863037109376,0.35968017578125,0.838043212890625,0.4747161865234375
1726407107013858600,9.962858642578125,0.3583526611328125,0.828216552734375,0.479766845703125
1726407107023854800,9.972854736328125,0.3497314453125,0.8166351318359375,0.4813079833984375
1726407107033851600,9.9828515625,0.3482513427734375,0.8011932373046875,0.4735107421875
1726407107043847700,9.99284765625,0.365447998046875,0.782562255859375,0.46929931640625
1726407107053844700,10.0028447265625,0.3773651123046875,0.7760162353515625,0.4770965576171875
1726407107063840500,10.012840576171875,0.3697357177734375,0.764556884765625,0.4882965087890625
1726407107073836500,10.02283642578125,0.3629913330078125,0.7584381103515625,0.5049285888671875
1726407107083833600,10.03283349609375,0.37445068359375,0.7682647705078125,0.5219879150390625
1726407107093829600,10.04282958984375,0.38995361328125,0.781768798828125,0.555023193359375
1726407107103825700,10.05282568359375,0.4024505615234375,0.78125,0.5599822998046875
1726407107113822700,10.06282275390625,0.4019622802734375,0.7627105712890625,0.5627593994140625
1726407107123818800,10.07281884765625,0.3955230712890625,0.741119384765625,0.5690765380859375
1726407107133815800,10.08281591796875,0.3968658447265625,0.7004852294921875,0.5608062744140625
1726407107143811600,10.0928115234375,0.4014434814453125,0.6772918701171875,0.557281494140625
1726407107153807600,10.1028076171875,0.40130615234375,0.677032470703125,0.5617218017578125
1726407107163804700,10.1128046875,0.40966796875,0.6860198974609375,0.5583343505859375
1726407107173800700,10.12280078125,0.4020538330078125,0.70361328125,0.5647430419921875
1726407107183797500,10.132797607421875,0.38043212890625,0.719573974609375,0.560699462890625
1726407107193793800,10.142793701171875,0.378143310546875,0.730194091796875,0.5549468994140625
1726407107203789800,10.152789794921874,0.3934326171875,0.75445556640625,0.5438385009765625
1726407107213786600,10.16278662109375,0.4150238037109375,0.778564453125,0.5217742919921875
1726407107223782700,10.17278271484375,0.4337158203125,0.827178955078125,0.5119171142578125
1726407107233778700,10.18277880859375,0.44207763671875,0.881591796875,0.4987335205078125
1726407107243775500,10.192775390625,0.4453277587890625,0.91851806640625,0.48455810546875
1726407107253771500,10.202771484375,0.420867919921875,0.931549072265625,0.481964111328125
1726407107263768600,10.2127685546875,0.374420166015625,0.9004669189453125,0.4535369873046875
1726407107273764600,10.2227646484375,0.357025146484375,0.8538055419921875,0.4185791015625
1726407107283760600,10.2327607421875,0.35992431640625,0.822296142578125,0.3946380615234375
1726407107293757700,10.2427578125,0.361114501953125,0.8058013916015625,0.3877105712890625
1726407107303753700,10.252753662109376,0.343414306640625,0.790191650390625,0.371124267578125
1726407107313750800,10.262750732421875,0.3161773681640625,0.769866943359375,0.3587646484375
1726407107323746600,10.27274658203125,0.2907562255859375,0.7618865966796875,0.3467559814453125
1726407107333742600,10.28274267578125,0.2778778076171875,0.7557373046875,0.3336944580078125
1726407107343739600,10.29273974609375,0.2740020751953125,0.75689697265625,0.33941650390625
1726407107353735700,10.302735595703124,0.2729949951171875,0.7719573974609375,0.3547515869140625
1726407107363731700,10.312731689453125,0.2770538330078125,0.797393798828125,0.370849609375
1726407107373728800,10.322728759765624,0.283599853515625,0.828521728515625,0.3915252685546875
1726407107383724800,10.332724853515625,0.2866058349609375,0.857879638671875,0.4002532958984375
1726407107393721600,10.3427216796875,0.2909698486328125,0.8619232177734375,0.40435791015625
1726407107403717600,10.352717529296875,0.299407958984375,0.869537353515625,0.4223785400390625
1726407107413713700,10.362713623046876,0.31549072265625,0.8777923583984375,0.4370574951171875
1726407107423710500,10.37271044921875,0.331787109375,0.866790771484375,0.4421844482421875
1726407107433706800,10.382706787109376,0.3506011962890625,0.8518524169921875,0.4532012939453125
1726407107443703600,10.39270361328125,0.3650054931640625,0.8221282958984375,0.451385498046875
1726407107453699600,10.402699462890626,0.385498046875,0.8076934814453125,0.4656219482421875
1726407107463696000,10.41269580078125,0.3918304443359375,0.7919769287109375,0.4769287109375
1726407107473692700,10.422692626953125,0.39764404296875,0.7636871337890625,0.479522705078125
1726407107483688700,10.432688720703124,0.38665771484375,0.75140380859375,0.4853973388671875
1726407107493684700,10.442684814453125,0.3824615478515625,0.75189208984375,0.4977569580078125
1726407107503681500,10.452681640625,0.388671875,0.7541656494140625,0.51708984375
1726407107513677600,10.462677490234375,0.3863372802734375,0.7461090087890625,0.5357208251953125
1726407107523674600,10.472674560546874,0.3719482421875,0.736480712890625,0.5427398681640625
1726407107533670700,10.482670654296875,0.3646392822265625,0.7314910888671875,0.5465240478515625
1726407107543666700,10.492666748046876,0.35845947265625,0.7431640625,0.562652587890625
1726407107553663700,10.502663818359375,0.35614013671875,0.753570556640625,0.5713653564453125
1726407107563659800,10.51265966796875,0.3658447265625,0.7638702392578125,0.5763397216796875
1726407107573656600,10.522656494140625,0.3706207275390625,0.786834716796875,0.584381103515625
1726407107583652600,10.532652587890626,0.36871337890625,0.7981719970703125,0.58062744140625
1726407107593648600,10.542648681640625,0.35986328125,0.787750244140625,0.5663604736328125
1726407107603645400,10.5526455078125,0.3603057861328125,0.7813262939453125,0.55328369140625
1726407107613641700,10.562641845703125,0.3802337646484375,0.7808074951171875,0.5297393798828125
1726407107623637800,10.5726376953125,0.3991546630859375,0.7721710205078125,0.504425048828125
1726407107633634600,10.582634521484374,0.412139892578125,0.756622314453125,0.4876708984375
1726407107643630800,10.592630859375,0.42681884765625,0.749664306640625,0.4806671142578125
1726407107653627600,10.602627685546874,0.4370269775390625,0.7642059326171875,0.4827117919921875
1726407107663623700,10.612623779296875,0.4396514892578125,0.7825469970703125,0.4918365478515625
1726407107673619700,10.62261962890625,0.4275665283203125,0.78717041015625,0.4925689697265625
1726407107683616500,10.632616455078125,0.403961181640625,0.7835235595703125,0.48443603515625
1726407107693612500,10.642612548828126,0.390594482421875,0.779998779296875,0.477752685546875
1726407107703608800,10.65260888671875,0.39385986328125,0.777801513671875,0.482086181640625
1726407107713605600,10.662605712890626,0.409759521484375,0.7781829833984375,0.490692138671875
1726407107723601700,10.6726015625,0.41424560546875,0.77325439453125,0.486358642578125
1726407107733598700,10.6825986328125,0.40631103515625,0.7664947509765625,0.483642578125
1726407107743594800,10.6925947265625,0.396453857421875,0.7639617919921875,0.4817047119140625
1726407107753590500,10.702590576171875,0.39453125,0.77740478515625,0.493316650390625
1726407107763587800,10.712587890625,0.4002227783203125,0.78759765625,0.4995880126953125
1726407107773583600,10.72258349609375,0.4119720458984375,0.7938079833984375,0.5090484619140625
1726407107783580400,10.732580322265624,0.424591064453125,0.802001953125,0.51458740234375
1726407107793576700,10.74257666015625,0.428497314453125,0.803070068359375,0.5145263671875
1726407107803572700,10.75257275390625,0.4251556396484375,0.80218505859375,0.5071868896484375
1726407107813569500,10.762569580078125,0.4125823974609375,0.8017425537109375,0.502044677734375
1726407107823565800,10.77256591796875,0.395721435546875,0.804718017578125,0.49591064453125
1726407107833561600,10.7825615234375,0.3771820068359375,0.8083343505859375,0.492919921875
1726407107843558700,10.79255859375,0.3729400634765625,0.80438232421875,0.4912567138671875
1726407107853554700,10.8025546875,0.3685150146484375,0.798095703125,0.505889892578125
1726407107863551700,10.8125517578125,0.35150146484375,0.7912750244140625,0.5118560791015625
1726407107873547500,10.822547607421875,0.3369903564453125,0.7834320068359375,0.517242431640625
1726407107883543800,10.832543701171875,0.3359375,0.7834014892578125,0.5162811279296875
1726407107893540600,10.84254052734375,0.3413543701171875,0.7913970947265625,0.5073699951171875
1726407107903536600,10.85253662109375,0.3543243408203125,0.7973480224609375,0.5012054443359375
1726407107913533700,10.86253369140625,0.3595123291015625,0.7926177978515625,0.4897918701171875
1726407107923529700,10.87252978515625,0.348114013671875,0.7808990478515625,0.472564697265625
1726407107933525500,10.882525390625,0.336669921875,0.7713165283203125,0.4658355712890625
1726407107943522800,10.892522705078125,0.3251953125,0.7676849365234375,0.4722442626953125
1726407107953518600,10.9025185546875,0.3171234130859375,0.769927978515625,0.468505859375
1726407107963514600,10.9125146484375,0.310089111328125,0.77764892578125,0.4585418701171875
1726407107973511700,10.92251171875,0.305755615234375,0.78912353515625,0.4670867919921875
1726407107983507700,10.9325078125,0.2972564697265625,0.78619384765625,0.4618988037109375
1726407107993504800,10.9425048828125,0.2868804931640625,0.78424072265625,0.460205078125
1726407108003500800,10.952500732421875,0.2823486328125,0.7852325439453125,0.463348388671875
1726407108013496000,10.96249609375,0.2848663330078125,0.7921295166015625,0.462738037109375
1726407108023493000,10.9724931640625,0.29449462890625,0.81201171875,0.4705963134765625
1726407108033489200,10.9824892578125,0.3076324462890625,0.8318939208984375,0.476226806640625
1726407108043486200,10.992486328125,0.3134002685546875,0.8454132080078125,0.4798583984375
1726407108053482000,11.00248193359375,0.3136749267578125,0.840179443359375,0.4791412353515625
1726407108063478300,11.012478271484374,0.32171630859375,0.8234100341796875,0.47308349609375
1726407108073475000,11.02247509765625,0.324737548828125,0.8088226318359375,0.465362548828125
1726407108083471000,11.03247119140625,0.3271331787109375,0.78863525390625,0.4612274169921875
1726407108093467100,11.042467041015625,0.324798583984375,0.7681732177734375,0.4519805908203125
1726407108103464200,11.052464111328124,0.3243865966796875,0.7615203857421875,0.450469970703125
1726407108113460000,11.0624599609375,0.327667236328125,0.7614593505859375,0.4484405517578125
1726407108123457300,11.072457275390626,0.32275390625,0.7680206298828125,0.4515838623046875
1726407108133453000,11.082453125,0.3294525146484375,0.768829345703125,0.46014404296875
1726407108143449000,11.092448974609376,0.319091796875,0.7677154541015625,0.4761962890625
1726407108153446100,11.102446044921875,0.3095703125,0.7665252685546875,0.492095947265625
1726407108163442200,11.112442138671875,0.3090667724609375,0.7758331298828125,0.51092529296875
1726407108173438000,11.12243798828125,0.321685791015625,0.788421630859375,0.519378662109375
1726407108183435300,11.132435302734375,0.340484619140625,0.80743408203125,0.5228271484375
1726407108193431000,11.14243115234375,0.3747100830078125,0.820831298828125,0.5317230224609375
1726407108203428400,11.152428466796875,0.405364990234375,0.8274078369140625,0.5229034423828125
1726407108213424000,11.162424072265624,0.428680419921875,0.8137969970703125,0.496063232421875
1726407108223420200,11.172420166015625,0.4483489990234375,0.7996368408203125,0.483184814453125
1726407108233417200,11.182417236328124,0.4615478515625,0.7880706787109375,0.483184814453125
1726407108243413200,11.192413330078125,0.4636688232421875,0.7749481201171875,0.4968719482421875
1726407108253409000,11.202408935546876,0.44525146484375,0.772064208984375,0.522247314453125
1726407108263406000,11.212406005859375,0.422088623046875,0.76904296875,0.53509521484375
1726407108273402000,11.222402099609376,0.3983612060546875,0.7565460205078125,0.5390472412109375
1726407108283399200,11.232399169921875,0.3790435791015625,0.746368408203125,0.5277099609375
1726407108293395000,11.24239501953125,0.3747711181640625,0.7518463134765625,0.5160980224609375
1726407108303391200,11.25239111328125,0.3600616455078125,0.7614288330078125,0.5048828125
1726407108313388000,11.262387939453125,0.346923828125,0.7724456787109375,0.4897003173828125
1726407108323384000,11.272384033203124,0.3344573974609375,0.7796783447265625,0.4886322021484375
1726407108333380000,11.282380126953125,0.327667236328125,0.78948974609375,0.4909515380859375
1726407108343377200,11.292377197265624,0.317901611328125,0.79913330078125,0.48675537109375
1726407108353373000,11.302373046875,0.3159332275390625,0.807403564453125,0.4804229736328125
1726407108363370200,11.312370361328124,0.313262939453125,0.819671630859375,0.4716033935546875
1726407108373366000,11.322365966796875,0.3263092041015625,0.8347320556640625,0.4641876220703125
1726407108383362000,11.332362060546876,0.3405303955078125,0.849853515625,0.4615478515625
1726407108393359000,11.342359130859375,0.3410186767578125,0.856201171875,0.453216552734375
1726407108403355100,11.352355224609376,0.3237762451171875,0.8436737060546875,0.449249267578125
1726407108413352200,11.362352294921875,0.30426025390625,0.822906494140625,0.4447479248046875
1726407108423348200,11.37234814453125,0.2877960205078125,0.807586669921875,0.4491729736328125
1726407108433344000,11.382343994140625,0.2824249267578125,0.793365478515625,0.44940185546875
1726407108443341300,11.39234130859375,0.2853240966796875,0.783660888671875,0.4459228515625
1726407108453337000,11.402337158203125,0.2991485595703125,0.7890777587890625,0.451385498046875
1726407108463333000,11.4123330078125,0.3125,0.80712890625,0.459869384765625
1726407108473330200,11.422330078125,0.31201171875,0.8253631591796875,0.464111328125
1726407108483326200,11.432326171875,0.3146820068359375,0.8436431884765625,0.4607696533203125
1726407108493323000,11.442322998046874,0.324310302734375,0.8527679443359375,0.45703125
1726407108503319300,11.4523193359375,0.336669921875,0.8451995849609375,0.457244873046875
1726407108513315300,11.4623154296875,0.3433074951171875,0.834320068359375,0.4561309814453125
1726407108523312000,11.47231201171875,0.351654052734375,0.8363037109375,0.4609375
1726407108533308200,11.48230810546875,0.3599395751953125,0.8493499755859375,0.46417236328125
1726407108543304200,11.49230419921875,0.36920166015625,0.8697357177734375,0.46600341796875
1726407108553301000,11.502301025390626,0.380035400390625,0.8756256103515625,0.4654693603515625
1726407108563297300,11.51229736328125,0.38214111328125,0.8572235107421875,0.4618682861328125
1726407108573294000,11.522294189453126,0.368927001953125,0.8269805908203125,0.4607086181640625
1726407108583290000,11.5322900390625,0.3473663330078125,0.80126953125,0.462310791015625
1726407108593286100,11.5422861328125,0.3345947265625,0.798309326171875,0.4712371826171875
1726407108603283200,11.552283203125,0.3403167724609375,0.8068695068359375,0.4734954833984375
1726407108613279200,11.562279296875,0.348602294921875,0.8112640380859375,0.4655609130859375
1726407108623275000,11.57227490234375,0.3472442626953125,0.8034515380859375,0.451995849609375
1726407108633272000,11.58227197265625,0.3498382568359375,0.798492431640625,0.4379119873046875
1726407108643268000,11.59226806640625,0.3585968017578125,0.8010101318359375,0.41680908203125
1726407108653265200,11.60226513671875,0.374237060546875,0.8094329833984375,0.4003448486328125
1726407108663261200,11.61226123046875,0.3779754638671875,0.813934326171875,0.3850860595703125
1726407108673257200,11.62225732421875,0.3695831298828125,0.8157196044921875,0.3863372802734375
1726407108683254300,11.632254150390626,0.3518829345703125,0.8150787353515625,0.39300537109375
1726407108693250300,11.642250244140625,0.3400115966796875,0.8076171875,0.4007110595703125
1726407108703246000,11.65224609375,0.32440185546875,0.811309814453125,0.4041290283203125
1726407108713243100,11.6622431640625,0.3048095703125,0.831451416015625,0.4114990234375
1726407108723239200,11.6722392578125,0.2891387939453125,0.8414459228515625,0.4217071533203125
1726407108733236000,11.682236083984375,0.2806854248046875,0.84259033203125,0.43505859375
1726407108743232300,11.692232177734375,0.2594146728515625,0.8374176025390625,0.449493408203125
1726407108753228300,11.702228271484374,0.2391357421875,0.837646484375,0.4813690185546875
1726407108763225000,11.71222509765625,0.23870849609375,0.834014892578125,0.4949493408203125
1726407108773221400,11.722221435546874,0.2538604736328125,0.82733154296875,0.496551513671875
1726407108783217200,11.732217041015625,0.2653961181640625,0.8135833740234375,0.502685546875
1726407108793214200,11.742214111328124,0.285400390625,0.7876739501953125,0.499420166015625
1726407108803210200,11.752210205078125,0.310333251953125,0.778656005859375,0.4975128173828125
1726407108813207000,11.76220703125,0.3468170166015625,0.778106689453125,0.490966796875
1726407108823203000,11.772203125,0.378692626953125,0.7753448486328125,0.4802703857421875
1726407108833199400,11.782199462890626,0.3891754150390625,0.7765655517578125,0.491058349609375
1726407108843196200,11.792196044921875,0.3889617919921875,0.7727508544921875,0.497772216796875
1726407108853192200,11.802192138671876,0.398651123046875,0.7864532470703125,0.506195068359375
1726407108863188200,11.812188232421875,0.406829833984375,0.8032073974609375,0.51995849609375
1726407108873185300,11.822185302734376,0.388427734375,0.7964630126953125,0.52447509765625
1726407108883181000,11.83218115234375,0.3675689697265625,0.7836456298828125,0.5329132080078125
1726407108893178000,11.84217822265625,0.3517913818359375,0.7850799560546875,0.53289794921875
1726407108903174100,11.852174072265624,0.3503875732421875,0.7878875732421875,0.53436279296875
1726407108913170200,11.862170166015625,0.34912109375,0.782135009765625,0.5302886962890625
1726407108923167200,11.872167236328124,0.3480987548828125,0.7723541259765625,0.5290374755859375
1726407108933163300,11.882163330078125,0.3399658203125,0.7531585693359375,0.524566650390625
1726407108943160000,11.89216015625,0.326873779296875,0.7444915771484375,0.5223846435546875
1726407108953156400,11.90215625,0.3226165771484375,0.7356719970703125,0.518951416015625
1726407108963152100,11.912152099609376,0.32379150390625,0.7213592529296875,0.5194091796875
1726407108973149200,11.922149169921875,0.3343048095703125,0.719482421875,0.5232391357421875
1726407108983145200,11.932145263671876,0.360595703125,0.75201416015625,0.5347137451171875
1726407108993141200,11.942141357421875,0.36572265625,0.7792205810546875,0.541412353515625
1726407109003138000,11.952137939453126,0.364471435546875,0.7924041748046875,0.533355712890625
1726407109013134600,11.962134521484375,0.373016357421875,0.8090972900390625,0.5301361083984375
1726407109023131400,11.97213134765625,0.3856048583984375,0.818389892578125,0.5397491455078125
1726407109033127400,11.98212744140625,0.3927154541015625,0.812408447265625,0.54345703125
1726407109043123500,11.99212353515625,0.385528564453125,0.796600341796875,0.5442962646484375
1726407109053120300,12.002120361328124,0.371337890625,0.7728118896484375,0.5266265869140625
1726407109063116500,12.012116455078125,0.368804931640625,0.7483673095703125,0.506866455078125
1726407109073112600,12.022112548828124,0.3895721435546875,0.7369537353515625,0.48748779296875
1726407109083109400,12.032109375,0.41192626953125,0.7426300048828125,0.486053466796875
1726407109093105700,12.042105712890624,0.4137420654296875,0.7508697509765625,0.4858856201171875
1726407109103102500,12.0521025390625,0.4076690673828125,0.7596893310546875,0.4828033447265625
1726407109113098500,12.062098388671876,0.3926849365234375,0.7559814453125,0.484771728515625
1726407109123094500,12.072094482421875,0.3797760009765625,0.7543487548828125,0.4796295166015625
1726407109133091300,12.08209130859375,0.3843994140625,0.7569580078125,0.47564697265625
1726407109143087400,12.09208740234375,0.3934783935546875,0.76312255859375,0.4765777587890625
1726407109153083600,12.102083740234375,0.3939666748046875,0.7613677978515625,0.48309326171875
1726407109163080400,12.11208056640625,0.4016571044921875,0.77386474609375,0.4914398193359375
1726407109173076500,12.122076416015625,0.41925048828125,0.8006134033203125,0.5009307861328125
1726407109183073500,12.132073486328125,0.433746337890625,0.817352294921875,0.5040283203125
1726407109193069600,12.142069580078125,0.414459228515625,0.832794189453125,0.5140228271484375
1726407109203065300,12.1520654296875,0.3968505859375,0.8414306640625,0.5131072998046875
1726407109213062400,12.1620625,0.3968963623046875,0.838714599609375,0.51123046875
1726407109223058400,12.172058349609374,0.3865966796875,0.8223876953125,0.5010833740234375
1726407109233055500,12.182055419921875,0.3981475830078125,0.8033447265625,0.4945831298828125
1726407109243051500,12.192051513671874,0.4158782958984375,0.812713623046875,0.492462158203125
1726407109253047600,12.202047607421875,0.4426116943359375,0.824981689453125,0.4836883544921875
1726407109263044600,12.212044677734376,0.442352294921875,0.827117919921875,0.4776458740234375
1726407109273040600,12.22204052734375,0.423370361328125,0.828948974609375,0.4781494140625
1726407109283036400,12.232036376953126,0.4013824462890625,0.8148956298828125,0.4664459228515625
1726407109293033500,12.242033447265625,0.388031005859375,0.805908203125,0.4617156982421875
1726407109303029500,12.252029541015625,0.3744049072265625,0.7936248779296875,0.4516143798828125
1726407109313026300,12.2620263671875,0.372833251953125,0.774627685546875,0.4407196044921875
1726407109323022600,12.272022705078125,0.375244140625,0.7730255126953125,0.4299774169921875
1726407109333018600,12.2820185546875,0.36651611328125,0.7735595703125,0.4268798828125
1726407109343015400,12.292015380859375,0.3550567626953125,0.774871826171875,0.4154510498046875
1726407109353011700,12.30201171875,0.3469390869140625,0.769989013671875,0.3935699462890625
1726407109363007500,12.312007568359375,0.3434600830078125,0.76995849609375,0.390289306640625
1726407109373004500,12.322004638671874,0.343994140625,0.76348876953125,0.397705078125
1726407109383000300,12.332000244140625,0.3392333984375,0.75341796875,0.4025726318359375
1726407109392997400,12.341997314453126,0.32952880859375,0.7540435791015625,0.4099884033203125
1726407109402993400,12.351993408203125,0.3246612548828125,0.770538330078125,0.4218597412109375
1726407109412989400,12.361989501953126,0.336395263671875,0.786834716796875,0.4335784912109375
1726407109422986500,12.371986572265625,0.3308258056640625,0.7960662841796875,0.4462890625
1726407109432982500,12.381982421875,0.32501220703125,0.8046722412109375,0.461090087890625
1726407109442978300,12.391978271484374,0.311279296875,0.802490234375,0.477630615234375
1726407109452975600,12.4019755859375,0.2995147705078125,0.791168212890625,0.49310302734375
1726407109462971400,12.411971435546874,0.2951507568359375,0.78143310546875,0.4966278076171875
1726407109472968700,12.42196875,0.292633056640625,0.7689361572265625,0.4897918701171875
1726407109482964500,12.431964599609374,0.30572509765625,0.7579345703125,0.47998046875
1726407109492960500,12.44196044921875,0.337066650390625,0.7595672607421875,0.47723388671875
1726407109502957600,12.45195751953125,0.3607635498046875,0.7528839111328125,0.4779510498046875
1726407109512953600,12.46195361328125,0.373321533203125,0.7436065673828125,0.474945068359375
1726407109522949400,12.471949462890626,0.3816375732421875,0.7440185546875,0.4752349853515625
1726407109532946700,12.48194677734375,0.380126953125,0.7451019287109375,0.485687255859375
1726407109542942500,12.4919423828125,0.371673583984375,0.756988525390625,0.4989013671875
1726407109552939500,12.501939453125,0.368438720703125,0.767852783203125,0.510345458984375
1726407109562935600,12.511935546875,0.3814544677734375,0.7757568359375,0.5106048583984375
1726407109572931600,12.521931640625,0.388580322265625,0.773101806640625,0.504791259765625
1726407109582928400,12.531928466796876,0.38739013671875,0.76531982421875,0.4962921142578125
1726407109592924700,12.541924560546875,0.388153076171875,0.7614898681640625,0.5036163330078125
1726407109602920400,12.55192041015625,0.388671875,0.7647705078125,0.509063720703125
1726407109612917500,12.56191748046875,0.38836669921875,0.7719879150390625,0.5128173828125
1726407109622913500,12.57191357421875,0.3955535888671875,0.787994384765625,0.52130126953125
1726407109632910600,12.58191064453125,0.39190673828125,0.7947998046875,0.5240325927734375
1726407109642906400,12.59190625,0.39697265625,0.793853759765625,0.524200439453125
1726407109652902700,12.601902587890624,0.4005584716796875,0.7955474853515625,0.52105712890625
1726407109662899500,12.6118994140625,0.4063873291015625,0.7952117919921875,0.51971435546875
1726407109672895500,12.6218955078125,0.408416748046875,0.793731689453125,0.5146331787109375
1726407109682891500,12.6318916015625,0.4215240478515625,0.79559326171875,0.5095062255859375
1726407109692888600,12.641888671875,0.423797607421875,0.8002166748046875,0.510498046875
1726407109702884400,12.65188427734375,0.408294677734375,0.8035888671875,0.507476806640625
1726407109712881700,12.661881591796876,0.400848388671875,0.794921875,0.50250244140625
1726407109722877400,12.67187744140625,0.4079742431640625,0.788299560546875,0.501495361328125
1726407109732873500,12.68187353515625,0.4027862548828125,0.7845306396484375,0.5137786865234375
1726407109742870500,12.69187060546875,0.388214111328125,0.7721710205078125,0.514373779296875
1726407109752866600,12.701866455078125,0.377899169921875,0.7516937255859375,0.504241943359375
1726407109762862300,12.7118623046875,0.3783111572265625,0.7365570068359375,0.507232666015625
1726407109772859600,12.721859619140625,0.3858642578125,0.7298736572265625,0.5137939453125
1726407109782855400,12.73185546875,0.401611328125,0.7372589111328125,0.5180816650390625
1726407109792851500,12.7418515625,0.4019012451171875,0.732391357421875,0.517852783203125
1726407109802848500,12.7518486328125,0.3958740234375,0.7151947021484375,0.5162353515625
1726407109812844500,12.761844482421875,0.399566650390625,0.7227325439453125,0.5169525146484375
1726407109822841300,12.77184130859375,0.41064453125,0.7423553466796875,0.52264404296875
1726407109832837600,12.781837646484375,0.4354095458984375,0.7537689208984375,0.524566650390625
1726407109842833400,12.79183349609375,0.4430084228515625,0.772125244140625,0.529754638671875
1726407109852830500,12.80183056640625,0.4403228759765625,0.7903289794921875,0.529632568359375
1726407109862826500,12.811826416015625,0.43377685546875,0.7928619384765625,0.5210723876953125
1726407109872822500,12.821822509765624,0.435150146484375,0.8021697998046875,0.5212554931640625
1726407109882819300,12.8318193359375,0.4340667724609375,0.8160400390625,0.527313232421875
1726407109892815600,12.841815673828124,0.43853759765625,0.8070526123046875,0.52252197265625
1726407109902812400,12.8518125,0.4345703125,0.7945709228515625,0.5106964111328125
1726407109912808400,12.861808349609374,0.4325103759765625,0.7913818359375,0.5085906982421875
1726407109922804500,12.871804443359375,0.425048828125,0.782684326171875,0.49371337890625
1726407109932801500,12.881801513671874,0.4143524169921875,0.7807464599609375,0.4896697998046875
1726407109942797300,12.89179736328125,0.4201812744140625,0.7865753173828125,0.4861907958984375
1726407109952793600,12.901793701171876,0.4224395751953125,0.799163818359375,0.4914398193359375
1726407109962790400,12.911790283203125,0.4128875732421875,0.8057403564453125,0.4857940673828125
1726407109972786400,12.921786376953126,0.40277099609375,0.7947235107421875,0.4782257080078125
1726407109982783500,12.931783447265625,0.4223175048828125,0.7874603271484375,0.468994140625
1726407109992779500,12.941779541015626,0.433197021484375,0.7827911376953125,0.4839019775390625
1726407110002775600,12.951775634765625,0.429931640625,0.7736968994140625,0.485107421875
1726407110012772900,12.96177294921875,0.444305419921875,0.7614593505859375,0.4795379638671875
1726407110022769000,12.971768798828125,0.44366455078125,0.76141357421875,0.4954681396484375
1726407110032765000,12.981764892578125,0.446136474609375,0.7597198486328125,0.5078125
1726407110042761700,12.99176171875,0.4264678955078125,0.7524261474609375,0.5118255615234375
1726407110052758000,13.001758056640625,0.4025726318359375,0.75830078125,0.5149078369140625
1726407110062753800,13.01175390625,0.403228759765625,0.773895263671875,0.5236053466796875
1726407110072750800,13.021750732421875,0.4131011962890625,0.7950592041015625,0.5350799560546875
1726407110082747000,13.031746826171876,0.396209716796875,0.793548583984375,0.54205322265625
1726407110092744000,13.041743896484375,0.3793487548828125,0.7670745849609375,0.5391387939453125
1726407110102739700,13.05173974609375,0.3829345703125,0.7324676513671875,0.519561767578125
1726407110112735700,13.06173583984375,0.37841796875,0.7220611572265625,0.4987640380859375
1726407110122732800,13.07173291015625,0.3746490478515625,0.7378082275390625,0.4933624267578125
1726407110132728800,13.081728759765625,0.3721923828125,0.74212646484375,0.4887542724609375
1726407110142724900,13.091724853515625,0.377105712890625,0.75750732421875,0.4924774169921875
1726407110152722000,13.101721923828125,0.3758697509765625,0.774322509765625,0.4914093017578125
1726407110162717700,13.1117177734375,0.3783111572265625,0.7825775146484375,0.4826202392578125
1726407110172715000,13.121715087890625,0.36175537109375,0.7746124267578125,0.469818115234375
