time,seconds_elapsed,z,y,x
1726407097067435000,0.01643505859375,0.7947671413421631,-0.044073451310396194,0.14556145668029785
1726407097077431000,0.02643115234375,0.7382088303565979,0.25730210542678833,0.2791711986064911
1726407097087428000,0.036427978515625,0.647793173789978,0.5162833333015442,0.3932892382144928
1726407097097424100,0.046424072265625,0.6054694056510925,0.9794560670852661,0.5614633560180664
1726407097107421000,0.0564208984375,0.5687875747680664,1.3119317293167114,0.7651107311248779
1726407097117417200,0.066417236328125,0.5254116058349609,1.3731391429901123,0.9842702150344849
1726407097127413000,0.0764130859375,0.6254881024360657,1.0072429180145264,1.2302895784378052
1726407097137410000,0.08641015625,0.5751775503158569,0.6960421800613403,1.3087362051010132
1726407097147406000,0.096406005859375,0.33990350365638733,0.3560720980167389,1.1065492630004883
1726407097157403000,0.10640283203125,0.1576514095067978,0.15715473890304565,0.9364209771156311
1726407097167399000,0.11639892578125,0.02341184951364994,0.22943878173828125,0.8679705262184143
1726407097177396000,0.12639599609375,-0.11162026971578598,0.24853923916816711,0.8102678060531616
1726407097187392000,0.13639208984375,-0.3038767874240875,-0.014363759197294712,0.6757907271385193
1726407097197388000,0.146387939453125,-0.4983706474304199,-0.4705406129360199,0.5556296706199646
1726407097207385000,0.156385009765625,-0.6626562476158142,-0.8655641078948975,0.5405391454696655
1726407097217381000,0.166381103515625,-0.8392030596733093,-1.2941402196884155,0.5460886359214783
1726407097227378200,0.176378173828125,-1.004050374031067,-1.7621324062347412,0.5741783380508423
1726407097237374000,0.1863740234375,-1.1108561754226685,-2.196244955062866,0.6644363403320312
1726407097247371000,0.19637109375,-1.1933624744415283,-2.4904580116271973,0.8283339142799377
1726407097257367000,0.206366943359375,-1.2416203022003174,-2.7318167686462402,0.9922080636024475
1726407097267363000,0.216363037109375,-1.2221115827560425,-3.209394931793213,1.07780122756958
1726407097277359900,0.22635986328125,-1.229548692703247,-2.9094035625457764,0.9031756520271301
1726407097287356200,0.236356201171875,-1.190602421760559,-2.409632682800293,0.8262411952018738
1726407097297353000,0.24635302734375,-1.1697189807891846,-1.892652153968811,0.8906843662261963
1726407097307349000,0.256348876953125,-1.1850265264511108,-1.3069223165512085,0.9623433947563171
1726407097317346000,0.266345947265625,-1.1200635433197021,-0.8966346383094788,1.0957046747207642
1726407097327342000,0.276342041015625,-1.1491800546646118,-0.5100952386856079,1.324739694595337
1726407097337337900,0.286337890625,-1.2116559743881226,-0.4199344217777252,1.5980803966522217
1726407097347335200,0.296335205078125,-1.2263739109039307,-0.818755567073822,1.7768573760986328
1726407097357331000,0.3063310546875,-1.138333797454834,-1.5417678356170654,1.8596965074539185
1726407097367328000,0.316327880859375,-0.9370121955871582,-2.1486823558807373,1.913511037826538
1726407097377324000,0.326323974609375,-0.6582503318786621,-1.6407647132873535,1.8564621210098267
1726407097387321000,0.336321044921875,-0.08078353106975555,-1.0196216106414795,1.7033658027648926
1726407097397316900,0.34631689453125,0.40563565492630005,-0.9425539374351501,1.3577245473861694
1726407097407313200,0.356313232421875,0.46708622574806213,-1.1247663497924805,0.8360698819160461
1726407097417310000,0.36631005859375,0.6534110903739929,-1.223134994506836,0.45194536447525024
1726407097427306000,0.376305908203125,1.3119559288024902,-1.1658421754837036,0.3509545624256134
1726407097437303000,0.386302978515625,2.2724597454071045,-1.4582045078277588,0.4998044967651367
1726407097447299000,0.396299072265625,3.207477569580078,-1.9205678701400757,0.8100994825363159
1726407097457296100,0.406296142578125,3.6842756271362305,-2.3847720623016357,0.9021194577217102
1726407097467292200,0.416292236328125,3.7976937294006348,-3.0323126316070557,0.7558897733688354
1726407097477289000,0.4262890625,3.6559932231903076,-3.9391250610351562,0.6561115384101868
1726407097487285200,0.43628515625,3.4094998836517334,-4.648925304412842,0.7628385424613953
1726407097497281000,0.446281005859375,3.3105053901672363,-4.7415666580200195,1.1306623220443726
1726407097507278000,0.456278076171875,3.2948055267333984,-4.284785747528076,1.6341716051101685
1726407097517274000,0.466274169921875,3.0252647399902344,-3.6440908908843994,2.0952465534210205
1726407097527271000,0.47627099609375,2.546938896179199,-2.9183430671691895,2.379631996154785
1726407097537267000,0.486266845703125,2.326366901397705,-3.2349183559417725,2.719259738922119
1726407097547264000,0.496263916015625,2.3385894298553467,-4.415201663970947,3.3314754962921143
1726407097557260000,0.506260009765625,2.3734734058380127,-5.486477851867676,4.205316543579102
1726407097567256000,0.516256103515625,2.6351709365844727,-5.976925373077393,5.130857467651367
1726407097577253000,0.526253173828125,3.1522319316864014,-5.9498610496521,5.787060260772705
1726407097587249200,0.536249267578125,3.743823289871216,-5.746458053588867,5.98023796081543
1726407097597246000,0.546245849609375,4.4042887687683105,-5.60219669342041,5.784488201141357
1726407097607242000,0.556241943359375,5.060911655426025,-5.77522087097168,5.475889205932617
1726407097617239000,0.566239013671875,5.686117172241211,-6.238037586212158,5.490255355834961
1726407097627234800,0.57623486328125,6.27658224105835,-6.518690586090088,6.123946189880371
1726407097637231000,0.586231201171875,6.97037410736084,-5.941165924072266,6.889377117156982
1726407097647228000,0.596227783203125,7.564517498016357,-4.612101078033447,7.387358665466309
1726407097657224000,0.606223876953125,8.140410423278809,-2.8907244205474854,7.701859474182129
1726407097667221000,0.616220947265625,8.693365097045898,-1.0885790586471558,7.975406646728516
1726407097677217000,0.626217041015625,9.252385139465332,0.325020432472229,8.164803504943848
1726407097687214000,0.636214111328125,9.769739151000977,0.8245301246643066,8.164026260375977
1726407097697210000,0.646210205078125,10.188310623168945,1.2005761861801147,7.894323348999023
1726407097707206000,0.656205810546875,10.165509223937988,1.5497053861618042,7.359114170074463
1726407097717203200,0.666203125,9.701028823852539,1.418274998664856,6.716222763061523
1726407097727199000,0.676198974609375,9.1546630859375,1.402668833732605,6.48712158203125
1726407097737196000,0.686196044921875,8.816524505615234,1.617781400680542,6.868092060089111
1726407097747192000,0.696192138671875,8.233414649963379,1.9544806480407715,7.431177139282227
1726407097757189000,0.706189208984375,7.082043170928955,2.182756185531616,7.873599529266357
1726407097767185000,0.716184814453125,5.7422308921813965,2.362978458404541,8.118942260742188
1726407097777181200,0.72618115234375,4.341278553009033,2.643317699432373,7.775076389312744
1726407097787178000,0.736177978515625,2.9236741065979004,2.624986171722412,6.587473392486572
1726407097797174000,0.746174072265625,1.4242923259735107,2.91728138923645,4.907771587371826
1726407097807171000,0.756171142578125,0.08616417646408081,3.5517005920410156,3.0910089015960693
1726407097817167000,0.7661669921875,-1.1477487087249756,4.073972702026367,1.4972717761993408
1726407097827164000,0.776163818359375,-2.300344705581665,4.069824695587158,0.22115661203861237
1726407097837160200,0.78616015625,-3.2018465995788574,3.850512742996216,-0.7109681367874146
1726407097847156000,0.796156005859375,-3.829303741455078,3.5142440795898438,-1.2798792123794556
1726407097857153000,0.806153076171875,-4.1511688232421875,2.9999141693115234,-1.8246281147003174
1726407097867149000,0.816149169921875,-4.276738166809082,1.7682303190231323,-2.667139768600464
1726407097877146000,0.82614599609375,-4.691380500793457,1.4555940628051758,-3.303936004638672
1726407097887142000,0.836141845703125,-4.940930366516113,1.2277060747146606,-3.7418909072875977
1726407097897139200,0.84613916015625,-5.030564308166504,1.1479212045669556,-4.050484657287598
1726407097907135000,0.856135009765625,-5.135205268859863,1.186743140220642,-4.305856704711914
1726407097917131000,0.866131103515625,-4.810336112976074,1.227016806602478,-4.463045597076416
1726407097927128000,0.876128173828125,-4.150110721588135,1.5917993783950806,-4.008406639099121
1726407097937124000,0.8861240234375,-3.715397596359253,2.165935516357422,-3.5525641441345215
1726407097947121200,0.89612109375,-3.4011659622192383,2.104649782180786,-3.1024746894836426
1726407097957117200,0.9061171875,-3.444622278213501,1.5902360677719116,-3.0553388595581055
1726407097967114000,0.916114013671875,-3.5899157524108887,0.8353939652442932,-3.2233712673187256
1726407097977110300,0.9261103515625,-3.7558839321136475,0.3198411166667938,-3.5210936069488525
1726407097987106000,0.93610595703125,-3.5814852714538574,0.11403442919254303,-3.5904860496520996
1726407097997102800,0.946102783203125,-3.3784561157226562,0.17874950170516968,-3.4567673206329346
1726407098007098600,0.9560986328125,-3.237257957458496,0.04873291775584221,-3.4534146785736084
1726407098017095700,0.966095703125,-3.005101442337036,-0.23999901115894318,-3.665954113006592
1726407098027091500,0.976091552734375,-2.4738008975982666,-0.04279832914471626,-3.844367027282715
1726407098037088500,0.986088623046875,-2.6008589267730713,-0.06503652036190033,-4.57292366027832
1726407098047084500,0.99608447265625,-2.4302215576171875,0.7250474691390991,-4.7183403968811035
1726407098057080600,1.00608056640625,-2.2609047889709473,1.7627731561660767,-4.046142578125
1726407098067077600,1.01607763671875,-2.1401944160461426,1.7816650867462158,-3.4456167221069336
1726407098077073700,1.02607373046875,-2.493957757949829,1.0114665031433105,-2.8573427200317383
1726407098087070700,1.03607080078125,-2.9757282733917236,-0.2891330122947693,-2.196195602416992
1726407098097066800,1.046066650390625,-3.22990083694458,-1.4200537204742432,-1.5258307456970215
1726407098107063600,1.0560634765625,-2.857544422149658,-2.5445361137390137,-0.7455908060073853
1726407098117059600,1.0660595703125,-2.2316057682037354,-3.2864363193511963,0.07319937646389008
1726407098127055600,1.0760556640625,-1.3926303386688232,-3.8144619464874268,0.6187599301338196
1726407098137052400,1.086052490234375,-0.8852118253707886,-4.180782794952393,0.6301038861274719
1726407098147048700,1.096048583984375,-0.5958316922187805,-3.710592746734619,0.27289438247680664
1726407098157045500,1.10604541015625,0.055260058492422104,-2.8909873962402344,-0.13265737891197205
1726407098167041500,1.11604150390625,1.69031822681427,-0.6380606293678284,-0.7556653022766113
1726407098177038600,1.12603857421875,2.8340322971343994,2.604588270187378,-2.069918394088745
1726407098187034600,1.13603466796875,3.380401372909546,4.134140491485596,-3.740065097808838
1726407098197030700,1.14603076171875,3.46665096282959,4.210184097290039,-5.673133850097656
1726407098207027700,1.15602783203125,3.3450045585632324,3.6969523429870605,-7.444418430328369
1726407098217023500,1.1660234375,3.0985233783721924,3.118570566177368,-8.383407592773438
1726407098227020500,1.1760205078125,2.5701658725738525,2.5060837268829346,-8.26916217803955
1726407098237016600,1.1860166015625,2.1199841499328613,1.8915003538131714,-7.165198802947998
1726407098247013600,1.196013671875,2.0424094200134277,1.4583661556243896,-5.976719379425049
1726407098257009400,1.206009521484375,2.188504457473755,1.2530673742294312,-5.199249744415283
1726407098267005700,1.216005615234375,2.2950146198272705,0.9334360957145691,-4.415013313293457
1726407098277002500,1.22600244140625,2.4974660873413086,0.4859510064125061,-3.3809468746185303
1726407098286998500,1.23599853515625,2.883044719696045,-0.04328382387757301,-2.2406904697418213
1726407098296995600,1.24599560546875,3.1562247276306152,-0.600132942199707,-1.606503963470459
1726407098306991600,1.25599169921875,3.386993408203125,-2.0644795894622803,-1.3435934782028198
1726407098316988700,1.26598876953125,3.567537307739258,-2.9702916145324707,-1.2468541860580444
1726407098326984700,1.275984619140625,3.3123321533203125,-2.967690944671631,-1.2630409002304077
1726407098336980500,1.28598046875,2.5467300415039062,-2.615485668182373,-1.4169585704803467
1726407098346977800,1.295977783203125,1.6636993885040283,-1.2061083316802979,-1.1800264120101929
1726407098356973600,1.3059736328125,0.85305255651474,0.8706076145172119,-0.99433434009552
1726407098366970600,1.315970703125,0.053590256720781326,2.947190284729004,-1.0361478328704834
1726407098376966700,1.325966552734375,-0.39619180560112,4.558582782745361,-1.1868523359298706
1726407098386963700,1.335963623046875,-0.29790279269218445,4.880523681640625,-1.0762755870819092
1726407098396959500,1.34595947265625,0.07056045532226562,3.89280366897583,-0.5646495223045349
1726407098406955800,1.355955810546875,0.3605528473854065,2.6002960205078125,-0.3278020918369293
1726407098416952600,1.36595263671875,0.4901215136051178,1.8947086334228516,-0.5686293840408325
1726407098426948600,1.375948486328125,0.5787845253944397,2.0483357906341553,-1.0879260301589966
1726407098436945700,1.385945556640625,0.669770359992981,2.6561429500579834,-1.6340175867080688
1726407098446941700,1.395941650390625,0.5949110388755798,3.242780923843384,-2.028287410736084
1726407098456937500,1.4059375,0.9196403622627258,3.603215456008911,-2.2287707328796387
1726407098466934800,1.415934814453125,1.9198919534683228,3.4727909564971924,-2.4990086555480957
1726407098476930600,1.4259306640625,2.416511058807373,3.241445541381836,-2.6436164379119873
1726407098486927600,1.435927734375,2.53652286529541,3.560622453689575,-2.6788718700408936
1726407098496923600,1.445923583984375,2.4149179458618164,4.14996862411499,-2.6257684230804443
1726407098506920700,1.455920654296875,1.8220807313919067,4.955146312713623,-2.1686348915100098
1726407098516916500,1.46591650390625,1.5423550605773926,5.495591640472412,-1.5656853914260864
1726407098526912800,1.475912841796875,2.051269292831421,5.007314682006836,-1.1872353553771973
1726407098536909600,1.48590966796875,2.653066635131836,4.104371070861816,-0.9871938824653625
1726407098546905600,1.495905517578125,3.1440227031707764,3.5864319801330566,-1.0183722972869873
1726407098556902700,1.505902587890625,3.6474783420562744,3.396125078201294,-1.2148717641830444
1726407098566898700,1.515898681640625,4.113420009613037,3.3523244857788086,-1.7139159440994263
1726407098576895700,1.525895751953125,4.535240650177002,3.767667531967163,-2.4528896808624268
1726407098586891800,1.535891845703125,4.659061908721924,4.2972869873046875,-3.198584794998169
1726407098596887600,1.545887451171875,4.6071014404296875,4.641750335693359,-3.7626419067382812
1726407098606884600,1.555884521484375,4.492127418518066,4.363268852233887,-4.002099990844727
1726407098616880600,1.565880615234375,4.193348407745361,2.6930065155029297,-3.512848377227783
1726407098626877400,1.57587744140625,3.4737417697906494,1.1560603380203247,-2.691392183303833
1726407098636873700,1.585873779296875,2.1997485160827637,0.9458293914794922,-1.9249837398529053
1726407098646870500,1.59587060546875,0.7339680194854736,1.7896250486373901,-1.535294532775879
1726407098656866600,1.605866455078125,-0.2876512110233307,2.1936287879943848,-1.7201429605484009
1726407098666862800,1.61586279296875,-0.7012673020362854,2.3519022464752197,-2.1411659717559814
1726407098676859600,1.625859619140625,-0.674091100692749,1.7189445495605469,-2.442046880722046
1726407098686855700,1.635855712890625,-0.4311135709285736,0.9331333041191101,-2.6092333793640137
1726407098696852700,1.645852783203125,-0.1821301281452179,0.4714735150337219,-2.606968402862549
1726407098706848500,1.6558486328125,-0.07992412894964218,0.380987286567688,-2.401618480682373
1726407098716845600,1.665845458984375,-0.028356274589896202,0.4073866903781891,-2.1005544662475586
1726407098726841600,1.675841552734375,0.39682456851005554,1.0710786581039429,-2.1127803325653076
1726407098736837600,1.685837646484375,0.6611617207527161,1.44839346408844,-1.9144402742385864
1726407098746834400,1.69583447265625,0.7400431632995605,0.8621395230293274,-1.3540602922439575
1726407098756830700,1.705830810546875,0.5590987205505371,-0.3699205219745636,-0.6098766922950745
1726407098766827500,1.71582763671875,0.2971760332584381,-1.4500560760498047,-0.08385095745325089
1726407098776823600,1.725823486328125,0.15182174742221832,-2.4395101070404053,0.11216142773628235
1726407098786819600,1.735819580078125,0.124077208340168,-3.373584270477295,0.13180063664913177
1726407098796816600,1.745816650390625,0.05354045704007149,-4.21710205078125,0.13619938492774963
1726407098806812400,1.7558125,-0.040039826184511185,-5.1429219245910645,0.15835635364055634
1726407098816809700,1.765809814453125,-0.0853164941072464,-6.09019136428833,0.20193712413311005
1726407098826805500,1.775805419921875,-0.02315538562834263,-7.51152229309082,0.3405991196632385
1726407098836802800,1.785802734375,0.07004566490650177,-8.86407470703125,0.4896828830242157
1726407098846798600,1.795798583984375,0.10970572382211685,-9.889691352844238,0.4598802328109741
1726407098856794600,1.805794677734375,0.036923930048942566,-10.783849716186523,0.29745805263519287
1726407098866791700,1.815791748046875,-0.05952005088329315,-11.585592269897461,0.03953995183110237
1726407098876787700,1.82578759765625,-0.07890946418046951,-12.28593921661377,-0.3121035695075989
1726407098886784500,1.835784423828125,-0.055020373314619064,-12.800048828125,-0.646377444267273
1726407098896780800,1.84578076171875,0.05480918660759926,-12.866690635681152,-0.9026139974594116
1726407098906777600,1.855777587890625,0.31672653555870056,-12.411123275756836,-1.133689284324646
1726407098916773600,1.865773681640625,0.5059595704078674,-11.201838493347168,-1.2806148529052734
1726407098926769700,1.875769775390625,0.46218013763427734,-9.292193412780762,-1.1866148710250854
1726407098936766700,1.8857666015625,0.2895183563232422,-7.401090621948242,-0.9505423903465271
1726407098946762500,1.895762451171875,0.04092053323984146,-5.957779884338379,-0.5804604291915894
1726407098956759800,1.905759765625,-0.2104208767414093,-4.8786091804504395,-0.035824574530124664
1726407098966755600,1.915755615234375,-0.17850902676582336,-4.233490467071533,0.31919291615486145
1726407098976751600,1.925751708984375,0.009245962835848331,-4.4399003982543945,0.39003992080688477
1726407098986748700,1.935748779296875,0.2959775924682617,-4.407398700714111,0.25255343317985535
1726407098996744700,1.94574462890625,0.5646783113479614,-3.0235304832458496,-0.19076383113861084
1726407099006741500,1.955741455078125,0.580101728439331,-1.108064889907837,-0.5723532438278198
1726407099016737500,1.965737548828125,0.30781295895576477,0.3484274744987488,-0.6441630125045776
1726407099026734600,1.975734619140625,0.24525876343250275,1.1740103960037231,-0.6408076882362366
1726407099036730600,1.985730712890625,0.4229310154914856,1.5940603017807007,-0.6595832109451294
1726407099046726400,1.995726318359375,0.6288354396820068,1.7434064149856567,-0.7666476368904114
1726407099056723700,2.0057236328125,0.7309314608573914,1.5440409183502197,-0.9406471252441406
1726407099066719500,2.015719482421875,0.8210799694061279,1.0578134059906006,-1.0972490310668945
1726407099076716500,2.025716552734375,0.8684453964233398,0.4982990026473999,-1.3051542043685913
1726407099086712600,2.035712646484375,0.7812148928642273,0.01890471577644348,-1.4986342191696167
1726407099096709400,2.04570947265625,0.6045708656311035,-0.2846871316432953,-1.6296420097351074
1726407099106705400,2.055705322265625,0.41465842723846436,-0.39965978264808655,-1.7407033443450928
1726407099116701700,2.06570166015625,0.22255876660346985,-0.4700543284416199,-1.7954694032669067
1726407099126698500,2.075698486328125,0.060083575546741486,-0.3635273575782776,-1.8850001096725464
1726407099136694500,2.085694580078125,-0.09655450284481049,-0.3385349214076996,-1.8835304975509644
1726407099146691600,2.095691650390625,-0.23610468208789825,-0.5369459986686707,-1.8251372575759888
1726407099156687600,2.1056875,-0.28193074464797974,-0.811884343624115,-1.6724179983139038
1726407099166683400,2.115683349609375,-0.3355444371700287,-1.0112770795822144,-1.5706391334533691
1726407099176680400,2.125680419921875,-0.3705410361289978,-1.1421501636505127,-1.4618985652923584
1726407099186676500,2.135676513671875,-0.441915899515152,-1.3932266235351562,-1.3152215480804443
1726407099196673500,2.145673583984375,-0.491787850856781,-1.6458314657211304,-1.1718707084655762
1726407099206669600,2.155669677734375,-0.47424426674842834,-1.6880582571029663,-1.018609881401062
1726407099216666400,2.165666259765625,-0.44748377799987793,-1.5812886953353882,-0.8575567603111267
1726407099226662700,2.17566259765625,-0.4097084105014801,-1.436601996421814,-0.7179261445999146
1726407099236658700,2.18565869140625,-0.38216254115104675,-1.3214114904403687,-0.5993073582649231
1726407099246655500,2.195655517578125,-0.3469952344894409,-1.211177945137024,-0.4808771312236786
1726407099256651500,2.205651611328125,-0.2744952142238617,-1.0872820615768433,-0.35492026805877686
1726407099266648600,2.215648681640625,-0.16477324068546295,-0.9556503295898438,-0.18945488333702087
1726407099276644400,2.225644287109375,0.01647830940783024,-0.8716656565666199,0.016817329451441765
1726407099286641700,2.2356416015625,0.13542227447032928,-0.8243343830108643,0.1808243691921234
1726407099296637400,2.245637451171875,0.2753940224647522,-0.7378191947937012,0.3786253333091736
1726407099306633500,2.255633544921875,0.37924984097480774,-0.4679107367992401,0.606097936630249
1726407099316630500,2.265630615234375,0.44755008816719055,0.025845445692539215,0.8761267066001892
1726407099326626600,2.27562646484375,0.5006063580513,0.5432726144790649,1.1717681884765625
1726407099336623400,2.285623291015625,0.4141415059566498,0.9409158229827881,1.4897880554199219
1726407099346619600,2.29561962890625,0.2907410264015198,1.335275650024414,1.808068037033081
1726407099356615400,2.305615478515625,0.15442365407943726,1.6781976222991943,2.1042683124542236
1726407099366612500,2.315612548828125,0.03634069859981537,1.9372057914733887,2.301893949508667
1726407099376608500,2.3256083984375,0.007021158002316952,2.049774408340454,2.355100631713867
1726407099386605600,2.33560546875,0.04099243879318237,1.9425280094146729,2.2633907794952393
1726407099396601300,2.345601318359375,0.12803173065185547,1.4158626794815063,2.0096466541290283
1726407099406598700,2.3555986328125,0.1837027221918106,0.5905306935310364,1.5598759651184082
1726407099416594400,2.365594482421875,0.24390320479869843,-0.3273206055164337,0.9346350431442261
1726407099426590500,2.375590576171875,0.1385168731212616,-1.1692770719528198,0.32794085144996643
1726407099436587500,2.38558740234375,0.023091204464435577,-1.7415789365768433,-0.21166618168354034
1726407099446583600,2.39558349609375,0.0809883251786232,-1.9022003412246704,-0.66633540391922
1726407099456580600,2.40558056640625,0.20536966621875763,-1.7857205867767334,-1.02263605594635
1726407099466576600,2.41557666015625,0.29228484630584717,-1.5082714557647705,-1.261091947555542
1726407099476572400,2.425572509765625,0.34541890025138855,-1.2657115459442139,-1.4127086400985718
1726407099486569700,2.43556982421875,0.3624333143234253,-1.1734822988510132,-1.5374250411987305
1726407099496565500,2.4455654296875,0.33671730756759644,-1.219849705696106,-1.6467368602752686
1726407099506562600,2.4555625,0.2822151780128479,-1.3571910858154297,-1.7131673097610474
1726407099516558600,2.46555859375,0.22766219079494476,-1.5396631956100464,-1.717003345489502
1726407099526555600,2.4755556640625,0.18434986472129822,-1.6724262237548828,-1.5464001893997192
1726407099536551400,2.485551513671875,0.14261120557785034,-1.681367039680481,-1.2147120237350464
1726407099546547500,2.49554736328125,0.13696371018886566,-1.6126675605773926,-0.8769237995147705
1726407099556544500,2.50554443359375,0.1350049525499344,-1.5102216005325317,-0.5814570188522339
1726407099566540500,2.51554052734375,0.12918008863925934,-1.3371529579162598,-0.3615818917751312
1726407099576537600,2.52553759765625,0.11288128048181534,-1.1024200916290283,-0.23273897171020508
1726407099586533600,2.53553369140625,0.09942273050546646,-0.7265862226486206,-0.11807257682085037
1726407099596529400,2.545529296875,0.08204320073127747,-0.3698864281177521,-0.04091334342956543
1726407099606526700,2.555526611328125,0.06972448527812958,-0.09989889711141586,0.018727615475654602
1726407099616522500,2.5655224609375,0.0934697613120079,0.07060785591602325,0.04953612759709358
1726407099626519600,2.57551953125,0.12499546259641647,0.14442162215709686,0.04430434852838516
1726407099636515600,2.585515625,0.17261597514152527,0.2757197320461273,0.023619042709469795
1726407099646512400,2.595512451171875,0.17712870240211487,0.45361489057540894,0.026186862960457802
1726407099656508400,2.60550830078125,0.14374971389770508,0.6322978138923645,0.0806165486574173
1726407099666504700,2.615504638671875,0.12662957608699799,0.7485341429710388,0.1868971884250641
1726407099676501500,2.62550146484375,0.1352161467075348,0.7461807131767273,0.28109052777290344
1726407099686497500,2.63549755859375,0.14802062511444092,0.8004205226898193,0.3302634060382843
1726407099696494600,2.64549462890625,0.1627175360918045,0.9694904685020447,0.369214802980423
1726407099706490600,2.65549072265625,0.20643706619739532,1.0975675582885742,0.37946370244026184
1726407099716487700,2.66548779296875,0.2437964230775833,1.1540096998214722,0.39300480484962463
1726407099726483500,2.6754833984375,0.24242062866687775,1.153618574142456,0.4169628620147705
1726407099736479500,2.6854794921875,0.20808103680610657,1.1410393714904785,0.43418392539024353
1726407099746476500,2.6954765625,0.1852438896894455,1.1616325378417969,0.4342867434024811
1726407099756472600,2.70547265625,0.19399955868721008,1.207121729850769,0.43567371368408203
1726407099766469400,2.715469482421875,0.23795956373214722,1.2419267892837524,0.43248990178108215
1726407099776465400,2.72546533203125,0.2753452956676483,1.2600210905075073,0.4240439534187317
1726407099786461700,2.735461669921875,0.2875524163246155,1.2442203760147095,0.4184268116950989
1726407099796458500,2.74545849609375,0.28390470147132874,1.1753698587417603,0.42240771651268005
1726407099806454500,2.75545458984375,0.2710312306880951,1.0696107149124146,0.3981740176677704
1726407099816451600,2.76545166015625,0.24966202676296234,0.9421981573104858,0.32711926102638245
1726407099826447400,2.775447265625,0.22402937710285187,0.8025861978530884,0.21925511956214905
1726407099836444700,2.785444580078125,0.21675920486450195,0.6294754147529602,0.0593690499663353
1726407099846440400,2.7954404296875,0.22126100957393646,0.47908297181129456,-0.14834579825401306
1726407099856436500,2.8054365234375,0.23336908221244812,0.37898460030555725,-0.38548722863197327
1726407099866433500,2.81543359375,0.22138352692127228,0.2981768250465393,-0.6075469255447388
1726407099876429600,2.8254296875,0.18324439227581024,0.21832914650440216,-0.7703635692596436
1726407099886426400,2.83542626953125,0.11701636761426926,0.07687880098819733,-0.8576222658157349
1726407099896422700,2.845422607421875,0.04987514764070511,-0.05522197484970093,-0.8759735822677612
1726407099906418700,2.855418701171875,-0.011827098205685616,-0.1551043689250946,-0.8630461096763611
1726407099916415500,2.86541552734375,-0.05392847955226898,-0.2659882605075836,-0.8277701139450073
1726407099926411500,2.87541162109375,-0.07579676061868668,-0.36555027961730957,-0.7784702181816101
1726407099936408600,2.88540869140625,-0.0895804837346077,-0.46553680300712585,-0.7097497582435608
1726407099946404400,2.895404296875,-0.0923650860786438,-0.5065851807594299,-0.6256588101387024
1726407099956401700,2.905401611328125,-0.07838215678930283,-0.4811367988586426,-0.5231843590736389
1726407099966397400,2.9153974609375,-0.051714327186346054,-0.4184236228466034,-0.3857996165752411
1726407099976393500,2.9253935546875,-0.015731824561953545,-0.30125996470451355,-0.2504178285598755
1726407099986390500,2.935390625,-0.00035712990211322904,-0.13799035549163818,-0.1087091714143753
1726407099996386600,2.945386474609375,0.008950085379183292,0.011549330316483974,0.022959643974900246
1726407100006384000,2.955384033203125,0.04628147929906845,0.12625513970851898,0.12691134214401245
1726407100016380200,2.965380126953125,0.09720537811517715,0.20615822076797485,0.2125290483236313
1726407100026376200,2.975376220703125,0.1457904875278473,0.24411173164844513,0.29175862669944763
1726407100036373200,2.985373291015625,0.15817232429981232,0.22904223203659058,0.3486860692501068
1726407100046369000,2.995369140625,0.1419994831085205,0.18463429808616638,0.3612487316131592
1726407100056366000,3.005365966796875,0.09166920185089111,0.06691804528236389,0.35496821999549866
1726407100066362000,3.015362060546875,0.05796503275632858,-0.06995990872383118,0.3170940577983856
1726407100076358100,3.025358154296875,0.0358101949095726,-0.17801368236541748,0.2786619961261749
1726407100086355200,3.035355224609375,0.024040354415774345,-0.2797938287258148,0.2450084239244461
1726407100096351200,3.045351318359375,0.008332764729857445,-0.38629764318466187,0.21923701465129852
1726407100106348000,3.05534814453125,-0.023244336247444153,-0.4930861294269562,0.1682518571615219
1726407100116344300,3.06534423828125,-0.04376452416181564,-0.5928547978401184,0.08533886820077896
1726407100126341000,3.075341064453125,-0.056474726647138596,-0.6729339361190796,0.008476043120026588
1726407100136337200,3.085337158203125,-0.07306569069623947,-0.752470850944519,-0.05157371237874031
1726407100146333200,3.095333251953125,-0.08686139434576035,-0.8027721047401428,-0.08092360943555832
1726407100156330000,3.105330078125,-0.0921512320637703,-0.832344114780426,-0.0734446570277214
1726407100166326000,3.115325927734375,-0.08494338393211365,-0.8094896674156189,-0.08410236239433289
1726407100176323000,3.125322998046875,-0.0768420472741127,-0.7395853996276855,-0.09276695549488068
1726407100186319000,3.135319091796875,-0.06951116770505905,-0.6951217651367188,-0.10851262509822845
1726407100196315100,3.145315185546875,-0.06341812014579773,-0.640699028968811,-0.13198146224021912
1726407100206312200,3.155312255859375,-0.05167730897665024,-0.5842844843864441,-0.11835886538028717
1726407100216308200,3.16530810546875,-0.023568974807858467,-0.5576459765434265,-0.10219614207744598
1726407100226305300,3.17530517578125,0.02484356425702572,-0.5283362865447998,-0.12679602205753326
1726407100236301000,3.185301025390625,0.08596604317426682,-0.4047988951206207,-0.15646123886108398
1726407100246298000,3.195298095703125,0.15244999527931213,-0.16546006500720978,-0.16479533910751343
1726407100256294100,3.205294189453125,0.19200566411018372,0.12715448439121246,-0.16936080157756805
1726407100266290200,3.215290283203125,0.20805573463439941,0.347102552652359,-0.15173226594924927
1726407100276287000,3.225286865234375,0.18886472284793854,0.4663165807723999,-0.10617783665657043
1726407100286283300,3.235283203125,0.17389775812625885,0.49841752648353577,-0.06568580120801926
1726407100296280000,3.245280029296875,0.16253697872161865,0.5379020571708679,-0.03756522014737129
1726407100306276000,3.255276123046875,0.16199715435504913,0.5845518708229065,-0.04433098062872887
1726407100316272400,3.2652724609375,0.17356327176094055,0.6059713959693909,-0.05775117874145508
1726407100326269200,3.275269287109375,0.17379842698574066,0.6157904863357544,-0.09445326775312424
1726407100336265000,3.285264892578125,0.18412749469280243,0.6497292518615723,-0.13746438920497894
1726407100346262300,3.29526220703125,0.1835554540157318,0.7343046069145203,-0.18451417982578278
1726407100356258000,3.305258056640625,0.1641889363527298,0.8453802466392517,-0.20457418262958527
1726407100366255000,3.315255126953125,0.13927453756332397,0.9139819741249084,-0.2253582924604416
1726407100376251100,3.325251220703125,0.1154850497841835,0.8810847401618958,-0.25004684925079346
1726407100386247200,3.3352470703125,0.06337098032236099,0.8318700790405273,-0.2942683696746826
1726407100396244000,3.345243896484375,-0.01082894578576088,0.7767101526260376,-0.3339492082595825
1726407100406240300,3.355240234375,-0.07925727218389511,0.6490381956100464,-0.3649236261844635
1726407100416237000,3.365237060546875,-0.10604894161224365,0.48901495337486267,-0.40987035632133484
1726407100426233000,3.375233154296875,-0.1313154101371765,0.34414273500442505,-0.40636029839515686
1726407100436229000,3.38522900390625,-0.12894892692565918,0.27137264609336853,-0.35870596766471863
1726407100446226200,3.39522607421875,-0.1269286572933197,0.23495525121688843,-0.26227715611457825
1726407100456222000,3.405221923828125,-0.12859579920768738,0.2320561408996582,-0.1442738175392151
1726407100466219300,3.41521923828125,-0.12997104227542877,0.2496252804994583,-0.03562697023153305
1726407100476215000,3.425215087890625,-0.1522907316684723,0.2819693684577942,0.045332327485084534
1726407100486211000,3.435211181640625,-0.1598418653011322,0.3321683704853058,0.0962945744395256
1726407100496208100,3.4452080078125,-0.17589379847049713,0.33731359243392944,0.14539234340190887
1726407100506204200,3.4552041015625,-0.1970861703157425,0.25009292364120483,0.18261002004146576
1726407100516201200,3.465201171875,-0.21863967180252075,0.09411957114934921,0.209580659866333
1726407100526197200,3.475197265625,-0.24184298515319824,-0.05586513131856918,0.23239995539188385
1726407100536194000,3.485194091796875,-0.26310113072395325,-0.09290970116853714,0.2621985971927643
1726407100546190300,3.4951904296875,-0.27155640721321106,-0.04940190538764,0.28473666310310364
1726407100556186000,3.50518603515625,-0.291280061006546,-0.06945337355136871,0.30517321825027466
1726407100566183200,3.51518310546875,-0.3192389905452728,-0.18011464178562164,0.29744765162467957
1726407100576179200,3.52517919921875,-0.32202383875846863,-0.3328714370727539,0.276714950799942
1726407100586176300,3.53517626953125,-0.3201654851436615,-0.4306983947753906,0.2589431405067444
1726407100596172000,3.545172119140625,-0.30011799931526184,-0.48551636934280396,0.25996527075767517
1726407100606168300,3.555168212890625,-0.2865002155303955,-0.5243785381317139,0.2540120482444763
1726407100616165000,3.5651650390625,-0.2836466133594513,-0.5569617748260498,0.23843121528625488
1726407100626161200,3.5751611328125,-0.2876480221748352,-0.5300174951553345,0.21533361077308655
1726407100636158200,3.585158203125,-0.2964513599872589,-0.41310742497444153,0.2063920497894287
1726407100646154200,3.595154296875,-0.2904171943664551,-0.26115676760673523,0.2051028162240982
1726407100656151000,3.605151123046875,-0.2677219808101654,-0.10764922946691513,0.2031531184911728
1726407100666147300,3.615147216796875,-0.250005304813385,-0.01787114143371582,0.22444109618663788
1726407100676143000,3.62514306640625,-0.24547873437404633,-0.001588841900229454,0.273618221282959
1726407100686140200,3.63514013671875,-0.1990976482629776,0.004113784991204739,0.33382537961006165
1726407100696136200,3.64513623046875,-0.13375753164291382,0.07771876454353333,0.38327494263648987
1726407100706133200,3.65513330078125,-0.08352658152580261,0.20134669542312622,0.4273236393928528
1726407100716129000,3.66512890625,-0.06456594169139862,0.2801046371459961,0.4621090590953827
1726407100726125300,3.675125244140625,-0.05339371785521507,0.27685290575027466,0.4866948127746582
1726407100736122000,3.6851220703125,-0.04716431722044945,0.25595560669898987,0.49563929438591003
1726407100746118100,3.6951181640625,-0.0306314118206501,0.25246819853782654,0.48035943508148193
1726407100756115200,3.705115234375,-0.004920722916722298,0.24924470484256744,0.4452347159385681
1726407100766111200,3.715111328125,0.010921623557806015,0.19675886631011963,0.4137977063655853
1726407100776107000,3.72510693359375,0.01690920814871788,0.14095258712768555,0.3785414397716522
1726407100786104300,3.735104248046875,0.004190750420093536,0.11576841026544571,0.33452871441841125
1726407100796100000,3.74510009765625,-0.0020269318483769894,0.09641122072935104,0.29553043842315674
1726407100806097200,3.75509716796875,0.003133208956569433,0.10120970755815506,0.2565244734287262
1726407100816093200,3.76509326171875,0.022066153585910797,0.10471469163894653,0.24132101237773895
1726407100826089200,3.775089111328125,0.05452955514192581,0.09257174283266068,0.2426360845565796
1726407100836086300,3.785086181640625,0.07991400361061096,0.06407245993614197,0.25727173686027527
1726407100846082300,3.795082275390625,0.11469835042953491,0.03416915610432625,0.2906677722930908
1726407100856079000,3.8050791015625,0.14280694723129272,0.026622023433446884,0.33114251494407654
1726407100866075100,3.8150751953125,0.17024150490760803,0.03123728185892105,0.3622722029685974
1726407100876072200,3.825072265625,0.18910707533359528,0.06573187559843063,0.3730558753013611
1726407100886068200,3.835068115234375,0.20479069650173187,0.10720475018024445,0.3567200303077698
1726407100896064000,3.84506396484375,0.22171029448509216,0.13524331152439117,0.3111506998538971
1726407100906061000,3.85506103515625,0.23913827538490295,0.16761375963687897,0.22792211174964905
1726407100916057000,3.86505712890625,0.2562866508960724,0.20043642818927765,0.12249582260847092
1726407100926054100,3.87505419921875,0.24411998689174652,0.23816116154193878,0.014750716276466846
1726407100936050200,3.88505029296875,0.22198060154914856,0.2517419457435608,-0.058640941977500916
1726407100946046200,3.895046142578125,0.1950235515832901,0.23153522610664368,-0.09593238681554794
1726407100956043300,3.905043212890625,0.17042100429534912,0.17113792896270752,-0.09911832958459854
1726407100966039300,3.915039306640625,0.14545786380767822,0.08480916172266006,-0.07969403266906738
1726407100976036000,3.9250361328125,0.12735848128795624,0.011594338342547417,-0.04387850686907768
1726407100986032000,3.9350322265625,0.10742765665054321,-0.027232419699430466,0.009497098624706268
1726407100996029200,3.945029296875,0.08793225139379501,-0.028554946184158325,0.07755950838327408
1726407101006024700,3.955024658203125,0.07614430040121078,-0.0027169568929821253,0.1692127287387848
1726407101016020500,3.9650205078125,0.05946679040789604,0.016088156029582024,0.2740464508533478
1726407101026017800,3.975017822265625,0.03725868836045265,0.02672721818089485,0.3785845935344696
1726407101036013600,3.985013671875,0.011594071984291077,0.021953769028186798,0.4511999487876892
1726407101046010600,3.9950107421875,-0.00771863991394639,-0.016753679141402245,0.47183758020401
1726407101056006700,4.005006591796875,-0.026399116963148117,-0.07274770736694336,0.47004765272140503
1726407101066002700,4.015002685546875,-0.049547310918569565,-0.14806430041790009,0.470572292804718
1726407101075999500,4.02499951171875,-0.07529608905315399,-0.1992366760969162,0.47528955340385437
1726407101085995800,4.034995849609375,-0.09800779074430466,-0.2318231165409088,0.47801530361175537
1726407101095992600,4.04499267578125,-0.12474565953016281,-0.2594206631183624,0.4696290194988251
1726407101105988600,4.054988525390625,-0.14748506247997284,-0.32572802901268005,0.44643741846084595
1726407101115984600,4.064984619140625,-0.16701509058475494,-0.43084460496902466,0.4167080223560333
1726407101125981700,4.074981689453125,-0.16781775653362274,-0.5604137778282166,0.35804522037506104
1726407101135977500,4.0849775390625,-0.16728806495666504,-0.6622765064239502,0.28717318177223206
1726407101145974500,4.094974609375,-0.154868945479393,-0.7306132316589355,0.22564804553985596
1726407101155970600,4.104970458984375,-0.1398332715034485,-0.7887071371078491,0.17977376282215118
1726407101165966600,4.114966552734375,-0.13610324263572693,-0.8053579926490784,0.13337962329387665
1726407101175963600,4.124963623046875,-0.14432229101657867,-0.8221625685691833,0.06614279747009277
1726407101185959700,4.134959716796875,-0.1605268269777298,-0.8534871935844421,-0.0032778186723589897
1726407101195956700,4.144956787109375,-0.1652025431394577,-0.904681921005249,-0.060559485107660294
1726407101205952800,4.154952880859375,-0.16517457365989685,-0.9206646084785461,-0.09735079109668732
1726407101215949600,4.164949462890625,-0.16216440498828888,-0.8916135430335999,-0.1331854909658432
1726407101225945600,4.174945556640625,-0.15114344656467438,-0.8518754243850708,-0.18018761277198792
1726407101235941600,4.184941650390625,-0.14518915116786957,-0.7984146475791931,-0.2091018259525299
1726407101245938400,4.1949384765625,-0.13828569650650024,-0.7198766469955444,-0.2246815711259842
1726407101255934700,4.204934814453125,-0.12714117765426636,-0.6324365735054016,-0.20909595489501953
1726407101265931500,4.214931640625,-0.11790160089731216,-0.5462284684181213,-0.17636118829250336
1726407101275927600,4.224927490234375,-0.1128557100892067,-0.43921729922294617,-0.14565733075141907
1726407101285923800,4.234923828125,-0.11011691391468048,-0.3223956227302551,-0.12916597723960876
1726407101295920600,4.244920654296875,-0.11586321890354156,-0.2668367624282837,-0.12443993240594864
1726407101305916700,4.254916748046875,-0.1252218335866928,-0.2542075216770172,-0.10094019770622253
1726407101315913700,4.264913818359375,-0.1251683086156845,-0.23337680101394653,-0.06649993360042572
1726407101325909500,4.274909423828125,-0.11616069078445435,-0.17437446117401123,-0.046846866607666016
1726407101335905500,4.284905517578125,-0.11176727712154388,-0.07195860892534256,-0.054307714104652405
1726407101345902600,4.294902587890625,-0.11145515739917755,0.03682618960738182,-0.06860595941543579
1726407101355898600,4.304898681640625,-0.11366158723831177,0.13730725646018982,-0.07277460396289825
1726407101365895400,4.3148955078125,-0.09882484376430511,0.21963942050933838,-0.0545673705637455
1726407101375891700,4.3248916015625,-0.07110054045915604,0.2838194668292999,-0.005066930316388607
1726407101385888500,4.334888427734375,-0.03760383278131485,0.371757835149765,0.05637432634830475
1726407101395884500,4.344884521484375,-0.0013382384786382318,0.48543834686279297,0.11443070322275162
1726407101405880600,4.354880615234375,0.03774178773164749,0.5510287880897522,0.13260304927825928
1726407101415877600,4.364877685546875,0.05788274109363556,0.536094069480896,0.1123606264591217
1726407101425873400,4.374873291015625,0.060436978936195374,0.4610419273376465,0.04283002018928528
1726407101435870700,4.38487060546875,0.06489084661006927,0.3851322531700134,-0.055033158510923386
1726407101445866500,4.394866455078125,0.06549298763275146,0.33189672231674194,-0.17368683218955994
1726407101455862500,4.404862548828125,0.059420716017484665,0.26552674174308777,-0.29205262660980225
1726407101465859600,4.414859619140625,0.044372256845235825,0.21520312130451202,-0.3679511249065399
1726407101475855600,4.424855712890625,0.02269252948462963,0.13413064181804657,-0.4204561412334442
1726407101485852700,4.434852783203125,0.004042412154376507,0.07500766217708588,-0.4540415406227112
1726407101495848700,4.4448486328125,-0.01643410138785839,0.03202451020479202,-0.4787711203098297
1726407101505844500,4.454844482421875,-0.03713218867778778,-0.03274782747030258,-0.5117085576057434
1726407101515841800,4.464841796875,-0.06944964826107025,-0.11337848752737045,-0.5185962915420532
1726407101525837600,4.474837646484375,-0.09872177988290787,-0.22092971205711365,-0.5096294283866882
1726407101535834600,4.484834716796875,-0.11226928234100342,-0.30755168199539185,-0.499480664730072
1726407101545830700,4.49483056640625,-0.12329024076461792,-0.34902510046958923,-0.46495357155799866
1726407101555826700,4.50482666015625,-0.1345524787902832,-0.3561354875564575,-0.4169386327266693
1726407101565823500,4.514823486328125,-0.13111993670463562,-0.31710925698280334,-0.35427337884902954
1726407101575819800,4.52481982421875,-0.11981375515460968,-0.2227928638458252,-0.26872387528419495
1726407101585816600,4.534816650390625,-0.10386088490486145,-0.09801844507455826,-0.17048172652721405
1726407101595812600,4.5448125,-0.08030468970537186,0.01745089516043663,-0.08054278045892715
1726407101605808400,4.554808349609375,-0.060736849904060364,0.17624107003211975,-0.0164807066321373
1726407101615805700,4.5648056640625,-0.03504427149891853,0.3174322843551636,0.05036037415266037
1726407101625801500,4.574801513671875,0.018386997282505035,0.43523669242858887,0.11930615454912186
1726407101635798800,4.584798828125,0.06066441163420677,0.5982106924057007,0.21091915667057037
1726407101645794600,4.594794677734375,0.0783856213092804,0.7181104421615601,0.3068978786468506
1726407101655791600,4.60479150390625,0.066703662276268,0.797076404094696,0.37476640939712524
1726407101665787600,4.61478759765625,0.06492600589990616,0.808595597743988,0.3984922468662262
1726407101675783700,4.62478369140625,0.07714644819498062,0.7694932222366333,0.37345269322395325
1726407101685780500,4.634780517578125,0.07540447264909744,0.665366530418396,0.33772531151771545
1726407101695776800,4.64477685546875,0.06413611024618149,0.5329281091690063,0.3075399696826935
1726407101705773600,4.654773681640625,0.058761317282915115,0.4434591829776764,0.26302602887153625
1726407101715769600,4.66476953125,0.06376859545707703,0.39941903948783875,0.21190133690834045
1726407101725765600,4.674765625,0.06552840769290924,0.3696398437023163,0.14371562004089355
1726407101735762700,4.6847626953125,0.08575298637151718,0.29734086990356445,0.08680254220962524
1726407101745758500,4.694758544921875,0.09869648516178131,0.27717888355255127,0.03154700621962547
1726407101755755800,4.704755859375,0.10600659251213074,0.25383254885673523,-0.01363378670066595
1726407101765751600,4.71475146484375,0.10805030167102814,0.20760725438594818,-0.04855288937687874
1726407101775747600,4.72474755859375,0.10075750201940536,0.12227557599544525,-0.06583121418952942
1726407101785744600,4.73474462890625,0.07554908841848373,0.06957108527421951,-0.08108419924974442
1726407101795740700,4.74474072265625,0.04033490642905235,0.033360354602336884,-0.09325910359621048
1726407101805737500,4.754737548828125,0.02364514209330082,-0.030472954735159874,-0.09107930958271027
1726407101815733800,4.764733642578125,0.02052444964647293,-0.04032665118575096,-0.07774219661951065
1726407101825729500,4.7747294921875,0.014531804248690605,-0.00475400872528553,-0.06613560765981674
1726407101835726600,4.7847265625,0.03305728733539581,0.008401473984122276,-0.053887467831373215
1726407101845722600,4.79472265625,0.043847084045410156,0.030672958120703697,-0.03617744520306587
1726407101855719700,4.8047197265625,0.02936933934688568,-0.000675377668812871,-0.023915719240903854
1726407101865715500,4.814715576171875,0.0003962783666793257,-0.04513605311512947,-0.009571400471031666
1726407101875711700,4.824711669921875,-0.01908048428595066,-0.04285052791237831,-0.004885036498308182
1726407101885708500,4.83470849609375,-0.03646879643201828,-0.016336362808942795,-0.01143028773367405
1726407101895704600,4.84470458984375,-0.04748602584004402,-0.025795644149184227,-0.027155188843607903
1726407101905701600,4.85470166015625,-0.055217184126377106,-0.045888129621744156,-0.05530479922890663
1726407101915697700,4.86469775390625,-0.05970540642738342,-0.02219318598508835,-0.08496202528476715
1726407101925694700,4.87469482421875,-0.07399193197488785,-0.02876586839556694,-0.12246333062648773
1726407101935690800,4.884690673828125,-0.09515181183815002,-0.05517510324716568,-0.1627417802810669
1726407101945686500,4.8946865234375,-0.11895088851451874,-0.03972424194216728,-0.1867472529411316
1726407101955683600,4.90468359375,-0.14155606925487518,-0.02869263105094433,-0.18071891367435455
1726407101965679600,4.9146796875,-0.1681610494852066,-0.03557876497507095,-0.1560058444738388
1726407101975676400,4.924676513671875,-0.19243735074996948,-0.04513312503695488,-0.121696338057518
1726407101985672700,4.934672607421875,-0.19284109771251678,-0.06235871464014053,-0.09030086547136307
1726407101995668700,4.944668701171875,-0.1646059900522232,-0.04387824237346649,-0.06324315071105957
1726407102005665500,4.95466552734375,-0.1491551250219345,0.003628823207691312,-0.04183240234851837
1726407102015661600,4.96466162109375,-0.15134291350841522,0.043299801647663116,-0.007769505959004164
1726407102025658600,4.97465869140625,-0.14684270322322845,0.10807427018880844,0.0285916980355978
1726407102035654700,4.984654541015625,-0.12087901681661606,0.19327838718891144,0.06415661424398422
1726407102045650400,4.994650390625,-0.07772808521986008,0.29443562030792236,0.11462804675102234
1726407102055647500,5.0046474609375,-0.02509230375289917,0.3976421654224396,0.14928749203681946
1726407102065643500,5.0146435546875,-0.00028815402765758336,0.48829084634780884,0.17578966915607452
1726407102075640300,5.024640380859375,0.007955394685268402,0.5555170178413391,0.19511330127716064
1726407102085636400,5.03463623046875,0.007727960590273142,0.5754305720329285,0.190323606133461
1726407102095632600,5.044632568359375,0.0036035231314599514,0.5371230840682983,0.16150234639644623
1726407102105629400,5.05462939453125,-0.003968908917158842,0.43314769864082336,0.10715334862470627
1726407102115625500,5.06462548828125,-0.015267103910446167,0.2616100311279297,0.028443891555070877
1726407102125622500,5.07462255859375,-0.02208000235259533,0.1060691773891449,-0.07863994687795639
1726407102135618600,5.08461865234375,-0.021387580782175064,0.025143437087535858,-0.204910010099411
1726407102145614300,5.0946142578125,-0.03605041280388832,-0.026452912017703056,-0.3093365430831909
1726407102155611400,5.104611328125,-0.054847802966833115,-0.15744048357009888,-0.40067577362060547
1726407102165607400,5.114607421875,-0.07894914597272873,-0.31569671630859375,-0.48701173067092896
1726407102175604500,5.1246044921875,-0.09691349416971207,-0.46032872796058655,-0.5702695846557617
1726407102185600500,5.1346005859375,-0.0942029282450676,-0.5476106405258179,-0.636969804763794
1726407102195597300,5.144597412109375,-0.0880156084895134,-0.5884160995483398,-0.676934003829956
1726407102205593600,5.154593505859375,-0.0913807824254036,-0.5863316655158997,-0.6689056158065796
1726407102215589600,5.164589599609375,-0.08740787208080292,-0.5672628879547119,-0.6327812075614929
1726407102225586400,5.17458642578125,-0.08073985576629639,-0.5295482873916626,-0.5845292210578918
1726407102235582500,5.18458251953125,-0.06727065145969391,-0.5172197222709656,-0.5068573355674744
1726407102245579500,5.19457958984375,-0.041781533509492874,-0.5358051061630249,-0.39861956238746643
1726407102255575300,5.2045751953125,-0.02503850683569908,-0.5075356364250183,-0.2903894782066345
1726407102265571600,5.214571533203125,-0.020738568156957626,-0.45444366335868835,-0.20504209399223328
1726407102275568400,5.224568359375,-0.026885677129030228,-0.4704791009426117,-0.16150687634944916
1726407102285564400,5.234564453125,-0.03495585173368454,-0.5167350172996521,-0.17759662866592407
1726407102295561500,5.2445615234375,-0.04915289953351021,-0.5776939392089844,-0.22689546644687653
1726407102305557500,5.2545576171875,-0.05065998062491417,-0.6655551195144653,-0.2824695110321045
1726407102315553500,5.264553466796875,-0.03555053845047951,-0.7428783774375916,-0.32388779520988464
1726407102325550600,5.274550537109375,-0.009457417763769627,-0.7442917227745056,-0.32807162404060364
1726407102335546400,5.28454638671875,0.008816128596663475,-0.7391585111618042,-0.2861252427101135
1726407102345543400,5.29454345703125,0.02436818927526474,-0.7342984676361084,-0.20915694534778595
1726407102355539500,5.30453955078125,0.037463750690221786,-0.6723397970199585,-0.09281675517559052
1726407102365535500,5.314535400390625,0.05739884451031685,-0.5671420097351074,0.05458228662610054
1726407102375532300,5.3245322265625,0.08178327977657318,-0.4514143168926239,0.1981509029865265
1726407102385528600,5.334528564453125,0.11040400713682175,-0.34973829984664917,0.3190171420574188
1726407102395525400,5.344525390625,0.14206872880458832,-0.2730480432510376,0.4143758714199066
1726407102405521400,5.354521484375,0.18317674100399017,-0.20377150177955627,0.4661128520965576
1726407102415517700,5.364517578125,0.2146798074245453,-0.13568592071533203,0.47844675183296204
1726407102425514500,5.374514404296875,0.2076549232006073,-0.08768723905086517,0.4480757713317871
1726407102435510300,5.38451025390625,0.19181710481643677,-0.07803408056497574,0.3533841669559479
1726407102445507600,5.394507568359375,0.1765153855085373,-0.08098859339952469,0.21473786234855652
1726407102455503400,5.40450341796875,0.14278431236743927,-0.10333384573459625,0.061225008219480515
1726407102465499400,5.41449951171875,0.1155143454670906,-0.22164557874202728,-0.07473842054605484
1726407102475496400,5.424496337890625,0.09446551650762558,-0.3858579397201538,-0.20155389606952667
1726407102485492500,5.434492431640625,0.06857000291347504,-0.4865739047527313,-0.3148474097251892
1726407102495489500,5.444489501953125,0.04042278975248337,-0.5208786129951477,-0.3729586601257324
1726407102505485600,5.454485595703125,0.016938237473368645,-0.5117290616035461,-0.3917374014854431
1726407102515481600,5.464481689453125,0.011493138037621975,-0.478752464056015,-0.3654698431491852
1726407102525478700,5.474478759765625,0.013372530229389668,-0.42789915204048157,-0.2925266623497009
1726407102535474400,5.484474365234375,-0.002929743379354477,-0.38527393341064453,-0.1850806325674057
1726407102545471500,5.494471435546875,-0.01534380204975605,-0.344524085521698,-0.06077120453119278
1726407102555467500,5.504467529296875,-0.021859759464859962,-0.26797258853912354,0.08293962478637695
1726407102565464600,5.514464599609375,-0.00016405072528868914,-0.16173483431339264,0.22018536925315857
1726407102575460400,5.52446044921875,0.03899906575679779,-0.026981549337506294,0.3253075182437897
1726407102585456400,5.534456298828125,0.06717929989099503,0.10160678625106812,0.4123276472091675
1726407102595453400,5.544453369140625,0.08624061197042465,0.22399048507213593,0.4882296025753021
1726407102605449500,5.554449462890625,0.10549819469451904,0.3122175633907318,0.5388584136962891
1726407102615446500,5.564446533203125,0.11582460254430771,0.3542041480541229,0.5433884263038635
1726407102625442600,5.574442626953125,0.12704689800739288,0.36316168308258057,0.4946422278881073
1726407102635438300,5.584438232421875,0.1474379301071167,0.36949843168258667,0.40273386240005493
1726407102645435600,5.594435546875,0.16854214668273926,0.35166484117507935,0.2945946156978607
1726407102655431400,5.604431396484375,0.18409819900989532,0.30162349343299866,0.1844683736562729
1726407102665428500,5.614428466796875,0.191013902425766,0.2829776406288147,0.09965095669031143
1726407102675424500,5.624424560546875,0.19673863053321838,0.2765085697174072,0.033726803958415985
1726407102685420500,5.634420654296875,0.20012296736240387,0.24931049346923828,-0.02237721160054207
1726407102695417300,5.644417236328125,0.19926384091377258,0.21640820801258087,-0.07718533277511597
1726407102705413600,5.65441357421875,0.19668643176555634,0.21628622710704803,-0.12353792041540146
1726407102715410400,5.664410400390625,0.18446305394172668,0.24674826860427856,-0.1603337526321411
1726407102725406500,5.674406494140625,0.1680459976196289,0.29027897119522095,-0.15793770551681519
1726407102735402500,5.684402587890625,0.1602296233177185,0.3308551609516144,-0.1072862446308136
1726407102745399600,5.694399658203125,0.16883935034275055,0.34979769587516785,-0.016565127298235893
1726407102755395300,5.704395263671875,0.18325664103031158,0.3602367341518402,0.07280789315700531
1726407102765392600,5.714392578125,0.17690153419971466,0.37579572200775146,0.12364523857831955
1726407102775388400,5.724388427734375,0.14098800718784332,0.40222761034965515,0.13052445650100708
1726407102785384400,5.734384521484375,0.08442966639995575,0.41768699884414673,0.1120021715760231
1726407102795381500,5.744381591796875,0.05077316612005234,0.3951238989830017,0.08860976248979568
1726407102805377500,5.75437744140625,0.05126185715198517,0.33229830861091614,0.08220778405666351
1726407102815374300,5.764374267578125,0.07245262712240219,0.2583063840866089,0.07596107572317123
1726407102825370600,5.77437060546875,0.08981430530548096,0.24127386510372162,0.05413460731506348
1726407102835366400,5.784366455078125,0.07193943858146667,0.28306713700294495,0.015332616865634918
1726407102845363500,5.794363525390625,0.05395537614822388,0.3263416290283203,0.005829127039760351
1726407102855359500,5.804359375,0.04873611405491829,0.338620126247406,0.014378140680491924
1726407102865356500,5.8143564453125,0.05590933933854103,0.33441925048828125,0.00791677925735712
1726407102875352300,5.824352294921875,0.0648311972618103,0.3021438717842102,0.005256014876067638
1726407102885348600,5.8343486328125,0.07921572774648666,0.2912776470184326,-0.0007795072160661221
1726407102895345400,5.844345458984375,0.08112095296382904,0.3325995206832886,-0.01708630844950676
1726407102905341400,5.854341552734375,0.0744907483458519,0.37196317315101624,-0.013039369136095047
1726407102915338500,5.86433837890625,0.0717327743768692,0.3761097192764282,0.015479356981813908
1726407102925334500,5.87433447265625,0.06695932894945145,0.37735581398010254,0.03843500837683678
1726407102935330300,5.884330322265625,0.05427468940615654,0.3434641659259796,0.05879620462656021
1726407102945327600,5.89432763671875,0.03405117616057396,0.27854692935943604,0.05884706974029541
1726407102955323400,5.904323486328125,0.0035800873301923275,0.2543356120586395,0.03446716442704201
1726407102965320700,5.91432080078125,0.000556334329303354,0.26332589983940125,0.028620725497603416
1726407102975316500,5.92431640625,0.008402273058891296,0.2819821536540985,0.05903349071741104
1726407102985312500,5.9343125,0.009614011272788048,0.33923211693763733,0.09712442010641098
1726407102995309600,5.9443095703125,-0.008538094349205494,0.3895837068557739,0.1203216165304184
1726407103005305900,5.954305908203125,-0.024053936824202538,0.3951505124568939,0.1403922587633133
1726407103015303000,5.964302978515625,-0.012198875658214092,0.35003525018692017,0.14300163090229034
1726407103025299000,5.974298828125,0.008292018435895443,0.2956090271472931,0.11723235249519348
1726407103035294700,5.984294677734375,0.012820190750062466,0.2850106954574585,0.08080030977725983
1726407103045291800,5.994291748046875,-0.002603772561997175,0.2947346866130829,0.057007625699043274
1726407103055287800,6.004287841796875,-0.013198093511164188,0.26442793011665344,0.05306588113307953
1726407103065284900,6.014284912109375,-0.02010180614888668,0.25198936462402344,0.04683221876621246
1726407103075281000,6.024281005859375,-0.023486150428652763,0.23135200142860413,0.04111627861857414
1726407103085277000,6.03427685546875,-0.009622800163924694,0.25060558319091797,0.026039855554699898
1726407103095274000,6.04427392578125,0.018222147598862648,0.2837619483470917,0.019241871312260628
1726407103105270000,6.05427001953125,0.02509310282766819,0.30052921175956726,0.026809509843587875
1726407103115266800,6.064266845703125,0.03338725119829178,0.285978227853775,0.03142716363072395
1726407103125262800,6.074262939453125,0.04397305101156235,0.25576627254486084,0.022305572405457497
1726407103135259000,6.0842587890625,0.049854375422000885,0.2499065101146698,-0.0027302727103233337
1726407103145255700,6.094255615234375,0.043000198900699615,0.22778283059597015,-0.036583311855793
1726407103155252000,6.104251953125,0.04845195636153221,0.22447732090950012,-0.07301615178585052
1726407103165248800,6.114248779296875,0.04200071468949318,0.2120984047651291,-0.0738353431224823
1726407103175244800,6.124244873046875,0.04153678938746452,0.2055390477180481,-0.05146079510450363
1726407103185240800,6.13424072265625,0.04194638505578041,0.20345059037208557,-0.05832322686910629
1726407103195238000,6.14423779296875,0.030658043920993805,0.17470575869083405,-0.07170694321393967
1726407103205234000,6.15423388671875,0.016169914975762367,0.12246226519346237,-0.07730544358491898
1726407103215231000,6.16423095703125,0.01944400556385517,0.07324225455522537,-0.09279385209083557
1726407103225226800,6.174226806640625,0.04263933748006821,0.058945875614881516,-0.11924143880605698
1726407103235222800,6.184222900390625,0.046358976513147354,0.0539575070142746,-0.13575862348079681
1726407103245219800,6.1942197265625,0.03225301206111908,0.06198480725288391,-0.14117203652858734
1726407103255215900,6.2042158203125,0.025979934260249138,0.08732105791568756,-0.12670361995697021
1726407103265212700,6.214212646484375,0.012841230258345604,0.10805536061525345,-0.08670560270547867
1726407103275209000,6.224208984375,-0.001270061475224793,0.11277022212743759,-0.04898671805858612
1726407103285205000,6.234205078125,-0.014444985426962376,0.052989982068538666,-0.026041986420750618
1726407103295201800,6.244201904296875,-0.0024232103023678064,-0.02624518610537052,-0.0011491540353745222
1726407103305198000,6.254197998046875,-0.012425510212779045,-0.09502851217985153,0.03334464132785797
1726407103315195000,6.26419482421875,-0.03375157341361046,-0.1532531976699829,0.05066397786140442
1726407103325190700,6.274190673828125,-0.05384485423564911,-0.1656952202320099,0.06445435434579849
1726407103335187000,6.28418701171875,-0.05943882465362549,-0.1405046433210373,0.0593743771314621
1726407103345183700,6.294183837890625,-0.06178160756826401,-0.09550920873880386,0.0467965342104435
1726407103355179800,6.3041796875,-0.05704464390873909,0.033180322498083115,0.04869749769568443
1726407103365176800,6.3141767578125,-0.04292403161525726,0.23515845835208893,0.0703042596578598
1726407103375172900,6.3241728515625,-0.016890566796064377,0.4443233907222748,0.09146226942539215
1726407103385169000,6.3341689453125,0.00917485635727644,0.5725210309028625,0.10708197951316833
1726407103395166000,6.344166015625,0.017853831872344017,0.6098055839538574,0.12132935971021652
1726407103405162000,6.354161865234375,0.009493104182183743,0.6382526755332947,0.1304008811712265
1726407103415158800,6.36415869140625,-0.01251232996582985,0.6616207957267761,0.13258548080921173
1726407103425154800,6.37415478515625,-0.02015080861747265,0.6150578260421753,0.1545722633600235
1726407103435150800,6.38415087890625,-0.014100639149546623,0.5341802835464478,0.1939481645822525
1726407103445147600,6.394147705078125,-0.014396782033145428,0.47186100482940674,0.2451237291097641
1726407103455144000,6.40414404296875,-0.01378372311592102,0.44806647300720215,0.294795960187912
1726407103465140700,6.414140625,-0.01073893066495657,0.43192556500434875,0.33615642786026
1726407103475136800,6.42413671875,0.004192880820482969,0.4050649404525757,0.3709716796875
1726407103485133000,6.434133056640625,0.00618146313354373,0.38802123069763184,0.3905602991580963
1726407103495129900,6.4441298828125,0.008473912253975868,0.38269197940826416,0.37720268964767456
1726407103505126000,6.4541259765625,0.01986398547887802,0.3740590810775757,0.33104556798934937
1726407103515123000,6.464123046875,0.0237607229501009,0.3177207112312317,0.2693542540073395
1726407103525118700,6.47411865234375,0.020070914179086685,0.23192350566387177,0.19541716575622559
1726407103535114800,6.48411474609375,0.02726650796830654,0.18168750405311584,0.12728844583034515
1726407103545111800,6.49411181640625,0.03754231706261635,0.14567118883132935,0.07212186604738235
1726407103555107800,6.50410791015625,0.047620248049497604,0.09735265374183655,0.027569042518734932
1726407103565105000,6.51410498046875,0.045283593237400055,0.055811334401369095,-0.0004990763845853508
1726407103575101000,6.524100830078125,0.0378994457423687,-0.03286686912178993,-0.015046860091388226
1726407103585097000,6.534096923828125,0.03798440098762512,-0.133183091878891,-0.011318701319396496
1726407103595094000,6.544093994140625,0.04135489836335182,-0.16915467381477356,0.008525843732059002
1726407103605089800,6.55408984375,0.053044043481349945,-0.192677304148674,0.017468472942709923
1726407103615086800,6.5640869140625,0.05939514935016632,-0.21879199147224426,-0.0044011399149894714
1726407103625083000,6.574082763671875,0.06154192239046097,-0.23779311776161194,-0.024172713980078697
1726407103635079000,6.584078857421875,0.0451219379901886,-0.2458217442035675,-0.014285195618867874
1726407103645075700,6.59407568359375,0.034509774297475815,-0.21487289667129517,0.02809208817780018
1726407103655072000,6.604072021484375,0.035059716552495956,-0.16356682777404785,0.07680290192365646
1726407103665068800,6.61406884765625,0.026936009526252747,-0.13057318329811096,0.11304906010627747
1726407103675064800,6.62406494140625,0.0008522115531377494,-0.10937389731407166,0.11865660548210144
1726407103685060900,6.634060791015625,-0.011632154695689678,-0.08974266797304153,0.09596540778875351
1726407103695058000,6.644057861328125,-0.007703726179897785,-0.06474091112613678,0.06269028037786484
1726407103705053700,6.6540537109375,0.015334481373429298,-0.009806823916733265,0.027850273996591568
1726407103715051000,6.664051025390625,0.04833291098475456,0.05903935059905052,-0.0018716695485636592
1726407103725046800,6.674046875,0.08291086554527283,0.11124583333730698,-0.02455354668200016
1726407103735042800,6.684042724609375,0.11645204573869705,0.14574015140533447,-0.03277578949928284
1726407103745040000,6.694039794921875,0.14211267232894897,0.1557549685239792,-0.029999177902936935
1726407103755036000,6.704035888671875,0.1424010843038559,0.1507817953824997,-0.027528297156095505
1726407103765032700,6.71403271484375,0.12172962725162506,0.11696683615446091,-0.02376977726817131
1726407103775029000,6.724029052734375,0.09155761450529099,0.056592438369989395,-0.007936752401292324
1726407103785024800,6.734024658203125,0.06341172754764557,-0.02352476678788662,0.021823273971676826
1726407103795021800,6.744021728515625,0.03774604573845863,-0.14312545955181122,0.06310759484767914
1726407103805017900,6.754017822265625,0.012940299697220325,-0.23658964037895203,0.09059567749500275
1726407103815014000,6.764013916015625,-0.02961062267422676,-0.3143952190876007,0.08636125177145004
1726407103825010700,6.7740107421875,-0.079498291015625,-0.3679482042789459,0.05562065169215202
1726407103835007000,6.784007080078125,-0.11660544574260712,-0.3866819441318512,0.020309798419475555
1726407103845003800,6.794003662109375,-0.13162221014499664,-0.3785853981971741,-0.004837898537516594
1726407103854999800,6.803999755859375,-0.13048450648784637,-0.37414881587028503,0.002126534003764391
1726407103864995800,6.813995849609375,-0.11067298799753189,-0.3856382369995117,0.04051253944635391
1726407103874993000,6.823992919921875,-0.10486942529678345,-0.39711594581604004,0.09980888664722443
1726407103884988700,6.83398876953125,-0.10325527936220169,-0.3819960951805115,0.15489690005779266
1726407103894986000,6.843986083984375,-0.11489462852478027,-0.3421506881713867,0.20275790989398956
1726407103904981800,6.853981689453125,-0.1407209038734436,-0.33416518568992615,0.23514486849308014
1726407103914977800,6.863977783203125,-0.1687043309211731,-0.359126478433609,0.25949627161026
1726407103924974800,6.873974853515625,-0.18505853414535522,-0.378630131483078,0.272341251373291
1726407103934971000,6.883970947265625,-0.19230127334594727,-0.39615267515182495,0.28473374247550964
1726407103944967700,6.8939677734375,-0.18093062937259674,-0.37847647070884705,0.2927951216697693
1726407103954964000,6.9039638671875,-0.16345816850662231,-0.29368647933006287,0.29397010803222656
1726407103964959700,6.913959716796875,-0.15580877661705017,-0.22124077379703522,0.27479055523872375
1726407103974956800,6.923956787109375,-0.1622440367937088,-0.1926725059747696,0.24702949821949005
1726407103984952800,6.933952880859375,-0.1639588475227356,-0.21577170491218567,0.214906707406044
1726407103994950000,6.943949951171875,-0.15867432951927185,-0.25429752469062805,0.1818488985300064
1726407104004945400,6.9539453125,-0.14277713000774384,-0.26542049646377563,0.1342446208000183
1726407104014941700,6.963941650390625,-0.10595253109931946,-0.2585194408893585,0.07357275485992432
1726407104024938500,6.9739384765625,-0.07125314325094223,-0.24840208888053894,0.018749186769127846
1726407104034934500,6.9839345703125,-0.08065462857484818,-0.26374563574790955,-0.031685490161180496
1726407104044931600,6.993931640625,-0.10425742715597153,-0.2760997712612152,-0.1010240837931633
1726407104054927600,7.003927734375,-0.10020596534013748,-0.2957448363304138,-0.15913133323192596
1726407104064923600,7.013923583984375,-0.08511222898960114,-0.31299757957458496,-0.19217263162136078
1726407104074920700,7.023920654296875,-0.07844660431146622,-0.27090153098106384,-0.2169669270515442
1726407104084916500,7.03391650390625,-0.10180492699146271,-0.2504061162471771,-0.24834616482257843
1726407104094913800,7.043913818359375,-0.10459192097187042,-0.3037053048610687,-0.2794542908668518
1726407104104909600,7.05390966796875,-0.07698612660169601,-0.3448242247104645,-0.31187161803245544
1726407104114905600,7.063905517578125,-0.06763496994972229,-0.2987382411956787,-0.35125496983528137
1726407104124902700,7.073902587890625,-0.0753975510597229,-0.24878664314746857,-0.3710995018482208
1726407104134898700,7.083898681640625,-0.0837327167391777,-0.19235293567180634,-0.34856116771698
1726407104144895500,7.0938955078125,-0.06915909796953201,-0.12033413350582123,-0.29874223470687866
1726407104154891800,7.103891845703125,-0.048277515918016434,-0.04253121465444565,-0.2464989870786667
1726407104164887600,7.113887451171875,-0.03446077182888985,0.03416276350617409,-0.1938411146402359
1726407104174884600,7.123884521484375,-0.03658517450094223,0.11600063741207123,-0.14544615149497986
1726407104184880600,7.133880615234375,-0.06220958009362221,0.1445033848285675,-0.09324739128351212
1726407104194877700,7.143877685546875,-0.06905656307935715,0.10431255400180817,-0.04963759332895279
1726407104204873500,7.15387353515625,-0.06142580881714821,0.10813712328672409,-0.018264224752783775
1726407104214869500,7.163869384765625,-0.06245432421565056,0.14575693011283875,-0.020007530227303505
1726407104224866600,7.173866455078125,-0.06095096841454506,0.20340345799922943,-0.028016986325383186
1726407104234862600,7.183862548828125,-0.04844529554247856,0.23634488880634308,-0.035403262823820114
1726407104244858600,7.193858642578125,-0.03355929255485535,0.2569500505924225,-0.06018584221601486
1726407104254855700,7.203855712890625,-0.008526642806828022,0.28306472301483154,-0.09198585152626038
1726407104264851500,7.2138515625,-0.015916915610432625,0.3244883418083191,-0.08797299861907959
1726407104274848800,7.223848876953125,-0.0343095026910305,0.3135257065296173,-0.07272986322641373
1726407104284844500,7.233844482421875,-0.030595459043979645,0.26639625430107117,-0.09053868800401688
1726407104294840600,7.243840576171875,-0.022175343707203865,0.2568885087966919,-0.12200047075748444
1726407104304837600,7.253837646484375,-0.043598875403404236,0.2886829376220703,-0.12907063961029053
1726407104314833700,7.263833740234375,-0.07689637690782547,0.2687305212020874,-0.1323726922273636
1726407104324830500,7.27383056640625,-0.08208101987838745,0.24177400767803192,-0.12951591610908508
1726407104334826800,7.28382666015625,-0.06644826382398605,0.24934405088424683,-0.1273699402809143
1726407104344822500,7.293822509765625,-0.06422346085309982,0.2787477374076843,-0.10283130407333374
1726407104354819600,7.303819580078125,-0.06337498128414154,0.33685046434402466,-0.08872267603874207
1726407104364815600,7.313815673828125,-0.04579891264438629,0.37304601073265076,-0.09387695789337158
1726407104374812700,7.323812744140625,-0.02893870696425438,0.39483705163002014,-0.08404483646154404
1726407104384808400,7.333808349609375,-0.013796239160001278,0.3650815784931183,-0.06372039020061493
1726407104394804700,7.3438046875,-0.021434718742966652,0.2940870225429535,-0.07880719751119614
1726407104404801500,7.353801513671875,-0.0418691523373127,0.2151770293712616,-0.11078643798828125
1726407104414797600,7.363797607421875,-0.06273341923952103,0.18682634830474854,-0.1389664113521576
1726407104424794600,7.373794677734375,-0.07463349401950836,0.19095583260059357,-0.1680625081062317
1726407104434790700,7.383790771484375,-0.07513602823019028,0.18890999257564545,-0.18615175783634186
1726407104444786400,7.393786376953125,-0.0823151096701622,0.1728316992521286,-0.18178871273994446
1726407104454783700,7.40378369140625,-0.08823851495981216,0.08860496431589127,-0.18702581524848938
1726407104464779500,7.413779541015625,-0.09768421202898026,-0.018009094521403313,-0.1961953490972519
1726407104474776600,7.423776611328125,-0.10860557109117508,-0.06382638216018677,-0.23559841513633728
1726407104484772600,7.433772705078125,-0.12441302835941315,-0.08333536982536316,-0.2878493666648865
1726407104494768600,7.4437685546875,-0.13776186108589172,-0.15229366719722748,-0.30157795548439026
1726407104504765400,7.453765380859375,-0.13063471019268036,-0.2024945169687271,-0.2663850784301758
1726407104514761700,7.46376171875,-0.11147645860910416,-0.1699080765247345,-0.2144523710012436
1726407104524758500,7.473758544921875,-0.07587132602930069,-0.06848691403865814,-0.17938706278800964
1726407104534754600,7.483754638671875,-0.058328818529844284,0.04542101174592972,-0.14697693288326263
1726407104544750600,7.49375048828125,-0.057984739542007446,0.0895695611834526,-0.11836765706539154
1726407104554747600,7.50374755859375,-0.06614360213279724,0.05850405618548393,-0.08318037539720535
1726407104564743400,7.513743408203125,-0.08239714056253433,-0.01595286652445793,-0.05118329077959061
1726407104574739700,7.52373974609375,-0.10270614176988602,-0.052253883332014084,-0.04543033242225647
1726407104584736500,7.533736572265625,-0.1145675927400589,-0.06202768534421921,-0.06771060079336166
1726407104594732500,7.543732666015625,-0.1303289830684662,-0.008282430469989777,-0.11727575957775116
1726407104604729600,7.5537294921875,-0.14201092720031738,0.0017398431664332747,-0.1686992645263672
1726407104614725600,7.5637255859375,-0.15699253976345062,-0.01576697826385498,-0.22562460601329803
1726407104624721400,7.573721435546875,-0.1880013346672058,-0.09591667354106903,-0.2651387155056
1726407104634718700,7.58371875,-0.21850571036338806,-0.22811385989189148,-0.25930801033973694
1726407104644714500,7.593714599609375,-0.2227766215801239,-0.29324865341186523,-0.23887036740779877
1726407104654711800,7.6037119140625,-0.21707452833652496,-0.2839246690273285,-0.21251440048217773
1726407104664707600,7.61370751953125,-0.22159737348556519,-0.2740437984466553,-0.20366764068603516
1726407104674703600,7.62370361328125,-0.22637374699115753,-0.2854245603084564,-0.20712469518184662
1726407104684700700,7.63370068359375,-0.21160651743412018,-0.28646957874298096,-0.23518694937229156
1726407104694696700,7.64369677734375,-0.19259501993656158,-0.307983934879303,-0.2833384871482849
1726407104704693500,7.653693603515625,-0.18012529611587524,-0.32888707518577576,-0.33078137040138245
1726407104714689800,7.663689697265625,-0.1735512763261795,-0.3041188716888428,-0.3828302025794983
1726407104724685600,7.673685546875,-0.15051573514938354,-0.31027212738990784,-0.4161945581436157
1726407104734682600,7.6836826171875,-0.1278301328420639,-0.3833082318305969,-0.4273715615272522
1726407104744678400,7.693678466796875,-0.1075482964515686,-0.49002349376678467,-0.42263832688331604
1726407104754675700,7.70367578125,-0.09346656501293182,-0.5260382294654846,-0.40931135416030884
1726407104764671500,7.71367138671875,-0.08393458276987076,-0.4972550570964813,-0.38374951481819153
1726407104774667500,7.72366748046875,-0.05946918576955795,-0.4062977135181427,-0.33581075072288513
1726407104784664600,7.73366455078125,-0.01269875094294548,-0.26578372716903687,-0.25985953211784363
1726407104794660600,7.74366064453125,0.022180935367941856,-0.1680300235748291,-0.17765973508358002
1726407104804656400,7.753656494140625,0.04007977619767189,-0.16875280439853668,-0.11229884624481201
1726407104814653700,7.76365380859375,0.03684509918093681,-0.2210002839565277,-0.08491382747888565
1726407104824649500,7.7736494140625,0.024561002850532532,-0.25879108905792236,-0.08972668647766113
1726407104834646800,7.783646728515625,0.015915051102638245,-0.290536493062973,-0.07983384281396866
1726407104844642600,7.793642578125,0.009586048312485218,-0.336006224155426,-0.0557096004486084
1726407104854638600,7.803638671875,0.0023100259713828564,-0.39556145668029785,-0.02630164474248886
1726407104864635600,7.8136357421875,0.016286561265587807,-0.426894873380661,-0.009582586586475372
1726407104874631700,7.823631591796875,0.043359190225601196,-0.42402398586273193,0.0006596649764105678
1726407104884628500,7.83362841796875,0.05350556969642639,-0.3845415413379669,0.007414506748318672
1726407104894624800,7.843624755859375,0.05926625430583954,-0.3219865560531616,0.03068946860730648
1726407104904620500,7.85362060546875,0.08795195817947388,-0.2740105092525482,0.05179954692721367
1726407104914617600,7.86361767578125,0.10374370217323303,-0.27277055382728577,0.07349126040935516
1726407104924613600,7.873613525390625,0.09691189974546432,-0.32279136776924133,0.06166016682982445
1726407104934610700,7.883610595703125,0.09164736419916153,-0.38826119899749756,0.04711984097957611
1726407104944606500,7.8936064453125,0.07925806939601898,-0.4044862389564514,0.015107047744095325
1726407104954602800,7.903602783203125,0.06696119159460068,-0.4084295630455017,-0.03297499567270279
1726407104964599600,7.913599609375,0.07305503636598587,-0.44042426347732544,-0.08552342653274536
1726407104974595600,7.923595703125,0.08942575007677078,-0.4636499583721161,-0.12270967662334442
1726407104984592600,7.933592529296875,0.10519485920667648,-0.4092354476451874,-0.1443537175655365
1726407104994588700,7.943588623046875,0.11410047113895416,-0.3327752947807312,-0.13131754100322723
1726407105004584400,7.95358447265625,0.11778096109628677,-0.2943536043167114,-0.0999995693564415
1726407105014581200,7.963581298828125,0.12983949482440948,-0.25724032521247864,-0.07607479393482208
1726407105024577000,7.973576904296875,0.12408040463924408,-0.27093374729156494,-0.07276981323957443
1726407105034574300,7.98357421875,0.11157020181417465,-0.3527580499649048,-0.07337647676467896
1726407105044570000,7.993570068359375,0.10176204890012741,-0.404075026512146,-0.09318560361862183
1726407105054566100,8.003566162109376,0.08926516771316528,-0.4171266555786133,-0.12314429879188538
1726407105064563200,8.013563232421875,0.06844457238912582,-0.446358323097229,-0.16159875690937042
1726407105074559200,8.023559326171876,0.04056233912706375,-0.4787183701992035,-0.19482994079589844
1726407105084555300,8.03355517578125,0.014463094994425774,-0.5181866884231567,-0.2174585461616516
1726407105094552300,8.04355224609375,-0.02015054225921631,-0.5322631001472473,-0.23513582348823547
1726407105104548000,8.053548095703125,-0.03562510386109352,-0.49429547786712646,-0.254826158285141
1726407105114545400,8.06354541015625,-0.04707057401537895,-0.43436768651008606,-0.2598326504230499
1726407105124541200,8.073541259765625,-0.04718029499053955,-0.3945222795009613,-0.2273777574300766
1726407105134537200,8.083537109375,-0.04571768641471863,-0.3622404932975769,-0.18077483773231506
1726407105144534300,8.0935341796875,-0.05481744185090065,-0.33195531368255615,-0.1205543801188469
1726407105154530300,8.1035302734375,-0.06721179187297821,-0.31530842185020447,-0.0738462582230568
1726407105164527000,8.113527099609374,-0.08120004832744598,-0.2965880036354065,-0.043656665831804276
1726407105174523400,8.1235234375,-0.08561370521783829,-0.2495451122522354,-0.028804218396544456
1726407105184519200,8.133519287109374,-0.08240991830825806,-0.18972279131412506,-0.019298329949378967
1726407105194516200,8.14351611328125,-0.0786261036992073,-0.11831545829772949,-0.018936140462756157
1726407105204512300,8.15351220703125,-0.07780398428440094,-0.061940863728523254,-0.005727660376578569
1726407105214509300,8.16350927734375,-0.06904804706573486,-0.030415963381528854,0.009692042134702206
1726407105224505000,8.173505126953126,-0.05011003836989403,0.02502439357340336,0.029044967144727707
1726407105234501000,8.183501220703125,-0.03152010962367058,0.08441581577062607,0.07245875149965286
1726407105244498200,8.193498291015626,-0.030852986499667168,0.1213005930185318,0.1177535280585289
1726407105254494200,8.203494140625,-0.022483205422759056,0.1270330548286438,0.14337126910686493
1726407105264490200,8.213490234375,-0.006340187508612871,0.13326245546340942,0.15253707766532898
1726407105274487300,8.2234873046875,0.0025097629986703396,0.14258112013339996,0.15089763700962067
1726407105284483000,8.233483154296875,0.012295814231038094,0.15264759957790375,0.14407780766487122
1726407105294480400,8.24348046875,0.004198207054287195,0.16773360967636108,0.1277686208486557
1726407105304476200,8.25347607421875,-0.006441654171794653,0.20673133432865143,0.11475054919719696
1726407105314472200,8.26347216796875,-0.0018660769565030932,0.25494787096977234,0.08830003440380096
1726407105324469200,8.27346923828125,0.011181548237800598,0.2540229558944702,0.07954809069633484
1726407105334465300,8.28346533203125,0.025167139247059822,0.23254403471946716,0.0898345485329628
1726407105344462000,8.293462158203125,0.025551432743668556,0.2002718448638916,0.09248625487089157
1726407105354458400,8.303458251953124,0.026313096284866333,0.20248812437057495,0.07682953029870987
1726407105364454100,8.3134541015625,0.051352135837078094,0.20829620957374573,0.07409712672233582
1726407105374451200,8.323451171875,0.062305450439453125,0.22770319879055023,0.1015082448720932
1726407105384447200,8.333447265625,0.04481407627463341,0.2410576194524765,0.1308365762233734
1726407105394444300,8.3434443359375,0.03699956461787224,0.29219990968704224,0.09619177877902985
1726407105404440000,8.353440185546875,0.03116883896291256,0.3569064736366272,0.0452556274831295
1726407105414436400,8.363436279296875,0.044795434921979904,0.419423371553421,-0.0010125337867066264
1726407105424433200,8.37343310546875,0.07828228920698166,0.47412070631980896,-0.026706712320446968
1726407105434429200,8.38342919921875,0.11966913938522339,0.5628372430801392,-0.025614017620682716
1726407105444425500,8.393425537109374,0.12966452538967133,0.6092753410339355,-0.007213437929749489
1726407105454422300,8.40342236328125,0.12351847440004349,0.6237978339195251,0.0010599381057545543
1726407105464418000,8.41341796875,0.08685873448848724,0.601702868938446,-0.018685270100831985
1726407105474415400,8.423415283203125,0.0757962241768837,0.566737174987793,-0.06623467803001404
1726407105484411100,8.4334111328125,0.0626830905675888,0.5191089510917664,-0.09736490249633789
1726407105494407200,8.4434072265625,0.050993677228689194,0.4593835771083832,-0.09040286391973495
1726407105504404200,8.453404296875,0.0562659353017807,0.43854114413261414,-0.061582405120134354
1726407105514400300,8.463400146484375,0.04421752691268921,0.48138153553009033,-0.08618521690368652
1726407105524397000,8.47339697265625,0.02136787213385105,0.5044663548469543,-0.1488046646118164
1726407105534393300,8.483393310546875,0.023423567414283752,0.4806632995605469,-0.22726750373840332
1726407105544389000,8.49338916015625,0.02406672015786171,0.4532676041126251,-0.28252890706062317
1726407105554386200,8.50338623046875,0.035286352038383484,0.49621108174324036,-0.3298572599887848
1726407105564382200,8.51338232421875,0.07692115008831024,0.5958449840545654,-0.3556270897388458
1726407105574379300,8.523379150390625,0.0808493122458458,0.6931470632553101,-0.31625357270240784
1726407105584375000,8.533375,0.04394109174609184,0.7588485479354858,-0.2107018530368805
1726407105594371300,8.543371337890624,0.018882878124713898,0.7772297263145447,-0.051786232739686966
1726407105604368100,8.5533681640625,0.027028953656554222,0.761817216873169,0.11911440640687943
1726407105614364200,8.5633642578125,0.07097404450178146,0.7162177562713623,0.2588712275028229
1726407105624360400,8.5733603515625,0.0807797983288765,0.6760551333427429,0.382592111825943
1726407105634357200,8.583357177734374,0.08098619431257248,0.7023669481277466,0.422524094581604
1726407105644353000,8.59335302734375,0.07457969337701797,0.7172819375991821,0.4029961824417114
1726407105654350300,8.603350341796874,0.052924469113349915,0.6842225193977356,0.3850853741168976
1726407105664346000,8.61334619140625,0.055451009422540665,0.6886146068572998,0.35836800932884216
1726407105674342100,8.623342041015626,0.06551269441843033,0.6564186215400696,0.3376486003398895
1726407105684339200,8.633339111328125,0.05729870870709419,0.6252649426460266,0.3194515109062195
1726407105694335200,8.643335205078126,0.044545628130435944,0.5666807293891907,0.29604336619377136
1726407105704332300,8.653332275390625,0.02117852121591568,0.4864695072174072,0.2679174542427063
1726407105714328300,8.663328369140626,-0.001791242160834372,0.33288952708244324,0.23792174458503723
1726407105724324400,8.673324462890625,0.00469595193862915,0.19784890115261078,0.19266638159751892
1726407105734321400,8.6833212890625,0.0352538600564003,0.1678134948015213,0.14976046979427338
1726407105744317200,8.693317138671874,0.059722185134887695,0.1348118782043457,0.12146730720996857
1726407105754314200,8.703314208984375,0.0682259276509285,0.09085214138031006,0.13564305007457733
1726407105764310000,8.71331005859375,0.0699433982372284,0.09645037353038788,0.15005554258823395
1726407105774306300,8.723306396484375,0.03995833545923233,0.10727345943450928,0.1778903752565384
1726407105784303000,8.73330322265625,0.022243253886699677,0.10026561468839645,0.20175202190876007
1726407105794299100,8.743299072265625,0.03507782518863678,0.11637800931930542,0.22759906947612762
1726407105804295400,8.75329541015625,0.0645342543721199,0.10530857741832733,0.2566744089126587
1726407105814292200,8.763292236328125,0.08927342295646667,0.03623337298631668,0.2989464998245239
1726407105824288300,8.773288330078126,0.09952792525291443,-0.0589597225189209,0.30649229884147644
1726407105834285300,8.783285400390625,0.11133291572332382,-0.1264122724533081,0.25425010919570923
1726407105844281000,8.793281005859376,0.11206262558698654,-0.08826994150876999,0.15949244797229767
1726407105854277000,8.803277099609375,0.09080207347869873,-0.06536196172237396,0.08828112483024597
1726407105864274200,8.813274169921876,0.07836804538965225,-0.05306481570005417,0.06245245784521103
1726407105874270200,8.823270263671875,0.048529986292123795,-0.07702527940273285,0.05861644074320793
1726407105884267300,8.833267333984375,0.016864733770489693,-0.15375840663909912,0.04957767203450203
1726407105894263300,8.84326318359375,-0.0008269115351140499,-0.28364476561546326,0.036315396428108215
1726407105904259300,8.85325927734375,0.013940582983195782,-0.39792686700820923,0.0496346652507782
1726407105914256400,8.86325634765625,0.022971628233790398,-0.40637680888175964,0.0843212753534317
1726407105924252200,8.873252197265625,0.013513677753508091,-0.36607545614242554,0.12258210778236389
1726407105934249200,8.883249267578124,-0.01455843634903431,-0.32264968752861023,0.1548313945531845
1726407105944245200,8.893245361328125,-0.02839755266904831,-0.28564053773880005,0.19614288210868835
1726407105954241300,8.9032412109375,-0.036724191159009933,-0.25438007712364197,0.2323770523071289
1726407105964238000,8.913238037109375,-0.06159864738583565,-0.19568587839603424,0.25841397047042847
1726407105974234400,8.923234375,-0.07483775913715363,-0.10491230338811874,0.2694903314113617
1726407105984230400,8.93323046875,-0.08160404860973358,-0.005560946650803089,0.27514660358428955
1726407105994227200,8.943227294921876,-0.050637878477573395,-0.014312094077467918,0.29589396715164185
1726407106004223200,8.95322314453125,0.022335398942232132,0.00866379588842392,0.34238582849502563
1726407106014221000,8.963220947265626,0.05732667073607445,0.059907276183366776,0.3942948579788208
1726407106024216800,8.973216796875,0.08073373138904572,0.11634737998247147,0.43799224495887756
1726407106034213000,8.983213134765625,0.08425788581371307,0.1816835105419159,0.4890748858451843
1726407106044210000,8.9932099609375,0.09450919181108475,0.17640113830566406,0.5482615232467651
1726407106054206000,9.0032060546875,0.11556468158960342,0.1241038367152214,0.5883322358131409
1726407106064203000,9.013203125,0.14768800139427185,0.0898744985461235,0.6104044914245605
1726407106074199000,9.023198974609375,0.14536279439926147,0.06392145901918411,0.6004908680915833
1726407106084194800,9.03319482421875,0.12054719030857086,0.028658276423811913,0.5619613528251648
1726407106094192000,9.043192138671875,0.12031921744346619,-0.04042412340641022,0.49473142623901367
1726407106104188000,9.05318798828125,0.11683554202318192,-0.1442277431488037,0.39854124188423157
1726407106114184000,9.063183837890625,0.09651003032922745,-0.2225387990474701,0.2716749310493469
1726407106124181000,9.073180908203126,0.08839883655309677,-0.24765454232692719,0.12674570083618164
1726407106134177000,9.083177001953125,0.0676613375544548,-0.22812184691429138,-0.0031185615807771683
1726407106144174000,9.093174072265626,0.04626896232366562,-0.2745729684829712,-0.11918631196022034
1726407106154170000,9.103170166015625,0.02268720231950283,-0.3104633390903473,-0.19577749073505402
1726407106164166000,9.113165771484375,-0.012292885221540928,-0.3380028009414673,-0.226003035902977
1726407106174163200,9.1231630859375,-0.029017802327871323,-0.3625720739364624,-0.22881320118904114
1726407106184159000,9.133158935546875,-0.02731870673596859,-0.3175446689128876,-0.21785669028759003
1726407106194156000,9.143156005859375,-0.014741129241883755,-0.21653789281845093,-0.20309878885746002
1726407106204152000,9.153152099609375,-0.004942560568451881,-0.08638788759708405,-0.17563946545124054
1726407106214148000,9.163148193359374,-0.014697719365358353,0.05997571721673012,-0.14112277328968048
1726407106224145000,9.173144775390625,-0.04142094403505325,0.18349206447601318,-0.12887169420719147
1726407106234141000,9.183140869140624,-0.06404023617506027,0.21611419320106506,-0.12427934259176254
1726407106244138000,9.193137939453125,-0.046068958938121796,0.24730512499809265,-0.11165516078472137
1726407106254134000,9.203134033203124,0.003596332622691989,0.3241269290447235,-0.0844954401254654
1726407106264129800,9.2131298828125,0.018268486484885216,0.45788872241973877,-0.03430790454149246
1726407106274127000,9.223127197265624,0.005891178734600544,0.5128476023674011,-0.03087162971496582
1726407106284123000,9.233122802734375,0.009786051698029041,0.46495863795280457,-0.04400580748915672
1726407106294119000,9.243118896484376,0.04800640791654587,0.3907163441181183,-0.07745644450187683
1726407106304116000,9.253115966796875,0.07215435802936554,0.42049503326416016,-0.12850205600261688
1726407106314112000,9.263112060546876,0.016802148893475533,0.42528098821640015,-0.19226372241973877
1726407106324109000,9.273109130859375,-0.05748539790511131,0.34679922461509705,-0.24673041701316833
1726407106334105000,9.28310498046875,-0.08838339149951935,0.22566960752010345,-0.2751055955886841
1726407106344100900,9.293100830078124,-0.06137121468782425,0.16770245134830475,-0.28287723660469055
1726407106354098200,9.30309814453125,-0.04247235879302025,0.11253906041383743,-0.27171939611434937
1726407106364094000,9.313093994140624,-0.04785007983446121,0.06504744291305542,-0.27260622382164
1726407106374090000,9.323090087890625,-0.05710163712501526,0.10048932582139969,-0.26401060819625854
1726407106384087000,9.333087158203124,-0.03810211271047592,0.17716918885707855,-0.27152445912361145
1726407106394083000,9.3430830078125,-0.04158632457256317,0.2353890836238861,-0.2630249857902527
1726407106404079900,9.353079833984374,-0.06904617697000504,0.23692838847637177,-0.22486160695552826
1726407106414076200,9.363076171875,-0.054963648319244385,0.25487250089645386,-0.16124054789543152
1726407106424072000,9.373072021484376,-0.03359577804803848,0.2549894154071808,-0.09882884472608566
1726407106434069000,9.383069091796875,-0.03350629284977913,0.2298891246318817,-0.04626656323671341
1726407106444065000,9.39306494140625,-0.0240789707750082,0.19146797060966492,-0.004488225560635328
1726407106454062000,9.40306201171875,-0.006265885196626186,0.1586780548095703,0.008888565935194492
1726407106464057900,9.413057861328125,-0.026317890733480453,0.13341665267944336,0.018560901284217834
1726407106474054100,9.42305419921875,-0.03569754213094711,0.10903673619031906,0.024750886484980583
1726407106484051000,9.433051025390625,-0.029798908159136772,0.13794748485088348,0.022537533193826675
1726407106494047000,9.443046875,-0.011238006874918938,0.08379369974136353,0.0298503078520298
1726407106504043000,9.45304296875,0.006265086587518454,-0.01230460312217474,0.038781482726335526
1726407106514040000,9.4630400390625,-0.013289706781506538,-0.126626119017601,0.022607041522860527
1726407106524035800,9.473035888671875,-0.06873911619186401,-0.17990505695343018,-0.007564442697912455
1726407106534033200,9.483033203125,-0.10271093249320984,-0.13685931265354156,-0.04279646649956703
1726407106544029000,9.49302880859375,-0.09093683212995529,-0.14611274003982544,-0.059969060122966766
1726407106554025000,9.50302490234375,-0.05393380671739578,-0.13805879652500153,-0.05176039785146713
1726407106564022000,9.51302197265625,0.004865328781306744,-0.11055926978588104,-0.0548294261097908
1726407106574018000,9.52301806640625,0.013243100605905056,-0.19328610599040985,-0.07925247400999069
1726407106584014800,9.533014892578125,-0.03104713186621666,-0.2922358512878418,-0.12512436509132385
1726407106594011100,9.54301123046875,-0.06504771113395691,-0.3048781454563141,-0.15264227986335754
1726407106604007000,9.5530068359375,-0.0895937979221344,-0.2481008768081665,-0.13713735342025757
1726407106614004000,9.56300390625,-0.11982067674398422,-0.2814345955848694,-0.09070833027362823
1726407106624000000,9.573,-0.14817561209201813,-0.35805001854896545,-0.0474838949739933
1726407106633996000,9.58299609375,-0.16004985570907593,-0.4095158874988556,-0.026133865118026733
1726407106643992800,9.592992919921874,-0.15985171496868134,-0.3762676417827606,-0.018817096948623657
1726407106653989000,9.602989013671875,-0.14015044271945953,-0.30023759603500366,-0.012236692942678928
1726407106663986000,9.61298583984375,-0.11822890490293503,-0.24767903983592987,-0.00660597113892436
1726407106673982000,9.62298193359375,-0.09527192264795303,-0.17142368853092194,0.00809148233383894
1726407106683978000,9.63297802734375,-0.0824756994843483,-0.0972469225525856,0.03013712912797928
1726407106693975000,9.64297509765625,-0.06713802367448807,-0.032701220363378525,0.057787131518125534
1726407106703970800,9.652970703125,-0.052268531173467636,0.03435664251446724,0.09742242842912674
1726407106713968000,9.662968017578125,-0.055158860981464386,0.08430875837802887,0.121040940284729
1726407106723964000,9.6729638671875,-0.07923489809036255,0.13472026586532593,0.1306445598602295
1726407106733960000,9.6829599609375,-0.08059843629598618,0.15179619193077087,0.1429976373910904
1726407106743957000,9.69295703125,-0.06211530417203903,0.12887702882289886,0.17377232015132904
1726407106753953000,9.702953125,-0.03861556947231293,0.07704098522663116,0.20336297154426575
1726407106763948800,9.71294873046875,-0.005352687556296587,0.08191856741905212,0.2335807979106903
1726407106773946000,9.722946044921875,0.02912459522485733,0.1095840185880661,0.23624369502067566
1726407106783942000,9.73294189453125,0.04062199592590332,0.1975966989994049,0.21930359303951263
1726407106793939000,9.74293896484375,0.029448969289660454,0.2293306589126587,0.23600266873836517
1726407106803935000,9.75293505859375,0.02028449811041355,0.21102355420589447,0.2421332746744156
1726407106813931000,9.762930908203124,0.014724617823958397,0.2683558166027069,0.2289745956659317
1726407106823927800,9.772927734375,0.030962176620960236,0.2995305061340332,0.19661478698253632
1726407106833924000,9.782924072265626,0.05327280983328819,0.3182775676250458,0.17100876569747925
1726407106843921000,9.7929208984375,0.08363950252532959,0.2625291049480438,0.16360704600811005
1726407106853917000,9.8029169921875,0.11387889832258224,0.2000713050365448,0.1488664448261261
1726407106863913000,9.812912841796875,0.11726750433444977,0.16252818703651428,0.1275094896554947
1726407106873910000,9.822909912109376,0.093285471200943,0.16776317358016968,0.10348644107580185
1726407106883905800,9.83290576171875,0.06574119627475739,0.13937494158744812,0.06573773175477982
1726407106893902000,9.842902099609375,0.030109433457255363,0.06613481044769287,0.029350964352488518
1726407106903899000,9.85289892578125,0.004732703324407339,-0.06896016001701355,-0.021930865943431854
1726407106913895000,9.86289501953125,0.0024652881547808647,-0.16621559858322144,-0.10266326367855072
1726407106923892000,9.87289208984375,0.0036844832357019186,-0.16325390338897705,-0.19562116265296936
1726407106933888000,9.882887939453125,0.020677048712968826,-0.14303039014339447,-0.24938692152500153
1726407106943883800,9.8928837890625,0.028377845883369446,-0.15896062552928925,-0.24641484022140503
1726407106953881000,9.902881103515625,0.015156315639615059,-0.19133880734443665,-0.19718976318836212
1726407106963876900,9.912876953125,0.008049137890338898,-0.18806098401546478,-0.15657523274421692
1726407106973874200,9.922874267578125,0.009563145227730274,-0.15847992897033691,-0.11786804348230362
1726407106983870000,9.932869873046876,0.008289354853332043,-0.1170153021812439,-0.05742041766643524
1726407106993866000,9.942865966796875,0.005587045568972826,-0.05688432231545448,0.013185310177505016
1726407107003863000,9.952863037109376,0.014722753316164017,0.06437525898218155,0.07183690369129181
1726407107013858600,9.962858642578125,0.04000573977828026,0.20321649312973022,0.1419384926557541
1726407107023854800,9.972854736328125,0.060384515672922134,0.3129288852214813,0.23743678629398346
1726407107033851600,9.9828515625,0.06381093710660934,0.36010652780532837,0.32103288173675537
1726407107043847700,9.99284765625,0.07546120136976242,0.36028173565864563,0.366191565990448
1726407107053844700,10.0028447265625,0.085102379322052,0.4115995466709137,0.3875037729740143
1726407107063840500,10.012840576171875,0.08662863820791245,0.48148807883262634,0.4103201627731323
1726407107073836500,10.02283642578125,0.08717511594295502,0.6071575880050659,0.41554954648017883
1726407107083833600,10.03283349609375,0.10375009477138519,0.6847237348556519,0.4108533263206482
1726407107093829600,10.04282958984375,0.11894343048334122,0.6873802542686462,0.40288275480270386
1726407107103825700,10.05282568359375,0.12463860213756561,0.6456208229064941,0.39069879055023193
1726407107113822700,10.06282275390625,0.1309148669242859,0.635093629360199,0.3786061704158783
1726407107123818800,10.07281884765625,0.12827354669570923,0.6296626329421997,0.3661436438560486
1726407107133815800,10.08281591796875,0.11759107559919357,0.6005329489707947,0.32866764068603516
1726407107143811600,10.0928115234375,0.12227531522512436,0.5499778985977173,0.2815408706665039
1726407107153807600,10.1028076171875,0.14681527018547058,0.5072005987167358,0.1968398243188858
1726407107163804700,10.1128046875,0.19128073751926422,0.4716666042804718,0.07556213438510895
1726407107173800700,10.12280078125,0.219034343957901,0.42919424176216125,-0.010686466470360756
1726407107183797500,10.132797607421875,0.22267861664295197,0.384871244430542,-0.07148963212966919
1726407107193793800,10.142793701171875,0.23783652484416962,0.32002007961273193,-0.13863271474838257
1726407107203789800,10.152789794921874,0.2595636546611786,0.22516201436519623,-0.24040648341178894
1726407107213786600,10.16278662109375,0.2745937407016754,0.06445648521184921,-0.3914202153682709
1726407107223782700,10.17278271484375,0.2565372586250305,-0.07955288141965866,-0.568070113658905
1726407107233778700,10.18277880859375,0.1779593527317047,-0.252659410238266,-0.711829662322998
1726407107243775500,10.192775390625,0.10134313255548477,-0.4617186188697815,-0.8103724718093872
1726407107253771500,10.202771484375,0.04970017820596695,-0.6156109571456909,-0.8242374062538147
1726407107263768600,10.2127685546875,0.014782674610614777,-0.7340449690818787,-0.7898594737052917
1726407107273764600,10.2227646484375,-0.04032478481531143,-0.8509318828582764,-0.7527368664741516
1726407107283760600,10.2327607421875,-0.09665996581315994,-0.92432701587677,-0.7321304082870483
1726407107293757700,10.2427578125,-0.1356515735387802,-0.9247890710830688,-0.710044264793396
1726407107303753700,10.252753662109376,-0.15334667265415192,-0.836392879486084,-0.6936852931976318
1726407107313750800,10.262750732421875,-0.15750573575496674,-0.7514204978942871,-0.6340632438659668
1726407107323746600,10.27274658203125,-0.15728868544101715,-0.66453617811203,-0.562035083770752
1726407107333742600,10.28274267578125,-0.1264657974243164,-0.5472643971443176,-0.4843403100967407
1726407107343739600,10.29273974609375,-0.07445000112056732,-0.4450426995754242,-0.4002153277397156
1726407107353735700,10.302735595703124,-0.03837162256240845,-0.36844807863235474,-0.29206061363220215
1726407107363731700,10.312731689453125,-0.0049036783166229725,-0.2932600975036621,-0.17953327298164368
1726407107373728800,10.322728759765624,0.026036927476525307,-0.13919463753700256,-0.070066437125206
1726407107383724800,10.332724853515625,0.029883597046136856,0.07057882845401764,0.039633963257074356
1726407107393721600,10.3427216796875,0.021583855152130127,0.19414737820625305,0.13419589400291443
1726407107403717600,10.352717529296875,0.021226458251476288,0.23002654314041138,0.2435482144355774
1726407107413713700,10.362713623046876,0.019961724057793617,0.20085054636001587,0.3212755024433136
1726407107423710500,10.37271044921875,0.02213486284017563,0.12258077412843704,0.36504027247428894
1726407107433706800,10.382706787109376,0.005949501879513264,0.036680251359939575,0.39414170384407043
1726407107443703600,10.39270361328125,-0.022599851712584496,-0.03815271332859993,0.38311517238616943
1726407107453699600,10.402699462890626,-0.04790573939681053,-0.09331929683685303,0.3599485754966736
1726407107463696000,10.41269580078125,-0.07462017238140106,-0.12112056463956833,0.3324277400970459
1726407107473692700,10.422692626953125,-0.1038355827331543,-0.14919906854629517,0.2965885102748871
1726407107483688700,10.432688720703124,-0.13706384599208832,-0.20768767595291138,0.2739894688129425
1726407107493684700,10.442684814453125,-0.15760400891304016,-0.3244662284851074,0.24241343140602112
1726407107503681500,10.452681640625,-0.15936888754367828,-0.4769479036331177,0.20163245499134064
1726407107513677600,10.462677490234375,-0.14791356027126312,-0.5996037721633911,0.17007505893707275
1726407107523674600,10.472674560546874,-0.13390053808689117,-0.6616628766059875,0.14353559911251068
1726407107533670700,10.482670654296875,-0.1287747621536255,-0.6656392812728882,0.11029268801212311
1726407107543666700,10.492666748046876,-0.14057575166225433,-0.6748271584510803,0.08755994588136673
1726407107553663700,10.502663818359375,-0.1659064143896103,-0.6948419213294983,0.0697236880660057
1726407107563659800,10.51265966796875,-0.17241011559963226,-0.7138786911964417,0.05782708153128624
1726407107573656600,10.522656494140625,-0.15777045488357544,-0.6915592551231384,0.06849250942468643
1726407107583652600,10.532652587890626,-0.13364221155643463,-0.6201210618019104,0.08930084854364395
1726407107593648600,10.542648681640625,-0.1206933930516243,-0.5521486401557922,0.13027438521385193
1726407107603645400,10.5526455078125,-0.11364107578992844,-0.4963226616382599,0.15541169047355652
1726407107613641700,10.562641845703125,-0.11496306955814362,-0.3963627815246582,0.15257994830608368
1726407107623637800,10.5726376953125,-0.1170419305562973,-0.2826372981071472,0.13101260364055634
1726407107633634600,10.582634521484374,-0.11506107449531555,-0.20028941333293915,0.10614214837551117
1726407107643630800,10.592630859375,-0.10057081282138824,-0.16009965538978577,0.08187729120254517
1726407107653627600,10.602627685546874,-0.06588473916053772,-0.1302109956741333,0.05854267254471779
1726407107663623700,10.612623779296875,-0.014803446829319,-0.05722973495721817,0.039093874394893646
1726407107673619700,10.62261962890625,0.03196485713124275,0.037467215210199356,0.048710547387599945
1726407107683616500,10.632616455078125,0.049551039934158325,0.188606396317482,0.09776224941015244
1726407107693612500,10.642612548828126,0.03608556464314461,0.31333500146865845,0.1510893851518631
1726407107703608800,10.65260888671875,0.035953473299741745,0.3820219337940216,0.19374524056911469
1726407107713605600,10.662605712890626,0.04537041112780571,0.43691661953926086,0.21465584635734558
1726407107723601700,10.6726015625,0.06601283699274063,0.506506085395813,0.22887179255485535
1726407107733598700,10.6825986328125,0.09473929554224014,0.6156261563301086,0.24858558177947998
1726407107743594800,10.6925947265625,0.12140446156263351,0.7320409417152405,0.26021507382392883
1726407107753590500,10.702590576171875,0.1354702115058899,0.8100715279579163,0.2601016163825989
1726407107763587800,10.712587890625,0.14588449895381927,0.8334500789642334,0.22820892930030823
1726407107773583600,10.72258349609375,0.15453843772411346,0.8359470963478088,0.17738063633441925
1726407107783580400,10.732580322265624,0.1728769689798355,0.8522887825965881,0.0956634059548378
1726407107793576700,10.74257666015625,0.18569742143154144,0.883460521697998,0.02544570527970791
1726407107803572700,10.75257275390625,0.20167453587055206,0.8668283224105835,-0.03602910786867142
1726407107813569500,10.762569580078125,0.19369809329509735,0.8095559477806091,-0.07701968401670456
1726407107823565800,10.77256591796875,0.17792871594429016,0.7350066304206848,-0.10061582177877426
1726407107833561600,10.7825615234375,0.15035808086395264,0.6111317873001099,-0.11609544605016708
1726407107843558700,10.79255859375,0.13461905717849731,0.5431937575340271,-0.14132356643676758
1726407107853554700,10.8025546875,0.1407613754272461,0.5196751356124878,-0.151996448636055
1726407107863551700,10.8125517578125,0.14420032501220703,0.5285690426826477,-0.13889983296394348
1726407107873547500,10.822547607421875,0.15063691139221191,0.5681958198547363,-0.13260971009731293
1726407107883543800,10.832543701171875,0.14421921968460083,0.6368238925933838,-0.13178493082523346
1726407107893540600,10.84254052734375,0.14682352542877197,0.65714430809021,-0.14578703045845032
1726407107903536600,10.85253662109375,0.138693168759346,0.6074260473251343,-0.19328024983406067
1726407107913533700,10.86253369140625,0.11566162109375,0.5254377126693726,-0.22941002249717712
1726407107923529700,10.87252978515625,0.07984635978937149,0.45417362451553345,-0.25878921151161194
1726407107933525500,10.882525390625,0.06601523607969284,0.42645758390426636,-0.27054786682128906
1726407107943522800,10.892522705078125,0.05959009379148483,0.41070738434791565,-0.2648889124393463
1726407107953518600,10.9025185546875,0.04685352370142937,0.40846365690231323,-0.2433660477399826
1726407107963514600,10.9125146484375,0.03784351795911789,0.34998995065689087,-0.21375009417533875
1726407107973511700,10.92251171875,0.029742449522018433,0.2369195967912674,-0.16697753965854645
1726407107983507700,10.9325078125,0.024578314274549484,0.10722232609987259,-0.11642488092184067
1726407107993504800,10.9425048828125,0.025833994150161743,0.040273651480674744,-0.06603121757507324
1726407108003500800,10.952500732421875,0.028983980417251587,0.025606559589505196,-0.04109550639986992
1726407108013496000,10.96249609375,0.02034042589366436,0.050584081560373306,-0.030964307487010956
1726407108023493000,10.9724931640625,-0.0009925601771101356,0.06933379918336868,-0.027185281738638878
1726407108033489200,10.9824892578125,-0.01805463433265686,0.037149764597415924,-0.01678909920156002
1726407108043486200,10.992486328125,-0.033245038241147995,-0.014365890063345432,0.014929681085050106
1726407108053482000,11.00248193359375,-0.05301368236541748,-0.11137312650680542,0.05227332562208176
1726407108063478300,11.012478271484374,-0.06405408680438995,-0.20555661618709564,0.0692933201789856
1726407108073475000,11.02247509765625,-0.06042606011033058,-0.2681494355201721,0.07282387465238571
1726407108083471000,11.03247119140625,-0.06660991907119751,-0.31253179907798767,0.07365291565656662
1726407108093467100,11.042467041015625,-0.07640742510557175,-0.35052287578582764,0.07247260212898254
1726407108103464200,11.052464111328124,-0.09151020646095276,-0.3960895538330078,0.07263398915529251
1726407108113460000,11.0624599609375,-0.11065008491277695,-0.4572192132472992,0.08001893758773804
1726407108123457300,11.072457275390626,-0.12445857375860214,-0.525254487991333,0.08752265572547913
1726407108133453000,11.082453125,-0.12783199548721313,-0.5790748000144958,0.10958161950111389
1726407108143449000,11.092448974609376,-0.12989620864391327,-0.6079570651054382,0.14741767942905426
1726407108153446100,11.102446044921875,-0.12001802027225494,-0.5524722337722778,0.19363364577293396
1726407108163442200,11.112442138671875,-0.10269229114055634,-0.46993768215179443,0.23136743903160095
1726407108173438000,11.12243798828125,-0.09214270859956741,-0.3677375316619873,0.2627836763858795
1726407108183435300,11.132435302734375,-0.06419709324836731,-0.31599071621894836,0.2756909728050232
1726407108193431000,11.14243115234375,-0.020899422466754913,-0.3156237304210663,0.282803475856781
1726407108203428400,11.152428466796875,-0.006129531655460596,-0.3818618655204773,0.2985701858997345
1726407108213424000,11.162424072265624,-0.0008902947301976383,-0.4482842981815338,0.3142186403274536
1726407108223420200,11.172420166015625,-0.02004188485443592,-0.46716824173927307,0.3135773539543152
1726407108233417200,11.182417236328124,-0.038892537355422974,-0.43381908535957336,0.2803853154182434
1726407108243413200,11.192413330078125,-0.03892369568347931,-0.3271712064743042,0.23283778131008148
1726407108253409000,11.202408935546876,-0.041963428258895874,-0.17451055347919464,0.1828467845916748
1726407108263406000,11.212406005859375,-0.027464380487799644,-0.0054152715019881725,0.11150015890598297
1726407108273402000,11.222402099609376,-0.019948408007621765,0.14712686836719513,0.040339432656764984
1726407108283399200,11.232399169921875,-0.02123471535742283,0.24123871326446533,-0.028840702027082443
1726407108293395000,11.24239501953125,-0.024947959929704666,0.24797305464744568,-0.08127701282501221
1726407108303391200,11.25239111328125,-0.015783224254846573,0.2095889151096344,-0.11762596666812897
1726407108313388000,11.262387939453125,-0.02961435168981552,0.17458298802375793,-0.13382330536842346
1726407108323384000,11.272384033203124,-0.04304707050323486,0.14436064660549164,-0.1453196406364441
1726407108333380000,11.282380126953125,-0.04784821718931198,0.11840280890464783,-0.14398406445980072
1726407108343377200,11.292377197265624,-0.05108875036239624,0.11261549592018127,-0.14716841280460358
1726407108353373000,11.302373046875,-0.06052166596055031,0.10481003671884537,-0.13531175255775452
1726407108363370200,11.312370361328124,-0.07672646641731262,0.06930157542228699,-0.12695741653442383
1726407108373366000,11.322365966796875,-0.0989588052034378,-0.017459683120250702,-0.13665930926799774
1726407108383362000,11.332362060546876,-0.11485547572374344,-0.1073158010840416,-0.15881867706775665
1726407108393359000,11.342359130859375,-0.13194018602371216,-0.1737305074930191,-0.1669948399066925
1726407108403355100,11.352355224609376,-0.13846813142299652,-0.234054833650589,-0.1555270105600357
1726407108413352200,11.362352294921875,-0.13362810015678406,-0.22598785161972046,-0.13057957589626312
1726407108423348200,11.37234814453125,-0.12603037059307098,-0.17852526903152466,-0.10652884095907211
1726407108433344000,11.382343994140625,-0.11177419871091843,-0.11955409497022629,-0.09771457314491272
1726407108443341300,11.39234130859375,-0.09409507364034653,-0.05405205115675926,-0.10527582466602325
1726407108453337000,11.402337158203125,-0.06817479431629181,0.010704842396080494,-0.12051656097173691
1726407108463333000,11.4123330078125,-0.05116251856088638,0.053938064724206924,-0.12171898037195206
1726407108473330200,11.422330078125,-0.04350859671831131,0.09158504754304886,-0.10981304943561554
1726407108483326200,11.432326171875,-0.05609416216611862,0.12140925228595734,-0.09228812158107758
1726407108493323000,11.442322998046874,-0.0834839716553688,0.11948192119598389,-0.0736132338643074
1726407108503319300,11.4523193359375,-0.09245695918798447,0.04788070544600487,-0.05506618320941925
1726407108513315300,11.4623154296875,-0.10040143877267838,-0.044626858085393906,-0.039513055235147476
1726407108523312000,11.47231201171875,-0.10254848003387451,-0.13315007090568542,-0.04170403629541397
1726407108533308200,11.48230810546875,-0.11980815976858139,-0.1544170081615448,-0.08125331252813339
1726407108543304200,11.49230419921875,-0.1421097368001938,-0.1280948519706726,-0.1574319750070572
1726407108553301000,11.502301025390626,-0.16058409214019775,-0.09930554777383804,-0.2378314733505249
1726407108563297300,11.51229736328125,-0.15894438326358795,-0.11542273312807083,-0.29718905687332153
1726407108573294000,11.522294189453126,-0.13699699938297272,-0.1472001075744629,-0.31188759207725525
1726407108583290000,11.5322900390625,-0.10798478871583939,-0.15584366023540497,-0.2845875322818756
1726407108593286100,11.5422861328125,-0.07580208778381348,-0.12858673930168152,-0.25323066115379333
1726407108603283200,11.552283203125,-0.0674687922000885,-0.07609423249959946,-0.24561375379562378
1726407108613279200,11.562279296875,-0.0752343013882637,-0.0034906051587313414,-0.2556203305721283
1726407108623275000,11.57227490234375,-0.09623093158006668,-0.005919408053159714,-0.2626052498817444
1726407108633272000,11.58227197265625,-0.1252138465642929,-0.09742535650730133,-0.27598124742507935
1726407108643268000,11.59226806640625,-0.1421281099319458,-0.2252323180437088,-0.3357372581958771
1726407108653265200,11.60226513671875,-0.16477297246456146,-0.30999353528022766,-0.4222942590713501
1726407108663261200,11.61226123046875,-0.18155542016029358,-0.38467150926589966,-0.4998748004436493
1726407108673257200,11.62225732421875,-0.19522328674793243,-0.44633781909942627,-0.5271778106689453
1726407108683254300,11.632254150390626,-0.20348921418190002,-0.47825419902801514,-0.5294015407562256
1726407108693250300,11.642250244140625,-0.20734572410583496,-0.48855316638946533,-0.5213372111320496
1726407108703246000,11.65224609375,-0.20131713151931763,-0.46988654136657715,-0.49357402324676514
1726407108713243100,11.6622431640625,-0.19959406554698944,-0.44703209400177,-0.4391680359840393
1726407108723239200,11.6722392578125,-0.19997543096542358,-0.4216282069683075,-0.3938330411911011
1726407108733236000,11.682236083984375,-0.20535501837730408,-0.3799326717853546,-0.32808253169059753
1726407108743232300,11.692232177734375,-0.18199829757213593,-0.29998937249183655,-0.2251308560371399
1726407108753228300,11.702228271484374,-0.12241779267787933,-0.13608354330062866,-0.10872621089220047
1726407108763225000,11.71222509765625,-0.10018918663263321,0.02002590522170067,0.00020000340009573847
1726407108773221400,11.722221435546874,-0.09946107864379883,0.11170389503240585,0.13514477014541626
1726407108783217200,11.732217041015625,-0.09677287936210632,0.14231106638908386,0.2533952593803406
1726407108793214200,11.742214111328124,-0.07922051846981049,0.17079012095928192,0.310005784034729
1726407108803210200,11.752210205078125,-0.07236234843730927,0.13056440651416779,0.32351362705230713
1726407108813207000,11.76220703125,-0.08669361472129822,0.07766203582286835,0.28823843598365784
1726407108823203000,11.772203125,-0.11608585715293884,0.03314943239092827,0.22222508490085602
1726407108833199400,11.782199462890626,-0.1470879763364792,-0.11288447678089142,0.180310919880867
1726407108843196200,11.792196044921875,-0.17980411648750305,-0.3179073929786682,0.14305755496025085
1726407108853192200,11.802192138671876,-0.19192709028720856,-0.4595321714878082,0.09570442140102386
1726407108863188200,11.812188232421875,-0.1940874457359314,-0.5214384198188782,0.053226470947265625
1726407108873185300,11.822185302734376,-0.19811654090881348,-0.558953046798706,0.04613127559423447
1726407108883181000,11.83218115234375,-0.19432580471038818,-0.5698341727256775,0.03815697133541107
1726407108893178000,11.84217822265625,-0.17978493869304657,-0.5226868987083435,0.027784226462244987
1726407108903174100,11.852174072265624,-0.16780337691307068,-0.45466336607933044,0.01672198809683323
1726407108913170200,11.862170166015625,-0.14818760752677917,-0.4074636399745941,0.01194241363555193
1726407108923167200,11.872167236328124,-0.1384153962135315,-0.4004233181476593,0.03295848146080971
1726407108933163300,11.882163330078125,-0.13108877837657928,-0.37774649262428284,0.07454667240381241
1726407108943160000,11.89216015625,-0.11369700729846954,-0.24122540652751923,0.11853410303592682
1726407108953156400,11.90215625,-0.08708669990301132,-0.08341925591230392,0.1549174040555954
1726407108963152100,11.912152099609376,-0.051962267607450485,0.01974600739777088,0.19762040674686432
1726407108973149200,11.922149169921875,0.010056096129119396,0.05615967512130737,0.20897957682609558
1726407108983145200,11.932145263671876,0.07849188148975372,0.12812520563602448,0.19950778782367706
1726407108993141200,11.942141357421875,0.1058843582868576,0.18295890092849731,0.2027626931667328
1726407109003138000,11.952137939453126,0.08902467787265778,0.23424765467643738,0.20931726694107056
1726407109013134600,11.962134521484375,0.06711938232183456,0.2953789234161377,0.21810036897659302
1726407109023131400,11.97213134765625,0.06799130141735077,0.3132748305797577,0.22397691011428833
1726407109033127400,11.98212744140625,0.09144949167966843,0.2908906936645508,0.24218520522117615
1726407109043123500,11.99212353515625,0.11825606971979141,0.30408427119255066,0.2746664583683014
1726407109053120300,12.002120361328124,0.13479003310203552,0.34349265694618225,0.30863773822784424
1726407109063116500,12.012116455078125,0.13176362216472626,0.34499067068099976,0.3058669865131378
1726407109073112600,12.022112548828124,0.11166208237409592,0.33109989762306213,0.25162824988365173
1726407109083109400,12.032109375,0.10567875951528549,0.31274673342704773,0.15300686657428741
1726407109093105700,12.042105712890624,0.10408832132816315,0.3547793924808502,0.060619138181209564
1726407109103102500,12.0521025390625,0.12782959640026093,0.37264999747276306,-0.0038157771341502666
1726407109113098500,12.062098388671876,0.14705681800842285,0.37831586599349976,-0.004280765075236559
1726407109123094500,12.072094482421875,0.1564069241285324,0.4010542035102844,0.010551444254815578
1726407109133091300,12.08209130859375,0.1520949900150299,0.40972545742988586,0.013422864489257336
1726407109143087400,12.09208740234375,0.12222817540168762,0.4276621341705322,0.010929347015917301
1726407109153083600,12.102083740234375,0.09441118687391281,0.44596388936042786,-0.005902097560465336
1726407109163080400,12.11208056640625,0.09207320213317871,0.49344566464424133,-0.046058572828769684
1726407109173076500,12.122076416015625,0.1097312942147255,0.4634062647819519,-0.11950722336769104
1726407109183073500,12.132073486328125,0.1423901617527008,0.43749770522117615,-0.19341394305229187
1726407109193069600,12.142069580078125,0.17599499225616455,0.48056742548942566,-0.23242072761058807
1726407109203065300,12.1520654296875,0.1734175980091095,0.46151942014694214,-0.2298036366701126
1726407109213062400,12.1620625,0.1650179773569107,0.441800057888031,-0.20857584476470947
1726407109223058400,12.172058349609374,0.17346206307411194,0.43814167380332947,-0.19786487519741058
1726407109233055500,12.182055419921875,0.19094093143939972,0.4361189901828766,-0.19858713448047638
1726407109243051500,12.192051513671874,0.2047313004732132,0.4437585473060608,-0.23315522074699402
1726407109253047600,12.202047607421875,0.18662500381469727,0.4123561382293701,-0.29175540804862976
1726407109263044600,12.212044677734376,0.17310839891433716,0.37154051661491394,-0.3422508239746094
1726407109273040600,12.22204052734375,0.16780364513397217,0.33671385049819946,-0.3629148304462433
1726407109283036400,12.232036376953126,0.18067550659179688,0.327299028635025,-0.3737490773200989
1726407109293033500,12.242033447265625,0.18973930180072784,0.34880033135414124,-0.37516430020332336
1726407109303029500,12.252029541015625,0.18896432220935822,0.3600229024887085,-0.37088218331336975
1726407109313026300,12.2620263671875,0.17412066459655762,0.2769849896430969,-0.3767635226249695
1726407109323022600,12.272022705078125,0.16590188443660736,0.18427211046218872,-0.3940945863723755
1726407109333018600,12.2820185546875,0.17095549404621124,0.10727985203266144,-0.40782928466796875
1726407109343015400,12.292015380859375,0.15455974638462067,0.053765758872032166,-0.39811915159225464
1726407109353011700,12.30201171875,0.11867018789052963,0.020724186673760414,-0.37934839725494385
