time,seconds_elapsed,z,y,x
1726407097074932200,0.02393212890625,0.7557358145713806,0.17616307735443115,0.25190821290016174
1726407097084928000,0.033927978515625,0.6720395684242249,0.4324159026145935,0.3644193112850189
1726407097094924800,0.0439248046875,0.6113919615745544,0.860774576663971,0.517504096031189
1726407097104921000,0.053921142578125,0.579506516456604,1.2426433563232422,0.7130727767944336
1726407097114918000,0.06391796875,0.5301459431648254,1.3913465738296509,0.9319911003112793
1726407097124914000,0.073913818359375,0.5955502986907959,1.1018949747085571,1.1716175079345703
1726407097134911000,0.083910888671875,0.6150861978530884,0.7676231861114502,1.3231120109558105
1726407097144907000,0.093906982421875,0.39933204650878906,0.4403042197227478,1.1667135953903198
1726407097154903000,0.103903076171875,0.197394460439682,0.17384204268455505,0.9705862998962402
1726407097164900000,0.113900146484375,0.05654945224523544,0.1971345841884613,0.8822311758995056
1726407097174896000,0.123896240234375,-0.07147466391324997,0.260326087474823,0.8320558071136475
1726407097184893200,0.13389306640625,-0.25268280506134033,0.0844474583864212,0.7149757742881775
1726407097194889000,0.143888916015625,-0.45561933517456055,-0.3685280978679657,0.5781946778297424
1726407097204886000,0.153885986328125,-0.6227928996086121,-0.7759478688240051,0.5410962700843811
1726407097214882000,0.163882080078125,-0.790685772895813,-1.1853035688400269,0.5480093955993652
1726407097224879000,0.173879150390625,-0.9682917594909668,-1.6501694917678833,0.5636919140815735
1726407097234875000,0.183875,-1.0869406461715698,-2.1012487411499023,0.636542022228241
1726407097244871200,0.19387109375,-1.1733535528182983,-2.436100959777832,0.7838731408119202
1726407097254868000,0.203867919921875,-1.2352274656295776,-2.6655566692352295,0.9605673551559448
1726407097264864000,0.213864013671875,-1.2330498695373535,-3.0774080753326416,1.064542531967163
1726407097274861000,0.223861083984375,-1.223870873451233,-3.131927251815796,0.9800835251808167
1726407097284857000,0.233857177734375,-1.2107998132705688,-2.5021653175354004,0.817852795124054
1726407097294854000,0.24385400390625,-1.1647098064422607,-2.048258066177368,0.8761259317398071
1726407097304850200,0.25385009765625,-1.19926118850708,-1.4278111457824707,0.9405123591423035
1726407097314846000,0.263845947265625,-1.1260708570480347,-1.0135191679000854,1.0602535009384155
1726407097324843000,0.273843017578125,-1.135923981666565,-0.5932415723800659,1.2592887878417969
1726407097334839000,0.283839111328125,-1.2011717557907104,-0.4070132374763489,1.5359174013137817
1726407097344836000,0.293836181640625,-1.2297842502593994,-0.678906261920929,1.744798183441162
1726407097354832000,0.303831787109375,-1.174243688583374,-1.3594799041748047,1.8475942611694336
1726407097364829200,0.3138291015625,-0.9903833270072937,-2.0393588542938232,1.9049984216690063
1726407097374825000,0.323824951171875,-0.7512716054916382,-1.9870270490646362,1.894360899925232
1726407097384821000,0.333821044921875,-0.242488294839859,-1.0778568983078003,1.757277250289917
1726407097394818000,0.343818115234375,0.3257541358470917,-0.9615703225135803,1.4695746898651123
1726407097404814000,0.35381396484375,0.4664505124092102,-1.0593359470367432,0.9668097496032715
1726407097414811100,0.36381103515625,0.5655618906021118,-1.2443281412124634,0.5251309275627136
1726407097424807200,0.37380712890625,1.110693097114563,-1.1575453281402588,0.3501972258090973
1726407097434804000,0.383803955078125,2.0209906101226807,-1.3611340522766113,0.4442911744117737
1726407097444800300,0.39380029296875,2.9963371753692627,-1.822027325630188,0.7194382548332214
1726407097454796000,0.403796142578125,3.6075572967529297,-2.26578950881958,0.9114405512809753
1726407097464793000,0.41379296875,3.793917179107666,-2.842360258102417,0.8051841259002686
1726407097474789000,0.4237890625,3.708477258682251,-3.717179536819458,0.6661326289176941
1726407097484786000,0.433785888671875,3.474367141723633,-4.5271897315979,0.7120476365089417
1726407097494782000,0.443781982421875,3.314818859100342,-4.802157878875732,1.025620698928833
1726407097504779000,0.453779052734375,3.312340497970581,-4.424559593200684,1.502381682395935
1726407097514775000,0.463775146484375,3.1228129863739014,-3.8439815044403076,2.005357503890991
1726407097524771000,0.47377099609375,2.6644487380981445,-3.051675319671631,2.3111109733581543
1726407097534768000,0.48376806640625,2.3419101238250732,-3.042297601699829,2.6189019680023193
1726407097544764200,0.49376416015625,2.3373653888702393,-4.102138519287109,3.1492345333099365
1726407097554761000,0.503760986328125,2.3496434688568115,-5.271269798278809,3.9755334854125977
1726407097564757000,0.513757080078125,2.5440096855163574,-5.9181227684021,4.909668445587158
1726407097574754000,0.523754150390625,3.007216691970825,-5.985663414001465,5.671077251434326
1726407097584749800,0.533749755859375,3.5903637409210205,-5.807839870452881,5.97466516494751
1726407097594746000,0.54374609375,4.238325119018555,-5.623979568481445,5.85951042175293
1726407097604743000,0.553742919921875,4.897130489349365,-5.700252056121826,5.545058727264404
1726407097614739000,0.563739013671875,5.5345354080200195,-6.116512775421143,5.423384189605713
1726407097624736000,0.573736083984375,6.1177825927734375,-6.517215251922607,5.938811779022217
1726407097634732000,0.58373193359375,6.805124759674072,-6.176052093505859,6.71247673034668
1726407097644729000,0.59372900390625,7.412336826324463,-4.998838424682617,7.295891284942627
1726407097654725000,0.60372509765625,8.006604194641113,-3.3529298305511475,7.627029895782471
1726407097664721000,0.613720947265625,8.548192024230957,-1.5292205810546875,7.91670560836792
1726407097674718200,0.62371826171875,9.113861083984375,0.04620436951518059,8.132773399353027
1726407097684714000,0.6337138671875,9.644999504089355,0.7437863945960999,8.191490173339844
1726407097694711000,0.6437109375,10.114034652709961,1.0720441341400146,7.991732597351074
1726407097704707000,0.65370703125,10.212696075439453,1.5050703287124634,7.513879776000977
1726407097714704100,0.6637041015625,9.85284423828125,1.477247953414917,6.865365982055664
1726407097724700000,0.673699951171875,9.259865760803223,1.364274501800537,6.477822303771973
1726407097734697200,0.683697265625,8.904465675354004,1.563032627105713,6.743843078613281
1726407097744693000,0.69369287109375,8.426101684570312,1.873539686203003,7.3130717277526855
1726407097754689000,0.70368896484375,7.40985631942749,2.1349475383758545,7.771297454833984
1726407097764686000,0.71368603515625,6.074885845184326,2.2961084842681885,8.09284782409668
1726407097774682000,0.72368212890625,4.705511093139648,2.601288080215454,7.942094326019287
1726407097784679000,0.733678955078125,3.2834420204162598,2.622131824493408,6.951876640319824
1726407097794675200,0.74367529296875,1.7942876815795898,2.80074405670166,5.361672878265381
1726407097804672000,0.753672119140625,0.4056946337223053,3.3764097690582275,3.5349514484405518
1726407097814668000,0.76366796875,-0.8476206064224243,3.9834530353546143,1.8695831298828125
1726407097824664000,0.7736640625,-2.0261263847351074,4.097344875335693,0.5120748281478882
1726407097834661000,0.7836611328125,-3.0083868503570557,3.9189980030059814,-0.5106309056282043
1726407097844657000,0.793656982421875,-3.6937005519866943,3.586484670639038,-1.1655770540237427
1726407097854654000,0.803654052734375,-4.1386003494262695,3.296180248260498,-1.6201382875442505
1726407097864650000,0.81364990234375,-4.185807704925537,1.9137617349624634,-2.484499931335449
1726407097874647000,0.82364697265625,-4.603569507598877,1.5275301933288574,-3.1576719284057617
1726407097884643000,0.83364306640625,-4.891470909118652,1.2624988555908203,-3.6464619636535645
1726407097894639000,0.84363916015625,-5.024100303649902,1.1499637365341187,-3.980914831161499
1726407097904636200,0.85363623046875,-5.098559379577637,1.1631360054016113,-4.2348527908325195
1726407097914632200,0.863632080078125,-4.954115867614746,1.1906746625900269,-4.450137138366699
1726407097924629000,0.87362890625,-4.304374694824219,1.4243323802947998,-4.160116672515869
1726407097934625000,0.883625,-3.7925076484680176,2.1057534217834473,-3.6571054458618164
1726407097944622000,0.8936220703125,-3.4521007537841797,2.1569266319274902,-3.1820857524871826
1726407097954617900,0.903617919921875,-3.4152653217315674,1.7550185918807983,-3.034712314605713
1726407097964614000,0.91361376953125,-3.5389351844787598,1.0053733587265015,-3.1639819145202637
1726407097974611000,0.92361083984375,-3.7433574199676514,0.41131827235221863,-3.446129322052002
1726407097984607000,0.93360693359375,-3.65623140335083,0.1206480860710144,-3.5989296436309814
1726407097994604000,0.94360400390625,-3.398077964782715,0.15597528219223022,-3.481250762939453
1726407098004599600,0.953599609375,-3.302354574203491,0.14051564037799835,-3.455822467803955
1726407098014596600,0.9635966796875,-3.042323112487793,-0.20823431015014648,-3.566650867462158
1726407098024592600,0.973592529296875,-2.597167491912842,-0.07600196450948715,-3.8053736686706543
1726407098034588700,0.983588623046875,-2.5026161670684814,-0.11888378858566284,-4.3448920249938965
1726407098044585700,0.993585693359375,-2.5046563148498535,0.44960150122642517,-4.841007232666016
1726407098054581800,1.003581787109375,-2.295426607131958,1.5514729022979736,-4.203416347503662
1726407098064578600,1.01357861328125,-2.1063883304595947,1.85568368434906,-3.5897343158721924
1726407098074574600,1.02357470703125,-2.3928189277648926,1.2848960161209106,-3.0199484825134277
1726407098084571600,1.033571533203125,-2.8325753211975098,0.0031238803640007973,-2.3592779636383057
1726407098094567400,1.0435673828125,-3.2457783222198486,-1.1408073902130127,-1.705605149269104
1726407098104563700,1.053563720703125,-2.9765074253082275,-2.2858736515045166,-0.9497448801994324
1726407098114560500,1.063560546875,-2.422884225845337,-3.1654505729675293,-0.11483411490917206
1726407098124556500,1.073556640625,-1.5769954919815063,-3.6984736919403076,0.5222808122634888
1726407098134553600,1.0835537109375,-0.9964910745620728,-4.1625566482543945,0.6575282216072083
1726407098144549600,1.093549560546875,-0.6631812453269958,-3.8901748657226562,0.3915167450904846
1726407098154546400,1.10354638671875,-0.21365053951740265,-3.133120059967041,-0.05694873631000519
1726407098164542700,1.113542724609375,1.2789585590362549,-1.362991213798523,-0.5456430315971375
1726407098174538500,1.12353857421875,2.615262508392334,1.8655273914337158,-1.6880242824554443
1726407098184535600,1.13353564453125,3.29008412361145,3.882755994796753,-3.3010196685791016
1726407098194531600,1.143531494140625,3.4924209117889404,4.305315971374512,-5.171928405761719
1726407098204528600,1.153528564453125,3.371396780014038,3.8427205085754395,-7.051472187042236
1726407098214524400,1.1635244140625,3.177018642425537,3.2762796878814697,-8.24043083190918
1726407098224520700,1.173520751953125,2.7326066493988037,2.6340103149414062,-8.406217575073242
1726407098234517500,1.183517578125,2.1966521739959717,2.0376498699188232,-7.514140605926514
1726407098244513500,1.193513427734375,2.0368168354034424,1.5103726387023926,-6.2459235191345215
1726407098254510600,1.203510498046875,2.1486690044403076,1.309125542640686,-5.352019786834717
1726407098264506600,1.213506591796875,2.267789125442505,1.0059586763381958,-4.637452125549316
1726407098274503700,1.223503662109375,2.4288275241851807,0.6294884085655212,-3.6675169467926025
1726407098284499700,1.233499755859375,2.794109582901001,0.06714914739131927,-2.493847608566284
1726407098294495500,1.24349560546875,3.080679416656494,-0.38170668482780457,-1.7137435674667358
1726407098304492800,1.253492919921875,3.3339483737945557,-1.7075272798538208,-1.3833086490631104
1726407098314488600,1.263488525390625,3.545445203781128,-2.8560657501220703,-1.2631829977035522
1726407098324485600,1.273485595703125,3.4527883529663086,-3.0449929237365723,-1.237202525138855
1726407098334481700,1.283481689453125,2.7485575675964355,-2.746659517288208,-1.405796766281128
1726407098344478700,1.293478759765625,1.8911643028259277,-1.6464061737060547,-1.2522988319396973
1726407098354474500,1.303474609375,1.0764985084533691,0.2983943521976471,-1.019850492477417
1726407098364470800,1.313470703125,0.22862055897712708,2.4626214504241943,-1.0031646490097046
1726407098374467600,1.323467529296875,-0.3350275158882141,4.223505973815918,-1.147887945175171
1726407098384463600,1.333463623046875,-0.36289456486701965,4.974479675292969,-1.152256965637207
1726407098394460700,1.343460693359375,-0.023733438923954964,4.16443395614624,-0.6969385743141174
1726407098404456700,1.353456787109375,0.3053853213787079,2.900455951690674,-0.339112788438797
1726407098414453500,1.36345361328125,0.46396735310554504,1.9771283864974976,-0.46703583002090454
1726407098424449800,1.37344970703125,0.5489117503166199,1.9464069604873657,-0.945196807384491
1726407098434445600,1.383445556640625,0.6588513851165771,2.478238344192505,-1.504687786102295
1726407098444442600,1.393442626953125,0.6277211904525757,3.127967357635498,-1.9547334909439087
1726407098454438700,1.403438720703125,0.7230486869812012,3.5181732177734375,-2.170942783355713
1726407098464435500,1.413435546875,1.692748785018921,3.5540518760681152,-2.4284627437591553
1726407098474431500,1.423431396484375,2.3395333290100098,3.259507417678833,-2.6239986419677734
1726407098484428500,1.433428466796875,2.5407235622406006,3.4185400009155273,-2.6746835708618164
1726407098494424600,1.443424560546875,2.4711825847625732,3.987497091293335,-2.6563236713409424
1726407098504420600,1.453420654296875,2.038311719894409,4.701115131378174,-2.3381402492523193
1726407098514417700,1.463417724609375,1.4824788570404053,5.468629837036133,-1.6927056312561035
1726407098524413700,1.47341357421875,1.8974627256393433,5.194972991943359,-1.2623467445373535
1726407098534410800,1.48341064453125,2.5160317420959473,4.306842803955078,-1.0160259008407593
1726407098544406500,1.493406494140625,3.017777919769287,3.6687655448913574,-0.9883902072906494
1726407098554403600,1.503403564453125,3.530285120010376,3.4231953620910645,-1.1491053104400635
1726407098564399600,1.513399658203125,3.993244171142578,3.347598075866699,-1.5691149234771729
1726407098574395600,1.523395751953125,4.452234268188477,3.6252474784851074,-2.2572858333587646
1726407098584392400,1.533392333984375,4.65557336807251,4.176306247711182,-3.022298574447632
1726407098594388700,1.543388671875,4.6297712326049805,4.581160545349121,-3.646885395050049
1726407098604385500,1.553385498046875,4.524965763092041,4.547759532928467,-3.9858295917510986
1726407098614381600,1.563381591796875,4.296970844268799,3.1357693672180176,-3.6910886764526367
1726407098624378600,1.573378662109375,3.7186131477355957,1.4573562145233154,-2.905663013458252
1726407098634374700,1.583374755859375,2.554649591445923,0.8067567944526672,-2.09450101852417
1726407098644370400,1.593370361328125,1.0739009380340576,1.5973355770111084,-1.5725651979446411
1726407098654367700,1.60336767578125,-0.0878465548157692,2.0988032817840576,-1.6344337463378906
1726407098664363500,1.613363525390625,-0.6507035493850708,2.3711178302764893,-2.034409284591675
1726407098674360600,1.623360595703125,-0.7072547674179077,1.9215418100357056,-2.3826751708984375
1726407098684356600,1.633356689453125,-0.5012843012809753,1.0914376974105835,-2.5740270614624023
1726407098694352600,1.6433525390625,-0.23323306441307068,0.5411422252655029,-2.6264586448669434
1726407098704349400,1.653349365234375,-0.09469275921583176,0.37017399072647095,-2.4660592079162598
1726407098714345700,1.663345703125,-0.03868456184864044,0.40359827876091003,-2.180661678314209
1726407098724342500,1.673342529296875,0.27648457884788513,0.8916880488395691,-2.0979344844818115
1726407098734338600,1.683338623046875,0.6315805912017822,1.448106050491333,-2.020808696746826
1726407098744335600,1.693335693359375,0.7459233999252319,1.0852866172790527,-1.5097616910934448
1726407098754331600,1.70333154296875,0.6174592971801758,-0.0849035382270813,-0.7873325943946838
1726407098764327400,1.713327392578125,0.3579244315624237,-1.1978065967559814,-0.1785113662481308
1726407098774324700,1.72332470703125,0.16881145536899567,-2.2168920040130615,0.0956171452999115
1726407098784320500,1.733320556640625,0.12712526321411133,-3.1487667560577393,0.13575391471385956
1726407098794317800,1.74331787109375,0.08234535157680511,-4.01167106628418,0.1368134766817093
1726407098804313600,1.753313720703125,-0.016960201784968376,-4.909932613372803,0.14930769801139832
1726407098814310700,1.763310546875,-0.07975787669420242,-5.8533148765563965,0.1931684911251068
1726407098824306700,1.773306640625,-0.044622257351875305,-7.0959367752075195,0.28629499673843384
1726407098834302700,1.783302734375,0.04660946503281593,-8.58157730102539,0.46892300248146057
1726407098844299500,1.793299560546875,0.11028218269348145,-9.655370712280273,0.48481833934783936
1726407098854295800,1.8032958984375,0.0620633102953434,-10.574797630310059,0.3477652966976166
1726407098864292600,1.813292724609375,-0.04377071186900139,-11.400415420532227,0.11813636124134064
1726407098874288600,1.82328857421875,-0.08163004368543625,-12.13729190826416,-0.21659617125988007
1726407098884284400,1.833284423828125,-0.06647612899541855,-12.706491470336914,-0.5696349143981934
1726407098894281700,1.84328173828125,0.013708637095987797,-12.905415534973145,-0.8424407243728638
1726407098904277500,1.853277587890625,0.24278202652931213,-12.587922096252441,-1.07735013961792
1726407098914274800,1.86327490234375,0.478494793176651,-11.594484329223633,-1.2599347829818726
1726407098924270600,1.8732705078125,0.492991179227829,-9.800844192504883,-1.233422040939331
1726407098934267600,1.883267578125,0.3442544639110565,-7.840661525726318,-1.012939453125
1726407098944263700,1.893263671875,0.11221323162317276,-6.293549060821533,-0.7028159499168396
1726407098954259700,1.903259765625,-0.17132343351840973,-5.109090805053711,-0.154109388589859
1726407098964256500,1.913256591796875,-0.2042374461889267,-4.336280822753906,0.24489286541938782
1726407098974252800,1.923252685546875,-0.03819188103079796,-4.357848167419434,0.3918343782424927
1726407098984249600,1.93324951171875,0.21247389912605286,-4.561368465423584,0.321836918592453
1726407098994245600,1.94324560546875,0.5297195911407471,-3.4616541862487793,-0.05779208987951279
1726407099004242400,1.953242431640625,0.5943281650543213,-1.617622971534729,-0.5206526517868042
1726407099014238700,1.96323876953125,0.380059152841568,0.06244025379419327,-0.6327640414237976
1726407099024234500,1.973234375,0.2248610407114029,1.004774808883667,-0.6413655281066895
1726407099034231600,1.9832314453125,0.37045153975486755,1.5112451314926147,-0.6501356959342957
1726407099044227600,1.9932275390625,0.585710883140564,1.7306275367736816,-0.7281090617179871
1726407099054224400,2.003224365234375,0.7106099128723145,1.622475028038025,-0.8959216475486755
1726407099064220400,2.013220458984375,0.7959064245223999,1.1873581409454346,-1.054659366607666
1726407099074216700,2.023216796875,0.8688421845436096,0.6316471099853516,-1.2514736652374268
1726407099084213500,2.033213623046875,0.8103727698326111,0.11662159860134125,-1.459821343421936
1726407099094209500,2.04320947265625,0.6527126431465149,-0.23426619172096252,-1.596709966659546
1726407099104206600,2.05320654296875,0.46152833104133606,-0.3840154707431793,-1.7173314094543457
1726407099114202600,2.06320263671875,0.26857540011405945,-0.46417510509490967,-1.7825770378112793
1726407099124199700,2.07319970703125,0.0970127061009407,-0.4019213020801544,-1.8684210777282715
1726407099134195500,2.083195556640625,-0.059908557683229446,-0.33301252126693726,-1.8861255645751953
1726407099144191500,2.09319140625,-0.20483459532260895,-0.46955278515815735,-1.845959186553955
1726407099154188500,2.1031884765625,-0.27609023451805115,-0.7668837904930115,-1.702689290046692
1726407099164184600,2.1131845703125,-0.32914066314697266,-0.9732944369316101,-1.5870542526245117
1726407099174181400,2.123181396484375,-0.3612615168094635,-1.111063838005066,-1.4930107593536377
1726407099184177700,2.133177734375,-0.4223232865333557,-1.3311035633087158,-1.3493603467941284
1726407099194174500,2.143174560546875,-0.48774880170822144,-1.6057367324829102,-1.2062773704528809
1726407099204170500,2.15317041015625,-0.48136094212532043,-1.7044926881790161,-1.0553779602050781
1726407099214166500,2.16316650390625,-0.4562069773674011,-1.619152545928955,-0.8968876004219055
1726407099224163600,2.17316357421875,-0.41791072487831116,-1.4746025800704956,-0.7474626898765564
1726407099234159400,2.183159423828125,-0.3898563086986542,-1.355404019355774,-0.6303382515907288
1726407099244156700,2.19315673828125,-0.35843899846076965,-1.2462191581726074,-0.5102970600128174
1726407099254152400,2.20315234375,-0.29361283779144287,-1.1208209991455078,-0.3855150043964386
1726407099264148500,2.2131484375,-0.20604541897773743,-0.9964014887809753,-0.2385266125202179
1726407099274145500,2.2231455078125,-0.021993080154061317,-0.8983511328697205,-0.024981996044516563
1726407099284141600,2.2331416015625,0.11065550893545151,-0.8408910632133484,0.14152655005455017
1726407099294138400,2.243138427734375,0.23623208701610565,-0.7804085612297058,0.32899391651153564
1726407099304134700,2.253134765625,0.361527681350708,-0.5581158399581909,0.5460708141326904
1726407099314131500,2.26313134765625,0.42500385642051697,-0.11785057187080383,0.8051002621650696
1726407099324127500,2.27312744140625,0.4990794360637665,0.42316633462905884,1.0992002487182617
1726407099334123500,2.28312353515625,0.4428648054599762,0.8427447080612183,1.412711501121521
1726407099344120600,2.29312060546875,0.32278314232826233,1.23409104347229,1.7307236194610596
1726407099354116400,2.303116455078125,0.18927988409996033,1.5976799726486206,2.0382070541381836
1726407099364113700,2.31311376953125,0.05916794389486313,1.8759480714797974,2.2634356021881104
1726407099374109400,2.323109375,0.002747648162767291,2.0299434661865234,2.3586907386779785
1726407099384105500,2.33310546875,0.026350712403655052,1.999546766281128,2.303752899169922
1726407099394102500,2.3431025390625,0.10705779492855072,1.574669361114502,2.089998245239258
1726407099404098600,2.3530986328125,0.16586624085903168,0.8134130835533142,1.6980950832366943
1726407099414095600,2.363095703125,0.23701459169387817,-0.11144321411848068,1.0923811197280884
1726407099424091600,2.373091552734375,0.17811106145381927,-0.9746964573860168,0.4785521328449249
1726407099434088400,2.38308837890625,0.03858538344502449,-1.6476387977600098,-0.08557946979999542
1726407099444084700,2.393084716796875,0.05488153174519539,-1.8949893712997437,-0.5552031397819519
1726407099454080500,2.40308056640625,0.17318929731845856,-1.8407469987869263,-0.9411101341247559
1726407099464077600,2.41307763671875,0.27065593004226685,-1.5879658460617065,-1.2099405527114868
1726407099474073600,2.423073486328125,0.33532631397247314,-1.3208717107772827,-1.3807165622711182
1726407099484070700,2.433070556640625,0.3600199222564697,-1.188181757926941,-1.5047900676727295
1726407099494066400,2.44306640625,0.3468456566333771,-1.2026417255401611,-1.6195025444030762
1726407099504063500,2.4530634765625,0.2959750294685364,-1.3262028694152832,-1.704560399055481
1726407099514059500,2.4630595703125,0.24009251594543457,-1.4994314908981323,-1.7264577150344849
1726407099524055600,2.4730556640625,0.19355323910713196,-1.6551518440246582,-1.6078500747680664
1726407099534052600,2.483052490234375,0.149839386343956,-1.6923052072525024,-1.2977948188781738
1726407099544048600,2.493048583984375,0.1346156895160675,-1.6489521265029907,-0.9606508612632751
1726407099554045400,2.50304541015625,0.1359795778989792,-1.54131281375885,-0.6469064354896545
1726407099564041700,2.513041748046875,0.13458168506622314,-1.3947244882583618,-0.4061603844165802
1726407099574037500,2.52303759765625,0.1117117777466774,-1.1885427236557007,-0.26578351855278015
1726407099584034600,2.53303466796875,0.10292360931634903,-0.8297989368438721,-0.14074279367923737
1726407099594030600,2.543030517578125,0.08546321094036102,-0.4567206799983978,-0.056143924593925476
1726407099604027400,2.55302734375,0.06742508709430695,-0.16499347984790802,0.0074710058979690075
1726407099614023400,2.5630234375,0.08237601816654205,0.027237722650170326,0.04697089269757271
1726407099624020500,2.5730205078125,0.11307826638221741,0.12479596585035324,0.05016162618994713
1726407099634016500,2.5830166015625,0.1626749038696289,0.21833504736423492,0.02344946563243866
1726407099644012500,2.593012451171875,0.1798669397830963,0.4000672996044159,0.02075301483273506
1726407099654009600,2.603009521484375,0.15185289084911346,0.58700031042099,0.06264341622591019
1726407099664005600,2.613005615234375,0.127961665391922,0.7216334939002991,0.15821866691112518
1726407099674002700,2.623002685546875,0.13120117783546448,0.7529575824737549,0.26631423830986023
1726407099683998500,2.63299853515625,0.14710478484630585,0.7612519860267639,0.3188389539718628
1726407099693994500,2.642994384765625,0.15546293556690216,0.9217818975448608,0.3633132576942444
1726407099703991300,2.6529912109375,0.19184383749961853,1.0644309520721436,0.37870630621910095
1726407099713987600,2.662987548828125,0.23601174354553223,1.1395689249038696,0.3916929066181183
1726407099723984400,2.672984375,0.24534852802753448,1.1517367362976074,0.41251322627067566
1726407099733980400,2.68298046875,0.21723665297031403,1.1365309953689575,0.43203863501548767
1726407099743977500,2.6929775390625,0.1876358836889267,1.1452637910842896,0.43699583411216736
1726407099753973500,2.702973388671875,0.1873176097869873,1.1902515888214111,0.43828779458999634
1726407099763969500,2.712969482421875,0.2268218696117401,1.2288378477096558,0.4357958734035492
1726407099773966600,2.722966552734375,0.2647688388824463,1.251732349395752,0.4280250370502472
1726407099783962400,2.73296240234375,0.2868163585662842,1.2489293813705444,0.41937240958213806
1726407099793959700,2.742959716796875,0.28581327199935913,1.1912797689437866,0.4243927299976349
1726407099803955500,2.75295556640625,0.27433452010154724,1.0926176309585571,0.409324586391449
1726407099813951500,2.762951416015625,0.25414586067199707,0.967841386795044,0.3515506088733673
1726407099823948500,2.772948486328125,0.22911614179611206,0.8344430923461914,0.2547348439693451
1726407099833944600,2.782944580078125,0.21500469744205475,0.668688952922821,0.1053648516535759
1726407099843941400,2.79294140625,0.21951022744178772,0.5073157548904419,-0.0902954638004303
1726407099853937700,2.802937744140625,0.2323741614818573,0.3976166844367981,-0.3262738287448883
1726407099863934500,2.8129345703125,0.2263527512550354,0.3087770938873291,-0.5546873211860657
1726407099873930500,2.822930419921875,0.19593438506126404,0.24159997701644897,-0.7370301485061646
1726407099883926500,2.832926513671875,0.13647985458374023,0.1111716628074646,-0.8403059244155884
1726407099893923600,2.842923583984375,0.06520084291696548,-0.03310850262641907,-0.8752390742301941
1726407099903919400,2.85291943359375,0.00037097680615261197,-0.1369193196296692,-0.8679260611534119
1726407099913916700,2.862916748046875,-0.045313071459531784,-0.24070289731025696,-0.8356564044952393
1726407099923912400,2.872912353515625,-0.06995689868927002,-0.34605300426483154,-0.7928956747055054
1726407099933908500,2.882908447265625,-0.08881865441799164,-0.4493996202945709,-0.726977527141571
1726407099943905500,2.892905517578125,-0.09303230792284012,-0.5074054002761841,-0.6454110145568848
1726407099953901600,2.902901611328125,-0.08294704556465149,-0.49441978335380554,-0.5531402230262756
1726407099963898400,2.9128984375,-0.06251048296689987,-0.44838252663612366,-0.4174649715423584
1726407099973894700,2.922894775390625,-0.024318505078554153,-0.33773139119148254,-0.2834192216396332
1726407099983891500,2.932891357421875,-0.0023458274081349373,-0.18741750717163086,-0.14369860291481018
1726407099993887500,2.942887451171875,0.003301742486655712,-0.03000066801905632,-0.007727059535682201
1726407100003884000,2.952884033203125,0.035242632031440735,0.09356334805488586,0.10247375071048737
1726407100013881000,2.962881103515625,0.0820985808968544,0.18051379919052124,0.19359850883483887
1726407100023877000,2.972877197265625,0.1340448558330536,0.23340977728366852,0.2728685438632965
1726407100033874200,2.982874267578125,0.15841969847679138,0.23250658810138702,0.33728811144828796
1726407100043870200,2.9928701171875,0.14916200935840607,0.19546549022197723,0.36165177822113037
1726407100053866200,3.0028662109375,0.10128256678581238,0.09692342579364777,0.3602449893951416
1726407100063863000,3.012863037109375,0.06256259977817535,-0.04378975182771683,0.33104076981544495
1726407100073859300,3.022859375,0.042435962706804276,-0.1580680012702942,0.2906383275985718
1726407100083856100,3.032856201171875,0.026548605412244797,-0.25954481959342957,0.2538193166255951
1726407100093852200,3.04285205078125,0.013890547677874565,-0.36595526337623596,0.22767889499664307
1726407100103849200,3.05284912109375,-0.015782659873366356,-0.46794766187667847,0.1859769970178604
1726407100113845000,3.062844970703125,-0.04112638905644417,-0.5791023373603821,0.11114515364170074
1726407100123841000,3.072841064453125,-0.0523071363568306,-0.6575753092765808,0.026486722752451897
1726407100133838000,3.082838134765625,-0.0687456727027893,-0.7390257120132446,-0.033486802130937576
1726407100143834000,3.092834228515625,-0.0843704417347908,-0.7993713021278381,-0.07665850222110748
1726407100153831200,3.1028310546875,-0.09422408044338226,-0.8324301242828369,-0.0745115727186203
1726407100163827200,3.1128271484375,-0.0889986902475357,-0.8277608156204224,-0.07768606394529343
1726407100173823200,3.1228232421875,-0.0779210701584816,-0.7627575993537903,-0.09162063896656036
1726407100183820300,3.1328203125,-0.07200618833303452,-0.7106313109397888,-0.09989134967327118
1726407100193816000,3.142816162109375,-0.06484167277812958,-0.6608498692512512,-0.12929202616214752
1726407100203813000,3.152813232421875,-0.054714467376470566,-0.6060063242912292,-0.12383787333965302
1726407100213809200,3.16280908203125,-0.034454453736543655,-0.5644286274909973,-0.09996505826711655
1726407100223806200,3.17280615234375,0.013011329807341099,-0.5466115474700928,-0.11689823120832443
1726407100233802000,3.182802001953125,0.07146264612674713,-0.45271795988082886,-0.1516343504190445
1726407100243798300,3.19279833984375,0.13636282086372375,-0.23925147950649261,-0.1595844179391861
1726407100253795000,3.202795166015625,0.18598106503486633,0.05173231288790703,-0.16802899539470673
1726407100263791000,3.212791015625,0.20679712295532227,0.29239046573638916,-0.15826398134231567
1726407100273788200,3.2227880859375,0.19333617389202118,0.4401680529117584,-0.11630049347877502
1726407100283784200,3.2327841796875,0.18061664700508118,0.4886612594127655,-0.07399245351552963
1726407100293780000,3.242780029296875,0.16340482234954834,0.5205851197242737,-0.04002951830625534
1726407100303777300,3.25277734375,0.16363145411014557,0.5716876983642578,-0.041499316692352295
1726407100313773000,3.26277294921875,0.17165598273277283,0.5981214642524719,-0.050946690142154694
1726407100323770000,3.27277001953125,0.17191964387893677,0.6052499413490295,-0.08109419792890549
1726407100333766100,3.28276611328125,0.18018707633018494,0.6320309042930603,-0.12525084614753723
1726407100343762200,3.29276220703125,0.18668492138385773,0.7038332223892212,-0.17348629236221313
1726407100353759000,3.302759033203125,0.16858017444610596,0.810791015625,-0.19856488704681396
1726407100363755300,3.31275537109375,0.14323832094669342,0.9013280868530273,-0.21846988797187805
1726407100373752000,3.322751953125,0.12325605750083923,0.8840888142585754,-0.2407170534133911
1726407100383748000,3.332748046875,0.08024121075868607,0.8441224694252014,-0.2841137945652008
1726407100393745200,3.3427451171875,0.008757016621530056,0.7922616004943848,-0.3271227478981018
1726407100403741200,3.3527412109375,-0.06715931743383408,0.6802349090576172,-0.351946085691452
1726407100413737000,3.362737060546875,-0.10034734010696411,0.5233099460601807,-0.39991527795791626
1726407100423734300,3.372734375,-0.12774302065372467,0.3696412444114685,-0.40918439626693726
1726407100433730000,3.38272998046875,-0.1327276974916458,0.2768784761428833,-0.3743474781513214
1726407100443727400,3.392727294921875,-0.12636300921440125,0.23814652860164642,-0.2867390513420105
1726407100453723100,3.40272314453125,-0.128005713224411,0.2226911187171936,-0.17260833084583282
1726407100463719200,3.41271923828125,-0.12760891020298004,0.2364945411682129,-0.05547665059566498
1726407100473716200,3.42271630859375,-0.14819279313087463,0.2662581503391266,0.027896346524357796
1726407100483712300,3.432712158203125,-0.16046437621116638,0.31551864743232727,0.08808165788650513
1726407100493709000,3.442708984375,-0.17017774283885956,0.3395865261554718,0.13374881446361542
1726407100503705300,3.452705322265625,-0.1915368288755417,0.27536091208457947,0.17545710504055023
1726407100513702100,3.4627021484375,-0.21138779819011688,0.13373994827270508,0.2035316675901413
1726407100523698200,3.4726982421875,-0.23608648777008057,-0.032357145100831985,0.22765645384788513
1726407100533694200,3.482694091796875,-0.25967755913734436,-0.1023961529135704,0.2579730451107025
1726407100543691300,3.492691162109375,-0.26759859919548035,-0.06428392231464386,0.2807832956314087
1726407100553687000,3.50268701171875,-0.2833564877510071,-0.06424887478351593,0.3044717609882355
1726407100563684400,3.512684326171875,-0.31513333320617676,-0.15021172165870667,0.3045141100883484
1726407100573680000,3.52268017578125,-0.3226301074028015,-0.30483925342559814,0.28345271944999695
1726407100583676200,3.53267626953125,-0.32435342669487,-0.4188518524169922,0.2627596855163574
1726407100593673200,3.542673095703125,-0.3061855435371399,-0.4805891513824463,0.26260828971862793
1726407100603669200,3.552669189453125,-0.2887703478336334,-0.5159692764282227,0.259129136800766
1726407100613666000,3.562666015625,-0.2830032408237457,-0.5596952438354492,0.24613657593727112
1726407100623662300,3.572662353515625,-0.28421738743782043,-0.5494958758354187,0.22177104651927948
1726407100633658000,3.582658203125,-0.2921578288078308,-0.45429614186286926,0.20728184282779694
1726407100643655200,3.5926552734375,-0.2946507930755615,-0.3075096309185028,0.20628288388252258
1726407100653651200,3.602651123046875,-0.27530673146247864,-0.15043464303016663,0.20328374207019806
1726407100663648300,3.612648193359375,-0.2536264657974243,-0.037281978875398636,0.2195332795381546
1726407100673644000,3.62264404296875,-0.24821779131889343,-0.0051841349340975285,0.2585705816745758
1726407100683641000,3.63264111328125,-0.2160220444202423,-0.00887527596205473,0.32032421231269836
1726407100693637000,3.64263720703125,-0.15147772431373596,0.04387864097952843,0.3730708956718445
1726407100703633200,3.652633056640625,-0.09489326179027557,0.16556672751903534,0.41935691237449646
1726407100713630200,3.662630126953125,-0.07057201862335205,0.2616468369960785,0.4541267454624176
1726407100723626200,3.672626220703125,-0.054886266589164734,0.27473199367523193,0.4817485213279724
1726407100733623300,3.682623291015625,-0.04823852702975273,0.2551001310348511,0.4963775873184204
1726407100743619300,3.692619384765625,-0.03668732941150665,0.24505150318145752,0.4875108599662781
1726407100753615000,3.702614990234375,-0.011262563988566399,0.24701979756355286,0.4572470486164093
1726407100763612200,3.712612060546875,0.006463436409831047,0.20791687071323395,0.42458951473236084
1726407100773608200,3.722608154296875,0.017657065764069557,0.14987564086914062,0.3900741934776306
1726407100783605000,3.73260498046875,0.006394024472683668,0.1145690530538559,0.3475043773651123
1726407100793601300,3.742601318359375,-0.003523321356624365,0.09387629479169846,0.30672791600227356
1726407100803597300,3.752597412109375,0.0020554685033857822,0.0915934294462204,0.26699674129486084
1726407100813594000,3.762593994140625,0.016993092373013496,0.1004573404788971,0.2446129471063614
1726407100823590100,3.772590087890625,0.0444505475461483,0.0890483558177948,0.24230799078941345
1726407100833587200,3.782587158203125,0.0740676149725914,0.06796453148126602,0.25480878353118896
1726407100843583200,3.792583251953125,0.10393762588500977,0.033988453447818756,0.28221166133880615
1726407100853580300,3.802580322265625,0.1358705759048462,0.023034702986478806,0.32122549414634705
1726407100863576000,3.812576171875,0.1638164520263672,0.021690871566534042,0.3560684323310852
1726407100873572000,3.822572021484375,0.18526959419250488,0.04925205931067467,0.37490758299827576
1726407100883569200,3.832569091796875,0.20058169960975647,0.09109404683113098,0.36515986919403076
1726407100893565200,3.842565185546875,0.21685945987701416,0.12350314855575562,0.32710838317871094
1726407100903562000,3.85256201171875,0.23351460695266724,0.1520698219537735,0.25337159633636475
1726407100913558300,3.862558349609375,0.25394192337989807,0.18432481586933136,0.1513550877571106
1726407100923554300,3.87255419921875,0.2506957948207855,0.22411032021045685,0.0398101843893528
1726407100933551000,3.882551025390625,0.22739288210868835,0.2456815391778946,-0.04373696818947792
1726407100943547100,3.892547119140625,0.20355039834976196,0.2365913838148117,-0.08701146394014359
1726407100953544200,3.902544189453125,0.17660768330097198,0.18513822555541992,-0.10082224011421204
1726407100963540000,3.9125400390625,0.15320222079753876,0.09907364100217819,-0.08524700999259949
1726407100973536300,3.922536376953125,0.13079047203063965,0.023575415834784508,-0.050905726850032806
1726407100983533000,3.932532958984375,0.11160291731357574,-0.027284568175673485,-0.004104663152247667
1726407100993529000,3.942529052734375,0.09126643091440201,-0.0379771925508976,0.060440123081207275
1726407101003525400,3.952525390625,0.07787711918354034,-0.015141386538743973,0.14434434473514557
1726407101013521700,3.962521728515625,0.06410293281078339,0.005970994010567665,0.24761678278446198
1726407101023518500,3.9725185546875,0.042731862515211105,0.01953527145087719,0.35522764921188354
1726407101033514500,3.982514404296875,0.018218092620372772,0.020130448043346405,0.43917083740234375
1726407101043510800,3.9925107421875,-0.0036845437716692686,-0.012224295176565647,0.472251832485199
1726407101053507600,4.002507568359375,-0.021735599264502525,-0.06308034062385559,0.47341006994247437
1726407101063503600,4.012503662109375,-0.04319242015480995,-0.1343044489622116,0.47246065735816956
1726407101073500700,4.022500732421875,-0.06834090501070023,-0.1946330964565277,0.4753227233886719
1726407101083496400,4.032496337890625,-0.09128697216510773,-0.23309926688671112,0.48035022616386414
1726407101093492500,4.042492431640625,-0.11781362444162369,-0.2563631236553192,0.47486940026283264
1726407101103489500,4.052489501953125,-0.14370514452457428,-0.30955764651298523,0.45384907722473145
1726407101113485600,4.062485595703125,-0.16342081129550934,-0.4083656072616577,0.42812246084213257
1726407101123482600,4.072482666015625,-0.17027366161346436,-0.5314915180206299,0.3761924207210541
1726407101133478700,4.082478759765625,-0.171336829662323,-0.6489363312721252,0.30841076374053955
1726407101143474700,4.092474609375,-0.16141416132450104,-0.7189851999282837,0.24161015450954437
1726407101153471700,4.1024716796875,-0.1436089426279068,-0.782157301902771,0.1918109655380249
1726407101163467500,4.112467529296875,-0.13600561022758484,-0.8081063628196716,0.14756254851818085
1726407101173464600,4.122464599609375,-0.14330068230628967,-0.8193029761314392,0.08590076118707657
1726407101183460600,4.132460693359375,-0.15843036770820618,-0.8494129180908203,0.013813779689371586
1726407101193457700,4.142457763671875,-0.1654549539089203,-0.8960423469543457,-0.046489864587783813
1726407101203453400,4.152453369140625,-0.16443389654159546,-0.9255139827728271,-0.08788417279720306
1726407101213449700,4.16244970703125,-0.16431187093257904,-0.9074322581291199,-0.12042061984539032
1726407101223446500,4.172446533203125,-0.15127116441726685,-0.8670752644538879,-0.1687021255493164
1726407101233442600,4.182442626953125,-0.14605236053466797,-0.8192605376243591,-0.2018495798110962
1726407101243439600,4.192439697265625,-0.13924665749073029,-0.7478803396224976,-0.22223421931266785
1726407101253435600,4.202435546875,-0.13154780864715576,-0.657660722732544,-0.21385440230369568
1726407101263431400,4.212431396484375,-0.12282063066959381,-0.5785121321678162,-0.18352845311164856
1726407101273428700,4.2224287109375,-0.11361085623502731,-0.47384941577911377,-0.15178921818733215
1726407101283424500,4.232424560546875,-0.11079323291778564,-0.35154375433921814,-0.1293315887451172
1726407101293421600,4.242421630859375,-0.11445669084787369,-0.27922558784484863,-0.12278018146753311
1726407101303417600,4.25241748046875,-0.12394207715988159,-0.264885276556015,-0.10676632821559906
1726407101313413600,4.26241357421875,-0.1283569484949112,-0.24658755958080292,-0.07254306972026825
1726407101323410400,4.272410400390625,-0.12085536122322083,-0.19975002110004425,-0.04674263671040535
1726407101333406700,4.28240673828125,-0.11244113743305206,-0.10460366308689117,-0.049926359206438065
1726407101343403500,4.292403564453125,-0.10945414006710052,0.003942521754652262,-0.06288716197013855
1726407101353399600,4.302399658203125,-0.11226339638233185,0.10755272209644318,-0.07101162523031235
1726407101363396600,4.312396728515625,-0.10310877859592438,0.19852711260318756,-0.0632125586271286
1726407101373392600,4.322392578125,-0.07727063447237015,0.2606920301914215,-0.01812022365629673
1726407101383388400,4.332388427734375,-0.04572682827711105,0.33941665291786194,0.04005999118089676
1726407101393385700,4.3423857421875,-0.010930663906037807,0.4523748755455017,0.10599993914365768
1726407101403381500,4.352381591796875,0.027754681184887886,0.5367646217346191,0.13301131129264832
1726407101413378800,4.36237890625,0.05480685830116272,0.5419416427612305,0.12172552198171616
1726407101423374600,4.37237451171875,0.06117634102702141,0.47722625732421875,0.06686733663082123
1726407101433370600,4.38237060546875,0.06367228180170059,0.3951941728591919,-0.0259859561920166
1726407101443367700,4.39236767578125,0.06385337561368942,0.3411006033420563,-0.14189204573631287
1726407101453363700,4.40236376953125,0.06261127442121506,0.2734876871109009,-0.26207175850868225
1726407101463360500,4.412360595703125,0.04779291898012161,0.2234594076871872,-0.35174065828323364
1726407101473356800,4.422356689453125,0.02698982134461403,0.1498485803604126,-0.40693527460098267
1726407101483352600,4.4323525390625,0.009113617241382599,0.08217019587755203,-0.44629573822021484
1726407101493349600,4.442349609375,-0.01301279291510582,0.03886394575238228,-0.47096362709999084
1726407101503345700,4.452345703125,-0.031210172921419144,-0.021140269935131073,-0.5051035284996033
1726407101513342700,4.4623427734375,-0.061875127255916595,-0.0944206491112709,-0.5179383754730225
1726407101523338500,4.47233837890625,-0.09391108900308609,-0.19777366518974304,-0.5097414255142212
1726407101533334800,4.482334716796875,-0.1110549345612526,-0.29787492752075195,-0.5024230480194092
1726407101543331600,4.49233154296875,-0.11899834871292114,-0.3463846743106842,-0.4728963077068329
1726407101553327600,4.50232763671875,-0.13404878973960876,-0.366474986076355,-0.42942187190055847
1726407101563324700,4.51232470703125,-0.13380803167819977,-0.33702173829078674,-0.37007543444633484
1726407101573320700,4.52232080078125,-0.12244188040494919,-0.2570817470550537,-0.2924100160598755
1726407101583316500,4.53231640625,-0.11004246771335602,-0.13335314393043518,-0.194194495677948
1726407101593313800,4.542313720703125,-0.08483637869358063,-0.019930720329284668,-0.10031291842460632
1726407101603309600,4.5523095703125,-0.0665748119354248,0.12789683043956757,-0.02995966002345085
1726407101613306600,4.562306640625,-0.04430834576487541,0.2846919000148773,0.03374867141246796
1726407101623302700,4.572302734375,0.0025494443252682686,0.3980967700481415,0.10097111761569977
1726407101633299700,4.5822998046875,0.05070892721414566,0.5527190566062927,0.188848078250885
1726407101643295500,4.59229541015625,0.07603905349969864,0.6867836117744446,0.2865128815174103
1726407101653291800,4.602291748046875,0.06935475766658783,0.777219295501709,0.3602422773838043
1726407101663288600,4.61228857421875,0.06386784464120865,0.8069082498550415,0.3975805938243866
1726407101673284600,4.62228466796875,0.07296973466873169,0.7774001359939575,0.38239842653274536
1726407101683281700,4.63228173828125,0.07739164680242538,0.6940807700157166,0.346442312002182
1726407101693277700,4.642277587890625,0.06764556467533112,0.5586195588111877,0.3190348744392395
1726407101703273500,4.6522734375,0.058376967906951904,0.4572630524635315,0.2760314643383026
1726407101713270800,4.662270751953125,0.0611482672393322,0.39814963936805725,0.22720983624458313
1726407101723266600,4.6722666015625,0.0650671124458313,0.3788212239742279,0.16280768811702728
1726407101733263600,4.682263671875,0.07940775156021118,0.3049556016921997,0.1031293049454689
1726407101743259600,4.692259765625,0.09521467238664627,0.275461882352829,0.04756244644522667
1726407101753255700,4.702255615234375,0.10521715879440308,0.2546684145927429,-0.0034465091302990913
1726407101763252500,4.71225244140625,0.10844171047210693,0.22011098265647888,-0.042006153613328934
1726407101773248800,4.722248779296875,0.10181154310703278,0.13712860643863678,-0.060580722987651825
1726407101783245600,4.73224560546875,0.08029293268918991,0.07302019745111465,-0.07518762350082397
1726407101793241600,4.74224169921875,0.047999974340200424,0.0389573872089386,-0.0883806124329567
1726407101803237600,4.752237548828125,0.024312488734722137,-0.021427661180496216,-0.09010101854801178
1726407101813234700,4.762234619140625,0.022394394502043724,-0.05147772654891014,-0.07878800481557846
1726407101823230500,4.77223046875,0.015645146369934082,-0.018754666671156883,-0.06700325757265091
1726407101833227500,4.7822275390625,0.027612589299678802,0.000046428292989730835,-0.0564478300511837
1726407101843223600,4.7922236328125,0.042848799377679825,0.021617766469717026,-0.03834658861160278
1726407101853219600,4.802219482421875,0.037552718073129654,0.00838891789317131,-0.025850504636764526
1726407101863216600,4.812216552734375,0.008095757104456425,-0.042491305619478226,-0.010884604416787624
1726407101873212700,4.822212646484375,-0.01573084481060505,-0.05630670487880707,-0.0023676257114857435
1726407101883209700,4.832209716796875,-0.032978542149066925,-0.02501535974442959,-0.009593313559889793
1726407101893205800,4.842205810546875,-0.04571785405278206,-0.026031887158751488,-0.02205939218401909
1726407101903202600,4.85220263671875,-0.054302819073200226,-0.04847008362412453,-0.04666167497634888
1726407101913198600,4.862198486328125,-0.05981187894940376,-0.03654354065656662,-0.07458457350730896
1726407101923194600,4.872194580078125,-0.06982749700546265,-0.02721208706498146,-0.11004376411437988
1726407101933191400,4.88219140625,-0.09005212783813477,-0.05663691833615303,-0.15239590406417847
1726407101943187700,4.892187744140625,-0.1134842187166214,-0.051364392042160034,-0.1817505955696106
1726407101953184500,4.9021845703125,-0.13441646099090576,-0.035172730684280396,-0.18401896953582764
1726407101963180500,4.9121806640625,-0.16226619482040405,-0.03921407833695412,-0.1599663645029068
1726407101973176800,4.9221767578125,-0.18679167330265045,-0.04784945398569107,-0.12928244471549988
1726407101983173600,4.932173583984375,-0.19641660153865814,-0.062262751162052155,-0.09515216946601868
1726407101993169700,4.942169677734375,-0.1702079027891159,-0.06333120912313461,-0.06803319603204727
1726407102003166700,4.952166748046875,-0.15079665184020996,-0.01216682605445385,-0.04444478452205658
1726407102013162500,4.96216259765625,-0.15194766223430634,0.0268293097615242,-0.01484667882323265
1726407102023158500,4.972158447265625,-0.14855985343456268,0.08610567450523376,0.019075335934758186
1726407102033155300,4.9821552734375,-0.12813398241996765,0.1634908765554428,0.05547018349170685
1726407102043151400,4.9921513671875,-0.09054853022098541,0.261600136756897,0.10377593338489532
1726407102053148400,5.0021484375,-0.03666524961590767,0.36689385771751404,0.1436140239238739
1726407102063144400,5.01214453125,-0.004803991876542568,0.46267470717430115,0.1681113839149475
1726407102073140500,5.022140380859375,0.0068636671639978886,0.534299373626709,0.19560541212558746
1726407102083137500,5.032137451171875,0.006144347134977579,0.5718201398849487,0.1942400187253952
1726407102093133600,5.042133544921875,0.0021038271952420473,0.5461764931678772,0.17482629418373108
1726407102103130600,5.052130615234375,-0.0016493656439706683,0.4605816602706909,0.12526780366897583
1726407102113126400,5.06212646484375,-0.012729363515973091,0.3014378249645233,0.05032628774642944
1726407102123122400,5.072122314453125,-0.020274363458156586,0.1314362734556198,-0.04773156717419624
1726407102133119500,5.082119384765625,-0.02232867106795311,0.03347865492105484,-0.17298361659049988
1726407102143115500,5.092115478515625,-0.030439326539635658,-0.01502150483429432,-0.28364408016204834
1726407102153112300,5.1021123046875,-0.047833651304244995,-0.12723331153392792,-0.3783060610294342
1726407102163108600,5.112108642578125,-0.07454196363687515,-0.2803589701652527,-0.4615437090396881
1726407102173105400,5.12210546875,-0.09385214000940323,-0.4340783655643463,-0.5481358766555786
1726407102183101400,5.132101318359375,-0.09561728686094284,-0.5354260206222534,-0.6214169859886169
1726407102193097500,5.142097412109375,-0.090242899954319,-0.5902784466743469,-0.669079065322876
1726407102203094500,5.152094482421875,-0.08893821388483047,-0.5924177765846252,-0.6728439927101135
1726407102213090300,5.16209033203125,-0.08914847671985626,-0.5797255635261536,-0.6396405100822449
1726407102223087600,5.172087646484375,-0.08376303315162659,-0.5444788932800293,-0.5975567102432251
1726407102233083400,5.18208349609375,-0.07068760693073273,-0.5203232169151306,-0.5280861854553223
1726407102243079400,5.192079345703125,-0.05074026808142662,-0.5387032628059387,-0.4237675070762634
1726407102253076500,5.202076416015625,-0.02807508409023285,-0.5272940397262573,-0.31648966670036316
1726407102263072500,5.212072509765625,-0.02117590233683586,-0.46950584650039673,-0.22128459811210632
1726407102273069300,5.2220693359375,-0.02364400587975979,-0.4667215943336487,-0.1651187688112259
1726407102283065600,5.232065673828125,-0.03351607918739319,-0.5086522102355957,-0.16777794063091278
1726407102293061400,5.242061279296875,-0.04680710658431053,-0.5683766007423401,-0.21304050087928772
1726407102303058400,5.252058349609375,-0.05094033107161522,-0.6470143795013428,-0.2673642039299011
1726407102313054500,5.262054443359375,-0.04463661462068558,-0.7343440651893616,-0.3147711753845215
1726407102323051500,5.272051513671875,-0.016518158838152885,-0.7546173930168152,-0.3299301564693451
1726407102333047300,5.28204736328125,0.005386298522353172,-0.7439821362495422,-0.29903337359428406
1726407102343043600,5.292043701171875,0.01976044289767742,-0.7456868290901184,-0.2296268790960312
1726407102353040400,5.302040283203125,0.032746996730566025,-0.7000032663345337,-0.12491600960493088
1726407102363036400,5.312036376953125,0.053986504673957825,-0.6017496585845947,0.016819549724459648
1726407102373033500,5.322033447265625,0.07572584599256516,-0.48554861545562744,0.166270911693573
1726407102383029500,5.332029541015625,0.10176117718219757,-0.37736862897872925,0.29410797357559204
1726407102393025300,5.342025390625,0.13301973044872284,-0.2979930639266968,0.39729246497154236
1726407102403022600,5.352022705078125,0.17034128308296204,-0.227370023727417,0.457918256521225
1726407102413018400,5.362018310546875,0.20877207815647125,-0.16045185923576355,0.4793185293674469
1726407102423015700,5.372015625,0.2144661843776703,-0.10102448612451553,0.4610998332500458
1726407102433011500,5.382011474609375,0.19342680275440216,-0.08397530764341354,0.3846657872200012
1726407102443007500,5.392007568359375,0.17923402786254883,-0.08474709093570709,0.25257590413093567
1726407102453004500,5.402004638671875,0.15242259204387665,-0.09635058045387268,0.1007915660738945
1726407102463000600,5.41200048828125,0.12173019349575043,-0.1887073963880539,-0.037943679839372635
1726407102472997400,5.421997314453125,0.09820502996444702,-0.3540920317173004,-0.1704239845275879
1726407102482993700,5.43199365234375,0.07567548751831055,-0.47551193833351135,-0.28923532366752625
1726407102492989400,5.441989501953125,0.04858586564660072,-0.5217581391334534,-0.3594704568386078
1726407102502986500,5.451986572265625,0.022343609482049942,-0.5221384763717651,-0.38840994238853455
1726407102512982500,5.461982421875,0.013006864115595818,-0.49468398094177246,-0.37529391050338745
1726407102522979600,5.4719794921875,0.014315009117126465,-0.4441819190979004,-0.31344547867774963
1726407102532975400,5.481975341796875,0.0018523404141888022,-0.3980582356452942,-0.2122645080089569
1726407102542971400,5.491971435546875,-0.011205670423805714,-0.3620022237300873,-0.091737300157547
1726407102552968400,5.501968505859375,-0.022890176624059677,-0.2978872060775757,0.04735138639807701
1726407102562964500,5.511964599609375,-0.008066490292549133,-0.19796274602413177,0.18950587511062622
1726407102572961500,5.52196142578125,0.029088808223605156,-0.06669379770755768,0.3033848702907562
1726407102582957600,5.53195751953125,0.06246940791606903,0.06565278768539429,0.39353179931640625
1726407102592954400,5.541954345703125,0.08070605993270874,0.18894322216510773,0.47297364473342896
1726407102602950700,5.55195068359375,0.10325291007757187,0.2892988622188568,0.5314337611198425
1726407102612946400,5.561946533203125,0.1128738522529602,0.34282758831977844,0.548737645149231
1726407102622943500,5.571943603515625,0.12184124439954758,0.355077862739563,0.5136206746101379
1726407102632939500,5.581939453125,0.13855737447738647,0.36356616020202637,0.4273630380630493
1726407102642936600,5.5919365234375,0.16476793587207794,0.3543763756752014,0.3241617977619171
1726407102652932400,5.601932373046875,0.17997987568378448,0.3071649968624115,0.21254344284534454
1726407102662928600,5.6119287109375,0.19152149558067322,0.2801469564437866,0.12031924724578857
1726407102672925400,5.621925537109375,0.19440920650959015,0.27487537264823914,0.051244765520095825
1726407102682921500,5.63192138671875,0.20076270401477814,0.2536070942878723,-0.007174338214099407
1726407102692918500,5.64191845703125,0.20170436799526215,0.21814852952957153,-0.06191743165254593
1726407102702914600,5.65191455078125,0.1972086876630783,0.20813345909118652,-0.11015686392784119
1726407102712910300,5.661910400390625,0.18940307199954987,0.23268692195415497,-0.15054579079151154
1726407102722907600,5.67190771484375,0.17097187042236328,0.27266818284988403,-0.15969695150852203
1726407102732903400,5.6819033203125,0.16052667796611786,0.318919837474823,-0.1252571940422058
1726407102742900500,5.691900390625,0.1640029102563858,0.3412344455718994,-0.04162329062819481
1726407102752896500,5.701896484375,0.1816159337759018,0.3538527190685272,0.053150761872529984
1726407102762892500,5.711892578125,0.179082989692688,0.3649735450744629,0.11746583133935928
1726407102772889300,5.721889404296875,0.15346269309520721,0.3922668993473053,0.13522621989250183
1726407102782885600,5.7318857421875,0.09825350344181061,0.4100661277770996,0.11940757930278778
1726407102792882400,5.74188232421875,0.05668535456061363,0.40298938751220703,0.09296944737434387
1726407102802878500,5.75187841796875,0.048769641667604446,0.344493567943573,0.08492669463157654
1726407102812874500,5.76187451171875,0.0648755207657814,0.26694318652153015,0.07977824658155441
1726407102822871600,5.77187158203125,0.08706232160329819,0.23139318823814392,0.06311564147472382
1726407102832867300,5.781867431640625,0.07691015303134918,0.2625500559806824,0.02400962822139263
1726407102842864600,5.79186474609375,0.05613270774483681,0.31199511885643005,0.0076807220466434956
1726407102852860400,5.8018603515625,0.04658240079879761,0.3307686448097229,0.013676198199391365
1726407102862856400,5.8118564453125,0.05309542641043663,0.3344517946243286,0.011028217151761055
1726407102872853500,5.821853515625,0.06216336414217949,0.30288147926330566,0.008338677696883678
1726407102882849500,5.831849609375,0.07578835636377335,0.2854098081588745,0.0015201863134279847
1726407102892846600,5.8418466796875,0.08139700442552567,0.3131289482116699,-0.012435109354555607
1726407102902842600,5.851842529296875,0.07656043767929077,0.36009541153907776,-0.01747354492545128
1726407102912838400,5.86183837890625,0.07095946371555328,0.3714066445827484,0.011229387484490871
1726407102922835700,5.871835693359375,0.06850909441709518,0.37342214584350586,0.03295838460326195
1726407102932831500,5.88183154296875,0.05899905413389206,0.3498607873916626,0.056200895458459854
1726407102942828500,5.89182861328125,0.039484474807977676,0.28863978385925293,0.0626918151974678
1726407102952824600,5.901824462890625,0.009180224500596523,0.25008612871170044,0.044927213340997696
1726407102962820600,5.911820556640625,-0.001061227754689753,0.25278204679489136,0.030362650752067566
1726407102972817400,5.9218173828125,0.0058860769495368,0.27113524079322815,0.05011361464858055
1726407102982813700,5.931813720703125,0.011167657561600208,0.31735172867774963,0.09095878154039383
1726407102992810500,5.941810546875,-0.0051129478961229324,0.37644484639167786,0.11535447835922241
1726407103002806500,5.951806640625,-0.023191817104816437,0.39325207471847534,0.13942785561084747
1726407103012802800,5.961802734375,-0.017961718142032623,0.35792842507362366,0.14539511501789093
1726407103022800000,5.9717998046875,0.00516517274081707,0.3016614317893982,0.12624138593673706
1726407103032796000,5.9817958984375,0.014493641443550587,0.276974618434906,0.08998388797044754
1726407103042792700,5.991792724609375,0.0005221652099862695,0.29008641839027405,0.06366918981075287
1726407103052789000,6.0017890625,-0.012653391808271408,0.26501384377479553,0.05567510798573494
1726407103062785000,6.011784912109375,-0.016318168491125107,0.25315240025520325,0.04947633296251297
1726407103072781800,6.02178173828125,-0.024467092007398605,0.22958289086818695,0.04646386578679085
1726407103082777900,6.03177783203125,-0.01902092806994915,0.23510761559009552,0.03054455667734146
1726407103092775000,6.04177490234375,0.010148703120648861,0.268958181142807,0.024922307580709457
1726407103102770700,6.051770751953125,0.02485947124660015,0.29275912046432495,0.025850951671600342
1726407103112767000,6.06176708984375,0.030178913846611977,0.28775545954704285,0.03155774995684624
1726407103122763800,6.071763671875,0.03893299028277397,0.25441402196884155,0.028316151350736618
1726407103132759800,6.081759765625,0.050632674247026443,0.2470051646232605,0.005027835723012686
1726407103142756900,6.0917568359375,0.04364267736673355,0.22602584958076477,-0.02400248497724533
1726407103152753000,6.1017529296875,0.04697290435433388,0.2204410880804062,-0.06468616425991058
1726407103162749000,6.1117490234375,0.046358779072761536,0.21267130970954895,-0.0761830285191536
1726407103172746000,6.12174609375,0.04282902553677559,0.20155717432498932,-0.05396879091858864
1726407103182741800,6.13174169921875,0.04251397028565407,0.19949108362197876,-0.05260205641388893
1726407103192738800,6.14173876953125,0.03350061923265457,0.1809692531824112,-0.0693192183971405
1726407103202734800,6.15173486328125,0.019380535930395126,0.13254180550575256,-0.07374086230993271
1726407103212731000,6.16173095703125,0.01972714066505432,0.07833623886108398,-0.08584784716367722
1726407103222727700,6.171727783203125,0.03482433408498764,0.05437817424535751,-0.10969804972410202
1726407103232724000,6.181723876953125,0.04840189591050148,0.050706036388874054,-0.1295558363199234
1726407103242720800,6.191720703125,0.03286581486463547,0.05199793726205826,-0.13937412202358246
1726407103252716800,6.201716796875,0.02855009213089943,0.07534261792898178,-0.13365991413593292
1726407103262712800,6.211712890625,0.01639222912490368,0.09942105412483215,-0.09647312015295029
1726407103272710000,6.2217099609375,0.0004631939809769392,0.11120513826608658,-0.0565456785261631
1726407103282705700,6.23170556640625,-0.01270507276058197,0.0665159597992897,-0.029548952355980873
1726407103292703000,6.241702880859375,-0.003992232959717512,-0.014024795033037663,-0.008309516124427319
1726407103302698800,6.25169873046875,-0.009454908780753613,-0.08196389675140381,0.027666060253977776
1726407103312694800,6.26169482421875,-0.028080621734261513,-0.14938180148601532,0.0470719076693058
1726407103322691800,6.27169189453125,-0.050124671310186386,-0.17258858680725098,0.06471934169530869
1726407103332688000,6.28168798828125,-0.060689449310302734,-0.1515231877565384,0.06295983493328094
1726407103342684700,6.2916845703125,-0.061487067490816116,-0.11887762695550919,0.05304355174303055
1726407103352681000,6.301680908203125,-0.06044226512312889,-0.012309776619076729,0.046008724719285965
1726407103362676700,6.3116767578125,-0.048307303339242935,0.17399032413959503,0.06656166911125183
1726407103372673800,6.321673828125,-0.024344179779291153,0.3916488587856293,0.08727385848760605
1726407103382669800,6.331669921875,0.003616613568738103,0.5438668727874756,0.10517243295907974
1726407103392667000,6.3416669921875,0.01774205081164837,0.5984131693840027,0.11938966810703278
1726407103402662700,6.35166259765625,0.013596306554973125,0.6254892349243164,0.12968730926513672
1726407103412659000,6.361658935546875,-0.007765497080981731,0.6535599827766418,0.13273434340953827
1726407103422655700,6.37165576171875,-0.022187845781445503,0.6274356842041016,0.14813487231731415
1726407103432651800,6.38165185546875,-0.01572439633309841,0.5483896732330322,0.18295180797576904
1726407103442648800,6.39164892578125,-0.016626941040158272,0.4766766428947449,0.23278753459453583
1726407103452644900,6.401644775390625,-0.013969055376946926,0.4458833932876587,0.2840713858604431
1726407103462640600,6.411640625,-0.011989261023700237,0.4317755699157715,0.3270455002784729
1726407103472638000,6.421637939453125,0.0020970841869711876,0.4071730077266693,0.36581212282180786
1726407103482633700,6.4316337890625,0.0057514738291502,0.3854413628578186,0.3883344829082489
1726407103492631000,6.441631103515625,0.00896837655454874,0.3774343729019165,0.3853151500225067
1726407103502626800,6.451626708984375,0.015558634884655476,0.3742566704750061,0.34497544169425964
1726407103512622800,6.461622802734375,0.02442377805709839,0.33174461126327515,0.2888927161693573
1726407103522620000,6.471619873046875,0.02297927998006344,0.24776315689086914,0.21319660544395447
1726407103532616000,6.481615966796875,0.023344330489635468,0.18371087312698364,0.1450728327035904
1726407103542612700,6.49161279296875,0.03395329788327217,0.1513127237558365,0.08613654226064682
1726407103552609000,6.501609130859375,0.04549959674477577,0.10307040065526962,0.038820091634988785
1726407103562604800,6.511604736328125,0.046064455062150955,0.05962652713060379,0.008795083500444889
1726407103572601900,6.521601806640625,0.03657631576061249,-0.010832177475094795,-0.010898805223405361
1726407103582598000,6.531597900390625,0.03780083730816841,-0.11906997114419937,-0.013332934118807316
1726407103592595000,6.541594970703125,0.03986730799078941,-0.16589590907096863,0.005405078642070293
1726407103602590700,6.5515908203125,0.050340987741947174,-0.19126705825328827,0.019157109782099724
1726407103612587000,6.5615869140625,0.05733681470155716,-0.21810388565063477,0.004556928761303425
1726407103622583800,6.571583740234375,0.06081943213939667,-0.23815321922302246,-0.017752904444932938
1726407103632579800,6.581579833984375,0.04838109761476517,-0.2508774399757385,-0.016538163647055626
1726407103642577000,6.591576904296875,0.03426447883248329,-0.2331375926733017,0.016870925202965736
1726407103652573000,6.601572998046875,0.036327674984931946,-0.18109183013439178,0.06659151613712311
1726407103662568700,6.611568603515625,0.03161600977182388,-0.14334525167942047,0.10747823119163513
1726407103672566000,6.62156591796875,0.006958736106753349,-0.11825014650821686,0.12145397067070007
1726407103682561800,6.631561767578125,-0.010932646691799164,-0.09961174428462982,0.10555250197649002
1726407103692558800,6.641558837890625,-0.012722810730338097,-0.07794058322906494,0.07348722964525223
1726407103702555000,6.651554931640625,0.009336951188743114,-0.03357631340622902,0.037831492722034454
1726407103712551000,6.661551025390625,0.03823920711874962,0.037088681012392044,0.0051443022675812244
1726407103722547700,6.671547607421875,0.07579563558101654,0.09481536597013474,-0.0163282323628664
1726407103732544000,6.6815439453125,0.10864754766225815,0.13394400477409363,-0.031784579157829285
1726407103742540800,6.691540771484375,0.13670527935028076,0.15047691762447357,-0.030469244346022606
1726407103752536800,6.701536865234375,0.14407134056091309,0.1484754979610443,-0.026051104068756104
1726407103762532900,6.711532958984375,0.12584199011325836,0.1222529336810112,-0.02211015671491623
1726407103772530000,6.721530029296875,0.09742801636457443,0.06888587772846222,-0.013050778768956661
1726407103782525700,6.731525634765625,0.07024246454238892,-0.005091676954180002,0.013431960716843605
1726407103792523000,6.74152294921875,0.04363681748509407,-0.11730089038610458,0.053899772465229034
1726407103802518800,6.751518798828125,0.019367165863513947,-0.22163821756839752,0.08690059930086136
1726407103812514800,6.761514892578125,-0.01970977708697319,-0.30215293169021606,0.09060768038034439
1726407103822511900,6.771511962890625,-0.0692584216594696,-0.3631385266780853,0.06672339141368866
1726407103832508000,6.7815078125,-0.1109599620103836,-0.39141497015953064,0.030976902693510056
1726407103842503700,6.791503662109375,-0.12915335595607758,-0.3862822651863098,-0.0006300252862274647
1726407103852501000,6.8015009765625,-0.13395880162715912,-0.38112568855285645,-0.00025070086121559143
1726407103862496800,6.811496826171875,-0.11634650826454163,-0.3868642747402191,0.02954820729792118
1726407103872494000,6.821494140625,-0.10600591450929642,-0.39986875653266907,0.08592769503593445
1726407103882489900,6.83148974609375,-0.10385061800479889,-0.3985041379928589,0.14422616362571716
1726407103892486000,6.84148583984375,-0.1114690974354744,-0.35631173849105835,0.19197843968868256
1726407103902482700,6.851482666015625,-0.13067768514156342,-0.33740171790122986,0.22954419255256653
1726407103912479000,6.86147900390625,-0.16284537315368652,-0.3567645251750946,0.2560717463493347
1726407103922475800,6.871475830078125,-0.18212532997131348,-0.3811662495136261,0.27007409930229187
1726407103932471800,6.881471923828125,-0.19182519614696503,-0.3978141248226166,0.28405141830444336
1726407103942467800,6.8914677734375,-0.18535079061985016,-0.3961462080478668,0.2945014238357544
1726407103952465000,6.90146484375,-0.16832216084003448,-0.3214603066444397,0.2959512770175934
1726407103962460700,6.911460693359375,-0.15520049631595612,-0.2426333874464035,0.28381550312042236
1726407103972458000,6.9214580078125,-0.16068601608276367,-0.20135031640529633,0.2553938627243042
1726407103982453800,6.931453857421875,-0.1655135303735733,-0.21126791834831238,0.22459734976291656
1726407103992449800,6.94144970703125,-0.16160814464092255,-0.25104260444641113,0.1923837512731552
1726407104002446800,6.95144677734375,-0.1478009819984436,-0.2738203704357147,0.14906024932861328
1726407104012442600,6.961442626953125,-0.11962763965129852,-0.26600173115730286,0.0919065997004509
1726407104022439700,6.971439697265625,-0.07888659834861755,-0.25558024644851685,0.03055403009057045
1726407104032435700,6.981435791015625,-0.07764558494091034,-0.2634546458721161,-0.015114630572497845
1726407104042431500,6.991431396484375,-0.09998204559087753,-0.2788082957267761,-0.08187874406576157
1726407104052428800,7.0014287109375,-0.10454650223255157,-0.2948051989078522,-0.14522109925746918
1726407104062424600,7.011424560546875,-0.0884929671883583,-0.3174780011177063,-0.18316049873828888
1726407104072421600,7.021421630859375,-0.07690275460481644,-0.29112905263900757,-0.20926877856254578
1726407104082417700,7.031417724609375,-0.09583383798599243,-0.2564408481121063,-0.2380455732345581
1726407104092413700,7.04141357421875,-0.10637117922306061,-0.2917082905769348,-0.27059125900268555
1726407104102410500,7.051410400390625,-0.0843934416770935,-0.347802996635437,-0.2991006672382355
1726407104112406800,7.06140673828125,-0.06745391339063644,-0.31998881697654724,-0.3406410813331604
1726407104122403600,7.071403564453125,-0.07098925858736038,-0.26627418398857117,-0.36772412061691284
1726407104132399600,7.081399658203125,-0.08354055136442184,-0.21380352973937988,-0.3552907109260559
1726407104142395400,7.0913955078125,-0.07529540359973907,-0.14502952992916107,-0.31093308329582214
1726407104152392700,7.101392822265625,-0.055175140500068665,-0.06798133254051208,-0.25876325368881226
1726407104162388500,7.111388427734375,-0.03638094663619995,0.00847695954144001,-0.20507340133190155
1726407104172385800,7.1213857421875,-0.032358624041080475,0.09327714145183563,-0.1555330604314804
1726407104182381600,7.131381591796875,-0.056915365159511566,0.13920068740844727,-0.10394895821809769
1726407104192377600,7.141377685546875,-0.06886237114667892,0.10925925523042679,-0.05814671516418457
1726407104202374700,7.151374755859375,-0.06329397112131119,0.09995044022798538,-0.0224574264138937
1726407104212370700,7.16137060546875,-0.06093098595738411,0.12824583053588867,-0.016904130578041077
1726407104222367500,7.171367431640625,-0.06409641355276108,0.18702712655067444,-0.024603860452771187
1726407104232363800,7.18136376953125,-0.049687664955854416,0.22485044598579407,-0.03138318285346031
1726407104242359600,7.191359619140625,-0.0386563204228878,0.2497134506702423,-0.04959654062986374
1726407104252356600,7.201356689453125,-0.014694233424961567,0.26853445172309875,-0.08411221951246262
1726407104262352600,7.2113525390625,-0.012013762257993221,0.31120842695236206,-0.09130888432264328
1726407104272348700,7.2213486328125,-0.03148393705487251,0.31622761487960815,-0.07262400537729263
1726407104282345500,7.231345458984375,-0.03357904776930809,0.2701930105686188,-0.08306466042995453
1726407104292341800,7.241341796875,-0.02322232536971569,0.24758026003837585,-0.11378306150436401
1726407104302338600,7.251338623046875,-0.03475434333086014,0.27676424384117126,-0.12832152843475342
1726407104312334600,7.26133447265625,-0.07277385145425797,0.2751970887184143,-0.12886835634708405
1726407104322330600,7.27133056640625,-0.0843074694275856,0.2355157434940338,-0.13092511892318726
1726407104332327700,7.28132763671875,-0.07030192017555237,0.24108390510082245,-0.1283532977104187
1726407104342323500,7.291323486328125,-0.06414655596017838,0.2620411217212677,-0.10589112341403961
1726407104352320800,7.30132080078125,-0.06535777449607849,0.3194064497947693,-0.08813846111297607
1726407104362316500,7.311316650390625,-0.053407102823257446,0.3601991534233093,-0.09119470417499542
1726407104372312600,7.3213125,-0.031077563762664795,0.3827518820762634,-0.08678610622882843
1726407104382309600,7.3313095703125,-0.017671743407845497,0.3716510236263275,-0.0651141032576561
1726407104392305700,7.3413056640625,-0.01745564304292202,0.30511051416397095,-0.0686773806810379
1726407104402302500,7.351302490234375,-0.03519309684634209,0.23078887164592743,-0.10345213860273361
1726407104412298800,7.361298828125,-0.058510009199380875,0.17963583767414093,-0.130889892578125
1726407104422294500,7.37129443359375,-0.07366818934679031,0.18649373948574066,-0.1596086174249649
1726407104432291600,7.38129150390625,-0.07606535404920578,0.18329598009586334,-0.18195800483226776
1726407104442287600,7.39128759765625,-0.080521360039711,0.17600131034851074,-0.1813497394323349
1726407104452284700,7.40128466796875,-0.08749228715896606,0.10842020809650421,-0.18506011366844177
1726407104462280400,7.411280517578125,-0.09656354039907455,0.0020929621532559395,-0.19034436345100403
1726407104472276700,7.42127685546875,-0.10674130916595459,-0.06722712516784668,-0.2217617630958557
1726407104482273500,7.4312734375,-0.12041317671537399,-0.08214028924703598,-0.27486732602119446
1726407104492269600,7.44126953125,-0.13482104241847992,-0.13648082315921783,-0.3033308684825897
1726407104502266600,7.4512666015625,-0.1340884119272232,-0.20345400273799896,-0.27647900581359863
1726407104512262700,7.4612626953125,-0.11898665875196457,-0.1895209401845932,-0.22455142438411713
1726407104522258400,7.471258544921875,-0.08445318043231964,-0.10521351546049118,-0.18586580455303192
1726407104532255700,7.481255859375,-0.06226196140050888,0.016844000667333603,-0.15285225212574005
1726407104542251500,7.49125146484375,-0.05684269592165947,0.08061392605304718,-0.12401846796274185
1726407104552247600,7.50124755859375,-0.06712400168180466,0.06696441024541855,-0.09138215333223343
1726407104562244600,7.51124462890625,-0.07645198702812195,-0.006272518541663885,-0.05801274627447128
1726407104572240600,7.52124072265625,-0.09709470719099045,-0.04588909447193146,-0.039551664143800735
1726407104582237700,7.53123779296875,-0.11295489966869354,-0.0753210186958313,-0.05753679201006889
1726407104592233700,7.541233642578125,-0.12649178504943848,-0.024897150695323944,-0.1044754683971405
1726407104602229500,7.5512294921875,-0.1386275440454483,-0.004835557658225298,-0.1528877317905426
1726407104612226800,7.561226806640625,-0.15046276152133942,-0.013353008776903152,-0.21099896728992462
1726407104622222600,7.57122265625,-0.1801186501979828,-0.07189914584159851,-0.25607162714004517
1726407104632219600,7.5812197265625,-0.20960214734077454,-0.19997642934322357,-0.25976991653442383
1726407104642215700,7.591215576171875,-0.22476139664649963,-0.2930387258529663,-0.24322207272052765
1726407104652211700,7.601211669921875,-0.21949613094329834,-0.29667240381240845,-0.21606940031051636
1726407104662208500,7.61120849609375,-0.21904578804969788,-0.27695780992507935,-0.2029205858707428
1726407104672204800,7.621204833984375,-0.2289959192276001,-0.2891558110713959,-0.20243477821350098
1726407104682201600,7.63120166015625,-0.21840691566467285,-0.293405145406723,-0.22323192656040192
1726407104692197600,7.64119775390625,-0.19637812674045563,-0.30622008442878723,-0.26835426688194275
1726407104702193400,7.651193359375,-0.18274913728237152,-0.3352799713611603,-0.3162597417831421
1726407104712190700,7.661190673828125,-0.17645098268985748,-0.3163101077079773,-0.37009692192077637
1726407104722186500,7.6711865234375,-0.15939876437187195,-0.3090396523475647,-0.407441109418869
1726407104732183800,7.681183837890625,-0.13219721615314484,-0.36410248279571533,-0.42636212706565857
1726407104742179600,7.6911796875,-0.11157289892435074,-0.47072744369506836,-0.42191728949546814
1726407104752175600,7.701175537109375,-0.0954359620809555,-0.5296798348426819,-0.41286131739616394
1726407104762172700,7.711172607421875,-0.08888032287359238,-0.5129887461662292,-0.39083272218704224
1726407104772168700,7.721168701171875,-0.06913115829229355,-0.4420050084590912,-0.3490085005760193
1726407104782165500,7.73116552734375,-0.024830803275108337,-0.30588820576667786,-0.2789449989795685
1726407104792161800,7.741161865234375,0.012270907871425152,-0.19052423536777496,-0.19650980830192566
1726407104802157600,7.751157470703125,0.03757413476705551,-0.165656179189682,-0.12176287174224854
1726407104812154600,7.761154541015625,0.038891226053237915,-0.21335548162460327,-0.08539453148841858
1726407104822150700,7.771150634765625,0.029191728681325912,-0.2573053538799286,-0.08686672896146774
1726407104832146700,7.781146728515625,0.018797367811203003,-0.2866532504558563,-0.08330465853214264
1726407104842143500,7.7911435546875,0.013667852617800236,-0.3285152018070221,-0.06062251701951027
1726407104852139800,7.801139892578125,0.0021985075436532497,-0.3875502943992615,-0.034150879830121994
1726407104862136600,7.811136474609375,0.009909956716001034,-0.42910921573638916,-0.00863646250218153
1726407104872132600,7.821132568359375,0.03761126846075058,-0.4314623773097992,0.00042485923040658236
1726407104882128600,7.831128662109375,0.05315667390823364,-0.40476763248443604,0.005999121814966202
1726407104892125700,7.841125732421875,0.05624077469110489,-0.3433689475059509,0.025365307927131653
1726407104902121500,7.85112158203125,0.08001267910003662,-0.28865188360214233,0.04997424781322479
1726407104912118800,7.861118896484375,0.10081350803375244,-0.27264612913131714,0.07218699157238007
1726407104922114600,7.871114501953125,0.09771811962127686,-0.3134728968143463,0.06913447380065918
1726407104932110600,7.881110595703125,0.09517639130353928,-0.37914034724235535,0.051842302083969116
1726407104942107600,7.891107666015625,0.07976601272821426,-0.4113731384277344,0.02850794978439808
1726407104952103700,7.901103759765625,0.07016051560640335,-0.4080617129802704,-0.01716044545173645
1726407104962100500,7.9111005859375,0.06864704191684723,-0.4354107975959778,-0.06834107637405396
1726407104972096800,7.9210966796875,0.08677070587873459,-0.46904054284095764,-0.11284340173006058
1726407104982092500,7.931092529296875,0.10025642067193985,-0.4328601658344269,-0.13900204002857208
1726407104992089600,7.941089599609375,0.11167597770690918,-0.35520002245903015,-0.13733714818954468
1726407105002085600,7.951085693359375,0.11490346491336823,-0.30834224820137024,-0.10517627000808716
1726407105012082400,7.96108251953125,0.12939102947711945,-0.2714773714542389,-0.07992547005414963
1726407105022078200,7.971078125,0.12346203625202179,-0.2677428126335144,-0.06913300603628159
1726407105032074200,7.98107421875,0.11484236270189285,-0.33447524905204773,-0.07140636444091797
1726407105042071300,7.9910712890625,0.10415270179510117,-0.40282419323921204,-0.08274450898170471
1726407105052067300,8.0010673828125,0.09469277411699295,-0.41728833317756653,-0.11570917069911957
1726407105062063000,8.01106298828125,0.07462931424379349,-0.44302991032600403,-0.1507616937160492
1726407105072060400,8.021060302734375,0.04805463179945946,-0.4742371439933777,-0.1840798258781433
1726407105082056200,8.03105615234375,0.022131422534585,-0.5144897699356079,-0.20790499448776245
1726407105092053200,8.04105322265625,-0.012796338647603989,-0.5379504561424255,-0.22950322926044464
1726407105102049300,8.05104931640625,-0.03343690186738968,-0.5127332210540771,-0.24655437469482422
1726407105112045300,8.06104541015625,-0.04390297457575798,-0.45176994800567627,-0.26150646805763245
1726407105122042000,8.0710419921875,-0.04918961599469185,-0.41151440143585205,-0.2365712970495224
1726407105132038400,8.081038330078124,-0.043755944818258286,-0.374549001455307,-0.19271279871463776
1726407105142035200,8.09103515625,-0.05207299813628197,-0.34291091561317444,-0.13676618039608002
1726407105152031200,8.10103125,-0.06338748335838318,-0.324078768491745,-0.08455853909254074
1726407105162027000,8.111027099609375,-0.0807558223605156,-0.31100982427597046,-0.048066847026348114
1726407105172024300,8.1210244140625,-0.08429848402738571,-0.2679482698440552,-0.029432186856865883
1726407105182020000,8.13102001953125,-0.08309553563594818,-0.21153266727924347,-0.019496731460094452
1726407105192017400,8.141017333984376,-0.07923772186040878,-0.14458145201206207,-0.018550684675574303
1726407105202013200,8.15101318359375,-0.08011789619922638,-0.07521648705005646,-0.008472483605146408
1726407105212009200,8.16100927734375,-0.07308610528707504,-0.04600956663489342,0.005814867094159126
1726407105222006300,8.17100634765625,-0.05721765384078026,0.005519671831279993,0.025669531896710396
1726407105232002300,8.181002197265625,-0.033291399478912354,0.06467734277248383,0.061139605939388275
1726407105241999000,8.1909990234375,-0.03148258104920387,0.11043870449066162,0.110054150223732
1726407105251995400,8.200995361328125,-0.02752522937953472,0.12190020084381104,0.1397067904472351
1726407105261991200,8.2109912109375,-0.009491899982094765,0.12491196393966675,0.15385296940803528
1726407105271988200,8.22098828125,0.0011339351767674088,0.13538803160190582,0.15366077423095703
1726407105281984300,8.230984375,0.008403832092881203,0.14278069138526917,0.149127796292305
1726407105291980300,8.240980224609375,0.007729072589427233,0.15717004239559174,0.13326452672481537
1726407105301977000,8.25097705078125,-0.006422965321689844,0.1888294368982315,0.12099454551935196
1726407105311973400,8.260973388671875,-0.003881489159539342,0.24263057112693787,0.09780742228031158
1726407105321970200,8.27097021484375,0.0076529281213879585,0.2524176836013794,0.0836857482790947
1726407105331966200,8.28096630859375,0.02347729168832302,0.23393920063972473,0.08868850022554398
1726407105341962200,8.290962158203126,0.022710835561156273,0.19973036646842957,0.09413759410381317
1726407105351959300,8.300959228515625,0.023450661450624466,0.1951739639043808,0.0815775915980339
1726407105361955000,8.310955078125,0.043364182114601135,0.19902490079402924,0.06990176439285278
1726407105371952400,8.320952392578125,0.0621085949242115,0.21553590893745422,0.09546966105699539
1726407105381948200,8.3309482421875,0.049865514039993286,0.23360012471675873,0.1296827644109726
1726407105391944200,8.340944091796874,0.03642164543271065,0.2654151916503906,0.111199289560318
1726407105401941200,8.350941162109375,0.03195818513631821,0.33983057737350464,0.05804738402366638
1726407105411937300,8.360937255859374,0.039258673787117004,0.39988070726394653,0.007225819863379002
1726407105421934000,8.37093408203125,0.06695394963026047,0.45035320520401,-0.02000686712563038
1726407105431930400,8.380930419921874,0.11513682454824448,0.5375927686691284,-0.026749249547719955
1726407105441926100,8.390926025390625,0.12729255855083466,0.5998857021331787,-0.00887331273406744
1726407105451923200,8.400923095703124,0.12745726108551025,0.6168678998947144,0.001269637723453343
1726407105461919200,8.410919189453125,0.09504072368144989,0.6039342284202576,-0.009090591222047806
1726407105471915300,8.420915283203126,0.07469825446605682,0.5664635300636292,-0.05169014632701874
1726407105481912000,8.430912109375,0.06617400795221329,0.5295332074165344,-0.09266127645969391
1726407105491908400,8.440908447265626,0.04974600672721863,0.465728223323822,-0.09149530529975891
1726407105501905200,8.4509052734375,0.05501880124211311,0.43389466404914856,-0.06444504112005234
1726407105511901200,8.460901123046876,0.051147665828466415,0.4653454124927521,-0.07450281083583832
1726407105521897200,8.470897216796875,0.02583165466785431,0.4946140646934509,-0.1287149041891098
1726407105531894300,8.480894287109376,0.020703865215182304,0.4868900179862976,-0.20721770823001862
1726407105541890000,8.49089013671875,0.02706429362297058,0.44682782888412476,-0.26751938462257385
1726407105551887400,8.500887451171875,0.027903305366635323,0.4730963706970215,-0.31595560908317566
1726407105561883100,8.510883056640624,0.06790051609277725,0.560994029045105,-0.35455358028411865
1726407105571879200,8.520879150390625,0.08467097580432892,0.6660743951797485,-0.3307827413082123
1726407105581876200,8.530876220703124,0.05242143198847771,0.7431901693344116,-0.24202251434326172
1726407105591872300,8.540872314453125,0.021928222849965096,0.7722085118293762,-0.09277229011058807
1726407105601868000,8.550867919921876,0.02039291150867939,0.7623851895332336,0.0814216136932373
1726407105611865300,8.560865234375,0.05789134278893471,0.7228695750236511,0.2228665053844452
1726407105621861000,8.570861083984376,0.0788956880569458,0.6779574751853943,0.36049067974090576
1726407105631858400,8.5808583984375,0.08056382834911346,0.6864462494850159,0.42287829518318176
1726407105641854200,8.590854248046876,0.0775640457868576,0.7120442986488342,0.40755608677864075
1726407105651850200,8.600850341796875,0.055999573320150375,0.6830234527587891,0.39249974489212036
1726407105661847300,8.610847412109376,0.05688294395804405,0.6859771609306335,0.364096075296402
1726407105671843300,8.62084326171875,0.06071403995156288,0.6591518521308899,0.3488539755344391
1726407105681840000,8.630840087890626,0.062424059957265854,0.6269733905792236,0.32590124011039734
1726407105691836400,8.64083642578125,0.04816180840134621,0.5791606903076172,0.3032435476779938
1726407105701832200,8.650832275390625,0.029181726276874542,0.5049048066139221,0.2730848491191864
1726407105711829200,8.660829345703124,-0.00183788628783077,0.3698316812515259,0.2507138252258301
1726407105721825000,8.670824951171875,-0.00018805800937116146,0.21515555679798126,0.20532849431037903
1726407105731822300,8.680822265625,0.028165621683001518,0.16549058258533478,0.16329701244831085
1726407105741818000,8.690818115234375,0.056366629898548126,0.1428406685590744,0.12610571086406708
1726407105751814100,8.700814208984376,0.06277754157781601,0.09448524564504623,0.13444244861602783
1726407105761811200,8.710811279296875,0.07117581367492676,0.08918023109436035,0.14703494310379028
1726407105771807200,8.72080712890625,0.04953842610120773,0.09810793399810791,0.17026622593402863
1726407105781804300,8.73080419921875,0.022776054218411446,0.09870048612356186,0.19940148293972015
1726407105791800300,8.74080029296875,0.02927718497812748,0.11041097342967987,0.22241689264774323
1726407105801796000,8.750796142578125,0.055117834359407425,0.10615790635347366,0.25162458419799805
1726407105811793400,8.76079345703125,0.08483820408582687,0.052139606326818466,0.28926751017570496
1726407105821789200,8.7707890625,0.0997399166226387,-0.03889283165335655,0.3118058443069458
1726407105831785200,8.78078515625,0.11020578444004059,-0.12648817896842957,0.2725134789943695
1726407105841782300,8.7907822265625,0.113669753074646,-0.10656267404556274,0.18520361185073853
1726407105851778300,8.8007783203125,0.09638049453496933,-0.07125520706176758,0.10430028289556503
1726407105861775000,8.810775146484374,0.0821530893445015,-0.06292244791984558,0.06664744764566422
1726407105871771400,8.820771484375,0.058382220566272736,-0.0681096762418747,0.06018933653831482
1726407105881767200,8.83076708984375,0.024675125256180763,-0.13644878566265106,0.05423450469970703
1726407105891764200,8.84076416015625,-0.0009385676239617169,-0.2522014081478119,0.042063478380441666
1726407105901760300,8.85076025390625,0.0068133617751300335,-0.3812052011489868,0.04244351014494896
1726407105911757300,8.86075732421875,0.022693930193781853,-0.4161857068538666,0.07744595408439636
1726407105921753000,8.870753173828126,0.01809891127049923,-0.38318780064582825,0.11738245189189911
1726407105931749400,8.880749267578125,-0.008402631618082523,-0.33724457025527954,0.14567913115024567
1726407105941746200,8.89074609375,-0.02736487239599228,-0.3031097650527954,0.1885690689086914
1726407105951742200,8.9007421875,-0.03577742725610733,-0.2698304057121277,0.2244134098291397
1726407105961738200,8.91073828125,-0.05594608187675476,-0.21680955588817596,0.25339314341545105
1726407105971735300,8.9207353515625,-0.07514912635087967,-0.13744933903217316,0.2721794545650482
1726407105981731000,8.93073095703125,-0.08250850439071655,-0.0271419957280159,0.2727581560611725
1726407105991728400,8.940728271484375,-0.06508634984493256,-0.010984925553202629,0.2930583357810974
1726407106001724200,8.95072412109375,0.005702604074031115,-0.012705594301223755,0.332244873046875
1726407106011721000,8.960720947265624,0.04905981570482254,0.0452326163649559,0.38545534014701843
1726407106021718000,8.970718017578125,0.07810132205486298,0.09356153011322021,0.4290129542350769
1726407106031714000,8.980714111328124,0.0822414755821228,0.16450996696949005,0.47733065485954285
1726407106041711000,8.990711181640625,0.09154389798641205,0.1781243234872818,0.5335246920585632
1726407106051707100,9.00070703125,0.1085471659898758,0.13305683434009552,0.5830996036529541
1726407106061703000,9.010702880859375,0.14339517056941986,0.09113921970129013,0.6078217029571533
1726407106071700200,9.0207001953125,0.1518896073102951,0.06796428561210632,0.606518566608429
1726407106081696000,9.030696044921875,0.12393467873334885,0.03296741470694542,0.5766711831092834
1726407106091692800,9.04069287109375,0.12047959864139557,-0.025457054376602173,0.5161775350570679
1726407106101689000,9.050689208984375,0.11625156551599503,-0.12364859879016876,0.4273216724395752
1726407106111685000,9.06068505859375,0.1026512086391449,-0.21322205662727356,0.3065880835056305
1726407106121682000,9.070681884765625,0.09048615396022797,-0.2539742588996887,0.1620178520679474
1726407106131678200,9.08067822265625,0.06977465748786926,-0.23481684923171997,0.030138535425066948
1726407106141674000,9.090674072265625,0.04974982142448425,-0.2642756700515747,-0.08890849351882935
1726407106151671000,9.100671142578125,0.029380861669778824,-0.3150063455104828,-0.18254967033863068
1726407106161667000,9.1106669921875,-0.0047869631089270115,-0.33377018570899963,-0.21825653314590454
1726407106171664000,9.120663818359375,-0.026599207893013954,-0.3675093352794647,-0.22891473770141602
1726407106181660000,9.130659912109374,-0.02855769731104374,-0.3399437367916107,-0.21725115180015564
1726407106191656000,9.140656005859375,-0.015678908675909042,-0.25038453936576843,-0.20606641471385956
1726407106201653000,9.150653076171874,-0.009395712986588478,-0.12806609272956848,-0.17969286441802979
1726407106211649000,9.16064892578125,-0.011679640039801598,0.016529962420463562,-0.14652399718761444
1726407106221646000,9.17064599609375,-0.033076539635658264,0.15427131950855255,-0.12916631996631622
1726407106231642000,9.18064208984375,-0.05798178166151047,0.20447580516338348,-0.12445247173309326
1726407106241638000,9.190637939453126,-0.05783024802803993,0.2314903736114502,-0.11060430109500885
1726407106251635200,9.20063525390625,-0.009300981648266315,0.2908048629760742,-0.09494135528802872
1726407106261631000,9.210630859375,0.019495779648423195,0.419599324464798,-0.0419313982129097
1726407106271627000,9.220626953125,0.008324741385877132,0.5019543170928955,-0.024415219202637672
1726407106281624000,9.2306240234375,0.004580602515488863,0.47919148206710815,-0.038023438304662704
1726407106291620000,9.2406201171875,0.03487491235136986,0.39685913920402527,-0.06535078585147858
1726407106301617000,9.250616943359375,0.0713045597076416,0.4013100862503052,-0.11405280977487564
1726407106311613200,9.26061328125,0.03731108456850052,0.43038782477378845,-0.17494313418865204
1726407106321609000,9.27060888671875,-0.04312490299344063,0.366202175617218,-0.23336516320705414
1726407106331606000,9.28060595703125,-0.08429022133350372,0.24748839437961578,-0.2683537006378174
1726407106341602000,9.29060205078125,-0.07288922369480133,0.17023809254169464,-0.2811872065067291
1726407106351599000,9.30059912109375,-0.04401981458067894,0.12205550819635391,-0.27475905418395996
1726407106361595000,9.310594970703125,-0.047480590641498566,0.06688973307609558,-0.2714138627052307
1726407106371591200,9.320591064453126,-0.05653033033013344,0.08194397389888763,-0.26407700777053833
1726407106381588000,9.330587890625,-0.04464464262127876,0.15104208886623383,-0.26723524928092957
1726407106391584000,9.340583984375,-0.03960999473929405,0.2199195772409439,-0.26589396595954895
1726407106401580000,9.350580078125,-0.062319301068782806,0.22962307929992676,-0.2364646941423416
1726407106411577000,9.3605771484375,-0.06551486253738403,0.24120527505874634,-0.1766689419746399
1726407106421572900,9.37057275390625,-0.03813783824443817,0.24980194866657257,-0.11122282594442368
1726407106431570200,9.380570068359376,-0.03287556767463684,0.2323240488767624,-0.056951843202114105
1726407106441566000,9.39056591796875,-0.028704259544610977,0.19566909968852997,-0.013189718127250671
1726407106451562000,9.40056201171875,-0.009182430803775787,0.15984301269054413,0.010889137163758278
1726407106461559000,9.41055908203125,-0.01852240413427353,0.13912175595760345,0.016843965277075768
1726407106471555000,9.42055517578125,-0.038384824991226196,0.10000535100698471,0.02876141294836998
1726407106481552000,9.4305517578125,-0.03419433906674385,0.12945592403411865,0.02623433992266655
1726407106491548200,9.440548095703125,-0.017170093953609467,0.10392024368047714,0.026975788176059723
1726407106501544000,9.4505439453125,0.006064921617507935,0.005778494291007519,0.03991075977683067
1726407106511541000,9.460541015625,-0.005428045056760311,-0.10680690407752991,0.03125620633363724
1726407106521537000,9.470537109375,-0.05274549126625061,-0.18330886960029602,0.0025902055203914642
1726407106531533000,9.480532958984375,-0.09944966435432434,-0.15479932725429535,-0.03194557502865791
1726407106541529900,9.49052978515625,-0.09570712596178055,-0.14638586342334747,-0.05653374269604683
1726407106551526100,9.500526123046875,-0.06427933275699615,-0.1510336697101593,-0.05432139337062836
1726407106561523000,9.51052294921875,-0.008301815018057823,-0.11562135815620422,-0.050995104014873505
1726407106571519000,9.52051904296875,0.018284376710653305,-0.16485607624053955,-0.06902307271957397
1726407106581515000,9.530514892578125,-0.016846179962158203,-0.27969905734062195,-0.11199478060007095
1726407106591512000,9.540511962890625,-0.060771796852350235,-0.31860974431037903,-0.1440984308719635
1726407106601507800,9.5505078125,-0.08346192538738251,-0.2631528973579407,-0.1452353298664093
1726407106611505200,9.560505126953124,-0.11213262379169464,-0.26905718445777893,-0.10364335775375366
1726407106621501000,9.5705009765625,-0.14100661873817444,-0.34309011697769165,-0.05571338161826134
1726407106631497000,9.5804970703125,-0.16071058809757233,-0.4087350368499756,-0.026653943583369255
1726407106641494000,9.590493896484375,-0.1585180014371872,-0.3989979922771454,-0.020468752831220627
1726407106651490000,9.600489990234376,-0.14469483494758606,-0.32510098814964294,-0.01210784912109375
1726407106661485800,9.61048583984375,-0.12421458959579468,-0.2684989869594574,-0.008745873346924782
1726407106671483100,9.620483154296876,-0.10203561931848526,-0.19875256717205048,0.006328114308416843
1726407106681479000,9.63047900390625,-0.08551470190286636,-0.11675728857517242,0.026396630331873894
1726407106691476200,9.640476318359376,-0.0708857849240303,-0.05931960046291351,0.04971490055322647
1726407106701472000,9.650471923828125,-0.055721208453178406,0.013258198276162148,0.08875764161348343
1726407106711468000,9.660468017578125,-0.05000448599457741,0.06695186346769333,0.11625935137271881
1726407106721464800,9.67046484375,-0.07538175582885742,0.1193290501832962,0.1348452866077423
1726407106731461000,9.680461181640625,-0.08135996758937836,0.14724576473236084,0.13638342916965485
1726407106741458000,9.6904580078125,-0.06984366476535797,0.13717769086360931,0.17064793407917023
1726407106751454000,9.700453857421875,-0.043246932327747345,0.08157381415367126,0.19919940829277039
1726407106761450000,9.710449951171874,-0.01246824860572815,0.07468501478433609,0.226497083902359
1726407106771447000,9.720447021484375,0.02028752863407135,0.08777081966400146,0.24383778870105743
1726407106781442800,9.73044287109375,0.0389256589114666,0.16516387462615967,0.22329390048980713
1726407106791439000,9.740439208984375,0.03260910511016846,0.22942429780960083,0.2319360077381134
1726407106801436000,9.750435791015626,0.024891797453165054,0.2041889727115631,0.24280808866024017
1726407106811432000,9.760431884765625,0.010994702577590942,0.24474629759788513,0.23757268488407135
1726407106821429000,9.770428955078126,0.024321161210536957,0.2911795675754547,0.2055484503507614
1726407106831425000,9.780425048828125,0.04582546651363373,0.3115440309047699,0.178725466132164
1726407106841420800,9.7904208984375,0.07576045393943787,0.27530720829963684,0.16735324263572693
1726407106851418000,9.800418212890625,0.10636134445667267,0.2084338366985321,0.1538390964269638
1726407106861414000,9.810413818359375,0.11813544481992722,0.16192784905433655,0.13621295988559723
1726407106871410000,9.820409912109374,0.10263823717832565,0.16237397491931915,0.11049749702215195
1726407106881407000,9.830406982421875,0.07195010036230087,0.14256350696086884,0.07922506332397461
1726407106891403000,9.840403076171874,0.03848656266927719,0.0881432294845581,0.04293013736605644
1726407106901400000,9.850400146484375,0.008622142486274242,-0.039687711745500565,-0.00440968107432127
1726407106911396000,9.86039599609375,0.002106847008690238,-0.15896041691303253,-0.07827963680028915
1726407106921391900,9.870391845703125,0.0025246969889849424,-0.17653807997703552,-0.17156536877155304
1726407106931389200,9.88038916015625,0.01602974347770214,-0.14843130111694336,-0.23975087702274323
1726407106941385000,9.890385009765625,0.025942562147974968,-0.15941683948040009,-0.25008606910705566
1726407106951382000,9.900382080078124,0.018946073949337006,-0.18864019215106964,-0.20870566368103027
1726407106961378000,9.9103779296875,0.008564271964132786,-0.20067767798900604,-0.16320103406906128
1726407106971374000,9.9203740234375,0.00788359809666872,-0.17322592437267303,-0.12811101973056793
1726407106981371000,9.930370849609375,0.008264696225523949,-0.13518665730953217,-0.07061204314231873
1726407106991367200,9.9403671875,0.004575625993311405,-0.08176667988300323,-0.0019979788921773434
1726407107001363000,9.950363037109375,0.00598603580147028,0.023516865447163582,0.05998389795422554
1726407107011359700,9.96035986328125,0.032097455114126205,0.1665501594543457,0.1268126219511032
1726407107021355500,9.97035546875,0.05927980691194534,0.282559871673584,0.21363140642642975
1726407107031352800,9.980352783203125,0.06189221888780594,0.3512120544910431,0.30360740423202515
1726407107041348600,9.9903486328125,0.06918235123157501,0.35224297642707825,0.3600059747695923
1726407107051344600,10.0003447265625,0.0839470624923706,0.39215561747550964,0.3822705149650574
1726407107061341700,10.010341796875,0.08527171611785889,0.45375826954841614,0.4054224491119385
1726407107071337700,10.020337646484375,0.08637645095586777,0.568309485912323,0.41593992710113525
1726407107081334500,10.03033447265625,0.09648074954748154,0.6709721684455872,0.4122653007507324
1726407107091330800,10.040330810546875,0.11873486638069153,0.6869111061096191,0.40588927268981934
1726407107101326600,10.05032666015625,0.12255490571260452,0.649337887763977,0.39797091484069824
1726407107111323600,10.06032373046875,0.12891843914985657,0.632070779800415,0.3816065192222595
1726407107121319700,10.070319580078126,0.12789258360862732,0.6275937557220459,0.37361544370651245
1726407107131315700,10.080315673828125,0.11941620707511902,0.6075429916381836,0.34135961532592773
1726407107141312500,10.0903125,0.11841566115617752,0.5567357540130615,0.2966179847717285
1726407107151308800,10.100308837890625,0.13974826037883759,0.510642945766449,0.22483646869659424
1726407107161305600,10.1103056640625,0.17997637391090393,0.4739041030406952,0.10545920580625534
1726407107171301600,10.120301513671874,0.2156224250793457,0.43408849835395813,0.008857992477715015
1726407107181297700,10.130297607421875,0.22064514458179474,0.3951152563095093,-0.05530980974435806
1726407107191294700,10.140294677734374,0.23204542696475983,0.33258160948753357,-0.1182071790099144
1726407107201290500,10.15029052734375,0.25549376010894775,0.2519027292728424,-0.2079290747642517
1726407107211287800,10.160287841796874,0.27159103751182556,0.10069217532873154,-0.34820085763931274
1726407107221283600,10.17028369140625,0.26520851254463196,-0.05211973935365677,-0.5226829051971436
1726407107231279600,10.180279541015626,0.20050880312919617,-0.2119872272014618,-0.6759247779846191
1726407107241276700,10.190276611328125,0.11695638298988342,-0.4186578392982483,-0.793103039264679
1726407107251272700,10.200272705078126,0.06155037507414818,-0.5887535810470581,-0.825969934463501
1726407107261268700,10.210268798828125,0.022281000390648842,-0.7092927694320679,-0.7962597012519836
1726407107271265800,10.220265869140626,-0.026161858811974525,-0.8317078351974487,-0.7597970962524414
1726407107281261600,10.230261474609375,-0.08493196219205856,-0.9168239831924438,-0.7327212691307068
1726407107291258600,10.240258544921875,-0.1265251338481903,-0.9382119178771973,-0.7147911787033081
1726407107301254700,10.250254638671874,-0.1515876054763794,-0.8648380637168884,-0.6991451382637024
1726407107311250700,10.260250732421875,-0.15815995633602142,-0.7777965664863586,-0.6502256393432617
1726407107321247500,10.27024755859375,-0.15911470353603363,-0.6911197304725647,-0.5796923637390137
1726407107331243800,10.280243896484375,-0.13698585331439972,-0.5859464406967163,-0.5004422068595886
1726407107341240600,10.290240478515624,-0.08764545619487762,-0.47248679399490356,-0.4225572943687439
1726407107351236600,10.300236572265625,-0.04629296809434891,-0.3929714262485504,-0.31875523924827576
1726407107361232600,10.310232666015626,-0.016089260578155518,-0.3209230601787567,-0.2058795541524887
1726407107371229700,10.320229736328125,0.018562715500593185,-0.19554086029529572,-0.09488456696271896
1726407107381225500,10.3302255859375,0.031042555347085,0.016982322558760643,0.015081346035003662
1726407107391221800,10.3402216796875,0.023393994197249413,0.16314205527305603,0.10919363796710968
1726407107401218600,10.350218505859376,0.019383272156119347,0.22523711621761322,0.22067995369434357
1726407107411214600,10.360214599609375,0.01911703497171402,0.20903019607067108,0.3048015832901001
1726407107421211600,10.370211669921876,0.02145662158727646,0.1395091712474823,0.35813459753990173
1726407107431207700,10.380207763671875,0.01016912329941988,0.05290920287370682,0.3923526704311371
1726407107441203700,10.39020361328125,-0.014705333858728409,-0.0268695130944252,0.3904695510864258
1726407107451200800,10.40020068359375,-0.039270274341106415,-0.08656018227338791,0.3667222857475281
1726407107461196500,10.410196533203125,-0.0695301741361618,-0.119139164686203,0.34049442410469055
1726407107471193600,10.420193603515624,-0.09700600802898407,-0.14782993495464325,0.30506718158721924
1726407107481189600,10.430189697265625,-0.12841452658176422,-0.1922096461057663,0.28144389390945435
1726407107491185700,10.440185546875,-0.1536451280117035,-0.29512810707092285,0.25415968894958496
1726407107501182500,10.450182373046875,-0.15940020978450775,-0.44486406445503235,0.21355071663856506
1726407107511178800,10.4601787109375,-0.15175186097621918,-0.5794498920440674,0.17851176857948303
1726407107521174800,10.4701748046875,-0.13649700582027435,-0.6590480804443359,0.1530250459909439
1726407107531171600,10.480171630859376,-0.12893709540367126,-0.6715928912162781,0.11952301114797592
1726407107541167600,10.490167724609375,-0.13527221977710724,-0.6767884492874146,0.09417424350976944
1726407107551164700,10.50016455078125,-0.16058482229709625,-0.6928735375404358,0.07700707018375397
1726407107561160400,10.510160400390625,-0.17446762323379517,-0.7172667384147644,0.06150933355093002
1726407107571156700,10.52015673828125,-0.16244082152843475,-0.7095268368721008,0.06686293333768845
1726407107581153500,10.530153564453125,-0.1395363062620163,-0.6488592624664307,0.0853724405169487
1726407107591149600,10.540149658203125,-0.12192999571561813,-0.5707747936248779,0.11978308856487274
1726407107601145900,10.550145751953124,-0.11468912661075592,-0.5191970467567444,0.15378792583942413
1726407107611142700,10.560142578125,-0.11598499119281769,-0.43323883414268494,0.15826758742332458
1726407107621138700,10.570138671875,-0.11644624918699265,-0.31351056694984436,0.13881133496761322
1726407107631135700,10.5801357421875,-0.1184033676981926,-0.22345726191997528,0.11276418715715408
1726407107641131500,10.590131591796874,-0.1077086478471756,-0.1745365858078003,0.09020134806632996
1726407107651127600,10.60012744140625,-0.07711799442768097,-0.1468159705400467,0.06734692305326462
1726407107661124600,10.61012451171875,-0.030349688604474068,-0.0821128785610199,0.04226341098546982
1726407107671120600,10.62012060546875,0.022904513403773308,0.004487117286771536,0.04449931159615517
1726407107681117700,10.63011767578125,0.04745406284928322,0.14371052384376526,0.08444352447986603
1726407107691113700,10.64011376953125,0.038518618792295456,0.2838873565196991,0.13854274153709412
1726407107701109800,10.65010986328125,0.03751008212566376,0.3607885241508484,0.18824797868728638
1726407107711106600,10.6601064453125,0.03873654827475548,0.4180331826210022,0.21036960184574127
1726407107721102600,10.6701025390625,0.06082800030708313,0.47804591059684753,0.22469022870063782
1726407107731098600,10.6800986328125,0.08673892170190811,0.583052933216095,0.24135826528072357
1726407107741095400,10.690095458984375,0.1149204894900322,0.6972410678863525,0.26039186120033264
1726407107751091700,10.700091796875,0.13200151920318604,0.7905005216598511,0.2622660994529724
1726407107761088500,10.710088623046875,0.1436813473701477,0.8257917165756226,0.23994216322898865
1726407107771084500,10.72008447265625,0.15125766396522522,0.8292022347450256,0.19436559081077576
1726407107781080800,10.730080810546875,0.16612422466278076,0.8395222425460815,0.115214042365551
1726407107791077600,10.74007763671875,0.1817556470632553,0.8709448575973511,0.04363493621349335
1726407107801073700,10.75007373046875,0.19805552065372467,0.8721840381622314,-0.02343278005719185
1726407107811070700,10.76007080078125,0.19468408823013306,0.8173603415489197,-0.06551870703697205
1726407107821066500,10.77006640625,0.184285506606102,0.7561385631561279,-0.09709793329238892
1726407107831062500,10.7800625,0.1551065891981125,0.6337060928344727,-0.10714098066091537
1726407107841059600,10.7900595703125,0.13743571937084198,0.549777090549469,-0.13449537754058838
1726407107851055600,10.8000556640625,0.13960160315036774,0.5132967829704285,-0.1498265415430069
1726407107861051600,10.8100517578125,0.14173346757888794,0.519243597984314,-0.14159390330314636
1726407107871048700,10.820048583984375,0.15121066570281982,0.5491002798080444,-0.13162055611610413
1726407107881044700,10.830044677734374,0.1441735327243805,0.6182700395584106,-0.1276599019765854
1726407107891041800,10.840041748046875,0.14583316445350647,0.650545060634613,-0.14057397842407227
1726407107901037600,10.85003759765625,0.14039018750190735,0.6183655261993408,-0.18137919902801514
1726407107911033600,10.86003369140625,0.12229613214731216,0.543919563293457,-0.21935133635997772
1726407107921030700,10.87003076171875,0.0854523628950119,0.4635358154773712,-0.25093454122543335
1726407107931026700,10.880026611328125,0.0684158205986023,0.4232327342033386,-0.2682402431964874
1726407107941023500,10.8900234375,0.059754952788352966,0.40757015347480774,-0.2669430077075958
1726407107951019800,10.900019775390625,0.05240045487880707,0.40664228796958923,-0.24992133677005768
1726407107961015800,10.910015869140626,0.038240961730480194,0.3658604919910431,-0.219899520277977
1726407107971012600,10.9200126953125,0.030329732224345207,0.26057544350624084,-0.17760470509529114
1726407107981009000,10.9300087890625,0.023232674226164818,0.13193438947200775,-0.12913943827152252
1726407107991004700,10.940004638671875,0.022612228989601135,0.04482489079236984,-0.07582973688840866
1726407108001001500,10.95000146484375,0.02769806794822216,0.021741939708590508,-0.04471895471215248
1726407108010997000,10.9599970703125,0.025298429653048515,0.03997773304581642,-0.030655894428491592
1726407108020994300,10.969994384765625,0.006242712493985891,0.06491237878799438,-0.025870192795991898
1726407108030990000,10.979989990234374,-0.013872001320123672,0.04141280800104141,-0.020257042720913887
1726407108040986000,10.989986083984375,-0.03069971688091755,-0.004519262816756964,0.007300283759832382
1726407108050983200,10.999983154296874,-0.04952522739768028,-0.08946912735700607,0.04662562161684036
1726407108060979200,11.009979248046875,-0.06136617437005043,-0.18825270235538483,0.06931362301111221
1726407108070975000,11.01997509765625,-0.06224397197365761,-0.2632019817829132,0.07672018557786942
1726407108080972300,11.02997216796875,-0.06439074873924255,-0.30147239565849304,0.07424663752317429
1726407108090968000,11.039968017578126,-0.07406461238861084,-0.34979113936424255,0.07573574781417847
1726407108100965400,11.04996533203125,-0.0901343896985054,-0.3879997730255127,0.07481855154037476
1726407108110961200,11.059961181640626,-0.1065010204911232,-0.44915398955345154,0.07792891561985016
1726407108120957200,11.069957275390625,-0.12089060992002487,-0.5149053335189819,0.08784040063619614
1726407108130954200,11.079954345703126,-0.12641704082489014,-0.5689023733139038,0.10242676734924316
1726407108140950300,11.0899501953125,-0.1325409859418869,-0.6152640581130981,0.13858744502067566
1726407108150947000,11.099947021484375,-0.12468196451663971,-0.5775407552719116,0.18281100690364838
1726407108160943400,11.109943359375,-0.10729231685400009,-0.4998914897441864,0.22551800310611725
1726407108170939100,11.119939208984375,-0.09478093683719635,-0.3966410756111145,0.25790634751319885
1726407108180936200,11.129936279296874,-0.0777854397892952,-0.3296372890472412,0.27756553888320923
1726407108190932200,11.13993212890625,-0.028844701126217842,-0.3161129951477051,0.28227806091308594
1726407108200928300,11.14992822265625,-0.010631607845425606,-0.3685956597328186,0.29448679089546204
1726407108210925000,11.159925048828125,0.00004293405800126493,-0.4422692656517029,0.3131237328052521
1726407108220921000,11.169921142578126,-0.01349018607288599,-0.46991392970085144,0.31788015365600586
1726407108230918100,11.179918212890625,-0.03475886210799217,-0.4542328119277954,0.29373112320899963
1726407108240914200,11.1899140625,-0.041149381548166275,-0.3670555651187897,0.24921771883964539
1726407108250910000,11.199909912109375,-0.041774503886699677,-0.2198307067155838,0.19865219295024872
1726407108260907300,11.2099072265625,-0.03270190954208374,-0.0534617081284523,0.1303333193063736
1726407108270903000,11.219903076171875,-0.021678248420357704,0.10710673779249191,0.0573282353579998
1726407108280899000,11.229899169921875,-0.020912325009703636,0.2177906483411789,-0.01170276291668415
1726407108290896100,11.239896240234375,-0.026282981038093567,0.2482731193304062,-0.06996577978134155
1726407108300892200,11.24989208984375,-0.018404819071292877,0.21428479254245758,-0.10797946900129318
1726407108310889200,11.25988916015625,-0.027432452887296677,0.17940977215766907,-0.12706173956394196
1726407108320885200,11.26988525390625,-0.04133947938680649,0.1455727070569992,-0.1415136456489563
1726407108330881000,11.279881103515624,-0.04618469625711441,0.11517976224422455,-0.14238636195659637
1726407108340878300,11.28987841796875,-0.048207368701696396,0.10701451450586319,-0.14582130312919617
1726407108350874000,11.2998740234375,-0.058423031121492386,0.10292772948741913,-0.13770897686481476
1726407108360870100,11.3098701171875,-0.07140114903450012,0.07755526155233383,-0.12670719623565674
1726407108370867200,11.3198671875,-0.09339603781700134,0.0008635395206511021,-0.13075442612171173
1726407108380863200,11.32986328125,-0.11300915479660034,-0.09373965859413147,-0.15325413644313812
1726407108390860000,11.339860107421876,-0.12822745740413666,-0.16490419209003448,-0.16438768804073334
1726407108400856300,11.349856201171875,-0.1377469301223755,-0.2303503006696701,-0.15676066279411316
1726407108410852000,11.35985205078125,-0.13553328812122345,-0.23747074604034424,-0.13718347251415253
1726407108420849200,11.36984912109375,-0.12700878083705902,-0.19803465902805328,-0.11024799942970276
1726407108430845200,11.37984521484375,-0.11573082953691483,-0.14118759334087372,-0.09584266692399979
1726407108440842200,11.38984228515625,-0.10064828395843506,-0.07654467970132828,-0.10077297687530518
1726407108450838000,11.399838134765625,-0.07616273313760757,-0.009895947761833668,-0.11504924297332764
1726407108460834300,11.409834228515624,-0.05473440885543823,0.0392252579331398,-0.1223127543926239
1726407108470831000,11.4198310546875,-0.043834272772073746,0.07892294228076935,-0.11189407110214233
1726407108480827100,11.4298271484375,-0.051101770251989365,0.10815432667732239,-0.09565704315900803
1726407108490823200,11.4398232421875,-0.07853735983371735,0.11926598846912384,-0.07649194449186325
1726407108500820200,11.4498203125,-0.09075221419334412,0.061122260987758636,-0.05901707708835602
1726407108510816000,11.45981591796875,-0.09894924610853195,-0.023607522249221802,-0.04152631759643555
1726407108520813300,11.469813232421876,-0.09939878433942795,-0.12218975275754929,-0.038317739963531494
1726407108530809000,11.47980908203125,-0.11421084403991699,-0.1594059020280838,-0.0664949044585228
1726407108540805000,11.48980517578125,-0.13661015033721924,-0.14199762046337128,-0.1351085901260376
1726407108550802200,11.49980224609375,-0.15822458267211914,-0.10743528604507446,-0.2185649871826172
1726407108560798200,11.509798095703125,-0.16151145100593567,-0.11136185377836227,-0.2824323773384094
1726407108570794000,11.5197939453125,-0.1458713263273239,-0.14723220467567444,-0.3125925064086914
1726407108580791300,11.529791259765625,-0.11752703785896301,-0.16459229588508606,-0.29044803977012634
1726407108590787000,11.539787109375,-0.08281122148036957,-0.14090345799922943,-0.2586270570755005
1726407108600784100,11.5497841796875,-0.06788606941699982,-0.09815706312656403,-0.24409981071949005
1726407108610780200,11.5597802734375,-0.07278177887201309,-0.026332959532737732,-0.25273990631103516
1726407108620776200,11.569776123046875,-0.09014105796813965,-0.0010875225998461246,-0.2577740550041199
1726407108630773000,11.57977294921875,-0.118538498878479,-0.07257692515850067,-0.26846209168434143
1726407108640769300,11.589769287109375,-0.13831886649131775,-0.20246487855911255,-0.31526127457618713
1726407108650765000,11.59976513671875,-0.15864311158657074,-0.2951338589191437,-0.39998796582221985
1726407108660762000,11.60976220703125,-0.17936357855796814,-0.37200334668159485,-0.4825555682182312
1726407108670758100,11.619758056640626,-0.19181682169437408,-0.435716450214386,-0.521657407283783
1726407108680755200,11.629755126953125,-0.2029067575931549,-0.47830891609191895,-0.5300825834274292
1726407108690751000,11.6397509765625,-0.2068084329366684,-0.4949393570423126,-0.5210272073745728
1726407108700747300,11.649747314453125,-0.20206454396247864,-0.48063552379608154,-0.501735508441925
1726407108710744000,11.659744140625,-0.20171807706356049,-0.45537859201431274,-0.451526939868927
1726407108720740000,11.669739990234374,-0.20219264924526215,-0.44031763076782227,-0.40243956446647644
1726407108730736000,11.679736083984375,-0.20255446434020996,-0.39685383439064026,-0.3480588495731354
1726407108740733200,11.689733154296874,-0.19196918606758118,-0.33301520347595215,-0.25075119733810425
1726407108750729000,11.69972900390625,-0.13758476078510284,-0.19016918540000916,-0.1371154934167862
1726407108760726300,11.709726318359374,-0.10273623466491699,-0.018777726218104362,-0.02822629176080227
1726407108770722000,11.71972216796875,-0.10056424140930176,0.08852691203355789,0.10329995304346085
1726407108780718000,11.729718017578126,-0.09922786802053452,0.12858006358146667,0.2319711148738861
1726407108790715100,11.739715087890625,-0.08338291943073273,0.16112187504768372,0.29921868443489075
1726407108800711200,11.749711181640626,-0.07291163504123688,0.14004695415496826,0.327665239572525
1726407108810707200,11.759707275390625,-0.08116772770881653,0.08158855885267258,0.3044564127922058
1726407108820704300,11.769704345703126,-0.10906647145748138,0.042162053287029266,0.23920202255249023
1726407108830700000,11.779699951171875,-0.13761185109615326,-0.06909843534231186,0.1920744627714157
1726407108840697000,11.789697021484375,-0.17337383329868317,-0.27479249238967896,0.1535523682832718
1726407108850693000,11.799693115234374,-0.19274590909481049,-0.4376029968261719,0.11157400161027908
1726407108860689200,11.809689208984375,-0.19413846731185913,-0.5187950730323792,0.0616285502910614
1726407108870686000,11.81968603515625,-0.19676484167575836,-0.5552381873130798,0.04799172654747963
1726407108880682200,11.82968212890625,-0.1959669589996338,-0.5809358358383179,0.040807582437992096
1726407108890678300,11.83967822265625,-0.18514230847358704,-0.5432139039039612,0.03191004693508148
1726407108900675000,11.849675048828125,-0.17296527326107025,-0.4775930345058441,0.019535403698682785
1726407108910671400,11.85967138671875,-0.15451247990131378,-0.42119136452674866,0.012140294536948204
1726407108920668200,11.869668212890625,-0.1400160938501358,-0.4051990807056427,0.025822816416621208
1726407108930664000,11.879663818359376,-0.13218237459659576,-0.3990568220615387,0.06462768465280533
1726407108940660200,11.88966015625,-0.12051878869533539,-0.2880818545818329,0.10869660973548889
1726407108950657000,11.899656982421876,-0.09486076980829239,-0.12492185831069946,0.14786545932292938
1726407108960653000,11.909653076171875,-0.06306342780590057,-0.004005821421742439,0.18971224129199982
1726407108970649300,11.9196494140625,-0.007841096259653568,0.04126390442252159,0.21045276522636414
1726407108980646100,11.929646240234375,0.06438169628381729,0.10332594066858292,0.20389819145202637
1726407108990642200,11.93964208984375,0.10512484610080719,0.165604829788208,0.20097675919532776
1726407109000639200,11.94963916015625,0.09423864632844925,0.21436545252799988,0.20906317234039307
1726407109010635300,11.95963525390625,0.07046972215175629,0.2756839394569397,0.21998704969882965
1726407109020631600,11.969631591796874,0.06624435633420944,0.3088919520378113,0.2223748415708542
1726407109030628400,11.97962841796875,0.08268844336271286,0.29089367389678955,0.23793889582157135
1726407109040624400,11.989624267578124,0.11156642436981201,0.28831467032432556,0.2695165276527405
1726407109050620700,11.99962060546875,0.1312927007675171,0.33259356021881104,0.3042370080947876
1726407109060617500,12.009617431640624,0.13504962623119354,0.34270399808883667,0.31402677297592163
1726407109070613500,12.019613525390625,0.11562847346067429,0.3300408124923706,0.27165570855140686
1726407109080610600,12.029610595703126,0.10635694116353989,0.30361559987068176,0.180800661444664
1726407109090606300,12.0396064453125,0.10208814591169357,0.3366052806377411,0.08549868315458298
1726407109100602400,12.049602294921876,0.11900374293327332,0.37010571360588074,0.008963431231677532
1726407109110599400,12.059599365234375,0.14323562383651733,0.3693913519382477,-0.008229765109717846
1726407109120595500,12.069595458984375,0.15522438287734985,0.39066386222839355,0.008700216189026833
1726407109130592500,12.079592529296875,0.1560044288635254,0.40431225299835205,0.01573147252202034
1726407109140588500,12.089588623046875,0.13039948046207428,0.41449350118637085,0.014503754675388336
1726407109150584600,12.09958447265625,0.0982150137424469,0.4339923560619354,0.0043678199872374535
1726407109160581600,12.10958154296875,0.08819247037172318,0.47856274247169495,-0.031934794038534164
1726407109170577400,12.119577392578124,0.104153111577034,0.4715973436832428,-0.09774614125490189
1726407109180573400,12.129573486328125,0.13252775371074677,0.43217429518699646,-0.17790062725543976
1726407109190570500,12.139570556640624,0.1691329926252365,0.4627588093280792,-0.22670218348503113
1726407109200566500,12.14956640625,0.17674483358860016,0.46675941348075867,-0.2301589548587799
1726407109210563300,12.159563232421876,0.16562598943710327,0.43844491243362427,-0.21333597600460052
1726407109220559600,12.1695595703125,0.1686694473028183,0.43467333912849426,-0.1981775313615799
1726407109230555600,12.1795556640625,0.18546175956726074,0.42871150374412537,-0.19626809656620026
1726407109240552400,12.189552490234375,0.2029949426651001,0.4405442178249359,-0.2196466475725174
1726407109250548500,12.199548583984376,0.1903923749923706,0.41407105326652527,-0.27704018354415894
1726407109260544500,12.20954443359375,0.17565682530403137,0.37588638067245483,-0.32847514748573303
1726407109270541300,12.219541259765625,0.16868729889392853,0.3391507565975189,-0.35814058780670166
1726407109280537600,12.22953759765625,0.17629435658454895,0.3206588327884674,-0.3710486590862274
1726407109290534400,12.239534423828125,0.18829336762428284,0.33429858088493347,-0.3762029707431793
1726407109300530400,12.249530517578124,0.18984492123126984,0.3592548072338104,-0.3690395951271057
1726407109310526500,12.2595263671875,0.18020766973495483,0.2985629737377167,-0.3733510971069336
1726407109320523500,12.2695234375,0.16750119626522064,0.19894608855247498,-0.3864365220069885
1726407109330519600,12.27951953125,0.17007975280284882,0.11825661361217499,-0.4059520661830902
1726407109340515300,12.289515380859376,0.15949368476867676,0.06360960751771927,-0.400851845741272
1726407109350512400,12.299512451171875,0.12774182856082916,0.025009892880916595,-0.3836275041103363
1726407109360508400,12.30950830078125,0.0929790586233139,-0.042280200868844986,-0.3511776924133301
