time,seconds_elapsed,z,y,x
1726941003458889000,0.013888916015625,-1.306350893869996,0.7618412810981273,0.695206954717636
1726941003468875000,0.023875,-1.5249661722660064,1.2885522023290394,0.285087546082586
1726941003478861000,0.033861083984375,-1.4313450547605753,1.8297282867640257,-0.5018086812950671
1726941003488847000,0.04384716796875,-1.181550209724903,1.6218454147845505,-1.2547783814124762
1726941003498832000,0.053831787109375,-0.6676695439726114,0.8490496089518069,-1.303967213603854
1726941003508818200,0.063818115234375,0.24417232897877691,0.2861813326686621,-0.9518595566935837
1726941003518804000,0.073803955078125,0.6367044968664646,0.06809387753903866,-0.7732653230406343
1726941003528790000,0.0837900390625,0.6038391690969467,0.22378829711973666,-0.6769033823944628
1726941003538775800,0.09377587890625,0.2585392925053835,0.5782359412848949,-0.5963778933055699
1726941003548762000,0.10376220703125,0.11876783372163773,1.2408230674266814,-0.5315395104311407
1726941003558748000,0.113747802734375,-0.3926040640801191,1.4464929395318031,0.7976778797633945
1726941003568734000,0.12373388671875,-1.1873381454765797,1.3519921165823936,1.8579225539825857
1726941003578720000,0.133719970703125,-1.420358965843916,1.1367162117421625,2.6539246094882487
1726941003588706000,0.1437060546875,-0.7292869189739227,1.23027010923028,2.666391584612429
1726941003598691800,0.15369189453125,0.5203992538660764,1.497364464113116,2.158377180545032
1726941003608678100,0.16367822265625,0.9689654436647891,1.3903829297751187,1.896461105082929
1726941003618664000,0.173663818359375,0.7725561518579721,1.832847880089283,1.9938900904387233
1726941003628650000,0.18364990234375,1.2554247164919972,3.105413993257284,1.4037719881802797
1726941003638636000,0.193635986328125,2.0126742858856916,4.266352792108059,-0.30088848793506623
1726941003648622000,0.2036220703125,1.496945361918211,3.0477707825839517,-0.7634504698604345
1726941003658607900,0.21360791015625,1.1899725856333971,2.782965415421128,-0.36355741781592366
1726941003668594200,0.22359423828125,0.22569003908783197,1.1395277620315551,-1.0181319178938866
1726941003678580000,0.233580078125,-0.43648353781700133,-1.073210246515274,-1.4396218847185371
1726941003688566000,0.24356591796875,-0.8315189206972717,-1.4086778804004192,-1.6475135245263575
1726941003698552000,0.253552001953125,-1.3753845364771782,-0.7575999902665614,-1.082438385848701
1726941003708538000,0.2635380859375,-1.961286628475785,-0.05523205787837505,0.2517535778880119
1726941003718524000,0.27352392578125,-2.0559645615577695,0.6832663415551186,1.7581968359917401
1726941003728510200,0.28351025390625,-0.7728343842774629,1.5219003549546002,3.396368239416182
1726941003738496000,0.29349609375,0.5635879688598215,1.8853677563995122,4.8890915997251865
1726941003748482000,0.30348193359375,1.3349088798344135,2.3678607657194135,5.638292887219786
1726941003758468000,0.313468017578125,1.4364723346464334,2.959008795547485,4.977754510301351
1726941003768454100,0.3234541015625,1.2474568063527345,1.9097855738192795,3.77896850361526
1726941003778440000,0.33343994140625,0.995295816707611,-0.008608838391304016,2.8116858984708784
1726941003788426000,0.343426025390625,1.352892280292511,0.39670214704871176,0.136335639116168
1726941003798412000,0.353412109375,1.477898131620884,1.6128770954310894,-0.8471320848926901
1726941003808398000,0.363398193359375,0.19385025497376918,2.7167349936664102,0.6549617458298802
1726941003818384000,0.3733837890625,-1.4630787481516598,3.819064367160201,2.55591548615694
1726941003828370200,0.3833701171875,-1.911467243295908,3.3893905093580483,0.7865349928498268
1726941003838356000,0.39335595703125,-1.4508628251791,2.2755729426443576,-1.5248971986830233
1726941003848342000,0.403342041015625,-1.5594237376630304,1.8962562301605939,-2.7343495608121153
1726941003858328000,0.413328125,-1.4013281021595,1.899167149171233,-2.7793483939677475
1726941003868314000,0.423314208984375,-0.5400725071072578,0.7566250077545642,-1.9341472771376371
1726941003878300000,0.4332998046875,0.11985029519610106,0.4797580313980579,-0.3813105166494846
1726941003888286200,0.4432861328125,-0.3090941523529589,1.100068442824483,1.07907358559072
1726941003898272000,0.45327197265625,-0.5556313107669353,0.9014046500891446,1.043594275930524
1726941003908258000,0.463258056640625,0.7348501060590148,-2.662325942608714,-6.344159767639637
1726941003918244000,0.473244140625,-2.4320412692070006,-4.117529427340626,-2.485976857534051
1726941003928230100,0.483230224609375,-4.323175334048271,-2.151745487445593,-0.14392273324429988
1726941003938216000,0.4932158203125,-2.0745196244239805,-1.5830214708715675,-0.595710807698965
1726941003948202200,0.5032021484375,-1.1200536846242843,-1.1143453899800777,-0.5422404987961054
1726941003958188000,0.51318798828125,0.8314753738164902,-0.005361234772205352,-1.296246263962984
1726941003968174000,0.523174072265625,2.9115748441994187,0.15253274067938327,-0.09365852690637111
1726941003978160000,0.53316015625,3.5266800881981846,0.9953563147231936,1.530433205500245
1726941003988146200,0.543146240234375,2.7781752585351467,2.4876973977163432,1.8333675200492143
1726941003998132000,0.553132080078125,-1.180146626537293,2.4691549020707604,2.2686200547665356
1726941004008118000,0.563117919921875,-3.0478698590442534,2.5143609482362863,2.9637329014599323
1726941004018104000,0.57310400390625,-2.7070024119421836,2.483970778408646,3.7276030580371615
1726941004028090000,0.583090087890625,-1.4866510546579956,4.370107473354041,3.7747242901742455
1726941004038076200,0.593076171875,2.8292987120509148,4.218255992937088,0.8294196103304624
1726941004048062200,0.603062255859375,7.080997540384531,3.457075221574306,-0.6164531514763831
1726941004058048000,0.613048095703125,11.424940937173366,2.417758769093454,-1.1644950300276278
1726941004068034000,0.623033935546875,11.74224513785839,0.06478356568096205,-0.41361470340490336
1726941004078020000,0.63302001953125,10.71488595741391,-2.7692583771079775,-0.11058920344114304
1726941004088006100,0.643006103515625,7.503859380084275,-5.345501196500659,-2.3355554099202154
1726941004097992200,0.6529921875,3.0868177215978503,-7.486419584983587,-3.2875083439856767
1726941004107978000,0.66297802734375,-0.1573570920959115,-5.4171051279872655,-2.3192384813696143
1726941004117964000,0.672964111328125,-1.3006138115227222,-4.548435165025293,1.3154524842143058
1726941004127950000,0.6829501953125,-2.532687170782685,-7.347361827427148,1.9816899495571851
1726941004137936100,0.69293603515625,-1.938992379081249,-8.813654861450194,-0.18095979374051094
1726941004147922000,0.702921875,-1.647889372101426,-8.333525658652185,-0.6166857911884784
1726941004157908200,0.712908203125,-0.23509470403194427,-7.32393535913229,-0.41823008824586866
1726941004167894000,0.72289404296875,1.4910264932632444,-4.997350022131204,-1.6387071177363395
1726941004177880000,0.732880126953125,1.5624395783528684,-1.8973511857904493,-1.7936404898166656
1726941004187866000,0.7428662109375,0.4312108581110835,-0.731003952024877,0.2521908002614975
1726941004197852200,0.75285205078125,-1.4465996147766709,-0.8251048158712685,2.544187054440379
1726941004207838000,0.762837890625,-2.574894035132229,0.20225085744187235,3.514441368871927
1726941004217824300,0.77282421875,-2.591528066807985,2.1689706168822944,3.6771325154721737
1726941004227810000,0.78281005859375,-2.7981121311485766,3.6897348074138163,2.1953578346788882
1726941004237796000,0.792796142578125,-2.270021445997059,6.0470443685024975,-1.3904600866645573
1726941004247782100,0.8027822265625,-1.0914727561756967,8.876874410951137,-8.90714095439911
1726941004257768200,0.812768310546875,-1.7417057199180126,7.4149512625753875,-9.03299085533619
1726941004267754000,0.82275390625,-3.685787238831818,6.704252139693498,-5.194466585424542
1726941004277740000,0.832739990234375,-4.107108278830349,5.902381630545854,-3.4460733505666252
1726941004287726000,0.84272607421875,-3.884494286186993,3.9018116239517924,-1.7686182767629621
1726941004297712000,0.852712158203125,-3.8902708237618207,1.6988532511413097,-2.5538199751824138
1726941004307698000,0.862697998046875,-1.9960212572485208,1.2041188921466468,-2.628251823571324
1726941004317684200,0.872684326171875,-0.10814005672335623,1.0032213490098714,-3.9544016428887843
1726941004327670000,0.882669921875,1.8618369509473442,1.0745616611242295,-3.6779993614345785
1726941004337656000,0.892656005859375,2.595821964609623,1.1807210654243827,-2.3160358859360217
1726941004347642000,0.90264208984375,2.878094307141006,0.8376248363569379,-0.9500421320080756
1726941004357628200,0.912628173828125,4.409521492114663,-0.09989099155515432,1.300336163625121
1726941004367614000,0.922614013671875,6.428668773406744,-1.6126476705893873,1.3369459386199711
1726941004377600300,0.932600341796875,4.7860342530936,-1.740893526752293,2.617484930363297
1726941004387585300,0.942585205078125,2.085252030840516,-1.1285302749380468,4.207184563824534
1726941004397572000,0.952572021484375,0.18329846582114695,-1.028385016360879,4.198136749494076
1726941004407557000,0.96255712890625,-1.1802724448740483,-1.0292658908486365,3.149142660346627
1726941004417543200,0.972543212890625,-1.595223365318775,-0.8484571960166096,2.4946441481143236
1726941004427529200,0.982529296875,-2.016480107909441,-0.7980237705916166,1.7856950837701557
1726941004437515000,0.992514892578125,-2.5838234837800265,-0.918038097243011,0.8229296637892722
1726941004447501000,1.0025009765625,-3.1633710921853777,-1.2367203082829714,-0.259886615461111
1726941004457487000,1.012487060546875,-2.7911010833427308,-0.4919318687945604,-1.385377084311843
1726941004467473200,1.02247314453125,-1.9162679215759038,2.0790403167188165,-5.045340438318252
1726941004477459200,1.032459228515625,-1.0786270108669995,3.735241005569696,-6.103554775753617
1726941004487445000,1.042445068359375,-1.1479495534181594,2.9533015238165854,-4.272119685071707
1726941004497431000,1.05243115234375,-0.5736664414122701,1.3929232619076966,-3.082079294899106
1726941004507417000,1.0624169921875,1.1759493209779261,0.31963381267637014,-1.2107166829764842
1726941004517403100,1.072403076171875,2.8792922847539186,0.5481172818750143,0.2752069341897964
1726941004527389000,1.082388916015625,3.8179046757310626,1.020572589044273,0.48171208807528015
1726941004537375200,1.092375244140625,3.5957457333788274,1.1027589970827103,0.41824002511799335
1726941004547361000,1.102361083984375,3.255690187181532,1.232149639366567,0.461585245847702
1726941004557347000,1.11234716796875,2.487844697232544,1.3194175884529948,0.33954175145626064
1726941004567333000,1.1223330078125,1.460445184777677,1.1290569291606545,-0.618033114144206
1726941004577319200,1.132319091796875,0.0973424761161208,1.1538599465057253,-1.9344255095571279
1726941004587305000,1.142304931640625,-0.36928690137863157,-0.17020795197114347,-1.0981167242348193
1726941004597291300,1.152291259765625,0.14341697567924858,-0.3374294354774058,-0.48125849908888335
1726941004607277000,1.162277099609375,-0.2159421136640012,-0.9477399925455451,-1.2470581624239683
1726941004617263000,1.17226318359375,-0.4141032175742089,-1.3753897971741855,-1.36281570841372
1726941004627249000,1.182248779296875,-0.3335210298620164,-0.6244707459762692,-0.27393969073295593
1726941004637235200,1.192235107421875,-0.4123720098674297,-0.03692819329425692,0.20031623611748217
1726941004647221000,1.202220947265625,-0.03007701222524047,-0.04059679880440235,0.5836772555559874
1726941004657207000,1.21220703125,0.43691359979733824,0.015764847625792024,0.6567407382011413
1726941004667193000,1.222193115234375,0.7169685585401951,0.11275953321754932,0.5282791934609413
1726941004677179100,1.23217919921875,0.7745861963808536,0.11246449579373001,0.34122517449855805
1726941004687165000,1.2421650390625,0.8247603863477706,0.17293313915133476,0.2324707852691412
1726941004697151200,1.252151123046875,0.825129950312525,0.038197628708183766,0.23177812682986257
1726941004707137000,1.262136962890625,0.8133261152721941,-0.0644926381766796,0.3273983091980219
1726941004717123000,1.272123046875,0.6968200890026987,-0.13107611115276813,0.2980868745177984
1726941004727109000,1.282109130859375,0.6231704770326614,-0.2600942668624222,0.34253742614090443
1726941004737095200,1.29209521484375,0.656457829606533,-0.3365117361105978,0.2487608258128166
1726941004747081000,1.3020810546875,0.55953460181579,-0.3911114874348044,0.00028232407271862027
1726941004757067300,1.3120673828125,0.44943391254395243,-0.3910454364612698,-0.29936113223731514
1726941004767053000,1.322052978515625,0.26476269706487654,-0.3267423295073211,-0.6534118860393762
1726941004777039000,1.3320390625,0.14134426105841993,-0.32903657792434093,-0.7573299411535263
1726941004787025200,1.342025146484375,0.13851502898186444,-0.5063078924104571,-0.7759124765485524
1726941004797011200,1.35201123046875,0.029842180556058882,-0.5954403201945125,-0.48746378346979613
1726941004806997000,1.3619970703125,-0.12899828196540475,-0.5002709503337741,-0.40947804199159143
1726941004816983300,1.3719833984375,-0.42819633259549733,-0.19242263332344592,-0.3373451181948185
1726941004826969000,1.381968994140625,-0.7081681430995463,0.23741518286876379,-0.23464228408932686
1726941004836955100,1.391955078125,-0.7141792200826108,0.5660644419759512,-0.002087327668070793
1726941004846941200,1.401941162109375,-0.5263232370875776,0.728774074080959,0.5143360083043576
1726941004856927200,1.41192724609375,-0.42141324832662935,0.7930032390158623,0.9510977785408496
1726941004866913000,1.4219130859375,-0.3034275048933923,0.8535955087531357,1.0557207670539617
1726941004876899000,1.431899169921875,-0.12553177489861844,0.7290789022464305,0.7277712537139653
1726941004886885000,1.441885009765625,-0.0077331515353173015,0.6396433267973363,0.3883563435077667
1726941004896871200,1.45187109375,0.24173596867732702,0.4234960459500551,0.05343348402380943
1726941004906857000,1.46185693359375,0.3691781803071499,0.2706422566227615,-0.2916501194685697
1726941004916843300,1.47184326171875,0.39583004038929936,0.15688772101849316,-0.2563034962773323
1726941004926829000,1.4818291015625,0.5726116716623306,-0.00018712006993591785,-0.11946224572658538
1726941004936815000,1.491815185546875,0.9316530733585358,-0.2422914836682379,0.23095628905296325
1726941004946801200,1.50180126953125,1.0256874478399753,-0.43787959528528153,0.9114315385848283
1726941004956787200,1.511787109375,0.8248457265436648,-0.5828549793876707,0.7909791127771139
1726941004966773000,1.52177294921875,0.6595861907601356,-0.6222870452616364,0.30373569405972956
1726941004976759300,1.53175927734375,0.5091945902952925,-0.4907475543808192,0.17754793947041034
1726941004986745000,1.5417451171875,0.28369766262676566,-0.6173589412096887,-0.5608785637706518
1726941004996730000,1.551730224609375,0.020520225459337234,-0.5928277996085584,-1.0010954428970813
1726941005006716000,1.5617158203125,-0.29274847263190895,-0.5602673000045121,-1.1301941164970397
1726941005016702200,1.5717021484375,-0.459345357966423,-0.5569417357783765,-0.8404290801227092
1726941005026688000,1.58168798828125,-0.5212848045289517,-0.6498140076778829,-0.5604992090642452
1726941005036674000,1.591674072265625,-0.6886871975600719,-0.6852279970169067,-0.1272521689504385
1726941005046660000,1.60166015625,-0.7340753222942352,-0.720033572134003,0.17269056256711482
1726941005056646100,1.611646240234375,-0.8323696923077106,-0.7967354843467473,0.3133481565356254
1726941005066632000,1.6216318359375,-0.8730898252308368,-0.8628651491407304,0.3805307644486427
1726941005076618200,1.6316181640625,-0.8338315815538168,-0.9541488366745412,0.44759179180860514
1726941005086604000,1.64160400390625,-0.6656687255442142,-1.0459259337484836,0.4618839365333318
1726941005096590000,1.651590087890625,-0.5706611221164465,-1.1305632420703768,0.4909942956835031
1726941005106576100,1.661576171875,-0.5041384394168853,-1.1214799180351198,0.412957116279006
1726941005116562200,1.671562255859375,-0.36214696649610995,-1.020742757979408,0.35882688216269015
1726941005126548000,1.6815478515625,-0.23483174224682152,-0.9342321300663053,0.3184580468952656
1726941005136534300,1.6915341796875,-0.2045452519893646,-0.8899164568692445,0.12967384313941002
1726941005146520000,1.70152001953125,-0.2245359371492639,-0.8482762134265154,-0.1323854401856661
1726941005156506000,1.711506103515625,-0.2795013799807057,-0.7972366388019174,-0.37588673803508277
1726941005166492200,1.7214921875,-0.2662871301531792,-0.7385531983606517,-0.3792851483017206
1726941005176478200,1.731478271484375,-0.17757595998849718,-0.6656154609870165,-0.3022141835808754
1726941005186464000,1.741464111328125,0.007198387071490287,-0.5544569332253187,-0.04757423660159111
1726941005196450300,1.7514501953125,0.12297869288232177,-0.4627188164548948,-0.1431757142692804
1726941005206436000,1.76143603515625,0.14791563880536704,-0.3257953675134107,-0.7560404858648777
1726941005216422100,1.771422119140625,0.04629764079451561,-0.1650771101550199,-1.3062591239333152
1726941005226408000,1.781407958984375,0.12646949414014816,-0.08354465424697846,-1.5329928268551825
1726941005236394200,1.791394287109375,0.2919072360347956,-0.016301429587369784,-1.3350339675188063
1726941005246380000,1.801380126953125,0.33412206449508663,0.11840374964959918,-1.1200526617109774
1726941005256366000,1.811365966796875,0.45943657991383224,0.2329110398499295,-0.8897843549221753
1726941005266352000,1.82135205078125,0.60550801562462,0.3407517848331481,-0.5677332519710063
1726941005276338200,1.831338134765625,0.6631868456006049,0.5866504261478781,-0.2024894885033369
1726941005286324000,1.841323974609375,0.9682546650469303,0.6528782175540924,-0.12167349203526973
1726941005296310300,1.851310302734375,1.1174158834666013,0.616587883771956,-0.20483283675909042
1726941005306296000,1.861296142578125,1.210735972198844,0.31320458334647117,-0.22591069610118863
1726941005316282000,1.8712822265625,1.1972206570655106,-0.05193551881732419,-0.4279746526688337
1726941005326268200,1.88126806640625,1.038442884516716,-0.22528673725025727,-0.04546528162360191
1726941005336254200,1.891254150390625,0.7845470339030027,-0.2487439477432519,0.4955956519991159
1726941005346240000,1.901239990234375,0.49983931745085863,-0.1855396871429868,0.6749667152434587
1726941005356226300,1.911226318359375,0.2980646992186084,-0.12241240076906978,0.398743882009387
1726941005366212000,1.921212158203125,0.15489658373389392,0.03958524714168161,0.008146481576561927
1726941005376198100,1.9311982421875,0.21641630704700945,0.12993112410241736,0.012286065599322318
1726941005386184200,1.94118408203125,0.43854401401076465,0.13529699851712212,0.10774316636025905
1726941005396170200,1.951170166015625,0.5350801056474447,0.09022329176068306,0.03649988487958908
1726941005406156000,1.961156005859375,0.6020347500234842,0.08360856806235388,-0.22599311368763444
1726941005416142300,1.971142333984375,0.5576630357902497,0.12611249739602207,-0.3681295480370521
1726941005426128100,1.981128173828125,0.4392933345407247,0.3343829073883593,-0.21109949593842028
1726941005436114200,1.9911142578125,0.2681440831314772,0.45340281617492434,-0.011198270362615585
1726941005446100200,2.001100341796875,0.27888364994116127,0.4086210963686928,0.21326164240837095
1726941005456086300,2.011086181640625,0.3071207333881408,0.2591458618300967,0.6854279035031795
1726941005466072000,2.021072021484375,0.3608230244159698,0.06224224716769531,0.9287351400852203
1726941005476058000,2.03105810546875,0.4332458710700273,0.03377166549209505,0.761360804104805
1726941005486044200,2.041044189453125,0.23886077856719493,0.05416057445565238,0.6247954478859901
1726941005496030200,2.0510302734375,0.09613865328431129,-0.07865781378718092,0.5417173517048358
1726941005506016000,2.06101611328125,0.013283259943127632,-0.20853114328775554,0.40813071903586384
1726941005516002300,2.071002197265625,-0.08237316278219223,-0.38569391936548053,0.26074586263895033
1726941005525988000,2.080988037109375,-0.011619637579843401,-0.6622223844826222,0.21422785709202288
1726941005535974100,2.09097412109375,0.18936346494853495,-0.8495824737194925,0.05138064314723015
1726941005545960200,2.100960205078125,0.58796180100739,-0.9250150235835463,-0.05708440774679183
1726941005555946000,2.110946044921875,0.8457317165754735,-0.8863165326811373,-0.11652736131846904
1726941005565932000,2.12093212890625,0.924031711634621,-0.7799494769796729,-0.4674415706604719
1726941005575918000,2.13091796875,0.953937385880947,-0.7340723266195506,-0.9196972626268863
1726941005585904000,2.140904052734375,0.9002527035750448,-0.81716401293464,-1.3595938237577676
1726941005595890000,2.150889892578125,1.038755165336281,-0.9860159471869469,-1.2347656670838594
1726941005605876200,2.160876220703125,1.1653852568656204,-1.0559328023694454,-0.8283920208483934
1726941005615861200,2.170861328125,1.1097301512695847,-1.1415457507904618,-0.6087818861961365
1726941005625847000,2.180846923828125,1.069474567118287,-1.1761280385456978,-0.3520931899935007
1726941005635833000,2.1908330078125,0.8602167535237968,-0.9909201589066534,0.1974485717266798
1726941005645819100,2.200819091796875,0.5055909763127565,-0.617632497454062,0.6150263335436582
1726941005655805200,2.21080517578125,0.25269407360851764,-0.19783256607558578,0.6957575743377208
1726941005665791000,2.220791015625,0.15571385493353007,0.048186121422238645,0.5266337643414736
1726941005675777300,2.23077734375,0.1572908949919045,0.11112988618910312,0.21697043379843234
1726941005685763000,2.24076318359375,0.2341653142273426,0.1473314091766253,-0.015180617997050285
1726941005695749000,2.2507490234375,0.2138514249950647,0.12795238964166492,-0.28596915122270583
1726941005705735200,2.260735107421875,0.3429175114996731,0.14685454891249536,-0.3644833004891872
1726941005715721200,2.27072119140625,0.3061195204563439,0.23940990034993737,-0.2956862431168556
1726941005725707000,2.28070703125,0.23706162019073962,0.386047920434922,-0.20095394949913023
1726941005735693300,2.290693359375,0.3236184983983636,0.48662981686368584,-0.027919688060879706
1726941005745679000,2.30067919921875,0.5949325168028473,0.5087848404506221,0.01306114162504673
1726941005755665200,2.3106650390625,0.8420255555339157,0.43656613806653766,-0.29651100350320336
1726941005765651200,2.320651123046875,0.8440433250971138,0.2702779168223962,-0.433373296841979
1726941005775637200,2.33063720703125,0.7273829850487411,-0.0691499624632299,-1.0664151795476675
1726941005785623000,2.340623046875,0.5413824206620454,-0.3353780193729326,-1.4621008430302143
1726941005795609000,2.350609130859375,0.4812814415730536,-0.6442835538186132,-1.4903162991672754
1726941005805595100,2.36059521484375,0.5640251912333071,-0.9083904173232614,-1.3669172985136508
1726941005815581200,2.370581298828125,0.7278340898171067,-1.0267085345160216,-1.1543728644639253
1726941005825567000,2.38056689453125,0.779995946469903,-1.1218184292744844,-0.9911831206917762
1726941005835553300,2.39055322265625,0.6559396509513259,-1.1681323636166752,-0.9829922154515981
1726941005845539000,2.4005390625,0.4694172546476125,-1.2871484730109573,-0.857022487527132
1726941005855525000,2.410525146484375,0.6078112875983118,-1.4693426308520137,-0.6405208402842283
1726941005865511200,2.42051123046875,0.6523197068884968,-1.5335333634726702,-0.5030377846986055
1726941005875497200,2.430497314453125,0.6685530488088727,-1.663345738299936,-0.5729886882811784
1726941005885483000,2.44048291015625,0.6151838621929288,-1.662067535057664,-0.6821528273552656
1726941005895469300,2.45046923828125,0.5541299662932754,-1.5990880779229104,-0.7251473349511623
1726941005905455000,2.460455078125,0.7025646240040659,-1.4771557888209819,-0.7262135028779506
1726941005915441200,2.470441162109375,0.9574433481752872,-1.3680907262071966,-0.6430009666621684
1726941005925427200,2.48042724609375,1.4581050513923168,-1.318171387784183,-0.7441033798336982
1726941005935413200,2.490413330078125,1.4318214401006697,-1.2500300178416073,-0.9763093766868114
1726941005945399000,2.50039892578125,1.1661147401839493,-1.0928728322319685,-0.9551789103746413
1726941005955385000,2.510385009765625,1.2019582069814205,-1.082331710603833,-1.1020160697609185
1726941005965371100,2.52037109375,1.2716682875454426,-1.122706244959682,-1.2579530659258364
1726941005975357000,2.53035693359375,1.397745567497611,-1.2210737532746045,-1.0688935523599385
1726941005985343200,2.54034326171875,1.5745476570367811,-1.3855609164461493,-0.815059661066532
1726941005995329000,2.5503291015625,1.750920122987032,-1.4986711627975104,-0.6892243731766938
1726941006005315000,2.560315185546875,1.7908125729143618,-1.5792115571945904,-0.5662935745567083
1726941006015301000,2.570301025390625,1.7217916436582803,-1.5932035499289632,-0.5796341176450253
1726941006025287200,2.580287109375,1.855268970733881,-1.6421891146332024,-0.6454542050331831
1726941006035273700,2.590273681640625,1.977766054111719,-1.6128754879958926,-0.6391004520922899
1726941006045260000,2.600260009765625,2.0514292562156915,-1.5405898578554391,-0.5007517195880413
1726941006055245800,2.610245849609375,1.9249661918163299,-1.382755649767071,-0.08228782258629798
1726941006065232000,2.62023193359375,1.8866887758702038,-1.240360564481467,0.7901485071718692
1726941006075218000,2.630218017578125,2.2455799554407596,-1.212716332361102,1.45091893928051
1726941006085204000,2.640203857421875,2.2777660687744614,-1.1043341374449431,1.6666040094435215
1726941006095189800,2.650189697265625,2.0734610552817583,-1.0181710077952593,1.3663403754085302
1726941006105176000,2.660176025390625,1.7067618323087692,-0.9121510850310325,0.7321943308532237
1726941006115161900,2.670161865234375,1.1966601005733013,-0.789768567943573,0.04937631758749485
1726941006125148000,2.68014794921875,0.9677344405651092,-0.6404350616969168,-0.6491624119013547
1726941006135132700,2.690132568359375,0.39835751304030415,-0.5331546174775809,-1.2479904748380184
1726941006145119000,2.700118896484375,0.28296646227538585,-0.30009905459042635,-1.118363977971673
1726941006155104800,2.710104736328125,0.3446943119138479,-0.13274232733193783,-0.9283587079882621
1726941006165090800,2.7200908203125,0.19381985983550548,-0.017655995134636757,-1.0163549713492392
1726941006175076900,2.730076904296875,0.07844926733672618,0.2540652158312499,-1.2206664145827293
1726941006185063000,2.74006298828125,-0.6009960546255111,0.3029507542271167,-1.8156798876672982
1726941006195048700,2.750048583984375,-1.6383505593836307,0.14597214005477727,-2.5284996559649704
1726941006205035000,2.760034912109375,-1.5957032577902077,0.02005750331841409,-2.189849300390482
1726941006215020800,2.770020751953125,-0.7689128269195556,0.08302936166860163,-1.3175059096127748
1726941006225006800,2.7800068359375,-0.31460663216412066,0.3088816055808216,-0.5525333447515964
1726941006234993000,2.789992919921875,-0.21604279755949973,0.4740228487469256,-0.3799386437743902
1726941006244979000,2.79997900390625,0.05599193633496761,0.6440418540172278,-0.2984603840053081
1726941006254964700,2.80996484375,0.5334855299323797,0.733723147855699,0.07010755544900894
1726941006264950800,2.81995068359375,0.8896089983552694,0.8850500198766589,0.1168038401722908
1726941006274936800,2.829936767578125,0.7849655515760183,1.04871176507473,-0.16058803684115408
1726941006284923000,2.8399228515625,0.4756710543453693,1.0575937943842262,-0.39424949319958685
1726941006294908700,2.84990869140625,0.44015608884990215,1.0226802288480101,-0.2517623457163572
1726941006304895000,2.85989501953125,0.7060983510881662,1.000267759901285,-0.32899405395686626
1726941006314880800,2.869880859375,0.9728612820595502,1.0966133339345454,-0.41949440909326075
1726941006324866800,2.87986669921875,0.9537328032195568,0.8851805143885314,-0.7594219449967146
1726941006334852900,2.889852783203125,0.8996259499788284,0.56853784635216,-1.3941297150880096
1726941006344839000,2.8998388671875,0.33329964219629765,-0.4823340924311429,-2.5019886656582355
1726941006354824700,2.90982470703125,-0.5454664751052856,-2.4988632271140814,-3.7741672408133744
1726941006364811000,2.91981103515625,-0.7572767496615648,-4.334845313575864,-4.423150204494595
1726941006374796800,2.929796875,-0.47095454721748825,-2.6878619504034518,-3.804018773719668
1726941006384782800,2.939782958984375,-1.5088485656797885,-0.6109872872859239,-3.15048910651952
1726941006394769000,2.949768798828125,-2.4276725526034832,0.7976781720243394,-2.1857547245532274
1726941006404755000,2.9597548828125,-1.9459131182551384,0.4569458956092596,-1.2294973712921142
1726941006414740700,2.96974072265625,-0.7669535095453262,1.000165176309645,-0.37612113131284713
1726941006424727000,2.97972705078125,0.12647417031526564,1.2642860683396457,-0.20304127716720102
1726941006434712800,2.989712890625,0.7588549587637186,1.5222995834052562,-0.00968698901683092
1726941006444699000,2.999698974609375,0.47742111288309097,1.3936395934835075,-0.10997224058657884
1726941006454685000,3.009684814453125,-0.6546902354121208,1.2794187555417418,0.06274257963895798
1726941006464671000,3.0196708984375,-1.3249977266728876,0.8148021791741251,0.38338936875015495
1726941006474656800,3.02965673828125,-2.0392343760311604,0.2424453590556979,1.4903329580411313
1726941006484643000,3.03964306640625,-2.181320541498065,-0.18314649012982845,2.3639406696662304
1726941006494628900,3.04962890625,-2.1647370709657667,-1.3465388196125625,1.920916916425526
1726941006504615000,3.059614990234375,-2.169583341953158,-2.394425239779055,1.5158371093928813
1726941006514600700,3.0696005859375,-1.8460060523480175,-3.0739199538409707,1.1344956130832433
1726941006524587000,3.0795869140625,-1.350747084957361,-3.5127971087962386,0.684449706120789
1726941006534572800,3.08957275390625,0.1718020892947912,-3.4815608435332774,0.36287089685648677
1726941006544558800,3.099558837890625,2.094479877912998,-2.6354519642084835,0.41982349491715426
1726941006554545000,3.109544921875,3.5858401331752536,-1.582571389016509,0.6690799952924251
1726941006564531000,3.119531005859375,4.453222686675191,-0.8187330888822675,0.9727548990756273
1726941006574516700,3.129516845703125,5.483934100157022,-0.1258966626882553,1.1077297712326049
1726941006584503000,3.1395029296875,6.1759162476092575,0.7992866301342845,1.1043418823599815
1726941006594488800,3.14948876953125,5.584401138034463,1.0496063758268952,0.5644599293887614
1726941006604475000,3.159474853515625,5.078237330269813,0.8745195657730102,-0.46996495165824886
1726941006614461000,3.1694609375,4.031735057938099,0.19240765495002268,-1.8180588917583227
1726941006624447000,3.179447021484375,2.776646733793616,-0.5128706119269132,-2.3172318177223206
1726941006634431700,3.189431640625,1.9062737663060425,-0.9827540227815508,-2.6188012736588715
1726941006644417800,3.199417724609375,1.3687684793382882,-1.1054062967211007,-1.920143009443581
1726941006654403800,3.20940380859375,0.1733627627402544,-1.010305462051928,-0.971074983164668
1726941006664390000,3.219389892578125,-0.01992167504429817,-0.24119272864609956,-0.19832243195176125
1726941006674375700,3.229375732421875,0.34269700061678887,-0.17539572987258434,0.06265723944306373
1726941006684362000,3.239362060546875,-0.5058756384730339,0.5670347483128308,0.4980117732301354
1726941006694347800,3.24934765625,-1.530019364002347,1.1946475917071104,0.31212650578618045
1726941006704333800,3.259333740234375,-0.46291678671240805,1.4831410007104278,-0.1663891243353486
1726941006714320000,3.26931982421875,-0.19127952770292758,2.018581171841919,-0.3320747765764594
1726941006724306000,3.279305908203125,-2.2787954118221996,2.1174019038170573,-0.2590525027245283
1726941006734291700,3.289291748046875,-3.982770828282833,1.967709939521551,0.08077917158901692
1726941006744278000,3.299278076171875,-4.017480907136202,1.3964151956766844,0.3065036974683404
1726941006754263800,3.309263916015625,-3.0555466772824524,-0.2757771352931857,0.4632783135011792
1726941006764249900,3.319249755859375,-1.8392291055589913,-1.0123881135448813,1.1679583222240209
1726941006774236000,3.32923583984375,-0.9518664248257875,-0.7864467300444841,1.6450298910170793
1726941006784222000,3.339221923828125,0.25952070475816724,-0.740239397881925,1.1410893122598529
1726941006794207700,3.349207763671875,0.9576467617928981,-1.087479594886303,-0.00225128605812788
1726941006804194000,3.359194091796875,1.2502899839520454,-1.0700067742988466,-0.15485826101750136
1726941006814179800,3.369179931640625,1.2089093412935734,-1.0018544445708393,0.1751417551115155
1726941006824166000,3.379165771484375,1.1825672778129577,-0.9075184567943215,0.2573836927294731
1726941006834152000,3.38915185546875,1.5328426047295332,-0.9078875823676585,0.01896627401560545
1726941006844138000,3.399137939453125,1.1678092691421509,-0.8904752597957849,-0.20838293045610187
1726941006854123800,3.409123779296875,1.0211375294506548,-0.7552060808673501,-0.23988719900548458
1726941006864109800,3.41910986328125,0.8688555486619473,-0.6926023251771927,-0.4866723408311605
1726941006874095900,3.429095947265625,0.20296061314642427,-0.6676116763055324,-0.7697691514879464
1726941006884082000,3.43908203125,0.23499124365746973,-0.6409551400482654,-1.1438412413164973
1726941006894067700,3.449067626953125,-0.42542730627357955,-0.36843671429008246,-1.5777309632480143
1726941006904054000,3.459053955078125,-1.9385072259128093,-0.022093173864483832,-1.8497759262755513
1726941006914039800,3.469039794921875,-2.901220038923621,0.15400485905855893,-1.6506693582087755
1726941006924025900,3.47902587890625,-0.8849234708875418,0.07088847669363021,-1.2396046315476297
1726941006934012000,3.489011962890625,-0.3861357448488474,0.28123540069907904,-1.0714952592909335
1726941006943998000,3.498998046875,-1.331414607977867,0.8384113105595111,-0.7999883486628532
1726941006953983700,3.508983642578125,-1.6675012505441904,0.9441115729153156,-0.5180085593372583
1726941006963970000,3.518969970703125,-0.7116969017475843,0.16670067450255155,-1.0484908158004282
1726941006973955800,3.528955810546875,-0.6228682792156934,-0.09551409164518117,-1.0586562359839677
1726941006983942000,3.53894189453125,-0.11029869606196879,-0.3443514898255467,-0.9837921336576342
1726941006993928000,3.548927978515625,0.7064034715145826,-0.6909457901418209,-0.75669836525172
1726941007003914000,3.5589140625,1.312650870797038,-0.8328788108736276,-0.46382951764315367
1726941007013899800,3.568899658203125,1.225213994884491,-0.8485407826468347,-0.437291639329493
1726941007023886000,3.578885986328125,1.2749766814410686,-0.9022776335313916,-0.41065877620875835
1726941007033870800,3.588870849609375,1.3441186067283153,-0.941620925143361,-0.3341153424933552
1726941007043857000,3.59885693359375,0.8921405626595019,-0.754040544219315,-0.3937082259297371
1726941007053843000,3.608843017578125,0.26534721895456315,-0.4414350227445364,-0.4341352211251855
1726941007063829000,3.6188291015625,0.07352525493800639,-0.37716654871255156,-0.5544166742801666
1726941007073814800,3.628814697265625,0.512589456897974,-0.5076464475378394,-0.9614499534681439
1726941007083800800,3.63880078125,0.24652210697531698,-0.4396051769688725,-1.1410177083283661
1726941007093787000,3.648786865234375,-0.4117763820618391,-0.20710165847390888,-1.1537737295269965
1726941007103773000,3.65877294921875,-0.21563655484616756,-0.27112638687789437,-1.227285832722485
1726941007113758000,3.668758056640625,0.1268289751023054,-0.25263416011482476,-0.9288374314159155
1726941007123744000,3.678743896484375,0.12983224857151507,-0.32949761956483126,-0.6261217280536889
1726941007133730000,3.68872998046875,0.4493026873797178,-0.7076011568665505,-0.6224228735357522
1726941007143715800,3.6987158203125,0.283460383272171,-0.8691231135569513,-0.7310396078601479
1726941007153702100,3.7087021484375,-0.06601824030876159,-0.9210251502297818,-1.0975459386095403
1726941007163688000,3.71868798828125,0.007653729623556137,-0.9244279444105923,-1.3480948168829083
1726941007173674000,3.728674072265625,-0.2774579279869795,-0.7445853181317448,-1.5434692126840353
1726941007183659800,3.73865966796875,-1.036436220869422,-0.5460602032147348,-1.7571952577337622
1726941007193646000,3.74864599609375,-1.3864420831948518,-0.3176189657226205,-1.6689549564838408
1726941007203631900,3.7586318359375,-1.1355319703936577,-0.11335180002227425,-1.3988845083996653
1726941007213618000,3.768617919921875,-0.7606517790526152,-0.19083909045904873,-1.0543290204346178
1726941007223604000,3.77860400390625,-0.4029711443156004,-0.4463033594332635,-0.8250324812874198
1726941007233589800,3.78858984375,-0.0882429315984249,-0.6808217248819768,-0.7581625925853848
1726941007243575800,3.798575927734375,0.3442243563145399,-0.9268332519866526,-0.679138155709207
1726941007253561900,3.808561767578125,0.40706279754340646,-0.9572510404735803,-0.7043789799496532
1726941007263548000,3.8185478515625,0.16259879214167594,-0.9066121556043625,-0.8264081535547971
1726941007273533700,3.82853369140625,-0.015683891344070434,-0.8111717137172818,-0.9881941680088638
1726941007283520000,3.83852001953125,-0.10151391658186912,-0.6103941436983644,-0.9453685872390866
1726941007293505800,3.848505859375,-0.17919979833066463,-0.29874402325227856,-0.8012631909042597
1726941007303491800,3.858491943359375,-0.18016718205809593,-0.17779446157738565,-0.7065735673844814
1726941007313478000,3.868477783203125,-0.04342354666292667,-0.1641626804575324,-0.6374196593984961
1726941007323464000,3.8784638671875,0.014915245059132574,-0.23556992032825946,-0.41503158446550364
1726941007333449700,3.88844970703125,0.3752379187375307,-0.21168416395857928,-0.3339502150595188
1726941007343436000,3.89843603515625,1.0333680654704571,-0.04627367539703846,-0.16699644257873295
1726941007353421800,3.908421875,1.4341256253898143,0.19963877524733542,0.2063058319211006
1726941007363408000,3.918407958984375,1.5296879400908947,0.37747839114069937,0.4425587660774588
1726941007373394000,3.928393798828125,1.5921674848794936,0.5956440260730683,0.5111319515660405
1726941007383380000,3.9383798828125,0.8635188638091087,0.9168027102291584,0.2926815083429217
1726941007393365800,3.94836572265625,0.09531330837607384,1.328949094647169,-0.013142390167713165
1726941007403352000,3.95835205078125,-0.15648586221933364,1.594362072314322,-0.44917263125926254
1726941007413337900,3.968337890625,-0.37337972365021704,1.6545228187665342,-1.5204717834562063
1726941007423324000,3.978323974609375,-1.1589712981700897,1.713204578707367,-2.7466046467512846
1726941007433309700,3.988309814453125,-1.6312538791209459,1.9813325144216416,-3.0277751655206084
1726941007443296000,3.9982958984375,-1.5472095682561398,2.1914992595545946,-1.992037156048417
1726941007453281800,4.00828173828125,-1.3070716093599795,2.2737992109701035,-0.7245730421945452
1726941007463267800,4.018267822265625,-0.7303992641299962,2.116550547684729,0.1364969671577215
1726941007473254000,4.02825390625,-0.14061375482678412,1.7622519566014407,0.4202680238142609
1726941007483240000,4.038239990234375,0.956751858779788,1.1929242019806057,0.6156719379708171
1726941007493225700,4.048225830078125,1.7365975831240414,0.6839420488595962,0.6095593003094196
1726941007503212000,4.0582119140625,1.7785989880293607,0.2697816942706704,0.4709618537411093
1726941007513197800,4.06819775390625,1.4398527708649635,-0.13317359488867223,0.5219628499209881
1726941007523183900,4.078183837890625,0.8841308592051267,-0.38256300092861056,0.7942170717850328
1726941007533170000,4.088169921875,0.29835750815272327,-0.6233241332244127,0.8540019706621765
1726941007543156000,4.098156005859375,-0.7015408339142799,-0.9287792714878916,1.070130985200405
1726941007553141800,4.108141845703125,-1.1947224105089902,-1.1435443041965365,1.380074593989551
1726941007563128000,4.118128173828125,-1.4888795443624256,-1.494750189961493,1.4377514146715402
1726941007573113900,4.12811376953125,-1.0024860204726458,-1.741346823477745,1.4969038608640433
1726941007583100000,4.138099853515625,-0.29330957711338995,-1.920915893512219,1.3652657319143413
1726941007593086000,4.1480859375,0.5282300936222076,-2.0959346067659554,1.040505370004475
1726941007603072000,4.158072021484375,1.2160703189641238,-2.213116778731346,0.6747437201425432
1726941007613057800,4.168057861328125,1.156277236780524,-2.283156821902096,0.10306436089426278
1726941007623044000,4.178044189453125,0.4462748639911413,-2.369687981146574,-0.48923663836121556
1726941007633030000,4.18802978515625,0.19784312400221823,-2.3798224216699597,-0.6567845773428678
1726941007643016000,4.198015869140625,-0.5418973844468593,-1.9540951095364987,-0.5638859288930893
1726941007653002000,4.208001953125,-0.7151964343011379,-1.2168497058387846,-0.28909020585268735
1726941007662988000,4.217988037109375,-0.6043307520061731,-0.4443058289404958,-0.11553250506222247
1726941007672973800,4.227973876953125,0.19991291601359842,0.06439100443311035,-0.07361176417768
1726941007682960000,4.2379599609375,0.9797551332265138,0.2907351965807378,-0.3252563287332654
1726941007692946000,4.24794580078125,0.9178437437146901,0.20326427226811647,-0.967533365035057
1726941007702932000,4.257931884765625,0.9447370113372802,-0.11454561291672288,-1.4105012964352965
1726941007712917800,4.267917724609375,0.5560527510493993,-0.2993295680552721,-1.612530473950505
1726941007722904000,4.277904052734375,0.1958048961728811,-0.4360479959439486,-1.7217805377423763
1726941007732889900,4.287889892578125,-0.03751110774874687,-0.5382279021538794,-1.5275336846664547
1726941007742876000,4.2978759765625,-0.43313598095476624,-0.48435361556001005,-1.02285280893594
1726941007752862000,4.307862060546875,-0.7014402961492539,-0.34566673714257773,-0.38741175613403317
1726941007762848000,4.317847900390625,-0.7029489471465349,-0.22867884564027188,0.05718699133843183
1726941007772833800,4.327833740234375,-0.33894027843177316,-0.24716113553121685,0.36088030756115913
1726941007782820000,4.337820068359375,0.15937690748572347,-0.43146512513309715,0.3756517602354288
1726941007792804900,4.347804931640625,0.5410293694406747,-0.6553859625913202,0.11410276452004908
1726941007802791000,4.357791015625,0.5282967291176319,-0.793559703854844,-0.22938597099632024
1726941007812776700,4.367776611328125,0.02378478021323681,-0.8902487575635314,-0.6241042507514357
1726941007822763000,4.377762939453125,-0.19504443319439888,-0.8053085938375443,-0.8729474941506982
1726941007832748800,4.387748779296875,-0.5280442156612872,-0.46130277564451094,-1.0847630294039845
1726941007842734800,4.39773486328125,-1.070990816900134,0.016550371980294583,-1.2553463905587792
1726941007852721000,4.407720947265625,-1.0456669905513525,0.27155221107453104,-1.3665806139051913
1726941007862707000,4.41770703125,-0.4939239193946123,0.2387796761550009,-1.2553566196918486
1726941007872692700,4.427692626953125,-0.1098889462172985,0.11109744522422552,-0.980484032022953
1726941007882679000,4.437678955078125,0.29237200400233265,-0.06388305491097271,-0.6674635000064969
1726941007892664800,4.447664794921875,0.8132523193836212,0.059380044403299685,-0.8093973975211382
1726941007902651000,4.45765087890625,0.9385878410577774,0.17825484563075006,-1.260699149763584
1726941007912637000,4.467636962890625,0.3727367495715618,0.06054726155176758,-1.4049141439527273
1726941007922623000,4.477623046875,0.25254034435153006,-0.0893487008832395,-1.280570848186314
1726941007932608800,4.48760888671875,0.9458324053585528,-0.08704612302929163,-1.3766238690137862
1726941007942595000,4.497594970703125,1.3352625155776738,-0.004567673241719603,-1.4978008097037672
1726941007952580900,4.507580810546875,1.239136137253046,0.01707001194022596,-1.4508300919532775
1726941007962567000,4.51756689453125,1.1696680487513542,0.019534283161908386,-1.4324948093175887
1726941007972553000,4.527552978515625,1.0390157159686089,-0.006941708896681666,-1.4855805028170346
1726941007982539000,4.5375390625,0.7341156543046236,-0.08790507794618606,-1.5479221004396677
1726941007992524800,4.54752490234375,0.28860943659842014,-0.3180282771758735,-1.4872589574232697
1726941008002511000,4.557510986328125,0.34570611930489537,-0.45662776957079765,-1.2981664183706045
1726941008012497000,4.567496826171875,0.41129064437150953,-0.4749504849858582,-1.1212529774114488
1726941008022483000,4.57748291015625,0.4868400986135006,-0.5283129496000707,-1.071848895034194
1726941008032468700,4.58746875,0.0009036708414554595,-0.3010312574066222,-1.060468253841996
1726941008042455800,4.597455810546875,-1.04304190274477,-0.2325964574754238,-1.4929711975902318
1726941008052442000,4.607442138671875,-1.9168337387651204,-0.2640807061500847,-1.5505574173793195
1726941008062428000,4.617427978515625,-2.330779866081476,-0.17541750331297515,-1.0716372981101274
1726941008072414000,4.6274140625,-2.0147154363244772,0.05163710212633013,-0.3014920067861676
1726941008082400000,4.63739990234375,-1.2824796044170856,0.14950608633458615,0.23758242919445036
1726941008092386000,4.647385986328125,-0.3469482283204794,0.11833470300137997,0.4868333766117692
1726941008102371800,4.657371826171875,0.38212300207614897,0.1567449515469372,0.5342208584696054
1726941008112358100,4.667358154296875,0.7574602895349264,0.21158771784678101,0.23691285936981438
1726941008122344000,4.677343994140625,0.540333203870058,0.016189941170066596,-0.24124007491916416
1726941008132330000,4.687330078125,0.3455313472598791,-0.3927778132118285,-0.5027873170688748
1726941008142316000,4.69731591796875,0.41934067983627316,-0.794615715713799,-0.24766221692115067
1726941008152302000,4.707302001953125,0.9216320300817489,-1.010066392599046,0.14765490550994873
1726941008162287900,4.717287841796875,1.201699848306179,-0.8324969719491898,0.4574178970351815
1726941008172274000,4.72727392578125,0.9812444950014352,-0.5205974067866802,0.6062246029287577
1726941008182260000,4.737260009765625,0.4155295971155166,-0.2814700862377882,0.32111849827617406
1726941008192246000,4.74724609375,-0.2226449723035097,-0.2166676514595747,-0.453105002272129
1726941008202231800,4.757231689453125,-0.5964554885864257,-0.29900398936271666,-0.8658169116184115
1726941008212218000,4.767218017578125,-0.6172434250712394,-0.5317638207063079,-0.9497928334221243
1726941008222204000,4.777203857421875,-0.059897711601853365,-0.6647469345241784,-0.8739721610233188
1726941008232190000,4.78718994140625,0.2783995927512646,-0.6986056572452187,-0.7315592478200793
1726941008242176000,4.797176025390625,0.1389502055287361,-0.45465515432357784,-0.17189093662202357
1726941008252162000,4.807162109375,0.1455944658488035,-0.15793226163536309,-0.09478957676291465
1726941008262147800,4.81714794921875,0.0015630115330219267,-0.014611878198385237,-0.002210077264904976
1726941008272134100,4.827134033203125,-0.5484913758844137,0.01977320648431778,0.16250030020326375
1726941008282120000,4.837119873046875,-1.0068249264597893,0.05841887122094631,0.3168567491784692
1726941008292106000,4.84710595703125,-1.0031821860432624,-0.017682956206798554,0.4814017069518566
1726941008302092000,4.857092041015625,-0.4750882860213518,-0.08113602220267056,0.6186904090091586
1726941008312078000,4.867078125,0.0989659856647253,-0.3127922762185335,0.9098653121814131
1726941008322064000,4.87706396484375,0.8200269280850887,-0.4089662930771708,1.5230197143733502
1726941008332050200,4.88705029296875,1.9429437470555304,-0.41849692248851056,1.7360040011450648
1726941008342036000,4.897035888671875,2.5489649363666773,-0.10077537317425012,1.2352972897425294
1726941008352022000,4.90702197265625,2.6674305722713467,0.46314095085710283,0.18476795385181902
1726941008362008000,4.917008056640625,2.1156991915524004,0.9366922365695237,-0.7174886368915439
1726941008371994000,4.926994140625,0.9090309071838856,0.9521019871473312,-1.308439682842791
1726941008381980000,4.93697998046875,-0.022628011393547056,0.7303983873471618,-1.5235548441633582
1726941008391966200,4.94696630859375,-0.35703999874591824,0.2496647889152169,-1.024216498504579
1726941008401952000,4.956951904296875,0.11968319500088691,-0.5725643253892659,-0.13067863626778126
1726941008411938000,4.96693798828125,1.1534025581270455,-1.096593752451241,0.45825668594688174
1726941008421923800,4.976923828125,1.8605647390544413,-0.978184522908926,0.29033728330433367
1726941008431910100,4.98691015625,2.181485961192846,-1.042710186572373,-0.1461149825915694
1726941008441896000,4.99689599609375,1.7265093198299406,-0.8447364219278096,-0.6452376396730541
1726941008451882000,5.006882080078125,0.8788140480965375,-0.6811193926542997,-0.9305790143862366
1726941008461868000,5.016867919921875,0.431290060827136,-0.5551297909855842,-0.8683221724376082
1726941008471854000,5.02685400390625,0.30167876152992246,-0.7105535769313573,-0.8114636824011802
1726941008481839900,5.03683984375,0.5434750090271234,-0.8929080399006605,-0.849279033793509
1726941008491826200,5.046826171875,0.9713105454862118,-0.7452005274206399,-0.8304705806881189
1726941008501812000,5.05681201171875,1.0662889228194952,-0.5870356260731816,-1.0427978648558258
1726941008511798000,5.066798095703125,0.7804676556348801,-0.38680531467348334,-1.4902923337697982
1726941008521784000,5.0767841796875,0.19889643244743346,-0.12017360886633395,-1.8701434453912078
1726941008531770000,5.08677001953125,-0.3615647826939821,0.14945406388640403,-2.0013553117528557
1726941008541756000,5.096755859375,-0.8970037847816944,0.26480449037998915,-2.0576225578978655
1726941008551742000,5.106741943359375,-1.8922025708556174,0.2997697130382061,-1.9875489047184585
1726941008561728000,5.11672802734375,-3.0368893230855463,0.6155605865508318,-1.854213324201107
1726941008571714000,5.126714111328125,-3.404907811963558,0.7483934782430529,-1.719447710880637
1726941008581700000,5.1367001953125,-2.9568355431616307,0.6214154500588774,-1.6023882885120808
1726941008591686000,5.146685791015625,-2.1294535761386153,0.4978001763060689,-1.211813099911064
1726941008601672000,5.156671875,-1.526820860221982,0.44962095954865217,-0.5602276986464858
1726941008611658000,5.166657958984375,-1.042217726880312,0.48249447062462564,-0.08289777117818593
1726941008621644000,5.17664404296875,-0.7219821489185094,0.47435398039743304,0.23716245021671056
1726941008631629800,5.1866298828125,-0.5981973638176917,0.501148463820666,0.4030421637251973
1726941008641616100,5.1966162109375,-0.1946943045824766,0.2966669247172773,0.44152620815932747
1726941008651602000,5.206601806640625,0.5354442627847195,0.07096314936503767,0.49488954955637454
1726941008661588000,5.216587890625,1.3186720307826996,-0.10751286473572254,0.5282499673664569
1726941008671573800,5.22657373046875,2.017029558485746,-0.3415764721542597,0.40367490867078304
1726941008681559000,5.23655908203125,2.7041958300888536,-0.28182211454585193,0.29376404288262126
1726941008691545900,5.2465458984375,3.0830840880274772,-0.17843451304659247,0.07595218982398509
1726941008701531000,5.25653076171875,3.1595155858010053,-0.046831309279799456,-0.13380904324799775
1726941008711517200,5.26651708984375,2.8332003956645724,-0.023971242696046828,-0.2108282777816057
1726941008721503000,5.2765029296875,2.104891966333985,0.00875920664742589,-0.15462211417406796
1726941008731489000,5.286489013671875,1.6079712032109499,0.036800475261360405,-0.24026859953850507
1726941008741475000,5.29647509765625,1.7185568995207547,0.03289163125455379,-0.46332595203518867
1726941008751461000,5.306461181640625,2.2004490203380582,0.065873863402009,-0.7454135856494307
1726941008761447000,5.316447021484375,2.240075512805581,0.08617430863082408,-1.3515408656835555
1726941008771433000,5.326432861328125,0.9611322658210992,0.19760887685492634,-2.212787985168397
1726941008781419000,5.3364189453125,-1.0364970111459493,0.3533623331464827,-2.7283587959647178
1726941008791405000,5.346405029296875,-3.2206273493677378,0.5248199198525398,-2.9702447675719856
1726941008801390800,5.356390869140625,-4.124574085155129,0.7488431217066943,-2.954790885591507
1726941008811377200,5.366377197265625,-3.913969094735384,1.0186996347792445,-2.179248119138181
1726941008821363000,5.376363037109375,-3.6510686844110487,1.41942811473459,-0.6814011322051287
1726941008831349000,5.386348876953125,-2.5819875005245208,1.5314973276004193,0.5386971271008253
1726941008841335000,5.3963349609375,-1.9151625906825065,1.353581285469979,0.6145657302945852
1726941008851321000,5.406321044921875,-1.7342793693095444,1.0578056105040012,0.037916473679244514
1726941008861307000,5.416306884765625,-1.2664485070705414,1.0583910091765225,-0.425107572799921
1726941008871293200,5.426293212890625,-0.43189913263618945,1.0832839698273689,-0.34847383045256136
1726941008881279000,5.436279052734375,0.5306488452017307,1.0356416364256291,0.24655893185436725
1726941008891265000,5.44626513671875,1.1773767234325407,0.8515268857855349,0.8030071119621396
1726941008901251000,5.4562509765625,1.3578221379101276,0.4744792142122984,0.8154299556836485
1726941008911237000,5.466237060546875,1.5018910016268492,-0.15631985800266265,0.21896277665942906
1726941008921223000,5.476222900390625,1.739572799542546,-0.614630100767687,-0.24441373651921747
1726941008931209000,5.486208984375,2.237824519008398,-0.5762810808900743,-0.22751462416648863
1726941008941195000,5.496195068359375,2.4474796613574026,-0.4116588931620121,-0.11869243039786814
1726941008951181000,5.50618115234375,2.3555688549011946,-0.3825336287036538,0.14713117389678954
1726941008961167000,5.5161669921875,1.837417087700963,-0.19663067947253585,0.5700432824790478
1726941008971153000,5.52615283203125,0.6541963144153357,0.10175970803648232,0.6007715982198715
1726941008981139000,5.536138916015625,0.08723638490438461,0.09813472247235476,0.10921206986904143
1726941008991125000,5.546125,-0.22837620943188666,0.2339593433264643,-0.3008344196602702
1726941009001111000,5.556111083984375,-0.6257599090039729,0.4867230481050908,-0.5376572626590729
1726941009011096800,5.566096923828125,-1.0669254671573638,0.5110071561425924,-0.49883302648514505
1726941009021083000,5.576082763671875,-1.2030267129957675,0.36799664237238466,-0.08876724773347378
1726941009031069000,5.58606884765625,-1.1628244664669036,0.113563470011577,0.3724570558473468
1726941009041055000,5.596054931640625,-0.11565642370283603,-0.13474858912043272,0.3905830796465277
1726941009051040800,5.606040771484375,0.7133353166043758,-0.6242642636187374,-0.3000137509271502
1726941009061026800,5.61602685546875,0.5851350531488657,-1.1254047633286566,-0.9815317875102162
1726941009071012900,5.626012939453125,0.15095686966478825,-1.1482972708772867,-1.0126000027298927
1726941009080999000,5.6359990234375,-0.13835574676692486,-0.7765962940942496,-0.6482993653312326
1726941009090984700,5.645984619140625,-0.42082419639229773,-0.17666326559036968,-0.32326603169888257
1726941009100971000,5.655970947265625,-0.3623281682819128,0.3625863077614456,-0.2754045025885105
1726941009110956800,5.665956787109375,-0.11086977394819258,0.768082221314311,-0.4336632196992635
1726941009120942800,5.67594287109375,-0.13378653915524483,1.0862275489985942,-0.8034121856316924
1726941009130929000,5.685928955078125,-0.6422393346399069,1.184077024788782,-1.218029928599298
1726941009140915000,5.6959150390625,-1.225741818150878,0.9667110888667404,-1.2896128172978758
1726941009150900700,5.705900634765625,-1.4230185404419897,0.604088467682898,-0.8949006750226021
1726941009160887000,5.715886962890625,-0.7957341983497143,0.30654139913022516,-0.18022768007367848
1726941009170872800,5.725872802734375,0.7989934924066067,0.10586962757334112,0.344979558596015
1726941009180859000,5.73585888671875,2.159906582069397,0.1260195584155619,0.4032917545720935
1726941009190845000,5.745844970703125,2.856543277329206,0.15733268830701708,-0.3176952458292246
1726941009200831000,5.7558310546875,2.559737090271711,-0.023796032259613274,-1.554014572095871
1726941009210816800,5.765816650390625,1.3536498206615448,-0.5094017667725682,-2.6971751376718283
1726941009220803000,5.775802978515625,0.31589258032143114,-0.8520141578458249,-3.025382717426121
1726941009230788900,5.785788818359375,-0.30543957536816596,-0.8030572347141802,-2.548709208039939
1726941009240775000,5.79577490234375,-0.7886340109556913,-0.4341851977467537,-1.7740479005962608
1726941009250760700,5.8057607421875,-1.3962187963217496,-0.23734321361109614,-1.5194161369234322
1726941009260747000,5.8157470703125,-1.3760533756494522,-0.06910773075670003,-1.7964786358520388
1726941009270732800,5.82573291015625,-1.1885206332594156,-0.10350085261538625,-1.9258102414250373
1726941009280718800,5.83571875,-0.7885007399648427,-0.43396176425442096,-1.1912436284825205
1726941009290705000,5.845704833984375,0.020179449197649954,-0.6496142473220825,-0.02690992649644613
1726941009300691000,5.85569091796875,0.9139221863567829,-0.6104787532418966,0.7052288747772574
1726941009310676700,5.8656767578125,1.0182096593052148,-0.6272520472578704,0.40712563364654775
1726941009320663000,5.8756630859375,0.2656038240641355,-0.922579247803986,-0.591514525052905
1726941009330648800,5.88564892578125,-1.3695529077142476,-1.3462379369698465,-1.5836618146017192
1726941009340635000,5.895634765625,-3.082935619467497,-1.6079796787783502,-1.4236388642974196
1726941009350621000,5.905620849609375,-3.5803631630688906,-1.8948399336218833,-0.8517160516820848
1726941009360607000,5.91560693359375,-2.7747844470530745,-1.5103297441482544,0.02314326743930578
1726941009370592800,5.9255927734375,-1.5862632292717693,-0.5416074615895747,1.064614559866488
1726941009380579000,5.9355791015625,-0.9649912793368101,-0.07923997932299971,1.2321895329855381
1726941009390564900,5.94556494140625,-0.36484044336378574,0.2154864788509905,1.5625234572440385
1726941009400551000,5.955551025390625,0.6231903507769108,0.3675269059687853,1.925790806072205
1726941009410536000,5.965535888671875,1.0339239457875489,0.4318409727081656,1.954207483869791
1726941009420523000,5.97552294921875,0.8246054880470037,0.4263426675528288,1.395899062848091
1726941009430507800,5.9855078125,0.7632803739905357,0.36603286801874635,0.3835584417067468
1726941009440495000,5.9954951171875,0.28195114775300023,-0.033081893129646774,-0.8363356733292341
1726941009450481000,6.00548095703125,-0.006509820285439491,-0.6348477630838751,-1.5650320790641008
1726941009460466000,6.0154658203125,-0.24426994413435457,-1.2020078913420438,-1.2901039618156849
1726941009470451700,6.02545166015625,-0.2424608488857746,-1.4670856457054615,0.06832388690263033
1726941009480438000,6.03543798828125,-0.15345219361186027,-1.1799413132235408,0.9857868146061897
1726941009490423800,6.045423828125,-0.13125029867589472,-0.6899693463250994,0.24982436339110134
1726941009500409900,6.055409912109375,-0.646869917050004,-0.5695964154943823,-0.8344649110212922
1726941009510396000,6.06539599609375,-0.9318249227941036,-0.8681792568355798,-0.6994345092847943
1726941009520382000,6.0753818359375,0.02617372117638588,-0.9578916764646768,0.42918461298048494
1726941009530367700,6.08536767578125,1.1491297031134367,-0.5429995004698633,1.5970403516128657
1726941009540354000,6.09535400390625,1.7412492083221673,-0.12252280234098434,2.0596178233683107
1726941009550339800,6.10533984375,2.328875493764877,0.49970834801495073,1.8991767937824129
1726941009560326000,6.115325927734375,2.195274248048663,0.7316197458356618,1.342172148835659
1726941009570312000,6.12531201171875,2.01978265658617,0.4181117225632071,0.9715291566729545
1726941009580298000,6.135298095703125,1.8771505476742982,0.20262743566930294,0.8553837804093957
1726941009590283800,6.14528369140625,1.5887527079999446,0.32360563891679045,0.6331131943762301
1726941009600269800,6.155269775390625,1.6063690287113188,0.5773787399336695,-0.2072556799918413
1726941009610256000,6.165255859375,2.0637398717343807,0.5591729288965464,-1.1934718259260058
1726941009620242000,6.175241943359375,2.4317484237402676,0.3215244487285614,-1.9541434787228702
1726941009630227700,6.185227783203125,2.2109505406081675,0.37652240559011696,-2.395914893814921
1726941009640214000,6.195214111328125,1.5842641644090414,0.2965025279358029,-2.5367656722679732
1726941009650199800,6.20519970703125,1.0892752461314201,0.28260873487889765,-2.410357260665297
1726941009660185900,6.215185791015625,0.5218892001628875,0.32128508701473474,-2.0364123043477536
1726941009670172000,6.225171875,0.20180267528295515,0.24712591808736323,-1.5962793041124939
1726941009680158000,6.235157958984375,0.05303250200748443,-0.0047404725253582,-0.8228633205547928
1726941009690143700,6.245143798828125,0.5258242015242577,-0.24232933146059513,-0.0299327814489603
1726941009700130000,6.255130126953125,0.9199205499887466,-0.29581629923731084,0.43171617728471756
1726941009710115800,6.26511572265625,1.0445458775669336,-0.0976002502694726,0.6006069091774523
1726941009720102000,6.275101806640625,1.1491899088680744,-0.08155717022418975,0.34353944279029963
1726941009730088000,6.285087890625,0.8655927474737167,-0.041286973025649785,0.13862185035720467
1726941009740074000,6.295073974609375,0.1911047556579113,0.13078925703540445,0.07654284919351338
1726941009750059800,6.305059814453125,-0.23612287803590296,-0.017417729399353266,-0.2161040262274444
1726941009760046000,6.315046142578125,-0.8352057925164699,-0.41431744484677907,-1.2319842196717858
1726941009770031900,6.325031982421875,-2.7129765179157257,-0.31577918307483194,-2.414624854981899
1726941009780018000,6.335017822265625,-4.695166818210482,-0.8840972491964697,-2.8439292949497696
1726941009790004000,6.34500390625,-4.74075192682147,-1.3344490072377024,-2.4273230085134503
1726941009799990000,6.354989990234375,-3.7508845649033784,-1.3095957210101186,-1.2822946032389997
1726941009809975800,6.364975830078125,-3.078386870121956,-0.7201677929729223,-0.24761413999572396
1726941009819962000,6.374962158203125,-2.1732360192418096,0.048080724819004536,0.7932716076284646
1726941009829948000,6.384947998046875,-0.604368161407113,0.56393122933954,1.3770841800019145
1726941009839934000,6.394933837890625,0.9450608364641666,0.6801812350213527,1.770243247616291
1726941009849919700,6.404919677734375,2.0527181269824504,0.5576692463353276,2.1273720936894414
1726941009859906000,6.414906005859375,2.728838103914261,0.3453134667254984,2.2317080819547175
1726941009869891800,6.424891845703125,2.7445331011742353,0.16708207503557204,1.9382339619293807
1726941009879878000,6.4348779296875,2.429565819004178,-0.031752836482971905,0.7170587210416793
1726941009889864000,6.444864013671875,2.08932907102108,-0.2873457002729177,-0.954664823372662
1726941009899850000,6.45485009765625,1.3511498205393553,-0.4644903927046805,-2.0969068127989767
1726941009909835800,6.464835693359375,0.24662790543735025,-0.2097811798814684,-2.608620948167145
1726941009919822000,6.474822021484375,-0.8025000392228364,0.07024535648450254,-2.756505278518796
1726941009929808000,6.484807861328125,-2.6185341471552848,0.09137246179580688,-2.557669344086945
1726941009939794000,6.4947939453125,-3.8651585943371054,0.1854063978858292,-2.1397744791448114
1726941009949780000,6.504780029296875,-3.650736091455817,0.3233728530742228,-1.3725000670820473
1726941009959766000,6.51476611328125,-2.7781922096699474,0.6604942455157637,-0.3529278872519731
1726941009969751800,6.524751708984375,-2.3849819963902235,1.0760931084752081,0.3254232097327709
1726941009979738000,6.534738037109375,-1.8996750986933708,1.2680068424284456,0.5676359290763735
1726941009989724000,6.544723876953125,-1.8800982915639877,1.1479574444636702,0.2942912816271186
1726941009999710000,6.5547099609375,-1.9810265172123909,0.9979534916095435,0.1309732353001833
1726941010009696000,6.564696044921875,-1.6677344747781753,0.7785491817276924,0.2147746773198247
1726941010019682000,6.57468212890625,-0.7969698776245117,0.7456499516885727,0.5711828079029917
1726941010029667800,6.584667724609375,0.4761456861197948,0.40071233253814276,0.5789756537362932
1726941010039653000,6.594653076171875,1.2656447894722223,-0.1656640249311924,0.3196878809511661
1726941010049639200,6.60463916015625,1.8755127173393964,-0.570229452700913,0.12154928113371133
1726941010059625200,6.614625244140625,1.8798294114947318,-0.8130985170613974,0.14418372226804493
1726941010069611000,6.624611083984375,1.4186644368857144,-0.7865161420188844,0.6864218829765916
1726941010079597300,6.634597412109375,1.0419839181244372,-0.6843315596338361,1.3460314546123147
1726941010089583000,6.6445830078125,1.0250076488822697,-0.5405174743957817,1.6488313291266559
1726941010099569200,6.654569091796875,1.3680436721950768,-0.4541458165619522,1.7619424522608518
1726941010109555000,6.664554931640625,1.7095494172006844,-0.4170299917411059,1.5326494202449916
1726941010119541200,6.674541259765625,1.5549965688705443,-0.24646789257004856,1.2139879597321153
1726941010129527000,6.684527099609375,0.8776607864081859,-0.07382014623135327,1.0073927894756198
1726941010139513000,6.69451318359375,-0.008393149814009666,0.20914500086978077,0.7290259299501777
1726941010149499100,6.7044990234375,-0.3139847008734941,0.4365335144385695,0.35926790392845864
1726941010159485200,6.714485107421875,-0.3405833694636822,0.551694117448479,-0.2647773101121187
1726941010169471000,6.724470947265625,-0.4884066172778606,0.5824599156554788,-0.8741179992347955
1726941010179457300,6.734457275390625,-0.8426081777274608,0.4618573407873511,-1.1193752008408306
1726941010189443000,6.744443115234375,-1.097186749908328,0.3110121878687292,-0.7441548177599906
1726941010199429000,6.75442919921875,-1.3317197284042834,0.31214528355188664,-0.3758820618599653
1726941010209415200,6.764415283203125,-1.3099831128925084,0.26340843291170896,-0.23927228197753428
1726941010219401200,6.774401123046875,-0.878943811956048,0.23629881912469863,-0.20561434252560137
1726941010229387000,6.784386962890625,-0.5922936927318573,0.08421572190895676,-0.3075084905967116
1726941010239373300,6.794373291015625,-0.4644651851981878,-0.1790969224780798,-0.20288608660548924
1726941010249359000,6.804359130859375,-0.29503040955662724,-0.4351467362552881,0.02463350599706173
1726941010259345200,6.81434521484375,0.24592764821350574,-0.4555841057367623,0.09750263511389494
1726941010269331200,6.824331298828125,0.5338643001168966,-0.27521789397522806,-0.04978343708366156
1726941010279317200,6.834317138671875,1.1181798535764216,-0.11240282873436808,-0.5463257222831249
1726941010289303000,6.844302978515625,1.2985241457670926,-0.19142302782684564,-1.064838431750238
1726941010299289300,6.854289306640625,1.322011404338479,-0.3280667099788785,-1.2744473968699574
1726941010309275100,6.864275146484375,0.5994792203217745,-0.5775847838997841,-1.5174819539904594
1726941010319261200,6.87426123046875,0.423218398052454,-0.6270623699046671,-1.2914087608039377
1726941010329247000,6.8842470703125,-0.34339433523118496,-0.39250484148934484,-1.193853518719971
1726941010339233300,6.8942333984375,-1.5595938335329294,-0.3383395360596478,-0.9942088982537388
1726941010349219000,6.904218994140625,-2.0476339555859564,-0.29372882543876766,-0.6336947936564683
1726941010359205000,6.914205078125,-1.4907231264024972,-0.2535844465769827,-0.03768441848903894
1726941010369191200,6.924191162109375,-0.2869599158257246,-0.09965440632030367,0.5161842665195465
1726941010379177200,6.93417724609375,0.17488076608777045,0.10406287041231989,0.6679013069018721
1726941010389163000,6.9441630859375,-0.38275720832645893,0.14739698522612452,0.24427272061333058
1726941010399149000,6.954149169921875,-1.6503607306510208,0.0030402444787323473,-0.31944559662789107
1726941010409135000,6.964135009765625,-2.4988573818951845,-0.4970161863215267,-0.5724304698765278
1726941010419121200,6.97412109375,-2.1331530151784417,-0.9449535766974091,-0.429159332408756
1726941010429107200,6.984107177734375,-1.1197323437154292,-0.7266044018916785,0.2062172768548131
1726941010439093000,6.994093017578125,-0.4437807090878486,-0.4135851850494742,0.6475944319322705
1726941010449079000,7.0040791015625,-0.6893178966790438,-0.2818766212120652,0.565095743074268
1726941010459065000,7.014065185546875,-0.8164134137630462,0.14462065238058566,-0.06510945490077137
1726941010469051100,7.024051025390625,-1.2336556600153445,0.47235126227289437,-0.6332664852418005
1726941010479037000,7.034036865234375,-1.26385849057734,0.19630495464950798,-0.48799350643232464
1726941010489023200,7.044023193359375,-1.0701350768536328,-0.15838175896853207,-0.25537834425643086
1726941010499009000,7.054009033203125,-1.5882564489156006,0.11331658257842063,-0.17641572057008742
1726941010508995000,7.0639951171875,-2.1563409985423085,0.2101943637922406,-0.1064122100174427
1726941010518981000,7.073981201171875,-2.040513894447684,0.08945756808519363,0.4388062816761434
1726941010528967200,7.08396728515625,-1.215993162074685,0.085247549174726,0.9908309462532401
1726941010538953000,7.093952880859375,-0.24711247408390044,-0.2674140883564949,1.7731047745272517
1726941010548939300,7.103939208984375,0.7509305955052376,-0.7751718873143195,2.1281652898937464
1726941010558925000,7.113925048828125,1.7139602193802594,-0.9781161338478326,2.2018106640800834
1726941010568911000,7.1239111328125,2.488863226625323,-1.1733651497036217,1.9540113767758012
1726941010578897000,7.13389697265625,3.015021190148592,-1.2459028549090028,1.612946653535962
1726941010588883200,7.14388330078125,3.4622961710929867,-1.2667173871397972,1.2712845489248632
1726941010598869000,7.153868896484375,3.7402573724269863,-1.2260559986665844,0.8134063409015536
1726941010608855000,7.16385498046875,3.9087569130450484,-0.8611389829352497,0.2993491495385766
1726941010618841000,7.173841064453125,3.569373567020893,-0.23952596447765825,-0.34778467914462086
1726941010628827100,7.1838271484375,2.4881127005189656,0.25387451556473967,-1.2692618109256029
1726941010638813000,7.19381298828125,1.3332453305363654,0.621401421533525,-2.1133403534665702
1726941010648799200,7.20379931640625,-0.12604630029201508,0.777187318789959,-2.1758356803461907
1726941010658785000,7.213784912109375,-0.38970425098538397,0.35187487106770277,-0.3971253408968448
1726941010668771000,7.22377099609375,1.4863690228462219,-0.360045025780797,1.564538596458733
1726941010678757000,7.233757080078125,2.808907665929198,-0.3688578623116016,1.8482406795322894
1726941010688743200,7.2437431640625,3.006248101106286,-0.09596534254401921,1.0703872980490325
1726941010698729000,7.25372900390625,2.8230981038451195,0.03226443926692009,-0.17250146973580122
1726941010708715300,7.26371533203125,2.2600024485468864,0.2605295895397663,-1.419970551048219
1726941010718701000,7.273701171875,1.3351701611191034,0.32645518312901256,-2.048609814880788
1726941010728687000,7.28368701171875,0.5837661028832197,0.027071254537999627,-2.140413653831184
1726941010738673200,7.293673095703125,0.23439035515487192,-0.8497007663369178,-2.089336377544701
1726941010748659200,7.3036591796875,-0.4501309548974037,-1.1011866331994533,-2.1277577320061623
1726941010758645000,7.31364501953125,-1.297040629211068,-0.6897825915813446,-1.8266672917582094
1726941010768631300,7.32363134765625,-1.7166554498136042,-0.37003333583176135,-1.4536315592400728
1726941010778617000,7.3336171875,-1.74305304287374,-0.21898571914359927,-1.281155808467418
1726941010788603100,7.34360302734375,-1.0058931985676287,-0.08293094279542565,-0.36396921348720784
1726941010798589200,7.353589111328125,-0.5616244137018919,-0.04818666941151022,-0.03376329952254891
1726941010808575200,7.3635751953125,-1.2760843504220247,0.05149564782902598,0.15001520490050316
1726941010818561000,7.37356103515625,-2.265007124966383,0.4122822857573628,0.37111309389248487
1726941010828547000,7.383547119140625,-2.3878666119158267,0.6395118093721568,0.17000804548487067
1726941010838533000,7.393533203125,-2.0098118821918964,0.6765525231301784,-0.05151245283335447
1726941010848519200,7.403519287109375,-1.317951315292716,0.6562146685004234,0.017873948734253645
1726941010858505000,7.4135048828125,-1.2941636124700306,0.5821617364265025,0.2396916764333844
1726941010868491300,7.4234912109375,-1.6812281626015901,0.5054647195845842,0.10992372526973486
1726941010878477000,7.43347705078125,-1.0132944147348404,0.49973304406478997,-0.26061229938715696
1726941010888463000,7.443463134765625,-0.46964229557514187,0.5710802243113517,-0.2383867313146591
1726941010898449200,7.45344921875,-0.29906185702979565,0.6002585341311991,0.32432313953638076
1726941010908435200,7.463435302734375,-0.2584288178682327,0.5486293230503797,0.8577090084865688
1726941010918421000,7.4734208984375,-0.40710722120702264,0.34680502045750616,1.095250813409686
1726941010928407300,7.4834072265625,-0.25506372534930705,0.1166790447488427,0.8332233865275979
1726941010938393000,7.49339306640625,0.5961416003316641,-0.10520561070665717,0.49419835242182014
1726941010948379100,7.503379150390625,1.2154174080133437,-0.22710487432181833,0.2998918781131506
1726941010958365200,7.513365234375,1.283774904924631,-0.30293665263652797,0.21369711121618745
1726941010968351200,7.523351318359375,0.4121884699940681,-0.25868849171772595,-0.037303017956018446
1726941010978337000,7.5333369140625,-0.5274357283741236,-0.3533231701798737,-0.7282453009665012
1726941010988323300,7.5433232421875,-0.7444424025297165,-0.3786459736153483,-1.287903967553377
1726941010998309000,7.55330908203125,-0.9576362403988837,-0.0952422889664769,-1.3424307997718452
1726941011008295200,7.563295166015625,-1.1535481040775775,0.26198212643563745,-1.01047877279222
1726941011018281200,7.57328125,-1.045712583258748,0.4173137771185487,-0.5929691077753901
1726941011028267300,7.583267333984375,-0.7020604738742112,0.5367166208080947,-0.40991409532129763
1726941011038253800,7.59325390625,-0.305706117349863,0.6432421550069004,-0.3193324916422367
1726941011048239600,7.603239501953125,0.23290450051128864,0.6057745941389352,-0.061679334321618075
1726941011058226000,7.613225830078125,0.6963999638944864,0.5197077644705772,0.42678865775465963
1726941011068211700,7.623211669921875,0.5029366624116898,0.2536183488465845,0.7922782126769423
1726941011078197800,7.63319775390625,0.2232861928164959,0.0026405776366591454,0.7871841044083238
1726941011088183800,7.643183837890625,-0.616910247594118,-0.16274192693941295,0.4411693575456738
1726941011098169900,7.653169921875,-0.7857236764669417,-0.07720014405846595,0.7016238360226154
1726941011108155600,7.66315576171875,-0.3158160079538822,-0.024810981455817817,1.2693369219884276
1726941011118142000,7.673141845703125,-0.1012578959941864,0.17177856228873134,1.851633536840975
1726941011128127700,7.683127685546875,-0.2030781020462513,0.1650247771795839,1.757952505841851
1726941011138113800,7.69311376953125,-0.19494915612637995,-0.14032441649138927,0.9854328866019845
1726941011148099800,7.703099853515625,0.1725251428723335,0.06302300401553511,0.7073802075922488
1726941011158086000,7.7130859375,0.7019774717658758,0.43586138733066615,0.7472843479573726
1726941011168071700,7.72307177734375,1.152279107055068,0.5054427269484848,0.689559888741374
1726941011178057700,7.7330576171875,0.9027578182637691,0.1349387048650533,0.7004223512783646
1726941011188043800,7.743043701171875,0.35528935568630693,-0.2504916681934148,0.33084903417378664
1726941011198029800,7.75302978515625,0.2746019540339708,-0.40628764845244586,-0.2134197555795312
1726941011208015600,7.763015625,0.24692425803542137,-0.37646621842347083,-0.3590411094352603
1726941011218002000,7.773001953125,0.40843700850605963,-0.0653182022806257,-0.09178075033575296
1726941011227987700,7.78298779296875,0.5995113690257072,0.1286159315843135,-0.18374854767620563
1726941011237973800,7.792973876953125,0.5879629700511694,-0.02799034214429557,-0.5669266117632389
1726941011247959800,7.802959716796875,0.01950257284939289,-0.26921317366771397,-0.8137146761983632
1726941011257945900,7.81294580078125,-0.547668369063735,-0.3268235780499875,-0.6619310003206134
1726941011267930600,7.8229306640625,-0.4928507372051477,-0.022556553592532873,-0.11970657587647437
1726941011277916700,7.832916748046875,-0.1339098732739687,0.18103541625998912,0.2883025626063347
1726941011287902700,7.84290283203125,0.43854163939058777,0.09985665089413523,0.43758010088205335
1726941011297888800,7.852888671875,0.8449193772792816,-0.11609262316301465,0.2595075530156493
1726941011307874600,7.86287451171875,0.7650432920098305,-0.37051220538988705,-0.2177370342567563
1726941011317860900,7.87286083984375,0.3039092970609665,-0.6392458519123494,-0.6824184925541281
1726941011327846700,7.8828466796875,-0.481335655978322,-0.7920975954130292,-1.0737816166624425
1726941011337832700,7.892832763671875,-1.207266834783554,-0.7522111368350685,-1.4449457100898027
1726941011347818800,7.90281884765625,-1.4495640175402165,-0.6759190475322305,-1.7948092413350938
1726941011357804800,7.9128046875,-1.5668997726321219,-0.4427313461653888,-1.9582997216194866
1726941011367790600,7.92279052734375,-1.896362028622627,-0.1650808182157576,-1.691637036152184
1726941011377777000,7.93277685546875,-2.171637351873517,0.17459391197040677,-0.9779992294698953
1726941011387762700,7.9427626953125,-2.0742086587786672,0.3111578068844974,-0.36427141130417584
1726941011397748700,7.952748779296875,-1.6266127753168345,0.24962737951427696,0.14525895028412342
1726941011407734800,7.96273486328125,-1.090440782779455,0.22113997456803916,0.5832692592769861
1726941011417720800,7.972720947265625,-0.4613333169132471,0.08396540040969848,0.928340295548737
1726941011427706600,7.98270654296875,-0.4564052128612995,-0.002093172886967659,0.9457990876108407
1726941011437693000,7.99269287109375,-0.6321849736154079,-0.09632935355082153,0.5456109981425106
1726941011447678700,8.0026787109375,-0.6540396625488996,-0.34493381975814696,-0.012238865456730126
1726941011457664800,8.012664794921875,-0.25066110647618767,-0.44663449108377096,-0.819584152753651
1726941011467650800,8.02265087890625,0.08968202449083328,-0.6335735053643584,-1.4008126999832688
1726941011477636900,8.032636962890624,0.3564443709403276,-0.8362592470921576,-1.39059481896013
1726941011487622700,8.04262255859375,0.12350070746243,-1.08455698543787,-1.10944563523978
1726941011497609000,8.05260888671875,-0.9612199441045522,-1.0444821646809577,-1.118053158456832
1726941011507594800,8.0625947265625,-2.1847686361253262,-0.7775193272233009,-1.2840931770935653
1726941011517580800,8.072580810546874,-2.3474761493384837,-0.6879761266812682,-0.8903658080719411
1726941011527566600,8.082566650390625,-1.2904472222954033,-1.003013259217143,0.3646431672260165
1726941011537553000,8.092552978515625,0.15347031379044054,-1.1359361672803758,1.9536061569757759
1726941011547538700,8.10253857421875,0.7103916643679141,-0.6138420921951532,2.8002064730793235
1726941011557524700,8.112524658203125,0.5387818827748299,-0.02810205889046192,2.722100612352788
1726941011567510800,8.1225107421875,-0.2315676989495754,0.6294017726376653,1.7052330153062938
1726941011577496800,8.132496826171876,-0.8324246373653411,0.6988730760097503,0.9768000828132033
1726941011587482600,8.142482666015624,-0.01656593487560749,-0.31127105800062416,1.402715757125616
1726941011597469000,8.152468994140625,1.5167647456318138,-0.8903203614950179,1.7342784925267098
1726941011607454700,8.162454833984375,2.461626844653487,-0.3993766269549727,1.3445821325868368
1726941011617440800,8.172440673828126,2.9283938770532605,0.6634954731583594,-0.23057371947616337
1726941011627426800,8.1824267578125,2.0963982787549496,1.067887590187788,-1.9120476735323666
1726941011637412900,8.192412841796875,1.1626479408562183,0.43389264454096554,-2.136543534399569
1726941011647398700,8.202398681640625,1.7756921606719493,-0.3858309166833758,-0.4926335873231292
1726941011657385000,8.212385009765624,2.3400784403026105,-0.3795712717667222,1.3095675178289412
1726941011667370800,8.222370849609375,2.5269050802499056,0.3823129716902971,1.2716513364106417
1726941011677356800,8.232356689453125,2.365335046634078,1.1481710872143507,-0.3179980281680822
1726941011687342800,8.2423427734375,1.6935697577804325,0.5479074385166168,-1.5567361060142517
1726941011697329000,8.252328857421874,1.8086580262064933,-0.5252624759882688,-1.4592361012488602
1726941011707314700,8.262314697265625,2.1215642841935156,-1.263910805286467,-0.4109919536858797
1726941011717301000,8.272301025390625,2.3264076423466205,-1.466647838810086,0.07942132723927497
1726941011727286800,8.282286865234376,2.608212659627199,-1.1970479308471083,-0.1098363392472267
1726941011737272800,8.29227294921875,2.365242107653618,-1.049586209821701,-0.4430144008904695
1726941011747259000,8.3022587890625,1.3567477866768836,-0.8653487095847725,-0.6764630912810564
1726941011757245000,8.312244873046875,0.6042594403356313,-0.8397048575013876,-0.5964363454945385
1726941011767230700,8.322230712890626,0.6051765551805496,-0.9884916896507143,-0.4003188762411475
1726941011777216800,8.332216796875,1.053378003320098,-1.0147767622470856,-0.4520058088585734
1726941011787202800,8.342202880859375,1.0836650050342083,-0.7579872360184788,-0.8320923366710543
1726941011797188900,8.35218896484375,0.3967383874058723,-0.27838614874780176,-1.0055309411264954
1726941011807174700,8.362174560546874,-0.4220487697511911,0.22168781770914792,-1.002200189268589
1726941011817161000,8.372160888671875,-1.0448591812998056,0.6638213441118598,-1.1333085952557622
1726941011827146800,8.382146728515625,-1.4473428343594072,0.802700530230999,-1.1136718746326864
1726941011837132800,8.3921328125,-1.5041864190876484,0.6789169141739606,-0.9817337398231029
1726941011847118800,8.402118896484374,-1.554265916508436,0.5103231194011867,-0.832296334810555
1726941011857105000,8.41210498046875,-1.4444728318810462,0.2989255172990262,-0.700419720929861
1726941011867090700,8.422090576171875,-2.270548392480612,0.7242549161560833,-0.5620603209011257
1726941011877077000,8.432076904296874,-2.4463836828142402,1.2615762248590587,-0.19599018961191175
1726941011887062800,8.442062744140625,-1.174110999634862,1.2382646151155232,0.1609485407166183
1726941011897048800,8.452048828125,-0.3513268817961216,0.9612219899311661,0.5926327154278754
1726941011907035000,8.462034912109376,-0.42048751178383825,0.6342911521144211,0.7544010480947793
1726941011917020700,8.472020751953124,-0.8497522042632103,0.3657427990309894,0.5975460603021084
1726941011927006700,8.4820068359375,-0.957057563728094,0.0490013467952609,0.19132745849788188
1726941011936992800,8.49199267578125,-1.0419885942995548,-0.3080358754716813,-0.08871054911017417
1726941011946978800,8.501978759765626,-0.6828221049189567,-0.4789676116727292,-0.22529840942174195
1726941011956964600,8.511964599609374,-0.781407566833496,-0.7047766009651124,-0.057790802450478074
1726941011966951000,8.521950927734375,-1.2780348999679088,-0.8833975764945149,-0.11497428665757178
1726941011976936700,8.531936767578125,-1.4568740482926368,-1.004192678260058,-0.5127411403283476
1726941011986922800,8.5419228515625,-1.4700392348140476,-0.8652415959484875,-0.8258914362043142
1726941011996908500,8.551908447265625,-0.9093138157784938,-0.405153018399328,-0.5457558134406805
1726941012006894800,8.561894775390625,-0.39563597912192344,0.027788901288062332,-0.09983370840996503
1726941012016880600,8.571880615234376,0.20732465357482432,0.10503324981443583,-0.2501750765249133
1726941012026866700,8.58186669921875,0.5440460869133472,-0.061096639062836765,-0.7791723551273345
1726941012036852700,8.591852783203125,1.0749831014066933,-0.13580511243604124,-1.184483632828295
1726941012046838500,8.601838623046875,1.0911264269560574,-0.24624628570862114,-1.2057421094343066
1726941012056824300,8.61182421875,1.0389677851736545,-0.1940164783861488,-0.5897293952018022
1726941012066810600,8.621810546875,0.5893295822292566,-0.0938670550905168,0.20469430507123468
1726941012076796400,8.63179638671875,-0.12316869902908802,-0.11510215082094073,0.26148060665428635
1726941012086782500,8.641782470703125,-1.0716010577529669,-0.14360709142386913,0.3901666078001261
1726941012096768300,8.651768310546874,-1.22163496735394,-0.1237289632603526,0.6213263104707002
1726941012106754600,8.661754638671875,-0.5861982984662055,-0.0850733616515994,1.2069900636687874
1726941012116740400,8.671740234375,-0.11569675571322441,-0.005789908513054252,1.8506743364199996
1726941012126726400,8.681726318359376,-0.1941927848011255,-0.04599763493463397,2.0791692037954927
1726941012136712400,8.69171240234375,-0.4792851531893015,-0.40056700578331944,1.5634055007755756
1726941012146698500,8.701698486328125,-0.23705285236239432,-0.7154087618775665,0.9998182625681161
1726941012156684300,8.711684326171875,0.3618815935581922,-0.6504645074758678,0.947365021753311
1726941012166670600,8.721670654296876,0.4461678964853287,-0.3403751335404813,1.2165393977805972
1726941012176656400,8.731656494140625,-0.10609539915323257,-0.041341041300445795,1.3439613703399895
1726941012186642400,8.741642333984375,-0.6591559826493263,-0.050547845584899186,0.6923012964040041
1726941012196628500,8.75162841796875,-1.012062242591381,0.10045352080874144,-0.013880349053442478
1726941012206614500,8.761614501953124,-0.9008996231764554,0.45738801335357127,-0.11350918254107237
1726941012216600300,8.771600341796875,-0.8801742305338383,0.6266241246178745,0.02004851629436016
1726941012226586600,8.781586669921875,-0.7581213837921619,0.3522461885981262,-0.39499475860893724
1726941012236572400,8.791572509765626,-0.17000409996211527,0.3087698888346553,-1.0222422758221625
1726941012246558500,8.801558349609374,-0.1162070433229208,0.38142508293986316,-1.183109421865642
1726941012256544500,8.81154443359375,0.06816343564391136,0.23059870778694747,-1.1575208071008325
1726941012266530600,8.821530517578125,0.1745779837489128,-0.15901340793557464,-0.7575482600793242
1726941012276516400,8.831516357421876,0.1825415099740028,-0.37254078860804435,-0.11796850003749132
1726941012286502700,8.841502685546875,0.28783552961647507,-0.5594399092696607,0.08917875114381313
1726941012296488400,8.851488525390625,0.2964589810550213,-0.6876392959423363,-0.021878069809079168
1726941012306474500,8.861474609375,0.3751192607939243,-0.7311475982792675,-0.10090922868698834
1726941012316460500,8.87146044921875,0.27885727339088917,-0.6152751937381923,0.1024973746612668
1726941012326446600,8.881446533203125,-0.06845452754497527,-0.42670112560167905,0.3315820246234536
1726941012336432400,8.891432373046875,-0.9715642279863357,-0.46475642322972416,0.18599983373433351
1726941012346418400,8.90141845703125,-1.3814058425933122,-0.54310851380229,-0.4732224921494722
1726941012356404500,8.911404541015624,-1.737279135647416,-0.38590821970328687,-1.0660966151177882
1726941012366390500,8.921390625,-1.8749340406686066,-0.29358795566335316,-1.1942051086366177
1726941012376376300,8.931376220703125,-1.5801181506454944,-0.06308949338048696,-0.7461097512200474
1726941012386362600,8.941362548828126,-1.0938561441808938,-0.18909721522778272,0.10275602559745312
1726941012396348400,8.951348388671875,-0.5411959581792354,-0.3351763958536088,0.6995759635820984
1726941012406334500,8.96133447265625,-0.5466057082682848,-0.44212811957523224,0.8840738683208823
1726941012416320500,8.971320556640626,-0.650081280311942,-0.4323986065909266,0.6502335482642054
1726941012426306600,8.981306640625,-0.7766308539509773,-0.4578498587116599,0.18551058891266584
1726941012436292400,8.991292236328125,-0.709114484038949,-0.6892300722651183,-0.11786679322868585
1726941012446278700,9.001278564453125,-0.3210708597421646,-1.075987310013175,-0.5115720965489745
1726941012456263400,9.011263427734375,0.18546528846621513,-1.357084763546288,-0.6215072199955582
1726941012466249500,9.02124951171875,0.10768354512751102,-1.2042226447820663,-0.25942367412447925
1726941012476235300,9.0312353515625,-0.18254618614912033,-0.9184843797057867,0.16421981747224926
1726941012486221600,9.0412216796875,-0.39358255372345446,-0.6640010845929384,0.46872225812077517
1726941012496207400,9.051207275390626,-0.10804244156777858,-0.6815045925796032,0.7083816397197544
1726941012506193400,9.061193359375,0.28405484203398224,-0.7494996859192847,0.8091602277643978
1726941012516179500,9.071179443359375,0.12937047627866266,-0.6390086821556091,1.1424911418817936
1726941012526165500,9.08116552734375,-0.3513812423318624,-0.24078853175938128,0.9346199603401124
1726941012536151300,9.0911513671875,-1.5410101290941238,0.0915738295868039,0.22653467321842907
1726941012546137600,9.1011376953125,-2.7928298068314787,0.1492836757555604,-0.6896335384994745
1726941012556123400,9.111123291015625,-3.0951994732350108,0.04778115735054016,-1.0883844347715377
1726941012566109400,9.121109375,-2.4352602312535048,-0.4994631410822272,0.11429565674364565
1726941012576095500,9.131095458984374,-1.3587643871963024,-0.9391428445920348,1.3816732613578437
1726941012586081500,9.14108154296875,0.13942133017182348,-1.0742214693844319,2.175365432485938
1726941012596067300,9.1510673828125,1.7915426407545805,-1.3549413217768072,2.3885920035809276
1726941012606053600,9.1610537109375,3.0312276440620423,-1.3811089054733514,2.2514067618981004
1726941012616039400,9.171039306640624,3.505564234933257,-1.0644140688583255,1.9826926968589424
1726941012626025500,9.181025390625,3.4211657038033008,-0.7567582787454128,1.342707278625667
1726941012636011500,9.191011474609375,3.287709419515729,-0.28134967472851274,0.34173283175975083
1726941012645997600,9.20099755859375,2.7616087391376496,0.2051224673554301,-0.741504010990262
1726941012655983400,9.2109833984375,2.256336327254772,0.6081003336727618,-1.723612429344654
1726941012665969400,9.220969482421875,1.8438070809990166,1.0066942858174444,-1.935105600775778
1726941012675955500,9.23095556640625,1.642615231090784,1.1494608347639441,-1.5353136710181832
1726941012685941500,9.24094140625,2.4989877302765846,0.7068623211979865,-0.8696496216490864
1726941012695927300,9.25092724609375,3.275660669803619,0.6089937753811479,-0.6435334661036729
1726941012705913600,9.26091357421875,2.971435730922222,0.45309915705323217,-0.7144570141106844
1726941012715899400,9.2708994140625,2.5705782177597283,0.20819880606085062,-0.8396525427922606
1726941012725885400,9.280885498046874,1.5769640705287455,0.17189122888296843,-0.6703621440574526
1726941012735871500,9.29087158203125,0.5625935509949922,-0.35372459058761596,-0.5818829194851219
1726941012745857500,9.300857421875,0.01813128449618816,-0.7174073883488774,-0.5813691247440874
1726941012755843300,9.31084326171875,-0.08083294760286808,-0.6969058675900102,-0.5527665689855814
1726941012765829600,9.32082958984375,-0.3102688952207565,-0.29090836119055746,-0.4275067428961396
1726941012775815400,9.3308154296875,-0.9096575146496295,0.08135200304090977,-0.307546046128124
1726941012785801500,9.340801513671876,-1.2631418667405843,0.10852087273448704,-0.22617884551808237
1726941012795787500,9.35078759765625,-1.3280138596236706,0.01385126908943057,-0.1531673853211105
1726941012805773600,9.360773681640625,-1.0793605858385562,-0.21195552824586628,-0.03621697628498077
1726941012815759400,9.37075927734375,-0.9835264684587717,-0.41052652813121676,0.158117993465811
1726941012825745700,9.38074560546875,-1.2295458866089581,0.007335019063204527,0.32081425463259217
1726941012835731500,9.3907314453125,-1.9266765028655528,0.4738732111431658,0.5023734755709767
1726941012845717500,9.400717529296875,-1.395753516897559,0.4471439019106328,0.5502798667363822
1726941012855703600,9.41070361328125,-0.4619090709745884,0.2940225476883352,0.5878636013299227
1726941012865689600,9.420689697265624,-0.4348012838184833,0.16441212517395615,0.4690782319515943
1726941012875675400,9.43067529296875,-0.5563882666140795,0.22553937857076525,0.2306333407089114
1726941012885661700,9.44066162109375,-0.47786418047547335,0.1816933687120676,0.08401099311709403
1726941012895647500,9.4506474609375,-0.6816454623550177,-0.010849164664000273,0.15317746832370757
1726941012905633500,9.460633544921874,-1.0245756872057914,-0.026051702231913804,0.4605395361870527
1726941012915619300,9.470619384765625,-1.1596972743570804,-0.052221916276961565,0.4846349897846579
1726941012925605600,9.480605712890625,-0.866024709150195,-0.1591068583726883,0.43053339724093675
1726941012935591400,9.49059130859375,-0.4074415677279234,-0.12351254403069614,0.37217531629651784
1726941012945577500,9.500577392578125,0.0020697920113801954,-0.13855886812359094,0.25041151562929154
1726941012955563500,9.5105634765625,0.09319500104784965,-0.18045637426301836,-0.12033727499544619
1726941012965549600,9.520549560546876,-0.011363690057396889,-0.23345672756657004,-0.7336950908049941
1726941012975535400,9.530535400390624,-0.13312252228856086,-0.13452771291136742,-1.217964169886708
1726941012985521700,9.540521728515625,-0.38034137935638423,0.13974617821201682,-1.5549422083348035
1726941012995507500,9.550507568359375,-1.0702326920092105,0.1659806896649301,-1.8267834654837847
1726941013005493500,9.560493408203126,-1.7936930967867373,0.22575287519097326,-1.8665747931241987
1726941013015479600,9.5704794921875,-1.682548597550392,0.26889219808503984,-1.5587167584374546
1726941013025465600,9.580465576171875,-0.8768693437695503,0.22552505778446794,-1.1391405162796377
1726941013035451400,9.590451416015625,0.23359657442867754,0.3667566522486508,-0.6455018435671925
1726941013045437700,9.600437744140624,0.46412031728327274,0.000317541516572237,-0.4732493801563978
1726941013055423500,9.610423583984375,0.3506722172796726,-0.4275466365151107,-0.24666560709923505
1726941013065409500,9.620409423828125,-0.08397592180371284,-0.5405675971478223,0.09821750538498163
1726941013075395600,9.6303955078125,-0.06032090544998645,-0.712753132802248,0.4010398839920759
1726941013085381600,9.640381591796874,0.19897943455576894,-0.6533234771035611,0.669320818310976
1726941013095367400,9.650367431640625,-0.09862813201248645,-0.3176009916745126,1.014660442391038
1726941013105353500,9.660353515625,-0.6005319442451,-0.04490750161036849,1.3567346349343656
1726941013115339500,9.670339599609376,-0.6902192294329405,0.1023901148945093,1.7449255587473511
1726941013125325600,9.68032568359375,-0.29340193157196043,0.2967911356188357,2.3125784389585253
1726941013135311600,9.6903115234375,0.8117512671709061,0.6345696767948568,2.6826649662822484
1726941013145297400,9.70029736328125,1.506540873259306,0.4599635629300028,2.262640395835042
1726941013155283500,9.710283447265626,0.8355448152124881,0.21714009127691386,1.676205950525403
1726941013165269200,9.720269287109375,0.010668693530559539,0.43338951732441783,1.2808721692204474
1726941013175255600,9.730255615234375,-0.17373334961831569,1.0473005100373178,0.9788160988107323
1726941013185241300,9.740241455078126,0.17380290772318838,1.5176361216388643,0.8806032696008682
1726941013195227400,9.750227294921874,0.4532487946569919,1.4589077460773288,0.7329752520978451
1726941013205213400,9.76021337890625,0.11300620145499705,1.0653832061514257,0.23907412905693054
1726941013215199500,9.770199462890625,-0.298221899074316,0.7712475534774362,-0.25289748722612854
1726941013225185300,9.780185302734376,-0.16456804638803005,0.5059437352731824,-0.5489832510545849
1726941013235171600,9.790171630859374,0.7090618770688771,0.3202593972288072,-0.620439006242156
1726941013245157400,9.800157470703125,0.8222171316057443,0.31114275544583797,-0.744829356020689
1726941013255143400,9.810143310546875,0.09710428344607352,0.3283624780550599,-1.283470953541994
1726941013265129500,9.82012939453125,-0.8791706064492464,0.26714871541857715,-1.993693106561899
1726941013275115500,9.830115478515625,-1.5717594876229761,-0.04913622522130608,-2.3771482340246437
1726941013285101300,9.840101318359375,-1.258385027602315,-0.3101021603517234,-2.074601165227592
1726941013295087600,9.850087646484376,-0.5467629446566105,-0.2084748465232551,-0.9857280701562762
1726941013305073400,9.860073486328124,0.018706454035639763,-0.19080211944952605,-0.09273615136444568
1726941013315059500,9.8700595703125,0.17647008110582826,-0.51712885389328,-0.07806640549898147
1726941013325045500,9.88004541015625,0.28530513435602184,-0.8382510054312646,-0.37331864111274476
1726941013335031600,9.890031494140626,-0.32075638696551323,-1.0057416612677275,-0.39851562621146436
1726941013345017300,9.900017333984374,-0.7183651274651288,-1.0416690069563685,-0.38601299525201316
1726941013355003600,9.910003662109375,-1.1347300063610075,-0.9252880683712661,-0.17036942614316938
1726941013364989400,9.919989501953125,-1.849201633518934,-0.8062251972258091,-0.06631196255832911
1726941013374975500,9.9299755859375,-2.038136059400439,-0.7094761569581925,0.00820084211230278
1726941013384961500,9.93996142578125,-1.4147405414402483,-0.6446501951739192,0.14947452215254306
1726941013394947600,9.949947509765625,-0.7831880205094813,-0.45612537300661204,0.23497458478361366
1726941013404933400,9.959933349609376,-0.6389683501452207,-0.46270007522180673,0.18646043698340653
1726941013414919400,9.96991943359375,-0.8172674002438783,-0.5943745906591416,-0.2727195012882352
1726941013424905500,9.979905517578125,-1.7299784572452306,-0.9027201166018843,-0.89073624881953
1726941013434891500,9.9898916015625,-2.162508289000392,-1.0491380276627837,-0.8754564082317053
1726941013444877300,9.999877197265626,-1.8927374083846806,-1.0747538226954638,-0.29076303443573415
1726941013454863600,10.009863525390625,-2.167655588760972,-0.6806850928902626,0.7575763901952653
1726941013464849400,10.019849365234375,-2.466938395065069,-0.1753004528045654,1.4661623933807015
1726941013474834400,10.02983447265625,-2.404968553364277,-0.1216010113209486,1.6259494891025126
1726941013484821500,10.039821533203124,-2.3176941745370625,0.05516074620783329,1.946596132083237
1726941013494806500,10.049806640625,-2.4761066209048033,0.2645826643228531,2.254834690520167
1726941013504792600,10.05979248046875,-2.102247589305043,0.332220907048881,2.4089625914365054
1726941013514778400,10.0697783203125,-1.413188051301241,0.43655981792360543,1.965862704219669
1726941013524764400,10.079764404296874,-0.2638888368397951,0.14604600900858639,1.0979420983202755
1726941013534750500,10.08975048828125,0.8141285176962614,-0.5267883703812957,0.8342083059117198
1726941013544736500,10.099736572265625,1.9929484256744383,-1.131747191157937,1.2968161728054284
1726941013554722600,10.10972265625,2.6858728224128483,-1.1815420264184475,1.6893191145986317
1726941013564708400,10.119708251953124,3.422438792479038,-0.6904033538281917,1.9035604156941175
1726941013574694400,10.1296943359375,4.6653398352235556,-0.1814051994204521,1.6112354657039045
1726941013584680400,10.139680419921875,4.898996030884981,0.19285569097846744,0.5262304442375898
1726941013594666500,10.14966650390625,4.546552127757669,0.6491890076473354,-0.6952236135914921
1726941013604652300,10.15965234375,4.626107895031571,1.009674762932956,-1.701571570189297
1726941013614638600,10.169638671875,4.883706107294559,1.4239780331239102,-2.1210808845907447
1726941013624624400,10.179624267578125,3.708299222630262,1.8842194631472229,-2.6781433972045776
1726941013634610400,10.1896103515625,2.7288994787126777,1.9233336221784352,-2.5912758456125853
1726941013644596500,10.199596435546875,2.285571774089336,1.2020815411001444,-1.0065469863012433
1726941013654582500,10.20958251953125,2.3870085337817666,0.39234979705810547,0.41959582364112136
1726941013664568300,10.219568359375,2.846545614928007,-0.40026539248824117,1.4026298324078321
1726941013674554600,10.2295546875,3.1809067488759752,-0.8760109733745455,1.7902146070212124
1726941013684540400,10.23954052734375,3.2864819235473868,-0.8272600942090154,1.2678975368350744
1726941013694526500,10.2495263671875,3.3345980119407175,-0.8123264367103576,0.4546329424917698
1726941013704512500,10.259512451171876,2.7977351145297287,-0.7205792963832617,-0.18087123867422342
1726941013714498600,10.26949853515625,1.9372592716783283,-0.4927461077868938,-1.0033572503492236
1726941013724484400,10.279484375,0.813756177252531,-0.24952830305397508,-1.6519060603968798
1726941013734470700,10.289470703125,-0.3156722155690193,-0.1344926415979862,-2.027947842863202
1726941013744456400,10.29945654296875,-1.481314662066102,-0.11003595347255468,-1.8380263056404889
1726941013754442500,10.3094423828125,-2.424440146553516,-0.04226677784323692,-1.218272505183518
1726941013764428300,10.31942822265625,-3.237825152406096,0.07788505758270621,-0.6196086928978563
1726941013774414600,10.32941455078125,-3.5115240201205014,0.13725392300486564,-0.333639395544678
1726941013784400400,10.339400390625,-3.165929544496536,-0.048465778613835574,-0.2316723283678293
1726941013794386400,10.349386474609375,-3.9291321770757435,0.3451575455114245,-0.17664616832509636
1726941013804372500,10.35937255859375,-3.928887262403965,1.291802874688059,0.12072875853106378
1726941013814358500,10.369358642578124,-2.31214063206315,1.6021297837063668,0.6036252340853214
1726941013824344300,10.37934423828125,-0.5917091708421707,1.342182524099201,0.6856491450384259
1726941013834330600,10.38933056640625,-0.21576573418378828,1.0792527415499091,0.6192495041966438
1726941013844316400,10.39931640625,0.07747837647795677,0.5969255903162062,0.3694374157652259
1726941013854302500,10.409302490234374,0.07418518015146255,0.02578428346738219,0.06377002299055456
1726941013864288500,10.41928857421875,0.07679857752025127,-0.31733444969281555,-0.043972704978287216
1726941013874274600,10.429274658203125,0.22151041531562804,-0.3932862011253834,-0.031415713483095166
1726941013884260400,10.43926025390625,-0.06914835502803325,-0.2932718754515052,-0.15774316880404948
1726941013894246700,10.44924658203125,-0.8069903363794088,-0.11673004428371786,-0.22823767774403095
1726941013904232400,10.459232421875,-1.39233874001801,-0.1094325807519257,-0.4264893825471401
1726941013914218500,10.469218505859375,-1.4088286870479583,-0.15874796193242072,-0.685240564237535
1726941013924204500,10.47920458984375,-1.1747329309254884,-0.045671033328771586,-0.9436474625349044
1726941013934190600,10.489190673828125,-1.2368120782196521,0.328522637052834,-1.0930328450992703
1726941013944176400,10.49917626953125,-1.7236726350992917,0.4304961339704692,-1.083380050612986
1726941013954162700,10.50916259765625,-2.061348592683673,0.36951764139458537,-0.6980006770893931
1726941013964148500,10.5191484375,-1.4872744472533463,0.35990912444144485,-0.14193594334125517
1726941013974134500,10.529134521484375,-0.5427887803286313,0.45356677456498146,0.24458821630328892
1726941013984120600,10.53912060546875,0.03169511494636536,0.5976258475400507,0.34469986487179993
1726941013994106600,10.549106689453126,0.13551087872982023,0.5035990718431771,0.2993506108433008
1726941014004092400,10.559092529296874,0.21930793683528899,0.4208035919956863,0.3085159140735865
1726941014014078500,10.569078369140625,0.8908645513743162,0.29860563769489523,0.3901587167546153
1726941014024064500,10.579064453125,1.923203273797035,0.15937369261533021,0.4313067197009921
1726941014034050600,10.589050537109374,2.5552906322568654,0.044929494246467944,0.4638973221823573
1726941014044036400,10.599036376953125,2.6681308294951913,-0.11812485964298247,0.49507893464863295
1726941014054022400,10.6090224609375,2.2437562471449373,-0.3140318279508501,0.5572744017988444
1726941014064008400,10.619008544921876,1.625095356491208,-0.39816030996777113,0.7629191394627094
1726941014073994500,10.628994384765624,1.4396341596782207,-0.35865393674857915,1.0270856242001056
1726941014083980300,10.638980224609375,1.8442361200660466,-0.14288959080427885,1.2357298359408975
1726941014093966600,10.648966552734375,2.2241215723484755,0.02929696776345372,1.2247738499015568
1726941014103952400,10.658952392578126,1.9679145221829413,0.14941153991892933,1.106056577323377
1726941014113938400,10.6689384765625,0.8961246638596058,0.2498598730958998,0.9555319615960121
1726941014123924500,10.678924560546875,-0.4458090000450611,0.501238553256914,0.5671972453981637
1726941014133910500,10.68891064453125,-2.256832001817226,0.8839922544520348,0.23598259278237818
1726941014143896300,10.698896240234374,-3.5543349878430366,1.3471940686509012,0.06739391257613897
1726941014153882600,10.708882568359375,-4.161153465011716,1.3487087109975515,-0.18294483007788656
1726941014163868400,10.718868408203125,-3.773918234488368,0.8749316537052393,-0.5630848416432738
1726941014173854500,10.7288544921875,-1.6216864248305558,0.4579560955651104,-0.2051514011889696
1726941014183840500,10.738840576171874,-0.49709144351482387,0.31703152122348544,0.1628793626487255
1726941014193826600,10.74882666015625,-0.9926783276855945,0.06070625150576234,-0.0705798491358757
1726941014203812400,10.758812255859375,-1.0368810420274734,-0.2774297248058021,-0.8144868296146393
1726941014213798400,10.76879833984375,-0.8511252461820841,-0.5448622256018221,-1.228856150779128
1726941014223784400,10.778784423828125,-0.4146399547994137,-0.4033516680657863,-0.8073302358582616
1726941014233770500,10.7887705078125,-0.11771218718886375,0.08891001720502972,-0.10002104767560958
1726941014243756300,10.79875634765625,-0.28368425515592094,0.3684149408496916,0.1253553954184055
1726941014253742300,10.808742431640624,-0.40232349406182766,0.16795169747695327,-0.26227760225087404
1726941014263728400,10.818728271484375,-0.4265589406520128,-0.06260229438543319,-0.4846513563975692
1726941014273714200,10.828714111328125,-0.24122633865475654,-0.37635304037258027,-0.4079021709769964
1726941014283700500,10.838700439453126,-0.022871172499656676,-0.5658724265351891,-0.1294476331681013
1726941014293686300,10.848686279296874,-0.2876040589481592,-0.637298663367331,0.046434272786229844
1726941014303672300,10.85867236328125,-0.6939689373552799,-0.543188593301177,0.1668340916238725
1726941014313658400,10.868658447265625,-0.6764280199676752,-0.39239831237494943,0.029125995110720393
1726941014323644400,10.87864453125,-0.5221837991952896,-0.39042584325820207,0.1306742523536086
1726941014333630200,10.888630126953124,-0.0760953976869583,-0.3599991408124566,0.4101278842024505
1726941014343616500,10.898616455078125,-0.13991232855916022,-0.1924630383990705,0.5349786910995841
1726941014353602300,10.908602294921875,-0.7937713738441466,-0.13263722298964858,0.4711759348832071
1726941014363588400,10.91858837890625,-1.150240294703841,-0.2732574075572193,0.15598521922081707
1726941014373574400,10.928574462890625,-0.9113099580317735,-0.4874081077598035,-0.401215971211344
1726941014383560400,10.938560546875,-0.010879705932736397,-0.666159723931551,-0.5545955379784107
1726941014393546200,10.948546142578126,0.4588409155756235,-0.7420299345605075,-0.1860442573979497
1726941014403531300,10.95853125,0.1906201870113611,-0.6005713994726538,0.24398345534317195
1726941014413517600,10.968517578125,-0.21309505366981027,-0.4068132066965103,0.251678759086132
1726941014423503400,10.97850341796875,-0.6715647978454828,-0.3056403586372733,-0.3292838306836784
1726941014433489400,10.988489501953126,-1.0478425810247658,-0.4879948216065764,-0.5413580899383872
1726941014443475500,10.998475341796874,-0.7393886262714863,-0.8200096846893429,0.11515256583392619
1726941014453461500,11.00846142578125,-0.2242044767051935,-0.6173270117014646,1.11428518422544
1726941014463447300,11.018447265625,-0.3046627457767725,-0.14140724329203366,1.62554383091107
1726941014473433600,11.02843359375,-0.7665314847409724,0.0470867453455925,1.7643343158334492
1726941014483419400,11.03841943359375,-0.8887515047430992,-0.026427695937454698,0.9788821497842669
1726941014493405400,11.048405517578125,-0.8565881877630949,-0.3339727191522717,-0.0420553270496428
1726941014503391500,11.0583916015625,-0.8610282160371542,-0.7703104187577963,-0.3850120015159249
1726941014513377500,11.06837744140625,-0.4656926811665296,-1.270432608270645,-0.23271569994091987
1726941014523363300,11.07836328125,0.3680687577605247,-1.5026707538276909,0.46706250821501016
1726941014533349600,11.088349609375,1.5231418794482945,-1.1987971126019954,1.3484765096768736
1726941014543335400,11.09833544921875,2.724445421913266,-0.6096650987714529,1.6560533893346785
1726941014553321500,11.108321533203124,3.2417940560370684,-0.1504293386593461,0.9953370255008339
1726941014563307500,11.1183076171875,2.8865374335765837,0.3478647586435079,-0.5607224964261055
1726941014573293600,11.12829345703125,2.6226258003830907,0.5037777894109488,-1.7572633545339107
1726941014583279400,11.138279296875,3.3222581703275442,0.5978814297363162,-1.4155407519072294
1726941014593265400,11.148265380859375,3.1327947521358728,0.6231380360677838,-0.26058921077251435
1726941014603251500,11.15825146484375,2.5112913315325973,0.9356786756128073,0.22011720739156007
1726941014613237500,11.168237548828126,1.9634014286726713,1.192882043339312,-0.26495237441807984
1726941014623223300,11.178223388671874,1.5363871454685925,0.7225131870552897,-0.753242379578948
1726941014633209300,11.188209228515625,1.31121119338274,-0.21637129886150358,-1.0127861729517578
1726941014643195400,11.1981953125,1.2748019093960523,-0.6141895904585719,-0.9594421207770705
1726941014653181400,11.208181396484376,1.2957967666298151,-0.6284028247281909,-1.01377050781399
1726941014663167500,11.21816748046875,1.071332177683711,-0.6223235048145055,-1.3041887474000453
1726941014673153300,11.2281533203125,0.7287526659667491,-0.5351861963704229,-1.3901510207153855
1726941014683139300,11.238139404296875,0.4352461049765348,-0.41177258266955613,-1.1120961497485637
1726941014693125400,11.24812548828125,0.3255675866395235,-0.4241331748098135,-0.3825194540478289
1726941014703111400,11.258111328125,0.7927887925475835,-0.3870832548320293,0.16459698022156952
1726941014713097200,11.26809716796875,1.1814900039702654,-0.18589023588001727,0.733968500918895
1726941014723083500,11.27808349609375,1.6950760706901549,-0.05954466038048267,0.4646908106476068
1726941014733069300,11.2880693359375,1.611695192170143,0.1757452739626169,0.021167583452165125
1726941014743055400,11.298055419921875,1.2978952002137898,0.40574017063751816,-0.006742898388952016
1726941014753041400,11.30804150390625,1.1219921053409576,0.3545870526358485,-0.2815869906157255
1726941014763027500,11.31802734375,0.36445582796037196,-0.12210194658041,-0.4740503212757408
1726941014773013200,11.32801318359375,-1.3452128317058085,-0.5349544334411621,-0.811248724476248
1726941014782999600,11.33799951171875,-2.8809149175196884,-0.16025953553915023,-0.8718607218272983
1726941014792985300,11.3479853515625,-2.977679593747854,0.33046295746564863,-0.3274665521286428
1726941014802971400,11.357971435546874,-2.754641238212585,0.45933322913721203,0.1316660398699343
1726941014812957400,11.36795751953125,-2.8166192632198332,0.3049833560332656,0.19071210307851433
1726941014822943500,11.377943603515625,-3.2189000871837137,0.2375644551463425,0.08606661047264932
1726941014832929300,11.38792919921875,-3.0697137343227863,0.27357334163859487,-0.09190072345361112
1726941014842915300,11.397915283203124,-2.52130126889348,0.3560246842235327,0.003228606657683849
1726941014852901400,11.4079013671875,-2.2011557073026893,0.5926829843103886,0.36110593301057814
1726941014862887400,11.417887451171875,-2.1358669503122565,0.5430675972700119,0.7469906257078052
1726941014872873200,11.427873291015626,-1.8639678254961967,0.23681670551896095,0.7309484224453568
1726941014882859500,11.437859619140625,-1.411059807100892,-0.015687398475408555,0.5336380901455879
1726941014892845300,11.44784521484375,-0.5947831714600325,-0.2082622266858816,0.3154647102981806
1726941014902831400,11.457831298828125,0.27268413771390915,-0.1039656936481595,0.29909020634144545
1726941014912817400,11.4678173828125,0.71964990657866,0.1398547531530261,0.11004325999617576
1726941014922803500,11.477803466796875,0.5443412704676389,0.09103862673155963,-0.15723083536773919
1726941014932789200,11.487789306640625,-0.06764145759642123,-0.07972432877384125,-0.3459337905809283
1726941014942775600,11.497775634765626,-0.15275485899746416,-0.10278247521296142,-0.6109215285733341
1726941014952761300,11.50776123046875,0.18947627767324446,0.150209923755005,-0.778345256653428
1726941014962747400,11.517747314453125,0.18439093723297117,0.43566973721608515,-0.9015437662988901
1726941014972733400,11.5277333984375,-0.27151450941264627,0.5897550410997122,-1.0303507634758948
1726941014982719500,11.537719482421876,-0.2577408356040716,0.6990627533629536,-0.9933838456064462
1726941014992705300,11.547705322265625,-0.5301140076726675,0.6286212897844612,-0.7235372694060206
1726941015002691600,11.557691650390625,-0.6517267094314098,0.5621863584335893,-0.3559451892465353
1726941015012677400,11.567677490234376,-1.3637211328208445,0.34759887424893676,0.05732318493872881
1726941015022663400,11.577663330078124,-2.191801603502035,0.18246143047511576,0.4590314697116613
1726941015032649500,11.5876494140625,-2.216898635357618,-0.007126637009531259,0.9565320785492658
1726941015042635300,11.59763525390625,-0.7575660879969597,-0.0789752639722079,1.6687176405966282
1726941015052621000,11.60762109375,1.1271908430278301,-0.06779664815813302,2.3529320766568182
1726941015062607400,11.617607421875,2.4852485432595013,-0.03078815616928041,2.6768574490472674
1726941015072593200,11.62759326171875,3.2767508031278845,-0.19998050135709344,2.6692212550804015
1726941015082579200,11.6375791015625,3.8580776961654424,-0.5021523071009666,2.530766431853175
1726941015092565200,11.647565185546876,4.560954162597656,-0.7007383584249764,2.1985338343665
1726941015102551300,11.65755126953125,4.819684009239078,-0.7338930975951254,1.7892247192010282
1726941015112537000,11.667537109375,4.5310330715864895,-0.7113841094713658,1.2777367938041686
1726941015122523400,11.6775234375,3.1528333315581083,-0.46096645636223255,0.6625625762224197
1726941015132509200,11.68750927734375,1.2777923233836888,0.09851086230836809,-0.12659925799965857
1726941015142495200,11.6974951171875,-0.41071313674449916,0.7893551648370921,-1.264375207927823
1726941015152481300,11.707481201171875,-1.7902894258230924,1.5831122178949415,-1.95866621684432
1726941015162467300,11.71746728515625,-3.162380327582359,2.3052193083673713,-2.5275249657139183
1726941015172453000,11.727453125,-5.310706361973286,2.2644176346406337,-2.632873053631186
1726941015182439400,11.737439453125,-6.624246875086427,1.5246579830996692,-2.054511147879064
1726941015192425200,11.74742529296875,-5.104181918865442,0.7520620837531984,-1.1823004435703157
1726941015202411300,11.757411376953126,-2.9119968690037727,0.014509440737217664,-0.6604048136666417
1726941015212397300,11.767397216796875,-1.8072563427150248,-0.5218514985010028,0.12560995470136405
1726941015222383400,11.77738330078125,-1.3854524876356125,-1.099567361434549,0.5022746913716196
1726941015232369200,11.787369140625,-1.4788836355268955,-1.6446752323605118,0.21376286992877722
1726941015242355500,11.79735546875,-1.1543348705410956,-2.078824920402467,-0.2400306991294026
1726941015252341200,11.80734130859375,-0.4236544513821602,-2.06549884423092,-0.4365037038221955
1726941015262327300,11.817327392578125,-0.0996720881074667,-1.6056632185295223,-0.29937925241589547
1726941015272312000,11.82731201171875,-0.3523012797862291,-0.9186673350572585,-0.15310454921796918
1726941015282298400,11.83729833984375,-0.7238000119954348,-0.43027226208671926,-0.35655309201180935
1726941015292284200,11.8472841796875,-0.8726327291131019,-0.13611965827792882,-0.6967328491106629
1726941015302270200,11.857270263671875,-0.6548965716391801,-0.004999415722489357,-0.8380395546376704
1726941015312256300,11.86725634765625,-0.41759880460500715,-0.11851064409017562,-0.7988454622380435
1726941015322242300,11.8772421875,-0.26793489736020565,-0.4845012804023921,-0.5485799309507012
1726941015332228000,11.88722802734375,-0.4519131621390581,-0.7825263417303562,-0.13337035956978796
1726941015342214400,11.89721435546875,-0.8605915781855583,-0.759252287518233,0.42133251124061644
1726941015352200200,11.9072001953125,-0.5543266579091548,-1.0593167457193136,0.939814606373757
1726941015362186200,11.917186279296875,0.39701486625969407,-1.5117080467641353,1.110611537213996
1726941015372172300,11.92717236328125,0.5689543181985617,-1.718830748026073,1.5528437747508286
1726941015382158300,11.937158447265626,-0.428393754863739,-1.4910750085800886,1.1951204699158668
1726941015392144100,11.94714404296875,-2.6727777785181996,-0.7199003742083907,0.417740843424201
1726941015402130200,11.957130126953125,-4.044300525000692,-0.21722703890800474,0.4010151879422366
1726941015412116200,11.9671162109375,-3.9560271982640027,-0.033306057274341584,1.0872007779449224
1726941015422102300,11.977102294921876,-2.295012971651554,-0.279331320643425,1.8275081264965236
1726941015432088000,11.987088134765624,-0.4028489792406559,-0.8360530569955706,2.426566344927251
1726941015442074400,11.997074462890625,1.026812652477622,-0.9467965742155909,2.8347502554550763
1726941015452060200,12.00706005859375,2.2097043399393557,-0.7628823145836592,2.645169348363578
1726941015462046200,12.017046142578126,3.5424423054754732,-0.9001146102786064,2.160048036366701
1726941015472032300,12.0270322265625,4.181348111778497,-0.9569856675356626,1.4764467637687921
1726941015482018300,12.037018310546875,4.6235015119254586,-0.6564937777027487,0.6661363430559635
1726941015492004000,12.047004150390626,4.633952178791165,-0.24752426975518463,-0.8143094272211193
1726941015501990400,12.056990478515624,4.099326246652007,0.36423224833756684,-2.4897262731954455
1726941015511976200,12.06697607421875,3.4829198569267987,1.0165601385325194,-3.3026232032701373
1726941015521962200,12.076962158203125,2.235959309658408,1.4845137503683565,-2.9863579902440307
1726941015531948300,12.0869482421875,0.7958627931654453,2.0864020776584744,-2.237679265318811
1726941015541934300,12.096934326171874,-0.46834933315515515,2.1923653748646377,-1.3224693772390483
1726941015551920000,12.106920166015625,-1.549133814316988,1.6662229011714458,0.596247983315587
1726941015561906400,12.116906494140625,-0.3183171771198511,0.4755263851776719,2.6583471021056173
1726941015571892200,12.126892333984374,1.9276023855388162,-0.7327335522964596,3.0563261372223494
1726941015581878300,12.136878173828125,3.109215139105916,-1.015490171213448,2.626881704261899
1726941015591864300,12.1468642578125,3.3904975938171145,-0.7752458293333649,1.8624784637212752
1726941015601850400,12.156850341796876,3.2749533983170984,-0.924481574293971,0.6767261261314154
1726941015611836200,12.166836181640624,3.1645489037930963,-1.138363978949189,-0.596339460991323
1726941015621822500,12.176822509765625,2.9122751014232633,-1.3699837003469466,-1.2976616837188601
1726941015631808300,12.186808349609375,2.6024048501312733,-1.210627543388307,-1.8480255754768848
1726941015641794300,12.196794189453126,1.846954731374979,-0.8678966405019164,-1.9662014346547423
1726941015651780000,12.206780029296874,0.6415127739310265,-0.5419979222118855,-2.34703541983366
1726941015661766400,12.216766357421875,-0.5801841527432203,-0.3747057115569711,-2.6488871998429295
1726941015671752200,12.226752197265625,-1.4054296922594307,-0.1013908747240901,-2.660753578725457
1726941015681738200,12.23673828125,-2.4097715697318316,-0.41417818250656124,-2.525521516937017
1726941015691724300,12.246724365234375,-2.8298019853979346,-0.5530896634601056,-1.5115987411707639
1726941015701710300,12.25671044921875,-2.8320050484001635,-0.29006168123334647,-0.7501810923121869
1726941015711696100,12.266696044921876,-2.998373422208428,-0.19836963209435343,-0.45395708905681964
1726941015721682400,12.276682373046874,-3.882626446488499,0.6697527799874544,0.4268006404533982
1726941015731668200,12.286668212890625,-3.9422821660280225,1.659730324281752,0.9755407304018735
1726941015741654300,12.296654296875,-3.437926284468174,1.8589774698629975,1.316737263327837
1726941015751640300,12.306640380859376,-2.992994651779532,1.0882165308587253,1.0540325217060744
1726941015761626400,12.31662646484375,-1.9180659109085798,0.3776027481727302,0.45490708325803275
1726941015771612200,12.326612060546875,-1.2591548429310322,-0.11067381298467516,0.15490896829143166
1726941015781598200,12.33659814453125,-0.970575216948986,-0.35817557864710686,-0.06240326468199491
1726941015791584300,12.346584228515624,-0.8630085761994123,-0.47057504638060926,-0.2684916544601321
1726941015801570300,12.3565703125,-1.0669488480329512,-0.408881099011749,-0.2956786443322897
1726941015811556400,12.366556396484375,-1.2228928584605454,-0.26890651887133715,-0.07489391294270753
1726941015821542100,12.376542236328126,-0.7671341268092393,-0.12712620448321102,0.36432343375235793
1726941015831528200,12.386528076171874,0.1773486175060272,-0.10972440330535173,0.8550897658988833
1726941015841514200,12.39651416015625,0.9888111308634281,-0.12509250669851898,1.1271876281574367
1726941015851500300,12.406500244140625,1.0206541298478842,-0.1083105909846723,0.9948346289366483
1726941015861486000,12.416486083984376,0.9472060317993164,-0.03250087837129831,0.7572793800100683
1726941015871472400,12.426472412109375,0.7886895405352116,0.05316986465156078,0.7087427281171083
1726941015881458200,12.436458251953125,0.8132260158985852,0.5661759395264089,0.5916533490017056
1726941015891444200,12.4464443359375,0.9557388823449611,1.0042036380454897,0.7783896803170443
1726941015901430000,12.456429931640624,1.0873960082560776,1.0888283791467548,0.5747720645666122
