time,seconds_elapsed,z,y,x
1726941003462633200,0.01763330078125,-0.8678436279296875,-0.545989990234375,-0.1554718017578125
1726941003472619000,0.027618896484375,-0.839080810546875,-0.499786376953125,-0.24566650390625
1726941003482605000,0.03760498046875,-0.80804443359375,-0.54705810546875,-0.311553955078125
1726941003492591000,0.047591064453125,-0.7363739013671875,-0.632537841796875,-0.3095245361328125
1726941003502577200,0.0575771484375,-0.63836669921875,-0.6957244873046875,-0.272216796875
1726941003512563000,0.06756298828125,-0.5946044921875,-0.72003173828125,-0.255126953125
1726941003522549000,0.077549072265625,-0.59600830078125,-0.711181640625,-0.2414093017578125
1726941003532535000,0.08753515625,-0.621490478515625,-0.67803955078125,-0.23162841796875
1726941003542521000,0.09752099609375,-0.626739501953125,-0.619964599609375,-0.211883544921875
1726941003552507000,0.1075068359375,-0.6793975830078125,-0.614349365234375,-0.0639190673828125
1726941003562493200,0.1174931640625,-0.74505615234375,-0.63592529296875,0.037200927734375
1726941003572479000,0.12747900390625,-0.7414398193359375,-0.6685028076171875,0.1104736328125
1726941003582465000,0.137465087890625,-0.6428375244140625,-0.6645660400390625,0.092803955078125
1726941003592451000,0.147451171875,-0.4956817626953125,-0.6541900634765625,0.0304412841796875
1726941003602437000,0.15743701171875,-0.442626953125,-0.677215576171875,-0.004608154296875
1726941003612423000,0.1674228515625,-0.43426513671875,-0.6308746337890625,-0.0159149169921875
1726941003622409200,0.1774091796875,-0.340576171875,-0.5008697509765625,-0.1219635009765625
1726941003632395000,0.18739501953125,-0.246429443359375,-0.420928955078125,-0.314300537109375
1726941003642381000,0.197381103515625,-0.2697601318359375,-0.56695556640625,-0.3729705810546875
1726941003652367000,0.2073671875,-0.2624969482421875,-0.5881195068359375,-0.3592987060546875
1726941003662353200,0.217353271484375,-0.330535888671875,-0.7955780029296875,-0.45477294921875
1726941003672339000,0.2273388671875,-0.348968505859375,-1.0094146728515625,-0.4990386962890625
1726941003682325200,0.2373251953125,-0.3623199462890625,-1.032501220703125,-0.524444580078125
1726941003692311000,0.24731103515625,-0.3849334716796875,-0.968902587890625,-0.45330810546875
1726941003702297000,0.257297119140625,-0.4232940673828125,-0.9093017578125,-0.3115386962890625
1726941003712283100,0.267283203125,-0.3919830322265625,-0.8324432373046875,-0.1539459228515625
1726941003722269200,0.277269287109375,-0.2266693115234375,-0.75885009765625,0.0093536376953125
1726941003732255000,0.2872548828125,-0.0692596435546875,-0.7236328125,0.149688720703125
1726941003742241000,0.297240966796875,0.0273895263671875,-0.6690826416015625,0.1973114013671875
1726941003752227000,0.30722705078125,0.0514373779296875,-0.614654541015625,0.1015777587890625
1726941003762212900,0.317212890625,0.0448150634765625,-0.740814208984375,-0.0376739501953125
1726941003772199000,0.327198974609375,0.035552978515625,-0.911590576171875,-0.1629486083984375
1726941003782185000,0.33718505859375,0.090545654296875,-0.8316497802734375,-0.473541259765625
1726941003792171000,0.3471708984375,0.0990447998046875,-0.704315185546875,-0.5526885986328125
1726941003802156800,0.35715673828125,-0.0296630859375,-0.57073974609375,-0.40057373046875
1726941003812143000,0.36714306640625,-0.1758880615234375,-0.4551849365234375,-0.2682647705078125
1726941003822129000,0.37712890625,-0.1826171875,-0.5040283203125,-0.50927734375
1726941003832115000,0.387114990234375,-0.12042236328125,-0.590911865234375,-0.7542877197265625
1726941003842101000,0.39710107421875,-0.1172943115234375,-0.605804443359375,-0.8890228271484375
1726941003852087000,0.407087158203125,-0.071929931640625,-0.593902587890625,-0.8962249755859375
1726941003862072000,0.417072021484375,0.0408172607421875,-0.696868896484375,-0.824951171875
1726941003872057900,0.427057861328125,0.118621826171875,-0.688323974609375,-0.6793975830078125
1726941003882044200,0.437044189453125,0.089324951171875,-0.5990142822265625,-0.566070556640625
1726941003892030000,0.447030029296875,0.08978271484375,-0.6040496826171875,-0.61468505859375
1726941003902016000,0.45701611328125,0.003814697265625,-0.6767120361328125,-0.803253173828125
1726941003912002000,0.467001953125,0.30657958984375,-0.9868621826171875,-1.4478302001953125
1726941003921988000,0.476988037109375,-0.1620330810546875,-1.037750244140625,-0.8947296142578125
1726941003931974000,0.486973876953125,-0.221466064453125,-0.818634033203125,-0.8101348876953125
1726941003941960200,0.496960205078125,-0.0158233642578125,-0.741912841796875,-0.8345794677734375
1726941003951946000,0.506946044921875,0.0851593017578125,-0.658966064453125,-0.8845367431640625
1726941003961932000,0.51693212890625,0.2931365966796875,-0.5178985595703125,-0.9561004638671875
1726941003971918000,0.52691796875,0.4906768798828125,-0.481658935546875,-0.83740234375
1726941003981904100,0.536904052734375,0.5417938232421875,-0.34588623046875,-0.6947479248046875
1726941003991890000,0.546889892578125,0.44805908203125,-0.17889404296875,-0.688568115234375
1726941004001876200,0.556876220703125,0.04461669921875,-0.1505889892578125,-0.6484222412109375
1726941004011862000,0.566862060546875,-0.0722503662109375,-0.1053009033203125,-0.59759521484375
1726941004021848000,0.57684814453125,-0.0209808349609375,-0.0287017822265625,-0.5204925537109375
1726941004031834000,0.586834228515625,0.166107177734375,0.2089080810546875,-0.5775909423828125
1726941004041820200,0.596820068359375,0.623199462890625,0.2432708740234375,-0.891571044921875
1726941004051806200,0.60680615234375,1.070953369140625,0.223724365234375,-1.02044677734375
1726941004061792300,0.616792236328125,1.48846435546875,0.1609344482421875,-1.0713653564453125
1726941004071778000,0.626778076171875,1.4928741455078125,-0.046173095703125,-0.982330322265625
1726941004081764000,0.63676416015625,1.39361572265625,-0.2923431396484375,-0.97186279296875
1726941004091750100,0.646750244140625,1.064178466796875,-0.532440185546875,-1.199371337890625
1726941004101736200,0.656736083984375,0.6567535400390625,-0.691650390625,-1.251220703125
1726941004111722200,0.66672216796875,0.36468505859375,-0.4194488525390625,-1.1092376708984375
1726941004121708000,0.6767080078125,0.2574615478515625,-0.3822021484375,-0.7342376708984375
1726941004131694000,0.686694091796875,0.14825439453125,-0.64422607421875,-0.7269287109375
1726941004141680000,0.69668017578125,0.20721435546875,-0.7535247802734375,-0.94329833984375
1726941004151666200,0.706666259765625,0.22515869140625,-0.6677703857421875,-0.9632568359375
1726941004161652000,0.71665185546875,0.37445068359375,-0.5473480224609375,-0.96240234375
1726941004171638000,0.726637939453125,0.522918701171875,-0.283203125,-1.0941925048828125
1726941004181624000,0.7366240234375,0.5086517333984375,0.0170745849609375,-1.0863037109375
1726941004191610000,0.746610107421875,0.3833770751953125,0.094573974609375,-0.8558502197265625
1726941004201596000,0.756595947265625,0.1903228759765625,0.0790252685546875,-0.640228271484375
1726941004211582200,0.766582275390625,0.0949554443359375,0.1995086669921875,-0.5516204833984375
1726941004221568000,0.776568115234375,0.0860443115234375,0.400238037109375,-0.554962158203125
1726941004231554000,0.786553955078125,0.0546417236328125,0.564483642578125,-0.736541748046875
1726941004241540000,0.7965400390625,0.10791015625,0.84149169921875,-1.1541900634765625
1726941004251526100,0.806526123046875,0.2209320068359375,1.099212646484375,-1.8770751953125
1726941004261512000,0.816511962890625,0.1234283447265625,0.9370574951171875,-1.802093505859375
1726941004271498200,0.826498291015625,-0.0480804443359375,0.883941650390625,-1.4167938232421875
1726941004281484000,0.836484130859375,-0.0361480712890625,0.8113250732421875,-1.2211761474609375
1726941004291470000,0.846469970703125,-0.0015716552734375,0.6055755615234375,-1.0659942626953125
1726941004301456100,0.8564560546875,0.04339599609375,0.4315643310546875,-1.128570556640625
1726941004311442200,0.866442138671875,0.2557373046875,0.4125213623046875,-1.1313629150390625
1726941004321428000,0.876427978515625,0.4470062255859375,0.421539306640625,-1.2579803466796875
1726941004331414300,0.886414306640625,0.635345458984375,0.4491729736328125,-1.1945953369140625
1726941004341400000,0.896400146484375,0.6837615966796875,0.473663330078125,-1.060211181640625
1726941004351386000,0.90638623046875,0.7078857421875,0.45062255859375,-0.902191162109375
1726941004361372200,0.9163720703125,0.88134765625,0.3623199462890625,-0.685546875
1726941004371358200,0.926358154296875,1.0531768798828125,0.2266387939453125,-0.687957763671875
1726941004381344000,0.936343994140625,0.8443145751953125,0.2559661865234375,-0.520599365234375
1726941004391329000,0.9463291015625,0.5905303955078125,0.3211212158203125,-0.368133544921875
1726941004401316000,0.956316162109375,0.40277099609375,0.3426513671875,-0.378143310546875
1726941004411301000,0.966301025390625,0.276885986328125,0.3569488525390625,-0.4795989990234375
1726941004421287200,0.976287109375,0.2350921630859375,0.38934326171875,-0.5380706787109375
1726941004431273200,0.986273193359375,0.176116943359375,0.403778076171875,-0.6090240478515625
1726941004441259300,0.99625927734375,0.1060943603515625,0.3999176025390625,-0.7125244140625
1726941004451245000,1.0062451171875,0.0331878662109375,0.3768310546875,-0.8231201171875
1726941004461231000,1.016231201171875,0.0643157958984375,0.4833984375,-0.963653564453125
1726941004471217200,1.026217041015625,0.136016845703125,0.7474365234375,-1.362396240234375
1726941004481203200,1.036203125,0.207366943359375,0.872100830078125,-1.4156036376953125
1726941004491189000,1.04618896484375,0.18511962890625,0.747344970703125,-1.2501068115234375
1726941004501175000,1.056175048828125,0.25885009765625,0.565399169921875,-1.1414947509765625
1726941004511161000,1.0661611328125,0.4320068359375,0.4339752197265625,-0.9646759033203125
1726941004521147100,1.076147216796875,0.5902557373046875,0.438690185546875,-0.8478851318359375
1726941004531133200,1.08613330078125,0.6549072265625,0.443511962890625,-0.855377197265625
1726941004541119000,1.096118896484375,0.6126251220703125,0.4128265380859375,-0.8768157958984375
1726941004551105000,1.10610498046875,0.5582122802734375,0.3920135498046875,-0.8899993896484375
1726941004561091000,1.116091064453125,0.4597625732421875,0.360443115234375,-0.9205780029296875
1726941004571077000,1.1260771484375,0.3363800048828125,0.30938720703125,-1.0391387939453125
1726941004581063000,1.13606298828125,0.18426513671875,0.2811737060546875,-1.1656646728515625
1726941004591049200,1.14604931640625,0.1459808349609375,0.1252899169921875,-1.0693206787109375
1726941004601035000,1.156034912109375,0.1831817626953125,0.1119842529296875,-1.0253448486328125
1726941004611021000,1.16602099609375,0.1313018798828125,0.0369720458984375,-1.1156158447265625
1726941004621007000,1.176007080078125,0.118560791015625,0.01202392578125,-1.101806640625
1726941004630993200,1.1859931640625,0.1248779296875,0.0934906005859375,-0.9944305419921875
1726941004640979000,1.19597900390625,0.1206512451171875,0.147186279296875,-0.950286865234375
1726941004650965200,1.20596533203125,0.167022705078125,0.143341064453125,-0.913787841796875
1726941004660951000,1.215950927734375,0.212432861328125,0.152801513671875,-0.90936279296875
1726941004670937000,1.22593701171875,0.23822021484375,0.1609649658203125,-0.9228057861328125
1726941004680923100,1.235923095703125,0.2422332763671875,0.1627960205078125,-0.9428253173828125
1726941004690909200,1.2459091796875,0.2463531494140625,0.1670379638671875,-0.953643798828125
1726941004700895000,1.25589501953125,0.244171142578125,0.150665283203125,-0.9508514404296875
1726941004710881300,1.26588134765625,0.241729736328125,0.140716552734375,-0.94268798828125
1726941004720867000,1.2758671875,0.22735595703125,0.1320648193359375,-0.9449462890625
1726941004730853000,1.28585302734375,0.2200469970703125,0.1186370849609375,-0.942535400390625
1726941004740839000,1.2958388671875,0.22149658203125,0.109832763671875,-0.95489501953125
1726941004750825200,1.3058251953125,0.208770751953125,0.1009979248046875,-0.9805908203125
1726941004760811000,1.31581103515625,0.194793701171875,0.1000823974609375,-1.014617919921875
1726941004770797000,1.325797119140625,0.17279052734375,0.1045379638671875,-1.049041748046875
1726941004780783000,1.335783203125,0.158599853515625,0.0991363525390625,-1.0589141845703125
1726941004790769200,1.34576904296875,0.154205322265625,0.0773162841796875,-1.0582122802734375
1726941004800755000,1.3557548828125,0.1396942138671875,0.0666961669921875,-1.0297698974609375
1726941004810741200,1.3657412109375,0.1186370849609375,0.076690673828125,-1.0241546630859375
1726941004820727000,1.37572705078125,0.0822601318359375,0.108428955078125,-1.016693115234375
1726941004830713000,1.385713134765625,0.0519866943359375,0.1503143310546875,-1.0064849853515625
1726941004840699100,1.39569921875,0.05120849609375,0.1808929443359375,-0.98065185546875
1726941004850685200,1.405685302734375,0.0655975341796875,0.1936492919921875,-0.927093505859375
1726941004860671000,1.4156708984375,0.0672454833984375,0.2000732421875,-0.88580322265625
1726941004870657300,1.4256572265625,0.0756683349609375,0.20367431640625,-0.88226318359375
1726941004880643000,1.43564306640625,0.08538818359375,0.189239501953125,-0.920684814453125
1726941004890629000,1.445629150390625,0.091705322265625,0.177734375,-0.9525146484375
1726941004900615200,1.455615234375,0.111053466796875,0.1518096923828125,-0.9904327392578125
1726941004910601200,1.465601318359375,0.11383056640625,0.1368865966796875,-1.0223846435546875
1726941004920587000,1.4755869140625,0.11004638671875,0.1192474365234375,-1.01641845703125
1726941004930573300,1.4855732421875,0.123291015625,0.1002349853515625,-1.0022125244140625
1726941004940559000,1.49555908203125,0.154510498046875,0.0686798095703125,-0.960662841796875
1726941004950545200,1.505545166015625,0.1528778076171875,0.047271728515625,-0.8946685791015625
1726941004960531200,1.51553125,0.1245574951171875,0.0260009765625,-0.9255828857421875
1726941004970517200,1.525517333984375,0.1044464111328125,0.0215911865234375,-0.9635162353515625
1726941004980503000,1.5355029296875,0.0825042724609375,0.029541015625,-0.9856414794921875
1726941004990489000,1.545489013671875,0.054656982421875,0.013519287109375,-1.06024169921875
1726941005000474000,1.55547412109375,0.0255279541015625,0.0156707763671875,-1.102874755859375
1726941005010460200,1.565460205078125,-0.00885009765625,0.0147247314453125,-1.1104888916015625
1726941005020446000,1.575446044921875,-0.0246429443359375,0.012115478515625,-1.0811767578125
1726941005030432300,1.585432373046875,-0.03753662109375,-0.0008544921875,-1.047821044921875
1726941005040418000,1.59541796875,-0.0547332763671875,-0.0066680908203125,-1.00738525390625
1726941005050404000,1.605404052734375,-0.064208984375,-0.0149383544921875,-0.97802734375
1726941005060390100,1.61539013671875,-0.078033447265625,-0.02520751953125,-0.9665374755859375
1726941005070376200,1.625376220703125,-0.0872955322265625,-0.037017822265625,-0.9589080810546875
1726941005080362000,1.635362060546875,-0.087738037109375,-0.0505828857421875,-0.952239990234375
1726941005090348000,1.64534814453125,-0.076446533203125,-0.0652618408203125,-0.9519805908203125
1726941005100334000,1.655333984375,-0.0736083984375,-0.077301025390625,-0.950531005859375
1726941005110320000,1.665320068359375,-0.0710296630859375,-0.08062744140625,-0.95855712890625
1726941005120306000,1.675305908203125,-0.061676025390625,-0.0741729736328125,-0.9626922607421875
1726941005130292200,1.685292236328125,-0.0532379150390625,-0.071044921875,-0.9687347412109375
1726941005140278000,1.695278076171875,-0.056121826171875,-0.0699462890625,-0.98834228515625
1726941005150264000,1.70526416015625,-0.060882568359375,-0.0680694580078125,-1.0164031982421875
1726941005160250000,1.71525,-0.069427490234375,-0.0640869140625,-1.0380096435546875
1726941005170236200,1.725236083984375,-0.0675506591796875,-0.060272216796875,-1.0385589599609375
1726941005180222000,1.735221923828125,-0.0588226318359375,-0.0534515380859375,-1.026947021484375
1726941005190208300,1.745208251953125,-0.0413818359375,-0.0413970947265625,-1.00146484375
1726941005200194000,1.755194091796875,-0.0317535400390625,-0.03173828125,-1.0192718505859375
1726941005210180000,1.76518017578125,-0.032501220703125,-0.016265869140625,-1.084869384765625
1726941005220166100,1.775166259765625,-0.0419921875,-0.000732421875,-1.136932373046875
1726941005230152200,1.785152099609375,-0.032562255859375,0.0078277587890625,-1.154388427734375
1726941005240138000,1.795137939453125,-0.016326904296875,0.0154876708984375,-1.130767822265625
1726941005250124300,1.805124267578125,-0.012725830078125,0.0297088623046875,-1.1091766357421875
1726941005260110000,1.815110107421875,0.0005645751953125,0.0403594970703125,-1.087249755859375
1726941005270096100,1.82509619140625,0.015045166015625,0.052276611328125,-1.0506134033203125
1726941005280082200,1.835082275390625,0.0232086181640625,0.07904052734375,-1.01641845703125
1726941005290068200,1.845068115234375,0.05621337890625,0.083160400390625,-1.01251220703125
1726941005300054000,1.855053955078125,0.0697784423828125,0.07720947265625,-1.0207061767578125
1726941005310040000,1.8650400390625,0.0810699462890625,0.043609619140625,-1.023895263671875
1726941005320026000,1.875026123046875,0.0798187255859375,0.00933837890625,-1.0424041748046875
1726941005330012200,1.88501220703125,0.0607757568359375,-0.0059051513671875,-0.995086669921875
1726941005339998000,1.894998046875,0.0347900390625,-0.0068817138671875,-0.9440155029296875
1726941005349984300,1.904984375,0.005523681640625,-0.0019073486328125,-0.93170166015625
1726941005359970000,1.914969970703125,-0.014373779296875,0.00701904296875,-0.964508056640625
1726941005369956000,1.9249560546875,-0.029571533203125,0.0229034423828125,-1.0001373291015625
1726941005379942100,1.934942138671875,-0.0233154296875,0.0308685302734375,-0.994720458984375
1726941005389928200,1.94492822265625,-0.002532958984375,0.0299224853515625,-0.9875030517578125
1726941005399914000,1.9549140625,0.0056304931640625,0.027618408203125,-0.9980621337890625
1726941005409900300,1.964900390625,0.0101318359375,0.0268096923828125,-1.0249786376953125
1726941005419886000,1.974885986328125,0.0045623779296875,0.0348358154296875,-1.0360260009765625
1726941005429872000,1.9848720703125,-0.011474609375,0.05755615234375,-1.016357421875
1726941005439858200,1.994858154296875,-0.0280303955078125,0.0695343017578125,-0.99761962890625
1726941005449844200,2.00484423828125,-0.028900146484375,0.06365966796875,-0.9711151123046875
1726941005459830000,2.014830078125,-0.0255126953125,0.0478363037109375,-0.92230224609375
1726941005469816300,2.02481640625,-0.021087646484375,0.0302276611328125,-0.903961181640625
1726941005479802000,2.034802001953125,-0.0166473388671875,0.0286865234375,-0.922454833984375
1726941005489788200,2.0447880859375,-0.041473388671875,0.0298309326171875,-0.93670654296875
1726941005499774200,2.054774169921875,-0.056915283203125,0.015289306640625,-0.94378662109375
1726941005509760300,2.06476025390625,-0.0717620849609375,0.003936767578125,-0.9569549560546875
1726941005519746000,2.07474609375,-0.0865478515625,-0.0140838623046875,-0.971649169921875
1726941005529732400,2.084732421875,-0.085693359375,-0.041534423828125,-0.975738525390625
1726941005539718100,2.09471826171875,-0.0728759765625,-0.0582122802734375,-0.991790771484375
1726941005549704200,2.1047041015625,-0.0394287109375,-0.0648956298828125,-0.99969482421875
1726941005559690000,2.11468994140625,-0.0240020751953125,-0.058868408203125,-1.0090179443359375
1726941005569676300,2.12467626953125,-0.0247650146484375,-0.0453643798828125,-1.0441131591796875
1726941005579662000,2.134662109375,-0.028594970703125,-0.0412750244140625,-1.0916900634765625
1726941005589648100,2.144648193359375,-0.038665771484375,-0.0493011474609375,-1.1317901611328125
1726941005599634200,2.15463427734375,-0.025238037109375,-0.0660552978515625,-1.111907958984375
1726941005609620000,2.164619873046875,-0.019683837890625,-0.0704803466796875,-1.071044921875
1726941005619605000,2.17460498046875,-0.0322265625,-0.079986572265625,-1.04901123046875
1726941005629591300,2.18459130859375,-0.0389404296875,-0.0817718505859375,-1.018524169921875
1726941005639577000,2.1945771484375,-0.068267822265625,-0.0603179931640625,-0.960174560546875
1726941005649563100,2.204563232421875,-0.108306884765625,-0.02001953125,-0.921905517578125
1726941005659549000,2.214548828125,-0.1368255615234375,0.0207061767578125,-0.9169921875
1726941005669535200,2.22453515625,-0.14947509765625,0.04449462890625,-0.93585205078125
1726941005679521000,2.23452099609375,-0.155059814453125,0.050079345703125,-0.96478271484375
1726941005689507000,2.244507080078125,-0.1546783447265625,0.054351806640625,-0.98736572265625
1726941005699493000,2.2544931640625,-0.1631622314453125,0.053985595703125,-1.0130767822265625
1726941005709479200,2.264479248046875,-0.1560516357421875,0.0577239990234375,-1.0169677734375
1726941005719465000,2.27446484375,-0.1678009033203125,0.0704498291015625,-1.0081939697265625
1726941005729451300,2.284451171875,-0.1784820556640625,0.0861968994140625,-0.998321533203125
1726941005739437000,2.29443701171875,-0.1699981689453125,0.09765625,-0.9781951904296875
1726941005749423000,2.304423095703125,-0.1420440673828125,0.099273681640625,-0.97900390625
1726941005759409200,2.3144091796875,-0.1210174560546875,0.0936431884765625,-1.00787353515625
1726941005769395200,2.324395263671875,-0.12542724609375,0.075927734375,-1.02642822265625
1726941005779381000,2.334381103515625,-0.142486572265625,0.0433349609375,-1.0914306640625
1726941005789367300,2.3443671875,-0.163238525390625,0.01708984375,-1.1268310546875
1726941005799353000,2.35435302734375,-0.1755218505859375,-0.0138702392578125,-1.12335205078125
1726941005809339100,2.364339111328125,-0.1692352294921875,-0.038909912109375,-1.1102142333984375
1726941005819325200,2.3743251953125,-0.1627044677734375,-0.0496063232421875,-1.08343505859375
1726941005829311200,2.384311279296875,-0.167755126953125,-0.060150146484375,-1.0684967041015625
1726941005839297000,2.394297119140625,-0.191864013671875,-0.0663909912109375,-1.06512451171875
1726941005849283300,2.404283447265625,-0.2173614501953125,-0.0802001953125,-1.0480499267578125
1726941005859269000,2.41426904296875,-0.2135009765625,-0.0971832275390625,-1.022216796875
1726941005869255200,2.424255126953125,-0.2217559814453125,-0.1047515869140625,-1.0082244873046875
1726941005879241200,2.4342412109375,-0.23333740234375,-0.1170501708984375,-1.01190185546875
1726941005889227300,2.444227294921875,-0.2549285888671875,-0.1134490966796875,-1.0183868408203125
1726941005899213000,2.454213134765625,-0.2742156982421875,-0.1083526611328125,-1.016571044921875
1726941005909199000,2.46419921875,-0.2719268798828125,-0.093658447265625,-1.0096893310546875
1726941005919185200,2.47418505859375,-0.26348876953125,-0.0834808349609375,-0.9944610595703125
1726941005929171200,2.484171142578125,-0.2260894775390625,-0.077392578125,-1.0030975341796875
1726941005939157000,2.494156982421875,-0.256683349609375,-0.06744384765625,-1.0146942138671875
1726941005949143300,2.504143310546875,-0.2935333251953125,-0.05157470703125,-1.007781982421875
1726941005959129000,2.514129150390625,-0.3039398193359375,-0.0518035888671875,-1.01776123046875
1726941005969115100,2.524115234375,-0.3123779296875,-0.05694580078125,-1.0235595703125
1726941005979101200,2.53410107421875,-0.310791015625,-0.069976806640625,-0.9921875
1726941005989087200,2.544087158203125,-0.3094940185546875,-0.089324951171875,-0.961273193359375
1726941005999073000,2.554072998046875,-0.3056793212890625,-0.101531982421875,-0.9413909912109375
1726941006009059000,2.56405908203125,-0.3202667236328125,-0.111480712890625,-0.9209442138671875
1726941006019045000,2.574045166015625,-0.344024658203125,-0.1157684326171875,-0.914154052734375
1726941006029031000,2.584031005859375,-0.346893310546875,-0.1215057373046875,-0.9087066650390625
1726941006039018000,2.59401806640625,-0.353759765625,-0.1187286376953125,-0.8913421630859375
1726941006049003800,2.604003662109375,-0.3684844970703125,-0.1136627197265625,-0.8635711669921875
1726941006058989800,2.61398974609375,-0.4044952392578125,-0.0981292724609375,-0.799041748046875
1726941006068975900,2.623975830078125,-0.4243316650390625,-0.0865325927734375,-0.692474365234375
1726941006078962000,2.6339619140625,-0.4145660400390625,-0.08172607421875,-0.614105224609375
1726941006088947700,2.64394775390625,-0.4243316650390625,-0.0694732666015625,-0.584320068359375
1726941006098934000,2.65393408203125,-0.4601287841796875,-0.05731201171875,-0.606903076171875
1726941006108919800,2.663919921875,-0.5169219970703125,-0.04241943359375,-0.6638946533203125
1726941006118905900,2.67390576171875,-0.5650634765625,-0.0253753662109375,-0.7278900146484375
1726941006128892000,2.683891845703125,-0.5963592529296875,-0.0076141357421875,-0.7984161376953125
1726941006138877000,2.693876953125,-0.6552581787109375,0.0050048828125,-0.8502960205078125
1726941006148862700,2.70386279296875,-0.6605377197265625,0.0333251953125,-0.831207275390625
1726941006158848800,2.713848876953125,-0.6555633544921875,0.048431396484375,-0.8145294189453125
1726941006168834800,2.723834716796875,-0.6760711669921875,0.0673065185546875,-0.82525634765625
1726941006178820900,2.73382080078125,-0.6892547607421875,0.0953826904296875,-0.8425140380859375
1726941006188806700,2.743806640625,-0.781341552734375,0.1016082763671875,-0.902740478515625
1726941006198793000,2.75379296875,-0.8885040283203125,0.0867462158203125,-0.954071044921875
1726941006208778800,2.76377880859375,-0.8821868896484375,0.0759735107421875,-0.895721435546875
1726941006218764800,2.773764892578125,-0.8106842041015625,0.0844879150390625,-0.7905731201171875
1726941006228750800,2.783750732421875,-0.7813720703125,0.1025848388671875,-0.7066497802734375
1726941006238737000,2.79373681640625,-0.7810821533203125,0.1165924072265625,-0.6838226318359375
1726941006248722700,2.80372265625,-0.7587127685546875,0.1302642822265625,-0.6632537841796875
1726941006258709000,2.813708984375,-0.713348388671875,0.13525390625,-0.6201171875
1726941006268694800,2.82369482421875,-0.6856842041015625,0.1512603759765625,-0.616180419921875
1726941006278680800,2.833680908203125,-0.7036895751953125,0.16583251953125,-0.643798828125
1726941006288667000,2.8436669921875,-0.735870361328125,0.16778564453125,-0.659088134765625
1726941006298653000,2.85365283203125,-0.737579345703125,0.1638336181640625,-0.644683837890625
1726941006308638700,2.863638671875,-0.707275390625,0.16448974609375,-0.65283203125
1726941006318625000,2.873625,-0.6863250732421875,0.1732177734375,-0.6593475341796875
1726941006328610800,2.88361083984375,-0.6946563720703125,0.152923583984375,-0.69158935546875
1726941006338596900,2.893596923828125,-0.7092132568359375,0.1231231689453125,-0.75347900390625
1726941006348583000,2.9035830078125,-0.782684326171875,0.0147247314453125,-0.856170654296875
1726941006358569000,2.91356884765625,-0.88818359375,-0.1790618896484375,-0.9596099853515625
1726941006368554800,2.9235546875,-0.91510009765625,-0.300994873046875,-0.9646453857421875
1726941006378540800,2.933540771484375,-0.912628173828125,-0.0630340576171875,-0.8464508056640625
1726941006388526800,2.94352685546875,-1.061187744140625,0.193145751953125,-0.7379150390625
1726941006398513000,2.953512939453125,-1.1319732666015625,0.3267974853515625,-0.5962371826171875
1726941006408498700,2.963498779296875,-1.0743255615234375,0.33343505859375,-0.4720306396484375
1726941006418485000,2.973485107421875,-0.9531707763671875,0.412750244140625,-0.3777618408203125
1726941006428470800,2.983470703125,-0.8595123291015625,0.46514892578125,-0.35186767578125
1726941006438456800,2.993456787109375,-0.7932586669921875,0.5147705078125,-0.3283233642578125
1726941006448443000,3.00344287109375,-0.8294677734375,0.5260772705078125,-0.3348236083984375
1726941006458429000,3.013428955078125,-0.9277496337890625,0.5366973876953125,-0.3184967041015625
1726941006468414700,3.023414794921875,-0.9824676513671875,0.5048370361328125,-0.2899932861328125
1726941006478401000,3.033401123046875,-1.0350189208984375,0.4702301025390625,-0.179534912109375
1726941006488386800,3.04338671875,-1.0260009765625,0.43841552734375,-0.12554931640625
1726941006498372900,3.053372802734375,-1.0073699951171875,0.3280029296875,-0.1955108642578125
1726941006508359000,3.06335888671875,-0.9853973388671875,0.241943359375,-0.265960693359375
1726941006518345000,3.073344970703125,-0.9283294677734375,0.1792449951171875,-0.3285064697265625
1726941006528330800,3.083330810546875,-0.8478240966796875,0.14215087890625,-0.4094085693359375
1726941006538317000,3.093317138671875,-0.6663818359375,0.14990234375,-0.46209716796875
1726941006548302800,3.103302734375,-0.460540771484375,0.2387237548828125,-0.4769134521484375
1726941006558289000,3.113288818359375,-0.311614990234375,0.3350372314453125,-0.466156005859375
1726941006568275000,3.12327490234375,-0.2244873046875,0.4017333984375,-0.44342041015625
1726941006578261000,3.133260986328125,-0.1164398193359375,0.467803955078125,-0.433197021484375
1726941006588246800,3.143246826171875,-0.06781005859375,0.5541839599609375,-0.4386444091796875
1726941006598233000,3.153233154296875,-0.1391143798828125,0.566741943359375,-0.4981536865234375
1726941006608219000,3.163218994140625,-0.1970672607421875,0.5424041748046875,-0.601226806640625
1726941006618205000,3.173204833984375,-0.32220458984375,0.4619903564453125,-0.726654052734375
1726941006628190700,3.183190673828125,-0.4552154541015625,0.3973541259765625,-0.7585601806640625
1726941006638176000,3.193176025390625,-0.55059814453125,0.3433990478515625,-0.7658843994140625
1726941006648161800,3.203161865234375,-0.624420166015625,0.3338775634765625,-0.6696014404296875
1726941006658147800,3.21314794921875,-0.760162353515625,0.34259033203125,-0.5528106689453125
1726941006668134000,3.2231337890625,-0.77764892578125,0.4126739501953125,-0.4658660888671875
1726941006678120000,3.233119873046875,-0.7597198486328125,0.4095611572265625,-0.4225921630859375
1726941006688105700,3.243105712890625,-0.880615234375,0.49298095703125,-0.3646240234375
1726941006698092000,3.253092041015625,-0.964385986328125,0.5359954833984375,-0.3786468505859375
1726941006708077800,3.263077880859375,-0.859954833984375,0.5679168701171875,-0.4085693359375
1726941006718063900,3.27306396484375,-0.861907958984375,0.619110107421875,-0.4149169921875
1726941006728049700,3.283049560546875,-1.0935821533203125,0.6316070556640625,-0.4001312255859375
1726941006738036000,3.293035888671875,-1.2353515625,0.622344970703125,-0.365234375
1726941006748021800,3.303021728515625,-1.2200927734375,0.5575103759765625,-0.3480072021484375
1726941006758007800,3.3130078125,-1.1044769287109375,0.394927978515625,-0.332122802734375
1726941006767993900,3.322993896484375,-0.978515625,0.3450164794921875,-0.2638702392578125
1726941006777980000,3.33297998046875,-0.8808441162109375,0.373382568359375,-0.2331085205078125
1726941006787965700,3.342965576171875,-0.7542724609375,0.3711090087890625,-0.29986572265625
1726941006797952000,3.352951904296875,-0.6982574462890625,0.336029052734375,-0.4140167236328125
1726941006807937800,3.362937744140625,-0.6682586669921875,0.3353729248046875,-0.4129180908203125
1726941006817923800,3.372923828125,-0.6865692138671875,0.3391571044921875,-0.3800048828125
1726941006827910000,3.382909912109375,-0.683197021484375,0.337158203125,-0.3707427978515625
1726941006837896000,3.39289599609375,-0.6646270751953125,0.32550048828125,-0.3954620361328125
1726941006847881700,3.4028818359375,-0.711181640625,0.3184661865234375,-0.408203125
1726941006857868000,3.412867919921875,-0.7318267822265625,0.3224334716796875,-0.4056854248046875
1726941006867853800,3.422853759765625,-0.762054443359375,0.3199005126953125,-0.4216156005859375
1726941006877840000,3.43283984375,-0.832489013671875,0.31494140625,-0.441741943359375
1726941006887826000,3.442825927734375,-0.833709716796875,0.315643310546875,-0.4745635986328125
1726941006897812000,3.45281201171875,-0.919769287109375,0.343170166015625,-0.51080322265625
1726941006907797800,3.4627978515625,-1.0874786376953125,0.37860107421875,-0.5268402099609375
1726941006917784000,3.4727841796875,-1.143524169921875,0.389129638671875,-0.493988037109375
1726941006927769900,3.482769775390625,-0.937469482421875,0.3799896240234375,-0.450653076171875
1726941006937756000,3.492755859375,-0.9164276123046875,0.405120849609375,-0.4326019287109375
1726941006947741700,3.50274169921875,-1.023406982421875,0.461883544921875,-0.396270751953125
1726941006957728000,3.51272802734375,-1.0317230224609375,0.45123291015625,-0.378173828125
1726941006967713800,3.5227138671875,-0.9466400146484375,0.3702392578125,-0.4272308349609375
1726941006977699800,3.532699951171875,-0.941253662109375,0.3428955078125,-0.42327880859375
1726941006987686000,3.542685791015625,-0.8838653564453125,0.3084869384765625,-0.4131011962890625
1726941006997672000,3.552671875,-0.801971435546875,0.2686004638671875,-0.38873291015625
1726941007007657700,3.56265771484375,-0.7516937255859375,0.254180908203125,-0.36102294921875
1726941007017644000,3.57264404296875,-0.762359619140625,0.247222900390625,-0.361480712890625
1726941007027629800,3.5826298828125,-0.756439208984375,0.2368927001953125,-0.3610076904296875
1726941007037614800,3.59261474609375,-0.7564697265625,0.228668212890625,-0.3548126220703125
1726941007047601000,3.602600830078125,-0.8066864013671875,0.245391845703125,-0.3663482666015625
1726941007057587000,3.6125869140625,-0.875823974609375,0.2686920166015625,-0.3701324462890625
1726941007067572700,3.62257275390625,-0.8813629150390625,0.26202392578125,-0.3907470703125
1726941007077559000,3.63255908203125,-0.8444976806640625,0.241241455078125,-0.4310760498046875
1726941007087544800,3.642544921875,-0.881256103515625,0.24078369140625,-0.44915771484375
1726941007097531000,3.65253076171875,-0.949066162109375,0.2564544677734375,-0.4522552490234375
1726941007107517000,3.662516845703125,-0.9176025390625,0.239044189453125,-0.4599609375
1726941007117502000,3.672501953125,-0.8910064697265625,0.236663818359375,-0.4273223876953125
1726941007127488000,3.682488037109375,-0.889404296875,0.2188568115234375,-0.40478515625
1726941007137473800,3.692473876953125,-0.8589324951171875,0.1729278564453125,-0.403167724609375
1726941007147460000,3.702460205078125,-0.8843231201171875,0.1533203125,-0.4201812744140625
1726941007157446000,3.71244580078125,-0.917205810546875,0.141754150390625,-0.4543609619140625
1726941007167432000,3.722431884765625,-0.912139892578125,0.138427734375,-0.4755401611328125
1726941007177418000,3.73241796875,-0.95257568359375,0.150909423828125,-0.4945068359375
1726941007187404000,3.742404052734375,-1.0312957763671875,0.1641387939453125,-0.514068603515625
1726941007197389800,3.752389892578125,-1.0599365234375,0.1850433349609375,-0.4995269775390625
1726941007207376100,3.762376220703125,-1.0286407470703125,0.1994781494140625,-0.472747802734375
1726941007217362000,3.77236181640625,-0.991668701171875,0.1859893798828125,-0.44171142578125
1726941007227348000,3.782347900390625,-0.9528350830078125,0.159820556640625,-0.4230804443359375
1726941007237334000,3.792333984375,-0.9200286865234375,0.13494873046875,-0.4207763671875
1726941007247320000,3.802320068359375,-0.87506103515625,0.110870361328125,-0.41571044921875
1726941007257305900,3.812305908203125,-0.87518310546875,0.1092681884765625,-0.4238739013671875
1726941007267292000,3.8222919921875,-0.8978424072265625,0.1102447509765625,-0.4424591064453125
1726941007277278000,3.83227783203125,-0.9144439697265625,0.119720458984375,-0.4622955322265625
1726941007287263700,3.842263671875,-0.9204254150390625,0.1399078369140625,-0.4609222412109375
1726941007297249800,3.852249755859375,-0.9269561767578125,0.16839599609375,-0.45245361328125
1726941007307235800,3.86223583984375,-0.92138671875,0.1763153076171875,-0.4529266357421875
1726941007317222000,3.872221923828125,-0.9055938720703125,0.1726531982421875,-0.4493560791015625
1726941007327207700,3.882207763671875,-0.8966217041015625,0.1655426025390625,-0.43389892578125
1726941007337194000,3.892194091796875,-0.8518524169921875,0.1685028076171875,-0.4319305419921875
1726941007347179800,3.9021796875,-0.7822723388671875,0.1864166259765625,-0.4167633056640625
1726941007357165800,3.912165771484375,-0.7443695068359375,0.2100982666015625,-0.3857421875
1726941007367151900,3.92215185546875,-0.7334442138671875,0.2274017333984375,-0.3666534423828125
1726941007377138000,3.932137939453125,-0.728179931640625,0.2518463134765625,-0.3677520751953125
1726941007387123700,3.942123779296875,-0.812225341796875,0.2862548828125,-0.3965606689453125
1726941007397110000,3.952110107421875,-0.881683349609375,0.3241424560546875,-0.4302215576171875
1726941007407095800,3.962095703125,-0.902862548828125,0.345062255859375,-0.479888916015625
1726941007417081900,3.972081787109375,-0.932281494140625,0.3439788818359375,-0.597991943359375
1726941007427068000,3.98206787109375,-1.020263671875,0.3431396484375,-0.71197509765625
1726941007437054000,3.992053955078125,-1.060394287109375,0.3587188720703125,-0.722503662109375
1726941007447039700,4.002039794921875,-1.0550537109375,0.36846923828125,-0.6006011962890625
1726941007457026000,4.012026123046875,-1.02911376953125,0.3566131591796875,-0.472564697265625
1726941007467011800,4.02201171875,-0.9716339111328125,0.3250732421875,-0.39031982421875
1726941007476998000,4.031997802734375,-0.91082763671875,0.2736663818359375,-0.362335205078125
1726941007486984000,4.04198388671875,-0.7977142333984375,0.203277587890625,-0.3397216796875
1726941007496970000,4.051969970703125,-0.7323455810546875,0.1448211669921875,-0.3394622802734375
1726941007506955800,4.061955810546875,-0.73455810546875,0.0974273681640625,-0.3522491455078125
1726941007516942000,4.071942138671875,-0.776580810546875,0.056304931640625,-0.340423583984375
1726941007526928000,4.081927978515625,-0.82904052734375,0.0318145751953125,-0.3136138916015625
1726941007536914000,4.091913818359375,-0.8992156982421875,0.0083770751953125,-0.3096466064453125
1726941007546899700,4.101899658203125,-0.9918060302734375,-0.0210113525390625,-0.2867279052734375
1726941007556886000,4.111885986328125,-1.038818359375,-0.040802001953125,-0.262054443359375
1726941007566871800,4.121871826171875,-1.05938720703125,-0.0765533447265625,-0.2590484619140625
1726941007576857900,4.13185791015625,-1.0020294189453125,-0.0987548828125,-0.258056640625
1726941007586844000,4.141843994140625,-0.9276275634765625,-0.1171875,-0.2760162353515625
1726941007596830000,4.151829833984375,-0.842376708984375,-0.13458251953125,-0.3103179931640625
1726941007606815700,4.161815673828125,-0.77734375,-0.145477294921875,-0.35125732421875
1726941007616802000,4.171802001953125,-0.7971038818359375,-0.15240478515625,-0.4131011962890625
1726941007626787800,4.181787841796875,-0.8625335693359375,-0.15911865234375,-0.4703216552734375
1726941007636774000,4.19177392578125,-0.8938446044921875,-0.1573486328125,-0.48651123046875
1726941007646760000,4.201760009765625,-0.9645843505859375,-0.1101531982421875,-0.4732513427734375
1726941007656746000,4.21174609375,-0.977142333984375,-0.0306243896484375,-0.4445037841796875
1726941007666731800,4.221731689453125,-0.9596710205078125,0.0441741943359375,-0.4312744140625
1726941007676718000,4.231718017578125,-0.8679046630859375,0.0937347412109375,-0.4301605224609375
1726941007686703900,4.241703857421875,-0.7995758056640625,0.113067626953125,-0.4658966064453125
1726941007696690000,4.25168994140625,-0.8060150146484375,0.1030731201171875,-0.5345916748046875
1726941007706676000,4.261676025390625,-0.803253173828125,0.071624755859375,-0.5774383544921875
1726941007716662000,4.271662109375,-0.846282958984375,0.0539703369140625,-0.600494384765625
1726941007726647800,4.281647705078125,-0.8786468505859375,0.0395965576171875,-0.611328125
1726941007736634000,4.291634033203125,-0.904296875,0.0305328369140625,-0.5890350341796875
1726941007746620000,4.301619873046875,-0.9427032470703125,0.036407470703125,-0.5373382568359375
1726941007756606000,4.31160595703125,-0.964630126953125,0.049560546875,-0.475341796875
1726941007766592000,4.321592041015625,-0.9623260498046875,0.0602264404296875,-0.433380126953125
1726941007776578000,4.331578125,-0.9189605712890625,0.0553741455078125,-0.4034271240234375
1726941007786563800,4.341563720703125,-0.872161865234375,0.0362548828125,-0.4059600830078125
1726941007796548900,4.351548828125,-0.835693359375,0.0139007568359375,-0.4315185546875
1726941007806535000,4.361534912109375,-0.845977783203125,0.0007476806640625,-0.4664154052734375
1726941007816521000,4.37152099609375,-0.8987884521484375,-0.00634765625,-0.5023651123046875
1726941007826506800,4.3815068359375,-0.920440673828125,0.0065765380859375,-0.5248565673828125
1726941007836493000,4.3914931640625,-0.9598388671875,0.0471649169921875,-0.5437164306640625
1726941007846478800,4.401478759765625,-1.012481689453125,0.0967559814453125,-0.55914306640625
1726941007856465000,4.41146484375,-1.0007476806640625,0.1199188232421875,-0.56439208984375
1726941007866451000,4.421450927734375,-0.942962646484375,0.1181488037109375,-0.550689697265625
1726941007876437000,4.43143701171875,-0.9093170166015625,0.1052703857421875,-0.5186920166015625
1726941007886422800,4.4414228515625,-0.8637542724609375,0.093719482421875,-0.4860076904296875
1726941007896408800,4.451408935546875,-0.8170013427734375,0.1119842529296875,-0.5052947998046875
1726941007906395000,4.461394775390625,-0.811614990234375,0.1219329833984375,-0.546600341796875
1726941007916381000,4.471380859375,-0.876922607421875,0.110626220703125,-0.5507659912109375
1726941007926366700,4.48136669921875,-0.8735198974609375,0.098114013671875,-0.5362091064453125
1726941007936353000,4.49135302734375,-0.8039093017578125,0.1028289794921875,-0.546142578125
1726941007946338800,4.5013388671875,-0.771942138671875,0.113555908203125,-0.552947998046875
1726941007956324900,4.511324951171875,-0.7864227294921875,0.11712646484375,-0.5454559326171875
1726941007966311000,4.521310791015625,-0.7930908203125,0.1209259033203125,-0.5401458740234375
1726941007976297000,4.531296875,-0.810028076171875,0.1197967529296875,-0.5431365966796875
1726941007986282800,4.54128271484375,-0.8436431884765625,0.11444091796875,-0.54425048828125
1726941007996269000,4.55126904296875,-0.8891448974609375,0.094757080078125,-0.5298614501953125
1726941008006254800,4.5612548828125,-0.879364013671875,0.0866241455078125,-0.5054168701171875
1726941008016241000,4.571240966796875,-0.876556396484375,0.0903778076171875,-0.4797821044921875
1726941008026227000,4.58122705078125,-0.8747406005859375,0.08935546875,-0.4683380126953125
1726941008036213000,4.591212890625,-0.937591552734375,0.1207275390625,-0.459808349609375
1726941008046200000,4.601199951171875,-1.0467529296875,0.12725830078125,-0.49798583984375
1726941008056185900,4.611185791015625,-1.132965087890625,0.1307830810546875,-0.48583984375
1726941008066172000,4.621171875,-1.1696014404296875,0.145904541015625,-0.4258575439453125
1726941008076158000,4.631157958984375,-1.130645751953125,0.1733551025390625,-0.34307861328125
1726941008086144000,4.64114404296875,-1.0510101318359375,0.1847381591796875,-0.2892303466796875
1726941008096129800,4.6511298828125,-0.95758056640625,0.1878509521484375,-0.2623443603515625
1726941008106116000,4.6611162109375,-0.886322021484375,0.200439453125,-0.2542266845703125
1726941008116102000,4.671101806640625,-0.85540771484375,0.2122955322265625,-0.285980224609375
1726941008126088000,4.681087890625,-0.8814697265625,0.197509765625,-0.3282470703125
1726941008136074000,4.691073974609375,-0.898468017578125,0.1661529541015625,-0.3436431884765625
1726941008146060000,4.70106005859375,-0.8840789794921875,0.1326751708984375,-0.3096771240234375
1726941008156045800,4.7110458984375,-0.82958984375,0.1253509521484375,-0.270477294921875
1726941008166032100,4.7210322265625,-0.80657958984375,0.1545562744140625,-0.2389068603515625
1726941008176018000,4.731017822265625,-0.8311920166015625,0.1945037841796875,-0.2246246337890625
1726941008186004000,4.74100390625,-0.890960693359375,0.22564697265625,-0.26055908203125
1726941008195990000,4.750989990234375,-0.953033447265625,0.237396240234375,-0.3368377685546875
1726941008205976000,4.76097607421875,-0.9854888916015625,0.236419677734375,-0.372222900390625
1726941008215961900,4.7709619140625,-0.97833251953125,0.2216033935546875,-0.3733673095703125
1726941008225948200,4.7809482421875,-0.9144134521484375,0.218414306640625,-0.3672027587890625
1726941008235934000,4.790933837890625,-0.887115478515625,0.2262420654296875,-0.34564208984375
1726941008245920000,4.800919921875,-0.898193359375,0.262298583984375,-0.2955322265625
1726941008255906000,4.810906005859375,-0.8915557861328125,0.297698974609375,-0.293975830078125
1726941008265892000,4.82089208984375,-0.908782958984375,0.314971923828125,-0.289093017578125
1726941008275878000,4.8308779296875,-0.9617767333984375,0.3245849609375,-0.2760772705078125
1726941008285864000,4.840864013671875,-1.0020904541015625,0.3300933837890625,-0.266754150390625
1726941008295850000,4.85085009765625,-0.9911651611328125,0.3270721435546875,-0.2562255859375
1726941008305836000,4.8608359375,-0.9306793212890625,0.3206634521484375,-0.2479248046875
1726941008315821800,4.87082177734375,-0.8699188232421875,0.2974090576171875,-0.2215576171875
1726941008325808000,4.88080810546875,-0.7886962890625,0.2879791259765625,-0.1672515869140625
1726941008335794000,4.8907939453125,-0.674407958984375,0.287994384765625,-0.157257080078125
1726941008345780000,4.900780029296875,-0.6208038330078125,0.3213043212890625,-0.2232513427734375
1726941008355766000,4.91076611328125,-0.613433837890625,0.37908935546875,-0.3343353271484375
1726941008365752000,4.920751953125,-0.6811981201171875,0.420166015625,-0.4212646484375
1726941008375737900,4.93073779296875,-0.806488037109375,0.419921875,-0.476806640625
1726941008385724200,4.94072412109375,-0.8944854736328125,0.39599609375,-0.4834136962890625
1726941008395710000,4.9507099609375,-0.921112060546875,0.34326171875,-0.4214935302734375
1726941008405696000,4.960696044921875,-0.8636016845703125,0.25848388671875,-0.3264617919921875
1726941008415682000,4.97068212890625,-0.758575439453125,0.2131195068359375,-0.274017333984375
1726941008425668000,4.980668212890625,-0.695587158203125,0.22186279296875,-0.2938690185546875
1726941008435654000,4.99065380859375,-0.6723785400390625,0.212249755859375,-0.3352813720703125
1726941008445640200,5.00064013671875,-0.73419189453125,0.2295684814453125,-0.377349853515625
1726941008455626000,5.0106259765625,-0.8220977783203125,0.241912841796875,-0.3951568603515625
1726941008465612000,5.020612060546875,-0.8669586181640625,0.2478179931640625,-0.3751220703125
1726941008475598000,5.03059814453125,-0.88037109375,0.2244415283203125,-0.364227294921875
1726941008485584100,5.040584228515625,-0.8546905517578125,0.20477294921875,-0.3582305908203125
1726941008495570000,5.05056982421875,-0.816436767578125,0.215576171875,-0.3502197265625
1726941008505556200,5.06055615234375,-0.8178253173828125,0.2241973876953125,-0.3697357177734375
1726941008515542000,5.0705419921875,-0.8538665771484375,0.2382965087890625,-0.4105682373046875
1726941008525528000,5.080528076171875,-0.917755126953125,0.258544921875,-0.4414825439453125
1726941008535513900,5.090513916015625,-0.97772216796875,0.27685546875,-0.4499359130859375
1726941008545500200,5.100500244140625,-1.0379791259765625,0.2774505615234375,-0.4525909423828125
1726941008555486000,5.11048583984375,-1.1478729248046875,0.2755889892578125,-0.4408416748046875
1726941008565472000,5.120471923828125,-1.261962890625,0.3027801513671875,-0.4279937744140625
1726941008575458000,5.1304580078125,-1.2884674072265625,0.3013458251953125,-0.4133758544921875
1726941008585444000,5.140444091796875,-1.23822021484375,0.28057861328125,-0.4032440185546875
1726941008595430000,5.150429931640625,-1.1526336669921875,0.2592315673828125,-0.3619384765625
1726941008605416000,5.160416015625,-1.095428466796875,0.2500152587890625,-0.30120849609375
1726941008615402000,5.170402099609375,-1.048095703125,0.2448883056640625,-0.2611083984375
1726941008625388000,5.180387939453125,-1.0175933837890625,0.23828125,-0.2371978759765625
1726941008635374000,5.1903740234375,-1.002349853515625,0.232666015625,-0.229583740234375
1726941008645359900,5.20035986328125,-0.9563446044921875,0.20263671875,-0.232391357421875
1726941008655346000,5.210345947265625,-0.8789215087890625,0.17633056640625,-0.2345428466796875
1726941008665332000,5.22033203125,-0.7995452880859375,0.149810791015625,-0.23980712890625
1726941008675318000,5.230318115234375,-0.7265472412109375,0.1263885498046875,-0.25714111328125
1726941008685303000,5.240302978515625,-0.657470703125,0.1296234130859375,-0.27239990234375
1726941008695290000,5.2502900390625,-0.6236419677734375,0.1378936767578125,-0.2980499267578125
1726941008705275100,5.260275146484375,-0.6206817626953125,0.1460418701171875,-0.3183135986328125
1726941008715261000,5.270260986328125,-0.658782958984375,0.1463470458984375,-0.325714111328125
1726941008725247000,5.2802470703125,-0.73651123046875,0.1475982666015625,-0.321502685546875
1726941008735233000,5.29023291015625,-0.779052734375,0.14520263671875,-0.3341522216796875
1726941008745219000,5.300218994140625,-0.7611236572265625,0.1426239013671875,-0.3577423095703125
1726941008755204900,5.310204833984375,-0.70965576171875,0.1426544189453125,-0.39044189453125
1726941008765191200,5.320191162109375,-0.7239837646484375,0.1417999267578125,-0.456634521484375
1726941008775177000,5.330177001953125,-0.86700439453125,0.151275634765625,-0.5432586669921875
1726941008785163000,5.3401630859375,-1.076629638671875,0.1616058349609375,-0.5912628173828125
1726941008795149000,5.350149169921875,-1.29241943359375,0.1743927001953125,-0.6184234619140625
1726941008805135000,5.360135009765625,-1.3594818115234375,0.193450927734375,-0.617095947265625
1726941008815121000,5.370120849609375,-1.3354034423828125,0.2195587158203125,-0.53289794921875
1726941008825107200,5.380107177734375,-1.2991485595703125,0.258636474609375,-0.3798828125
1726941008835093000,5.390093017578125,-1.1875152587890625,0.2666015625,-0.26617431640625
1726941008845079000,5.4000791015625,-1.1286163330078125,0.2450408935546875,-0.2739410400390625
1726941008855065000,5.410065185546875,-1.111358642578125,0.216796875,-0.3359832763671875
1726941008865051100,5.420051025390625,-1.0556640625,0.2200775146484375,-0.37982177734375
1726941008875037000,5.430036865234375,-0.9685516357421875,0.2196502685546875,-0.364471435546875
1726941008885023000,5.44002294921875,-0.8690032958984375,0.2139892578125,-0.3022308349609375
1726941008895009000,5.450009033203125,-0.8099517822265625,0.19219970703125,-0.2522125244140625
1726941008904995000,5.4599951171875,-0.7936859130859375,0.1501312255859375,-0.2628173828125
1726941008914980900,5.46998095703125,-0.777862548828125,0.082427978515625,-0.3304901123046875
1726941008924967200,5.47996728515625,-0.7502288818359375,0.0400848388671875,-0.37225341796875
1726941008934953000,5.489952880859375,-0.6980133056640625,0.047607421875,-0.3677978515625
1726941008944939000,5.49993896484375,-0.6826171875,0.059478759765625,-0.356109619140625
1726941008954925000,5.509925048828125,-0.6954193115234375,0.061859130859375,-0.32745361328125
1726941008964911000,5.5199111328125,-0.7580718994140625,0.082763671875,-0.2855377197265625
1726941008974897000,5.52989697265625,-0.8782196044921875,0.1087188720703125,-0.2911376953125
1726941008984883000,5.539883056640625,-0.928070068359375,0.1053009033203125,-0.342926025390625
1726941008994869000,5.549868896484375,-0.960205078125,0.12115478515625,-0.3800201416015625
1726941009004855000,5.55985498046875,-1.00372314453125,0.1421966552734375,-0.399993896484375
1726941009014841000,5.569841064453125,-1.0477447509765625,0.14154052734375,-0.3904571533203125
1726941009024827000,5.579826904296875,-1.0599517822265625,0.1254119873046875,-0.345123291015625
1726941009034813000,5.58981298828125,-1.0457916259765625,0.100494384765625,-0.3002777099609375
1726941009044799000,5.599799072265625,-0.931640625,0.0764312744140625,-0.306396484375
1726941009054785000,5.609784912109375,-0.85943603515625,0.021820068359375,-0.384185791015625
1726941009064770800,5.619770751953125,-0.88092041015625,-0.0234375,-0.4462127685546875
1726941009074756900,5.6297568359375,-0.9236297607421875,-0.0176849365234375,-0.441009521484375
1726941009084743000,5.639742919921875,-0.9527130126953125,0.026214599609375,-0.4024810791015625
1726941009094729000,5.64972900390625,-0.978485107421875,0.091278076171875,-0.3722381591796875
1726941009104714800,5.65971484375,-0.968841552734375,0.147491455078125,-0.370635986328125
1726941009114700800,5.66970068359375,-0.942352294921875,0.1928253173828125,-0.3895111083984375
1726941009124686800,5.679686767578125,-0.9512786865234375,0.2279205322265625,-0.428436279296875
1726941009134673000,5.6896728515625,-1.0059661865234375,0.2379150390625,-0.4718017578125
1726941009144658700,5.69965869140625,-1.0623321533203125,0.21612548828125,-0.4737091064453125
1726941009154645000,5.70964501953125,-1.0710296630859375,0.1824188232421875,-0.4317779541015625
1726941009164630800,5.719630859375,-0.9941864013671875,0.153289794921875,-0.36016845703125
1726941009174616800,5.729616943359375,-0.8256378173828125,0.1368865966796875,-0.3131561279296875
1726941009184603000,5.739602783203125,-0.6946258544921875,0.1420745849609375,-0.3130950927734375
1726941009194589000,5.7495888671875,-0.6337432861328125,0.144012451171875,-0.3945159912109375
1726941009204574700,5.75957470703125,-0.68048095703125,0.1229705810546875,-0.5200042724609375
1726941009214561000,5.76956103515625,-0.8070068359375,0.0731201171875,-0.6243133544921875
1726941009224546800,5.779546875,-0.9140777587890625,0.0423431396484375,-0.6487884521484375
1726941009234532900,5.789532958984375,-0.967559814453125,0.0579833984375,-0.580963134765625
1726941009244519000,5.799518798828125,-1.02337646484375,0.0954742431640625,-0.5037689208984375
1726941009254505000,5.8095048828125,-1.0824737548828125,0.1196746826171875,-0.4777374267578125
1726941009264490800,5.81949072265625,-1.077239990234375,0.139129638671875,-0.500213623046875
1726941009274477000,5.82947705078125,-1.0590362548828125,0.136962890625,-0.493377685546875
1726941009284462800,5.839462890625,-1.0157470703125,0.1085662841796875,-0.3994598388671875
1726941009294449000,5.849448974609375,-0.9308624267578125,0.094451904296875,-0.2711029052734375
1726941009304435000,5.85943505859375,-0.847015380859375,0.106658935546875,-0.202117919921875
1726941009314421000,5.8694208984375,-0.8492279052734375,0.1091156005859375,-0.2332611083984375
1726941009324406800,5.87940673828125,-0.938140869140625,0.0824127197265625,-0.331207275390625
1726941009334393000,5.88939306640625,-1.112945556640625,0.049835205078125,-0.410919189453125
1726941009344379000,5.89937890625,-1.281341552734375,0.03271484375,-0.3701324462890625
1726941009354365000,5.909364990234375,-1.31256103515625,0.0132904052734375,-0.30126953125
1726941009364350700,5.919350830078125,-1.222259521484375,0.0731658935546875,-0.1932373046875
1726941009374337000,5.9293369140625,-1.103179931640625,0.1725616455078125,-0.08953857421875
1726941009384322800,5.93932275390625,-1.04718017578125,0.22381591796875,-0.066802978515625
1726941009394308900,5.949308837890625,-0.97784423828125,0.264129638671875,-0.019683837890625
1726941009404295000,5.959294921875,-0.8753662109375,0.2942047119140625,0.0211639404296875
1726941009414280000,5.969280029296875,-0.8433074951171875,0.315338134765625,0.020355224609375
1726941009424266800,5.979266845703125,-0.8574981689453125,0.3292694091796875,-0.0450592041015625
1726941009434252000,5.989251953125,-0.8645782470703125,0.33111572265625,-0.155181884765625
1726941009444238800,5.99923876953125,-0.9106597900390625,0.2928314208984375,-0.2833404541015625
1726941009454225000,6.009224853515625,-0.93536376953125,0.2377471923828125,-0.3536224365234375
1726941009464210000,6.0192099609375,-0.95501708984375,0.18377685546875,-0.317626953125
1726941009474196000,6.029196044921875,-0.9481353759765625,0.16705322265625,-0.1865997314453125
1726941009484181800,6.039181640625,-0.937042236328125,0.2003936767578125,-0.1251220703125
1726941009494167800,6.049167724609375,-0.9322662353515625,0.248443603515625,-0.23602294921875
1726941009504153900,6.05915380859375,-0.985504150390625,0.253631591796875,-0.3569793701171875
1726941009514140000,6.069139892578125,-0.9954986572265625,0.21881103515625,-0.3468475341796875
1726941009524125700,6.079125732421875,-0.881317138671875,0.21661376953125,-0.243927001953125
1726941009534112000,6.089112060546875,-0.76849365234375,0.2611083984375,-0.14483642578125
1726941009544097800,6.099097900390625,-0.7082366943359375,0.306121826171875,-0.1169891357421875
1726941009554083800,6.109083740234375,-0.647979736328125,0.3721771240234375,-0.1452484130859375
1726941009564070000,6.11906982421875,-0.6674346923828125,0.3912200927734375,-0.20367431640625
1726941009574056000,6.129055908203125,-0.6799774169921875,0.361083984375,-0.2382354736328125
1726941009584041700,6.139041748046875,-0.6964263916015625,0.3482513427734375,-0.24658203125
1726941009594028000,6.149028076171875,-0.725341796875,0.364593505859375,-0.2723846435546875
1726941009604013800,6.159013916015625,-0.7183685302734375,0.3907928466796875,-0.3580322265625
1726941009613999900,6.168999755859375,-0.6726837158203125,0.380615234375,-0.44805908203125
1726941009623986000,6.17898583984375,-0.6455535888671875,0.359893798828125,-0.512451171875
1726941009633972000,6.188971923828125,-0.6807708740234375,0.3629150390625,-0.5413970947265625
1726941009643957800,6.198957763671875,-0.74835205078125,0.350982666015625,-0.5418243408203125
1726941009653944000,6.208944091796875,-0.80560302734375,0.3445281982421875,-0.5165557861328125
1726941009663929900,6.218929931640625,-0.865142822265625,0.3421630859375,-0.4681549072265625
1726941009673916000,6.228916015625,-0.9008941650390625,0.326690673828125,-0.411468505859375
1726941009683902000,6.23890185546875,-0.9140625,0.2936553955078125,-0.3211822509765625
1726941009693888000,6.248887939453125,-0.8660430908203125,0.2623291015625,-0.2349700927734375
1726941009703873800,6.258873779296875,-0.834136962890625,0.251007080078125,-0.1887054443359375
1726941009713859800,6.26885986328125,-0.8271331787109375,0.2604827880859375,-0.1718902587890625
1726941009723846000,6.278845947265625,-0.8213958740234375,0.24371337890625,-0.199371337890625
1726941009733832000,6.28883203125,-0.863677978515625,0.2372894287109375,-0.21484375
1726941009743817700,6.298817626953125,-0.9353179931640625,0.234527587890625,-0.2232818603515625
1726941009753804000,6.308803955078125,-0.9806976318359375,0.195953369140625,-0.255340576171875
1726941009763789800,6.318789794921875,-1.058746337890625,0.1455535888671875,-0.3636322021484375
1726941009773776000,6.32877587890625,-1.26751708984375,0.1413726806640625,-0.4670867919921875
1726941009783762000,6.338761962890625,-1.4573516845703125,0.06915283203125,-0.4998321533203125
1726941009793748000,6.348748046875,-1.4354400634765625,0.0241546630859375,-0.442108154296875
1726941009803733800,6.358733642578125,-1.335906982421875,0.03021240234375,-0.334869384765625
1726941009813720000,6.368719970703125,-1.2623138427734375,0.0953826904296875,-0.248565673828125
1726941009823705900,6.378705810546875,-1.1602020263671875,0.171600341796875,-0.1616363525390625
1726941009833692000,6.38869189453125,-0.9918365478515625,0.21405029296875,-0.1200103759765625
1726941009843678000,6.398677978515625,-0.836639404296875,0.220123291015625,-0.09124755859375
1726941009853664000,6.4086640625,-0.72607421875,0.201416015625,-0.065765380859375
1726941009863649800,6.41864990234375,-0.6634521484375,0.17498779296875,-0.067352294921875
1726941009873636000,6.428635986328125,-0.66748046875,0.1531219482421875,-0.1119232177734375
1726941009883622000,6.438621826171875,-0.6984405517578125,0.1273040771484375,-0.25225830078125
1726941009893608000,6.44860791015625,-0.736846923828125,0.0941009521484375,-0.423492431640625
1726941009903594000,6.458593994140625,-0.8172760009765625,0.074005126953125,-0.5345001220703125
1726941009913580000,6.468580078125,-0.9309844970703125,0.100006103515625,-0.5852508544921875
1726941009923565800,6.47856591796875,-1.0390777587890625,0.12066650390625,-0.6011505126953125
1726941009933551900,6.4885517578125,-1.2313385009765625,0.12518310546875,-0.5815582275390625
1726941009943538000,6.498537841796875,-1.3353729248046875,0.1366729736328125,-0.539947509765625
1726941009953524000,6.50852392578125,-1.2962646484375,0.1566619873046875,-0.4554595947265625
1726941009963509800,6.518509765625,-1.2130889892578125,0.194244384765625,-0.3563232421875
1726941009973496000,6.52849609375,-1.1735687255859375,0.2379302978515625,-0.2901611328125
1726941009983481900,6.53848193359375,-1.1272735595703125,0.2523956298828125,-0.271575927734375
1726941009993468000,6.548468017578125,-1.12945556640625,0.23590087890625,-0.30267333984375
1726941010003454000,6.558453857421875,-1.138580322265625,0.21685791015625,-0.3155364990234375
1726941010013440000,6.56843994140625,-1.1011810302734375,0.1909332275390625,-0.30218505859375
1726941010023425800,6.57842578125,-1.002899169921875,0.184906005859375,-0.266326904296875
1726941010033412000,6.588412109375,-0.878631591796875,0.14056396484375,-0.2710723876953125
1726941010043397000,6.598397216796875,-0.8004913330078125,0.080352783203125,-0.2985076904296875
1726941010053383200,6.608383056640625,-0.743011474609375,0.039398193359375,-0.318389892578125
1726941010063369000,6.618368896484375,-0.75091552734375,0.0157623291015625,-0.3118896484375
1726941010073355300,6.628355224609375,-0.7993621826171875,0.019012451171875,-0.251739501953125
1726941010083341000,6.638341064453125,-0.8339385986328125,0.029144287109375,-0.19354248046875
1726941010093327000,6.6483271484375,-0.829010009765625,0.044219970703125,-0.1661834716796875
1726941010103313200,6.658313232421875,-0.79168701171875,0.050445556640625,-0.160797119140625
1726941010113299200,6.66829931640625,-0.7587127685546875,0.0562896728515625,-0.1873626708984375
1726941010123285000,6.678284912109375,-0.7831268310546875,0.0764617919921875,-0.2184906005859375
1726941010133271300,6.688271240234375,-0.8585052490234375,0.0935516357421875,-0.2389068603515625
1726941010143257000,6.698257080078125,-0.9441375732421875,0.1262359619140625,-0.2667694091796875
1726941010153243100,6.7082431640625,-0.968109130859375,0.1503753662109375,-0.308624267578125
1726941010163229200,6.718229248046875,-0.9704132080078125,0.1624603271484375,-0.375244140625
1726941010173215200,6.72821533203125,-0.9892425537109375,0.168243408203125,-0.4346923828125
1726941010183201000,6.738200927734375,-1.023468017578125,0.157623291015625,-0.4523468017578125
1726941010193187000,6.74818701171875,-1.0479888916015625,0.1490020751953125,-0.409088134765625
1726941010203173000,6.758173095703125,-1.0699615478515625,0.151947021484375,-0.3775177001953125
1726941010213159200,6.7681591796875,-1.0606231689453125,0.1506500244140625,-0.3645477294921875
1726941010223145000,6.77814501953125,-1.0139312744140625,0.1503753662109375,-0.366119384765625
1726941010233131300,6.78813134765625,-0.9879913330078125,0.136138916015625,-0.3738555908203125
1726941010243117000,6.798116943359375,-0.978118896484375,0.1108245849609375,-0.3601531982421875
1726941010253103000,6.80810302734375,-0.95562744140625,0.0877838134765625,-0.3354034423828125
1726941010263089200,6.818089111328125,-0.90191650390625,0.0882110595703125,-0.3289642333984375
1726941010273075200,6.8280751953125,-0.8696441650390625,0.1092529296875,-0.3451690673828125
1726941010283061000,6.83806103515625,-0.8147430419921875,0.125,-0.397735595703125
1726941010293047300,6.84804736328125,-0.7982940673828125,0.118499755859375,-0.443572998046875
1726941010303033000,6.858033203125,-0.808746337890625,0.1071929931640625,-0.457977294921875
1726941010313019100,6.86801904296875,-0.8758544921875,0.0851898193359375,-0.4776611328125
1726941010323005200,6.878005126953125,-0.901214599609375,0.0882568359375,-0.444732666015625
1726941010332991200,6.8879912109375,-0.98724365234375,0.1147613525390625,-0.42950439453125
1726941010342977000,6.89797705078125,-1.1140594482421875,0.119964599609375,-0.399261474609375
1726941010352963300,6.90796337890625,-1.14959716796875,0.12896728515625,-0.3491973876953125
1726941010362949000,6.91794921875,-1.0849151611328125,0.1376953125,-0.2755584716796875
1726941010372935200,6.92793505859375,-0.9656982421875,0.1602020263671875,-0.2090911865234375
1726941010382921200,6.937921142578125,-0.93560791015625,0.1855621337890625,-0.1841583251953125
1726941010392907300,6.9479072265625,-1.00604248046875,0.1956329345703125,-0.22021484375
1726941010402893000,6.95789306640625,-1.141632080078125,0.1855926513671875,-0.259002685546875
1726941010412879000,6.967879150390625,-1.21343994140625,0.1426849365234375,-0.265472412109375
1726941010422865200,6.977865234375,-1.165191650390625,0.115692138671875,-0.235107421875
1726941010432851200,6.987851318359375,-1.0556488037109375,0.159454345703125,-0.1580657958984375
1726941010442837000,6.9978369140625,-0.99871826171875,0.200836181640625,-0.1163482666015625
1726941010452823000,7.007822998046875,-1.021240234375,0.231048583984375,-0.1307220458984375
1726941010462809000,7.01780908203125,-1.0314788818359375,0.2907257080078125,-0.2037506103515625
1726941010472795100,7.027795166015625,-1.0695648193359375,0.33319091796875,-0.253875732421875
1726941010482781200,7.03778125,-1.0608978271484375,0.30987548828125,-0.2415618896484375
1726941010492767000,7.04776708984375,-1.040435791015625,0.29522705078125,-0.22503662109375
1726941010502753000,7.0577529296875,-1.0960693359375,0.334686279296875,-0.230133056640625
1726941010512739000,7.067739013671875,-1.1411285400390625,0.346221923828125,-0.226898193359375
1726941010522725000,7.07772509765625,-1.1137847900390625,0.340576171875,-0.18695068359375
1726941010532711000,7.0877109375,-1.0187835693359375,0.3389892578125,-0.1443939208984375
1726941010542697200,7.097697265625,-0.9145355224609375,0.2989959716796875,-0.0884552001953125
1726941010552683000,7.10768310546875,-0.8061065673828125,0.2465057373046875,-0.0777130126953125
1726941010562669000,7.1176689453125,-0.7039031982421875,0.223052978515625,-0.0941925048828125
1726941010572655000,7.127655029296875,-0.6241302490234375,0.1979217529296875,-0.1412811279296875
1726941010582641200,7.13764111328125,-0.5675811767578125,0.190093994140625,-0.1905059814453125
1726941010592627000,7.147626953125,-0.520477294921875,0.1861572265625,-0.2364349365234375
1726941010602613200,7.15761328125,-0.4915008544921875,0.1926422119140625,-0.2911834716796875
1726941010612599000,7.16759912109375,-0.475555419921875,0.2362213134765625,-0.3472442626953125
1726941010622585000,7.177585205078125,-0.521026611328125,0.3035888671875,-0.4134674072265625
1726941010632571100,7.187571044921875,-0.6336212158203125,0.3575897216796875,-0.50341796875
1726941010642557200,7.19755712890625,-0.7564849853515625,0.4003753662109375,-0.574462890625
1726941010652543000,7.20754296875,-0.905181884765625,0.4171905517578125,-0.5499114990234375
1726941010662529300,7.217529296875,-0.9036865234375,0.365936279296875,-0.341644287109375
1726941010672515000,7.22751513671875,-0.7087554931640625,0.29827880859375,-0.1489105224609375
1726941010682501000,7.237501220703125,-0.5933380126953125,0.3026580810546875,-0.132080078125
1726941010692487000,7.24748681640625,-0.587310791015625,0.3218231201171875,-0.21221923828125
1726941010702473200,7.25747314453125,-0.61480712890625,0.3282928466796875,-0.3341827392578125
1726941010712459000,7.267458984375,-0.6852874755859375,0.3428497314453125,-0.44354248046875
1726941010722445000,7.277445068359375,-0.7879180908203125,0.33624267578125,-0.4899444580078125
1726941010732431000,7.28743115234375,-0.86468505859375,0.2877197265625,-0.4802703857421875
1726941010742417200,7.297417236328125,-0.9066925048828125,0.1904296875,-0.4642181396484375
1726941010752403000,7.30740283203125,-0.9888153076171875,0.1684112548828125,-0.453399658203125
1726941010762389200,7.31738916015625,-1.0763092041015625,0.201812744140625,-0.4072418212890625
1726941010772375000,7.327375,-1.1196441650390625,0.2202301025390625,-0.3645172119140625
1726941010782361000,7.337361083984375,-1.11968994140625,0.2223663330078125,-0.3308258056640625
1726941010792347100,7.34734716796875,-1.04034423828125,0.221923828125,-0.2330169677734375
1726941010802333200,7.357333251953125,-1.0160980224609375,0.21185302734375,-0.2094268798828125
1726941010812319000,7.367319091796875,-1.0977935791015625,0.21484375,-0.1920318603515625
1726941010822305300,7.37730517578125,-1.19610595703125,0.238525390625,-0.1811065673828125
1726941010832291000,7.387291015625,-1.19830322265625,0.2493438720703125,-0.2075958251953125
1726941010842277000,7.397277099609375,-1.155303955078125,0.242706298828125,-0.23712158203125
1726941010852263200,7.40726318359375,-1.084014892578125,0.2326507568359375,-0.2381134033203125
1726941010862249200,7.417249267578125,-1.0947265625,0.218414306640625,-0.2276153564453125
1726941010872235000,7.427235107421875,-1.1184844970703125,0.20526123046875,-0.2578277587890625
1726941010882221300,7.43722119140625,-1.04351806640625,0.2038421630859375,-0.303375244140625
1726941010892207000,7.44720703125,-0.989715576171875,0.2069244384765625,-0.3053436279296875
1726941010902193200,7.457193115234375,-0.9730682373046875,0.208221435546875,-0.254669189453125
1726941010912179200,7.46717919921875,-0.9682464599609375,0.20025634765625,-0.21234130859375
1726941010922165200,7.477165283203125,-0.9810943603515625,0.1765899658203125,-0.201416015625
1726941010932151000,7.487151123046875,-0.9561614990234375,0.1503753662109375,-0.2364044189453125
1726941010942137000,7.49713720703125,-0.86444091796875,0.123260498046875,-0.274932861328125
1726941010952123100,7.507123046875,-0.8077392578125,0.1114654541015625,-0.291778564453125
1726941010962109200,7.517109130859375,-0.8117828369140625,0.102081298828125,-0.3035888671875
1726941010972095000,7.527094970703125,-0.910430908203125,0.10137939453125,-0.3360748291015625
1726941010982081300,7.537081298828125,-0.995452880859375,0.08837890625,-0.4099578857421875
1726941010992067000,7.547067138671875,-1.0146636962890625,0.0821380615234375,-0.46466064453125
1726941011002053000,7.55705322265625,-1.0373077392578125,0.113616943359375,-0.46453857421875
1726941011012039200,7.5670390625,-1.0557708740234375,0.1432952880859375,-0.4276123046875
1726941011022025200,7.577025146484375,-1.039886474609375,0.1545562744140625,-0.387725830078125
1726941011032011000,7.587010986328125,-1.004241943359375,0.16455078125,-0.373016357421875
1726941011041997600,7.59699755859375,-0.9598541259765625,0.172515869140625,-0.3632354736328125
1726941011051984000,7.60698388671875,-0.9081878662109375,0.165863037109375,-0.335205078125
1726941011061969700,7.6169697265625,-0.8625640869140625,0.1554412841796875,-0.2852935791015625
1726941011071955700,7.626955810546875,-0.888580322265625,0.1256561279296875,-0.2510528564453125
1726941011081941800,7.636941650390625,-0.9232177734375,0.1002960205078125,-0.262054443359375
1726941011091927800,7.646927734375,-1.004180908203125,0.0865478515625,-0.29449462890625
1726941011101913600,7.65691357421875,-1.0118408203125,0.0932464599609375,-0.2625579833984375
1726941011111900000,7.66689990234375,-0.9604949951171875,0.0995635986328125,-0.2051239013671875
1726941011121885700,7.6768857421875,-0.944915771484375,0.1208648681640625,-0.15155029296875
1726941011131871700,7.686871826171875,-0.9551544189453125,0.112823486328125,-0.174957275390625
1726941011141857800,7.69685791015625,-0.9514923095703125,0.0857696533203125,-0.253875732421875
1726941011151843800,7.70684375,-0.9074554443359375,0.1128692626953125,-0.2734375
1726941011161829600,7.71682958984375,-0.8558197021484375,0.149688720703125,-0.2709197998046875
1726941011171816000,7.72681591796875,-0.812469482421875,0.15374755859375,-0.276153564453125
1726941011181801700,7.7368017578125,-0.849151611328125,0.1151885986328125,-0.27740478515625
1726941011191787800,7.746787841796875,-0.898162841796875,0.0808563232421875,-0.3189544677734375
1726941011201773800,7.75677392578125,-0.9047088623046875,0.0688629150390625,-0.372894287109375
1726941011211759900,7.766759765625,-0.905303955078125,0.0762176513671875,-0.380126953125
1726941011221745700,7.77674560546875,-0.88818359375,0.1105499267578125,-0.351806640625
1726941011231732000,7.78673193359375,-0.868804931640625,0.12701416015625,-0.3655853271484375
1726941011241717800,7.7967177734375,-0.8763885498046875,0.110076904296875,-0.4044036865234375
1726941011251703800,7.806703857421875,-0.9420166015625,0.0879669189453125,-0.4234161376953125
1726941011261689900,7.81668994140625,-0.9907684326171875,0.088897705078125,-0.4009552001953125
1726941011271675000,7.8266748046875,-0.9812469482421875,0.1220855712890625,-0.3438873291015625
1726941011281660700,7.83666064453125,-0.9409637451171875,0.1427154541015625,-0.3029937744140625
1726941011291646700,7.846646728515625,-0.8824920654296875,0.13641357421875,-0.28887939453125
1726941011301632800,7.8566328125,-0.8464508056640625,0.116302490234375,-0.3100433349609375
1726941011311618800,7.866618896484375,-0.8609161376953125,0.0933380126953125,-0.3567962646484375
1726941011321604600,7.8766044921875,-0.911895751953125,0.0692901611328125,-0.400848388671875
1726941011331591000,7.8865908203125,-0.9957427978515625,0.05865478515625,-0.4384765625
1726941011341576700,7.89657666015625,-1.0660247802734375,0.06719970703125,-0.4713897705078125
1726941011351562800,7.906562744140625,-1.0886077880859375,0.0801849365234375,-0.501556396484375
1726941011361548800,7.916548828125,-1.099578857421875,0.1103515625,-0.50714111328125
1726941011371534800,7.926534912109375,-1.1396026611328125,0.14581298828125,-0.4642181396484375
1726941011381520600,7.936520751953125,-1.163177490234375,0.187744140625,-0.3823089599609375
1726941011391506700,7.946506591796875,-1.1509552001953125,0.20416259765625,-0.31317138671875
1726941011401492700,7.95649267578125,-1.1047515869140625,0.203338623046875,-0.2528228759765625
1726941011411478800,7.966478759765625,-1.0495758056640625,0.20611572265625,-0.1968994140625
1726941011421464600,7.976464599609375,-0.9926910400390625,0.1954193115234375,-0.150238037109375
1726941011431451000,7.986450927734375,-1.0010833740234375,0.1943206787109375,-0.1428985595703125
1726941011441436700,7.996436767578125,-1.021240234375,0.1855010986328125,-0.1722259521484375
1726941011451422700,8.006422607421875,-1.0210113525390625,0.1678619384765625,-0.220306396484375
1726941011461408800,8.01640869140625,-0.9767303466796875,0.1653594970703125,-0.2912445068359375
1726941011471394800,8.026394775390624,-0.94488525390625,0.1553192138671875,-0.329925537109375
1726941011481380600,8.036380615234375,-0.9173583984375,0.148773193359375,-0.315185546875
1726941011491367000,8.046366943359375,-0.9509735107421875,0.14044189453125,-0.28106689453125
1726941011501352700,8.056352783203126,-1.06072998046875,0.168060302734375,-0.2895050048828125
1726941011511338800,8.0663388671875,-1.1737518310546875,0.2113037109375,-0.3065032958984375
1726941011521324800,8.07632470703125,-1.1661834716796875,0.2308502197265625,-0.2625885009765625
1726941011531310800,8.086310791015626,-1.041259765625,0.2095947265625,-0.13470458984375
1726941011541296600,8.096296630859374,-0.8948211669921875,0.21527099609375,0.014678955078125
1726941011551283000,8.106282958984375,-0.844390869140625,0.2791595458984375,0.077789306640625
1726941011561268700,8.116268798828125,-0.86529541015625,0.343780517578125,0.0411529541015625
1726941011571254800,8.1262548828125,-0.9434356689453125,0.4113311767578125,-0.084442138671875
1726941011581240800,8.13624072265625,-0.9886322021484375,0.4037933349609375,-0.158538818359375
1726941011591227000,8.146226806640625,-0.8812713623046875,0.295318603515625,-0.1255645751953125
1726941011601212700,8.156212646484375,-0.7256317138671875,0.247161865234375,-0.1106414794921875
1726941011611198700,8.16619873046875,-0.631072998046875,0.3057708740234375,-0.1811065673828125
1726941011621184800,8.176184814453125,-0.5937347412109375,0.4115447998046875,-0.3620758056640625
1726941011631170800,8.1861708984375,-0.6883544921875,0.4406890869140625,-0.532012939453125
1726941011641156600,8.196156494140626,-0.7631683349609375,0.369049072265625,-0.5338287353515625
1726941011651143000,8.206142822265624,-0.68853759765625,0.2926483154296875,-0.354217529296875
1726941011661128700,8.216128662109375,-0.6414031982421875,0.305877685546875,-0.18414306640625
1726941011671114800,8.22611474609375,-0.6214752197265625,0.3914031982421875,-0.214324951171875
1726941011681100800,8.236100830078126,-0.6510772705078125,0.457244873046875,-0.376068115234375
1726941011691086800,8.2460869140625,-0.7167510986328125,0.3810577392578125,-0.4825592041015625
1726941011701072600,8.25607275390625,-0.698272705078125,0.273956298828125,-0.44915771484375
1726941011711059000,8.266058837890625,-0.6728363037109375,0.2019195556640625,-0.33441162109375
1726941011721044700,8.276044677734374,-0.654754638671875,0.18896484375,-0.286865234375
1726941011731030800,8.28603076171875,-0.6324920654296875,0.21478271484375,-0.297210693359375
1726941011741016800,8.296016845703125,-0.67230224609375,0.2257537841796875,-0.315765380859375
1726941011751003000,8.3060029296875,-0.7860107421875,0.242401123046875,-0.3184661865234375
1726941011760988700,8.31598876953125,-0.85748291015625,0.23779296875,-0.2930450439453125
1726941011770975000,8.32597509765625,-0.856109619140625,0.21734619140625,-0.2593841552734375
1726941011780960800,8.335960693359375,-0.8140869140625,0.207550048828125,-0.2588043212890625
1726941011790946800,8.34594677734375,-0.829559326171875,0.2264251708984375,-0.286712646484375
1726941011800932900,8.355932861328125,-0.9100341796875,0.2628936767578125,-0.2891845703125
1726941011810919000,8.3659189453125,-0.999267578125,0.2995452880859375,-0.2780303955078125
1726941011820904700,8.37590478515625,-1.0662841796875,0.32470703125,-0.2815399169921875
1726941011830891000,8.38589111328125,-1.1082000732421875,0.317962646484375,-0.269012451171875
1726941011840876800,8.395876708984375,-1.1154022216796875,0.2901763916015625,-0.253265380859375
1726941011850862800,8.40586279296875,-1.1230010986328125,0.2570037841796875,-0.241455078125
1726941011860848600,8.4158486328125,-1.115966796875,0.2280426025390625,-0.2372589111328125
1726941011870835000,8.4258349609375,-1.208587646484375,0.272003173828125,-0.2336883544921875
1726941011880820700,8.43582080078125,-1.20263671875,0.311614990234375,-0.207733154296875
1726941011890806800,8.445806884765625,-1.0664215087890625,0.2967681884765625,-0.1845855712890625
1726941011900792800,8.455792724609376,-0.992645263671875,0.2618560791015625,-0.15667724609375
1726941011910779000,8.46577880859375,-1.0075531005859375,0.2230682373046875,-0.157867431640625
1726941011920764700,8.4757646484375,-1.0459136962890625,0.1911468505859375,-0.1929473876953125
1726941011930750700,8.485750732421875,-1.0535736083984375,0.152618408203125,-0.2440338134765625
1726941011940736800,8.49573681640625,-1.0555419921875,0.1143951416015625,-0.2801361083984375
1726941011950722800,8.505722900390625,-1.017822265625,0.0935211181640625,-0.297607421875
1726941011960708900,8.515708984375,-1.034210205078125,0.06707763671875,-0.2854766845703125
1726941011970694700,8.525694580078126,-1.0835418701171875,0.0460205078125,-0.3020782470703125
1726941011980680700,8.5356806640625,-1.098388671875,0.03167724609375,-0.346923828125
1726941011990666800,8.545666748046875,-1.0952606201171875,0.0458526611328125,-0.374908447265625
1726941012000652800,8.55565283203125,-1.030670166015625,0.0929718017578125,-0.33868408203125
1726941012010638600,8.565638671875,-0.9862060546875,0.1289825439453125,-0.2981414794921875
1726941012020625000,8.575625,-0.920379638671875,0.1311492919921875,-0.3195343017578125
1726941012030610700,8.585610595703125,-0.8907470703125,0.1099700927734375,-0.371429443359375
1726941012040596700,8.5955966796875,-0.8407745361328125,0.1007537841796875,-0.4085693359375
1726941012050582500,8.60558251953125,-0.8376312255859375,0.08831787109375,-0.40277099609375
1726941012060568600,8.615568603515625,-0.8538665771484375,0.09222412109375,-0.3350372314453125
1726941012070554400,8.625554443359375,-0.8959197998046875,0.098236083984375,-0.2622528076171875
1726941012080540400,8.63554052734375,-0.979095458984375,0.093963623046875,-0.2647247314453125
1726941012090526500,8.6455263671875,-1.0648193359375,0.088897705078125,-0.2541351318359375
1726941012100512500,8.655512451171875,-1.0705108642578125,0.0899658203125,-0.2296295166015625
1726941012110498300,8.665498291015625,-0.996490478515625,0.0935516357421875,-0.1680145263671875
1726941012120484600,8.675484619140626,-0.9591217041015625,0.1016693115234375,-0.106689453125
1726941012130470400,8.685470458984375,-0.9694976806640625,0.0927886962890625,-0.0969085693359375
1726941012140456400,8.69545654296875,-0.9964141845703125,0.0541534423828125,-0.1551971435546875
1726941012150442500,8.7054423828125,-0.9636688232421875,0.025909423828125,-0.208709716796875
1726941012160428500,8.715428466796874,-0.9042205810546875,0.0378875732421875,-0.2074737548828125
1726941012170414300,8.725414306640625,-0.90460205078125,0.0727691650390625,-0.1794891357421875
1726941012180400600,8.735400634765625,-0.9636383056640625,0.1005096435546875,-0.17742919921875
1726941012190386400,8.745386474609376,-1.016357421875,0.0991363525390625,-0.2560882568359375
1726941012200372500,8.75537255859375,-1.0457611083984375,0.1183624267578125,-0.3229522705078125
1726941012210358300,8.765358154296875,-1.0305328369140625,0.1594696044921875,-0.3306121826171875
1726941012220344600,8.775344482421875,-1.0308380126953125,0.1725311279296875,-0.3207550048828125
1726941012230330400,8.785330322265626,-1.0136566162109375,0.1480712890625,-0.3737945556640625
1726941012240316400,8.79531640625,-0.948394775390625,0.149078369140625,-0.4315948486328125
1726941012250302500,8.805302490234375,-0.9511260986328125,0.157623291015625,-0.44390869140625
1726941012260288500,8.81528857421875,-0.927215576171875,0.140777587890625,-0.439239501953125
1726941012270274300,8.8252744140625,-0.919952392578125,0.1031036376953125,-0.3928680419921875
1726941012280260600,8.835260498046875,-0.9172210693359375,0.08477783203125,-0.3304290771484375
1726941012290246400,8.845246337890625,-0.9087371826171875,0.0667572021484375,-0.3175506591796875
1726941012300232400,8.855232421875,-0.9030609130859375,0.05645751953125,-0.330047607421875
1726941012310218500,8.865218505859374,-0.9005279541015625,0.0545196533203125,-0.3365020751953125
1726941012320204500,8.87520458984375,-0.907806396484375,0.071624755859375,-0.310302734375
1726941012330190300,8.8851904296875,-0.9530181884765625,0.0921783447265625,-0.2877960205078125
1726941012340176600,8.8951767578125,-1.0448150634765625,0.0915679931640625,-0.305877685546875
1726941012350162400,8.905162353515625,-1.0842132568359375,0.0897674560546875,-0.374725341796875
1726941012360148500,8.9151484375,-1.1186370849609375,0.1111907958984375,-0.4230194091796875
1726941012370134500,8.925134521484376,-1.1324920654296875,0.127716064453125,-0.420654296875
1726941012380120600,8.93512060546875,-1.0961151123046875,0.1597442626953125,-0.35943603515625
1726941012390106400,8.9451064453125,-1.0479736328125,0.1508331298828125,-0.260833740234375
1726941012400092700,8.9550927734375,-0.998046875,0.1440887451171875,-0.194580078125
1726941012410078500,8.965078369140626,-1.005584716796875,0.141387939453125,-0.1677093505859375
1726941012420064500,8.975064453125,-1.017913818359375,0.147613525390625,-0.1837615966796875
1726941012430050300,8.98505029296875,-1.0350494384765625,0.1488800048828125,-0.2096099853515625
1726941012440036600,8.99503662109375,-1.0277252197265625,0.1285247802734375,-0.221832275390625
1726941012450022400,9.0050224609375,-0.98443603515625,0.099090576171875,-0.2432403564453125
1726941012460007400,9.01500732421875,-0.937591552734375,0.085968017578125,-0.2353668212890625
1726941012469993500,9.024993408203125,-0.949432373046875,0.1221923828125,-0.185760498046875
1726941012479979500,9.0349794921875,-0.976287841796875,0.1663665771484375,-0.1399078369140625
1726941012489965300,9.04496533203125,-0.98712158203125,0.2084808349609375,-0.1073455810546875
1726941012499951600,9.05495166015625,-0.9479827880859375,0.2212982177734375,-0.0921630859375
1726941012509937400,9.0649375,-0.904571533203125,0.236297607421875,-0.0829620361328125
1726941012519923500,9.07492333984375,-0.917266845703125,0.2649383544921875,-0.0610809326171875
1726941012529909200,9.0849091796875,-0.966033935546875,0.326141357421875,-0.1029205322265625
1726941012539895600,9.0948955078125,-1.088714599609375,0.3662109375,-0.1925506591796875
1726941012549881300,9.10488134765625,-1.197723388671875,0.3796844482421875,-0.3036041259765625
1726941012559867400,9.114867431640626,-1.207916259765625,0.37225341796875,-0.3436126708984375
1726941012569853400,9.124853515625,-1.1233673095703125,0.316375732421875,-0.23193359375
1726941012579839500,9.134839599609375,-1.003570556640625,0.2811737060546875,-0.1309051513671875
1726941012589825300,9.1448251953125,-0.8383026123046875,0.263519287109375,-0.07379150390625
1726941012599811600,9.1548115234375,-0.6702117919921875,0.2335205078125,-0.0760345458984375
1726941012609797400,9.16479736328125,-0.5479278564453125,0.234832763671875,-0.1021728515625
1726941012619783400,9.174783447265625,-0.50921630859375,0.2661590576171875,-0.139373779296875
1726941012629769500,9.18476953125,-0.5142364501953125,0.2983551025390625,-0.213348388671875
1726941012639755500,9.194755615234374,-0.5341949462890625,0.3502960205078125,-0.315673828125
1726941012649741300,9.2047412109375,-0.5922698974609375,0.4002838134765625,-0.420806884765625
1726941012659727600,9.2147275390625,-0.64593505859375,0.440948486328125,-0.5058441162109375
1726941012669713400,9.22471337890625,-0.6890716552734375,0.481536865234375,-0.5061492919921875
1726941012679699500,9.234699462890624,-0.7080230712890625,0.48565673828125,-0.4499969482421875
1726941012689685500,9.244685546875,-0.6122283935546875,0.43743896484375,-0.3739013671875
1726941012699671600,9.254671630859375,-0.552978515625,0.4258880615234375,-0.3463287353515625
1726941012709657300,9.2646572265625,-0.5952301025390625,0.39642333984375,-0.349578857421875
1726941012719643600,9.2746435546875,-0.645965576171875,0.3701171875,-0.347930908203125
1726941012729629400,9.28462939453125,-0.7599639892578125,0.3533782958984375,-0.3216400146484375
1726941012739615500,9.294615478515626,-0.8646240234375,0.28814697265625,-0.3025360107421875
1726941012749601500,9.3046015625,-0.9189300537109375,0.245086669921875,-0.29095458984375
1726941012759587600,9.314587646484375,-0.9355926513671875,0.2398223876953125,-0.2744598388671875
1726941012769573400,9.324573486328125,-0.9711456298828125,0.2721405029296875,-0.24951171875
1726941012779559400,9.334559326171876,-1.0395050048828125,0.289520263671875,-0.22967529296875
1726941012789545500,9.34454541015625,-1.0775299072265625,0.2737884521484375,-0.216400146484375
1726941012799531500,9.354531494140625,-1.0835113525390625,0.2478485107421875,-0.2064208984375
1726941012809517300,9.364517333984375,-1.06060791015625,0.205078125,-0.198272705078125
1726941012819503600,9.374503662109374,-1.0542449951171875,0.1788177490234375,-0.1848907470703125
1726941012829489400,9.384489501953125,-1.089691162109375,0.2163848876953125,-0.179962158203125
1726941012839475500,9.394475341796875,-1.15289306640625,0.2489776611328125,-0.175933837890625
1726941012849461500,9.40446142578125,-1.079742431640625,0.2306365966796875,-0.184722900390625
1726941012859447600,9.414447509765624,-0.99249267578125,0.2060089111328125,-0.1933135986328125
1726941012869433300,9.424433349609375,-0.994384765625,0.1865234375,-0.2223663330078125
1726941012879419600,9.434419677734375,-1.002471923828125,0.1887969970703125,-0.2589263916015625
1726941012889405400,9.444405517578126,-0.99163818359375,0.1752471923828125,-0.28228759765625
1726941012899391500,9.4543916015625,-1.01531982421875,0.1540374755859375,-0.2793121337890625
1726941012909377500,9.46437744140625,-1.048187255859375,0.1509857177734375,-0.2562713623046875
1726941012919363600,9.474363525390626,-1.055938720703125,0.1430511474609375,-0.2637786865234375
1726941012929349400,9.484349365234374,-1.0200347900390625,0.13385009765625,-0.2722930908203125
1726941012939335700,9.494335693359375,-0.9732818603515625,0.13482666015625,-0.282806396484375
1726941012949321500,9.504321533203125,-0.9318389892578125,0.1314544677734375,-0.296783447265625
1726941012959307500,9.5143076171875,-0.9280853271484375,0.1229095458984375,-0.342132568359375
1726941012969293600,9.52429345703125,-0.9381561279296875,0.116607666015625,-0.403411865234375
1726941012979279600,9.534279541015625,-0.9531097412109375,0.126953125,-0.4511260986328125
1726941012989265400,9.544265380859375,-0.9803619384765625,0.153411865234375,-0.4861602783203125
1726941012999251700,9.554251708984374,-1.0560760498046875,0.150360107421875,-0.5121307373046875
1726941013009237500,9.564237548828125,-1.1263885498046875,0.157012939453125,-0.51214599609375
1726941013019223600,9.5742236328125,-1.0985107421875,0.15997314453125,-0.4774627685546875
1726941013029209300,9.584209228515626,-1.0143585205078125,0.1561431884765625,-0.4335784912109375
1726941013039195600,9.594195556640624,-0.90484619140625,0.169219970703125,-0.384246826171875
1726941013049181400,9.604181396484375,-0.890167236328125,0.126007080078125,-0.36859130859375
1726941013059167500,9.61416748046875,-0.9047698974609375,0.0857391357421875,-0.34466552734375
1726941013069153500,9.624153564453126,-0.9496917724609375,0.072845458984375,-0.3111572265625
1726941013079139600,9.6341396484375,-0.936859130859375,0.0534820556640625,-0.283203125
1726941013089125400,9.64412548828125,-0.9170379638671875,0.0637054443359375,-0.2555084228515625
1726941013099111700,9.654111572265625,-0.9520111083984375,0.097259521484375,-0.22039794921875
1726941013109097500,9.664097412109374,-1.001678466796875,0.123504638671875,-0.1874542236328125
1726941013119083500,9.67408349609375,-1.001983642578125,0.135498046875,-0.1475372314453125
1726941013129069600,9.684069580078125,-0.956268310546875,0.1587677001953125,-0.089813232421875
1726941013139055600,9.6940556640625,-0.8374481201171875,0.188079833984375,-0.060333251953125
1726941013149041400,9.70404150390625,-0.7839508056640625,0.162750244140625,-0.1100921630859375
1726941013159027500,9.71402734375,-0.862091064453125,0.1435394287109375,-0.1690673828125
1726941013169013500,9.724013427734375,-0.9393463134765625,0.1699981689453125,-0.2078094482421875
1726941013178999300,9.733999267578126,-0.9498138427734375,0.2338714599609375,-0.23773193359375
1726941013188985600,9.743985595703125,-0.9106597900390625,0.2779998779296875,-0.246612548828125
1726941013198971400,9.753971435546875,-0.88775634765625,0.26727294921875,-0.2658538818359375
1726941013208957400,9.76395751953125,-0.9287109375,0.2283935546875,-0.316741943359375
1726941013218943500,9.773943603515624,-0.9687347412109375,0.201171875,-0.364410400390625
1726941013228929500,9.783929443359375,-0.942138671875,0.1753082275390625,-0.391448974609375
1726941013238915300,9.793915283203125,-0.8526763916015625,0.160400390625,-0.39544677734375
1726941013248901600,9.803901611328126,-0.8571014404296875,0.1626739501953125,-0.413360595703125
1726941013258887400,9.813887451171874,-0.9371795654296875,0.163848876953125,-0.47125244140625
1726941013268873500,9.82387353515625,-1.033111572265625,0.159576416015625,-0.544921875
1726941013278859300,9.833859375,-1.0942535400390625,0.12841796875,-0.579071044921875
1726941013288845600,9.843845458984376,-1.050506591796875,0.1084136962890625,-0.535308837890625
1726941013298831400,9.853831298828124,-0.9789886474609375,0.123687744140625,-0.420623779296875
1726941013308817400,9.8638173828125,-0.925567626953125,0.1226959228515625,-0.3365325927734375
1726941013318803500,9.873803466796875,-0.912994384765625,0.0915985107421875,-0.3402557373046875
1726941013328789500,9.88378955078125,-0.9100341796875,0.0631561279296875,-0.362945556640625
1726941013338775300,9.893775390625,-0.974761962890625,0.05206298828125,-0.3563232421875
1726941013348761600,9.90376171875,-1.0176239013671875,0.0532989501953125,-0.343658447265625
1726941013358747400,9.913747314453126,-1.0641021728515625,0.0723419189453125,-0.311981201171875
1726941013368733400,9.9237333984375,-1.1399993896484375,0.090179443359375,-0.2911529541015625
1726941013378719500,9.933719482421875,-1.149810791015625,0.1031036376953125,-0.2661895751953125
1726941013388705500,9.94370556640625,-1.0866851806640625,0.1187286376953125,-0.2310943603515625
1726941013398691300,9.95369140625,-1.0308990478515625,0.1426544189453125,-0.20306396484375
1726941013408677600,9.963677734375,-1.0234527587890625,0.1492462158203125,-0.1872100830078125
1726941013418663400,9.973663330078125,-1.054351806640625,0.1409759521484375,-0.213165283203125
1726941013428649500,9.9836494140625,-1.1527099609375,0.1199951171875,-0.2484588623046875
1726941013438635500,9.993635498046874,-1.1829986572265625,0.11962890625,-0.2203521728515625
1726941013448621600,10.00362158203125,-1.15521240234375,0.13519287109375,-0.1399688720703125
1726941013458607400,10.013607421875,-1.184478759765625,0.199676513671875,-0.0312652587890625
1726941013468593700,10.02359375,-1.2039031982421875,0.267669677734375,0.0281524658203125
1726941013478578700,10.03357861328125,-1.1849517822265625,0.2924957275390625,0.031982421875
1726941013488565500,10.0435654296875,-1.173736572265625,0.3309478759765625,0.0527801513671875
1726941013498550500,10.053550537109375,-1.1782379150390625,0.3619842529296875,0.06121826171875
1726941013508536600,10.06353662109375,-1.12713623046875,0.372711181640625,0.0501861572265625
1726941013518522600,10.073522705078124,-1.047027587890625,0.3818359375,-0.027862548828125
1726941013528508400,10.08350830078125,-0.9210052490234375,0.3427886962890625,-0.137969970703125
1726941013538494500,10.093494384765625,-0.8111114501953125,0.267913818359375,-0.1758270263671875
1726941013548480500,10.10348046875,-0.684417724609375,0.2075042724609375,-0.1470794677734375
1726941013558466600,10.113466552734375,-0.616363525390625,0.20648193359375,-0.1285400390625
1726941013568452600,10.12345263671875,-0.5275421142578125,0.258514404296875,-0.124114990234375
1726941013578438400,10.1334384765625,-0.400970458984375,0.305938720703125,-0.1786346435546875
1726941013588424400,10.143424560546874,-0.3897705078125,0.3428955078125,-0.305633544921875
1726941013598410500,10.153410400390625,-0.4182586669921875,0.3927154541015625,-0.4332122802734375
1726941013608396500,10.163396484375,-0.399627685546875,0.43157958984375,-0.5320587158203125
1726941013618382300,10.17338232421875,-0.3892059326171875,0.4779510498046875,-0.5694580078125
1726941013628368400,10.183368408203124,-0.5179290771484375,0.527130126953125,-0.6206512451171875
1726941013638354400,10.1933544921875,-0.6125335693359375,0.522003173828125,-0.5842132568359375
1726941013648340500,10.203340576171875,-0.65545654296875,0.4441680908203125,-0.40185546875
1726941013658326300,10.213326171875,-0.6423492431640625,0.3609161376953125,-0.2567596435546875
1726941013668312600,10.2233125,-0.6007537841796875,0.278411865234375,-0.14971923828125
1726941013678298400,10.23329833984375,-0.570892333984375,0.23443603515625,-0.1120452880859375
1726941013688284400,10.243284423828126,-0.5702362060546875,0.2366790771484375,-0.16204833984375
1726941013698270500,10.2532705078125,-0.5712890625,0.2327880859375,-0.2336883544921875
1726941013708256500,10.263256591796875,-0.6406402587890625,0.23797607421875,-0.284820556640625
1726941013718242300,10.2732421875,-0.7381134033203125,0.2524261474609375,-0.354278564453125
1726941013728228600,10.283228515625,-0.8609466552734375,0.2669830322265625,-0.399139404296875
1726941013738214400,10.29321435546875,-0.98651123046875,0.2667236328125,-0.4134979248046875
1726941013748200400,10.303200439453125,-1.1094970703125,0.257568359375,-0.369293212890625
1726941013758186500,10.3131865234375,-1.208526611328125,0.253997802734375,-0.2889404296875
1726941013768172500,10.323172607421874,-1.2964019775390625,0.253204345703125,-0.2212066650390625
1726941013778158300,10.333158447265625,-1.3128204345703125,0.24365234375,-0.187255859375
1726941013788144600,10.34314453125,-1.2900390625,0.214324951171875,-0.182037353515625
1726941013798130400,10.35313037109375,-1.3712921142578125,0.2612762451171875,-0.1801605224609375
1726941013808116500,10.363116455078124,-1.3516845703125,0.3437347412109375,-0.157318115234375
1726941013818102500,10.3731025390625,-1.1707763671875,0.354888916015625,-0.1190185546875
1726941013828088600,10.383088623046875,-1.0154876708984375,0.3132476806640625,-0.120391845703125
1726941013838074400,10.393074462890626,-0.9832916259765625,0.2763671875,-0.136810302734375
1726941013848060700,10.403060791015625,-0.9563751220703125,0.2119140625,-0.17205810546875
1726941013858046500,10.41304638671875,-0.9579925537109375,0.14801025390625,-0.2098388671875
1726941013868032500,10.423032470703125,-0.9544830322265625,0.11053466796875,-0.2265472412109375
1726941013878018300,10.433018310546874,-0.9399261474609375,0.100494384765625,-0.2351531982421875
1726941013888004600,10.443004638671875,-0.9768218994140625,0.1098480224609375,-0.25689697265625
1726941013897990400,10.452990478515625,-1.05120849609375,0.1254730224609375,-0.2735443115234375
1726941013907976400,10.4629765625,-1.1038055419921875,0.122467041015625,-0.30352783203125
1726941013917962500,10.47296240234375,-1.0962982177734375,0.1187896728515625,-0.33612060546875
1726941013927948500,10.482948486328125,-1.0714111328125,0.1336212158203125,-0.36627197265625
1726941013937934300,10.492934326171875,-1.0834503173828125,0.17218017578125,-0.383209228515625
1726941013947920600,10.502920654296876,-1.134368896484375,0.180206298828125,-0.3807830810546875
1726941013957906400,10.512906494140625,-1.1600799560546875,0.174713134765625,-0.3388214111328125
1726941013967892500,10.522892578125,-1.089874267578125,0.17559814453125,-0.283233642578125
1726941013977878500,10.53287841796875,-0.9960784912109375,0.1842498779296875,-0.2498016357421875
1726941013987864600,10.542864501953124,-0.946075439453125,0.1961669921875,-0.2395782470703125
1726941013997850400,10.552850341796875,-0.9369659423828125,0.182403564453125,-0.2453155517578125
1726941014007836700,10.562836669921875,-0.926177978515625,0.1722869873046875,-0.2429656982421875
1726941014017822500,10.572822509765626,-0.8486328125,0.156890869140625,-0.2333984375
1726941014027808500,10.58280859375,-0.74749755859375,0.1401824951171875,-0.22894287109375
1726941014037794600,10.592794677734375,-0.6882476806640625,0.12841796875,-0.2251739501953125
1726941014047780600,10.602780517578125,-0.68353271484375,0.108245849609375,-0.2228851318359375
1726941014057766400,10.612766357421876,-0.734527587890625,0.08660888671875,-0.2157135009765625
1726941014067752400,10.62275244140625,-0.7957000732421875,0.078582763671875,-0.193603515625
1726941014077738500,10.632738525390625,-0.8033905029296875,0.0816192626953125,-0.168304443359375
1726941014087724500,10.642724609375,-0.7594451904296875,0.1026763916015625,-0.1472320556640625
1726941014097710300,10.65271044921875,-0.7264862060546875,0.118133544921875,-0.1508636474609375
1726941014107696400,10.6626962890625,-0.766571044921875,0.128265380859375,-0.161224365234375
1726941014117682400,10.672682373046875,-0.8793182373046875,0.1408233642578125,-0.1786346435546875
1726941014127668500,10.68266845703125,-1.0230560302734375,0.1686859130859375,-0.2191619873046875
1726941014137654300,10.692654296875,-1.2080078125,0.2108154296875,-0.2498931884765625
1726941014147640600,10.702640625,-1.3271636962890625,0.2581634521484375,-0.2680511474609375
1726941014157626400,10.71262646484375,-1.3839111328125,0.255645751953125,-0.29217529296875
1726941014167612400,10.7226123046875,-1.3132476806640625,0.2077178955078125,-0.327667236328125
1726941014177598500,10.732598388671875,-1.0986480712890625,0.173370361328125,-0.2783660888671875
1726941014187584500,10.74258447265625,-1.005401611328125,0.1616973876953125,-0.2461700439453125
1726941014197570300,10.7525703125,-1.062652587890625,0.134490966796875,-0.2791748046875
1726941014207556600,10.762556640625,-1.058013916015625,0.09869384765625,-0.3578338623046875
1726941014217542400,10.77254248046875,-1.0388641357421875,0.07470703125,-0.3882598876953125
1726941014227528400,10.782528564453125,-0.991485595703125,0.0962371826171875,-0.3384552001953125
1726941014237514500,10.792514404296876,-0.96514892578125,0.14727783203125,-0.2667999267578125
1726941014247500500,10.80250048828125,-0.9875335693359375,0.169342041015625,-0.25616455078125
1726941014257486300,10.812486328125,-0.9997406005859375,0.148773193359375,-0.2912750244140625
1726941014267472400,10.822472412109375,-0.9967193603515625,0.126373291015625,-0.3085479736328125
1726941014277458400,10.83245849609375,-0.98162841796875,0.0968475341796875,-0.29180908203125
1726941014287444500,10.842444580078125,-0.9574127197265625,0.08123779296875,-0.259796142578125
1726941014297430500,10.852430419921875,-0.99530029296875,0.080718994140625,-0.2368011474609375
1726941014307416300,10.862416259765626,-1.0316162109375,0.0970306396484375,-0.2212982177734375
1726941014317402400,10.87240234375,-1.0269622802734375,0.11553955078125,-0.228302001953125
1726941014327388400,10.882388427734375,-1.0115203857421875,0.12139892578125,-0.2019805908203125
1726941014337374500,10.89237451171875,-0.9680633544921875,0.1338958740234375,-0.16302490234375
1726941014347360300,10.9023603515625,-0.9876556396484375,0.159088134765625,-0.1361236572265625
1726941014357346300,10.91234619140625,-1.0556793212890625,0.1689605712890625,-0.129547119140625
1726941014367332400,10.922332275390625,-1.0870361328125,0.162078857421875,-0.14825439453125
1726941014377318400,10.932318359375,-1.0536651611328125,0.1504669189453125,-0.183746337890625
1726941014387304200,10.94230419921875,-0.9576568603515625,0.143768310546875,-0.177276611328125
1726941014397290500,10.95229052734375,-0.9222564697265625,0.1527862548828125,-0.1249542236328125
1726941014407275500,10.962275634765625,-0.950103759765625,0.1826324462890625,-0.0772857666015625
1726941014417261300,10.97226123046875,-0.9869537353515625,0.2195892333984375,-0.087432861328125
1726941014427247600,10.98224755859375,-1.0306396484375,0.2446746826171875,-0.1510772705078125
1726941014437233400,10.9922333984375,-1.0543365478515625,0.2422637939453125,-0.1715240478515625
1726941014447219500,11.002219482421875,-1.007904052734375,0.228607177734375,-0.10308837890625
1726941014457205200,11.012205322265626,-0.953094482421875,0.2731781005859375,-0.0198516845703125
1726941014467191600,11.022191650390624,-0.961669921875,0.331787109375,0.00970458984375
1726941014477177300,11.03217724609375,-1.0021514892578125,0.3531036376953125,-0.003662109375
1726941014487163400,11.042163330078125,-1.00274658203125,0.3470916748046875,-0.11920166015625
1726941014497149400,11.0521494140625,-0.9933319091796875,0.31353759765625,-0.2429656982421875
1726941014507135500,11.062135498046874,-0.9873504638671875,0.2694091796875,-0.2920989990234375
1726941014517121300,11.072121337890625,-0.9315948486328125,0.2182159423828125,-0.2926483154296875
1726941014527107600,11.082107666015625,-0.8388824462890625,0.20025634765625,-0.23394775390625
1726941014537093400,11.09209326171875,-0.7117462158203125,0.2355499267578125,-0.16357421875
1726941014547079400,11.102079345703125,-0.58843994140625,0.2979278564453125,-0.155548095703125
1726941014557065500,11.1120654296875,-0.544525146484375,0.3459625244140625,-0.24786376953125
1726941014567051500,11.122051513671876,-0.5799407958984375,0.3996429443359375,-0.4165496826171875
1726941014577037300,11.132037353515624,-0.597412109375,0.4132537841796875,-0.524566650390625
1726941014587023600,11.142023681640625,-0.5233612060546875,0.425018310546875,-0.4663543701171875
1726941014597009400,11.152009521484375,-0.561279296875,0.4285125732421875,-0.3461151123046875
1726941014606995500,11.161995361328126,-0.62548828125,0.4636688232421875,-0.3026123046875
1726941014616981500,11.1719814453125,-0.684661865234375,0.4822998046875,-0.3475341796875
1726941014626967600,11.181967529296875,-0.731536865234375,0.419281005859375,-0.381927490234375
1726941014636953300,11.191953369140625,-0.7550506591796875,0.3228759765625,-0.3927459716796875
1726941014646939400,11.201939453125,-0.765289306640625,0.2868804931640625,-0.3738555908203125
1726941014656925400,11.211925537109375,-0.7706146240234375,0.28057861328125,-0.3704833984375
1726941014666911500,11.221911376953125,-0.804779052734375,0.2733306884765625,-0.3811492919921875
1726941014676897500,11.2318974609375,-0.8448638916015625,0.276611328125,-0.368438720703125
1726941014686883300,11.24188330078125,-0.881988525390625,0.2801971435546875,-0.3151397705078125
1726941014696869400,11.251869384765625,-0.8943023681640625,0.26708984375,-0.224456787109375
1726941014706855400,11.26185546875,-0.849761962890625,0.2601165771484375,-0.1606292724609375
1726941014716841500,11.271841552734376,-0.818267822265625,0.2631378173828125,-0.099639892578125
1726941014726827300,11.2818271484375,-0.7719268798828125,0.25775146484375,-0.137115478515625
1726941014736813300,11.291813232421875,-0.7947845458984375,0.262603759765625,-0.1740875244140625
1726941014746799400,11.30179931640625,-0.8289947509765625,0.2633209228515625,-0.1786346435546875
1726941014756785400,11.311785400390624,-0.853973388671875,0.2344207763671875,-0.211883544921875
1726941014766771200,11.321771240234375,-0.943695068359375,0.165924072265625,-0.2359161376953125
1726941014776757500,11.331757568359375,-1.12744140625,0.12640380859375,-0.2823638916015625
1726941014786743300,11.341743408203126,-1.266204833984375,0.1666259765625,-0.28961181640625
1726941014796729300,11.351729248046874,-1.2609405517578125,0.2102813720703125,-0.2422637939453125
1726941014806715400,11.36171533203125,-1.2393035888671875,0.2168121337890625,-0.208648681640625
1726941014816701400,11.371701416015625,-1.2490997314453125,0.1977996826171875,-0.21405029296875
1726941014826687200,11.381687255859376,-1.28668212890625,0.188751220703125,-0.2336273193359375
1726941014836673500,11.391673583984375,-1.2609100341796875,0.1905670166015625,-0.2603759765625
1726941014846659300,11.401659423828125,-1.2047882080078125,0.19732666015625,-0.2530975341796875
1726941014856645400,11.411645263671875,-1.1741790771484375,0.21923828125,-0.2221527099609375
1726941014866631400,11.42163134765625,-1.165618896484375,0.205352783203125,-0.19122314453125
1726941014876617500,11.431617431640625,-1.13446044921875,0.1693878173828125,-0.20123291015625
1726941014886603300,11.441603271484375,-1.0848846435546875,0.138092041015625,-0.2278594970703125
1726941014896589600,11.451589599609376,-0.9976959228515625,0.115570068359375,-0.252532958984375
1726941014906575400,11.461575439453124,-0.91180419921875,0.1244659423828125,-0.2573394775390625
1726941014916561400,11.4715615234375,-0.8745880126953125,0.1410064697265625,-0.2824859619140625
1726941014926547200,11.481547119140625,-0.8985595703125,0.1303863525390625,-0.31048583984375
1726941014936533500,11.491533447265626,-0.961029052734375,0.1093292236328125,-0.332733154296875
1726941014946519300,11.501519287109375,-0.9593353271484375,0.1095123291015625,-0.360015869140625
1726941014956505300,11.51150537109375,-0.9263153076171875,0.13409423828125,-0.3753814697265625
1726941014966491400,11.521491455078126,-0.9345550537109375,0.1591339111328125,-0.3885650634765625
1726941014976477400,11.5314775390625,-0.9781951904296875,0.1744842529296875,-0.4015350341796875
1726941014986463200,11.541463134765625,-0.9788970947265625,0.182403564453125,-0.3932037353515625
1726941014996449500,11.551449462890625,-1.0042266845703125,0.1747283935546875,-0.3643798828125
1726941015006435300,11.561435302734376,-1.0218658447265625,0.1677093505859375,-0.3247222900390625
1726941015016421400,11.57142138671875,-1.0981597900390625,0.1460418701171875,-0.28448486328125
1726941015026407400,11.581407470703125,-1.1798095703125,0.1297149658203125,-0.2442779541015625
1726941015036393500,11.5913935546875,-1.1636810302734375,0.110382080078125,-0.19183349609375
1726941015046379300,11.601379150390626,-1.0010528564453125,0.102996826171875,-0.1175384521484375
1726941015056365300,11.611365234375,-0.81268310546875,0.1043701171875,-0.049468994140625
1726941015066351000,11.62135107421875,-0.6801910400390625,0.1044921875,-0.0229034423828125
1726941015076337400,11.63133740234375,-0.6091461181640625,0.082275390625,-0.0270233154296875
1726941015086323200,11.6413232421875,-0.545196533203125,0.0491180419921875,-0.0446929931640625
1726941015096309200,11.651309326171875,-0.4773712158203125,0.027069091796875,-0.0799102783203125
1726941015106295300,11.66129541015625,-0.455078125,0.020599365234375,-0.12408447265625
1726941015116281300,11.67128125,-0.49810791015625,0.019989013671875,-0.1806793212890625
1726941015126267100,11.68126708984375,-0.648834228515625,0.048065185546875,-0.248779296875
1726941015136253400,11.69125341796875,-0.838897705078125,0.1054534912109375,-0.337371826171875
1726941015146239200,11.7012392578125,-1.0086822509765625,0.175628662109375,-0.4558258056640625
1726941015156225300,11.711225341796874,-1.140594482421875,0.26104736328125,-0.5225830078125
1726941015166211000,11.721211181640625,-1.2899627685546875,0.3354644775390625,-0.5806427001953125
1726941015176197400,11.731197265625,-1.51080322265625,0.330047607421875,-0.5811004638671875
1726941015186183200,11.74118310546875,-1.615081787109375,0.267120361328125,-0.51055908203125
1726941015196169200,11.751169189453124,-1.4305267333984375,0.2027587890625,-0.420196533203125
1726941015206155300,11.7611552734375,-1.217437744140625,0.1435394287109375,-0.3619537353515625
1726941015216141300,11.771141357421875,-1.118743896484375,0.0992889404296875,-0.2746429443359375
1726941015226127000,11.781127197265626,-1.08154296875,0.0464019775390625,-0.2422332763671875
1726941015236113400,11.791113525390625,-1.0952301025390625,-0.004364013671875,-0.265655517578125
1726941015246099200,11.80109912109375,-1.05615234375,-0.04205322265625,-0.3015899658203125
1726941015256085200,11.811085205078125,-0.9841461181640625,-0.033599853515625,-0.3055877685546875
1726941015266071300,11.8210712890625,-0.9636688232421875,0.0211944580078125,-0.27716064453125
1726941015276056300,11.831056396484374,-0.9957122802734375,0.0915069580078125,-0.24993896484375
1726941015286042000,11.8410419921875,-1.037017822265625,0.142333984375,-0.259185791015625
1726941015296028200,11.851028076171875,-1.05047607421875,0.1754150390625,-0.2714385986328125
1726941015306014200,11.86101416015625,-1.02557373046875,0.19482421875,-0.263763427734375
1726941015316000300,11.871000244140625,-1.006622314453125,0.1883392333984375,-0.2363128662109375
1726941015325986000,11.880986083984375,-0.994659423828125,0.160614013671875,-0.1896820068359375
1726941015335972400,11.890972412109376,-1.0168609619140625,0.1484222412109375,-0.129150390625
1726941015345958100,11.900958251953124,-1.0543975830078125,0.1629791259765625,-0.0611724853515625
1726941015355944200,11.910944091796875,-1.0035247802734375,0.1461181640625,-0.00469970703125
1726941015365930200,11.92093017578125,-0.908538818359375,0.120819091796875,0.012664794921875
1726941015375916300,11.930916259765626,-0.890655517578125,0.1246795654296875,0.0486907958984375
1726941015385902000,11.940902099609374,-1.0090789794921875,0.1784515380859375,-0.0158843994140625
1726941015395888400,11.950888427734375,-1.2248382568359375,0.2758026123046875,-0.1078033447265625
1726941015405874200,11.960874267578125,-1.34222412109375,0.3361358642578125,-0.115386962890625
1726941015415860200,11.970860107421874,-1.3007965087890625,0.3596954345703125,-0.0656585693359375
1726941015425846300,11.98084619140625,-1.113525390625,0.3349151611328125,-0.0193023681640625
1726941015435832300,11.990832275390625,-0.91619873046875,0.2817840576171875,0.0125579833984375
1726941015445818000,12.000818115234376,-0.76715087890625,0.2775115966796875,0.01824951171875
1726941015455804400,12.010804443359374,-0.6408843994140625,0.2889556884765625,-0.0319366455078125
1726941015465790200,12.020790283203125,-0.4988555908203125,0.2704010009765625,-0.1043853759765625
1726941015475776300,12.0307763671875,-0.439544677734375,0.265289306640625,-0.1893310546875
1726941015485762300,12.04076220703125,-0.3878173828125,0.29901123046875,-0.2904815673828125
1726941015495748400,12.050748291015625,-0.398590087890625,0.3438873291015625,-0.4561004638671875
1726941015505734100,12.060734130859375,-0.4499664306640625,0.41387939453125,-0.6199951171875
1726941015515720200,12.07072021484375,-0.520294189453125,0.482452392578125,-0.6831512451171875
1726941015525706200,12.080706298828124,-0.6514434814453125,0.5396575927734375,-0.626251220703125
1726941015535692300,12.0906923828125,-0.8009033203125,0.6017913818359375,-0.5464630126953125
1726941015545678000,12.100677978515625,-0.9307403564453125,0.61419677734375,-0.4268035888671875
1726941015555664400,12.110664306640626,-1.0269622802734375,0.549896240234375,-0.212677001953125
1726941015565650200,12.120650146484374,-0.8737640380859375,0.4249725341796875,-0.0084228515625
1726941015575636200,12.13063623046875,-0.656463623046875,0.3031463623046875,0.020904541015625
1726941015585622300,12.140622314453125,-0.5565338134765625,0.2839508056640625,-0.019683837890625
1726941015595608300,12.1506083984375,-0.539703369140625,0.296356201171875,-0.093231201171875
1726941015605594000,12.160593994140624,-0.56060791015625,0.2720184326171875,-0.20965576171875
1726941015615580400,12.170580322265625,-0.5809783935546875,0.2351837158203125,-0.32147216796875
1726941015625566200,12.180566162109375,-0.61431884765625,0.2014007568359375,-0.37884521484375
1726941015635552300,12.19055224609375,-0.6593475341796875,0.20538330078125,-0.419647216796875
1726941015645538300,12.200538330078125,-0.752166748046875,0.223663330078125,-0.4176177978515625
1726941015655524400,12.2105244140625,-0.8865203857421875,0.2370452880859375,-0.44549560546875
1726941015665510100,12.22051025390625,-1.015472412109375,0.239349365234375,-0.459869384765625
1726941015675496400,12.230496337890624,-1.1043701171875,0.248016357421875,-0.4463348388671875
1726941015685482200,12.240482177734375,-1.2129364013671875,0.199920654296875,-0.4144287109375
1726941015695468300,12.25046826171875,-1.246734619140625,0.1857757568359375,-0.2991485595703125
1726941015705454300,12.260454345703126,-1.2469024658203125,0.201690673828125,-0.234710693359375
1726941015715440400,12.2704404296875,-1.27294921875,0.2122344970703125,-0.2108306884765625
1726941015725426200,12.28042626953125,-1.3611297607421875,0.3076324462890625,-0.1360015869140625
1726941015735412500,12.29041259765625,-1.3482208251953125,0.39349365234375,-0.0999908447265625
1726941015745398300,12.300398193359374,-1.29986572265625,0.3930206298828125,-0.08111572265625
1726941015755384300,12.31038427734375,-1.2474517822265625,0.2993621826171875,-0.1244049072265625
1726941015765370000,12.3203701171875,-1.136077880859375,0.2232818603515625,-0.192413330078125
1726941015775356400,12.3303564453125,-1.077880859375,0.168731689453125,-0.227386474609375
1726941015785342200,12.34034228515625,-1.0489654541015625,0.13946533203125,-0.2583770751953125
1726941015795328300,12.350328369140625,-1.0395355224609375,0.1248779296875,-0.2867431640625
1726941015805314300,12.360314208984375,-1.0625762939453125,0.1278228759765625,-0.295318603515625
1726941015815300400,12.37030029296875,-1.068603515625,0.140716552734375,-0.2802276611328125
1726941015825286100,12.3802861328125,-1.0127410888671875,0.1493072509765625,-0.242401123046875
1726941015835272200,12.390272216796875,-0.9107818603515625,0.1479339599609375,-0.1996307373046875
1726941015845258200,12.40025830078125,-0.8375244140625,0.14251708984375,-0.1793670654296875
1726941015855244000,12.410244140625,-0.8386383056640625,0.141021728515625,-0.200836181640625
1726941015865230300,12.420230224609375,-0.8492279052734375,0.1434326171875,-0.2217559814453125
1726941015875216100,12.430216064453125,-0.8624420166015625,0.152374267578125,-0.229522705078125
1726941015885202200,12.4402021484375,-0.861297607421875,0.20391845703125,-0.23870849609375
1726941015895188200,12.450188232421874,-0.8429718017578125,0.2388763427734375,-0.2197113037109375
1726941015905174300,12.46017431640625,-0.83575439453125,0.2407073974609375,-0.2449951171875
1726941015915160000,12.47016015625,-0.8538665771484375,0.22442626953125,-0.2771453857421875
1726941015925146400,12.480146484375,-0.843994140625,0.2078857421875,-0.3046875
1726941015935132200,12.490132080078125,-0.846160888671875,0.207916259765625,-0.312896728515625
1726941015945118200,12.5001181640625,-0.863861083984375,0.200927734375,-0.3328094482421875
1726941015955104300,12.510104248046876,-0.9423675537109375,0.1826019287109375,-0.3564453125
1726941015965090300,12.52009033203125,-1.0386199951171875,0.1611480712890625,-0.375762939453125
1726941015975076000,12.530076171875,-1.080841064453125,0.1187591552734375,-0.3648834228515625
1726941015985062100,12.540062255859375,-1.0424346923828125,0.084014892578125,-0.28533935546875
1726941015995048200,12.550048095703126,-1.0213165283203125,0.05352783203125,-0.1890716552734375
1726941016005034200,12.5600341796875,-1.0749053955078125,0.0229949951171875,-0.159027099609375
1726941016015020000,12.57002001953125,-1.1587066650390625,-0.0122833251953125,-0.1962890625
1726941016025006300,12.58000634765625,-1.1254730224609375,-0.0523529052734375,-0.24102783203125
1726941016034992000,12.5899921875,-1.0525665283203125,-0.0785675048828125,-0.259063720703125
1726941016044978200,12.599978271484375,-0.9857635498046875,-0.0435638427734375,-0.2533111572265625
1726941016054964200,12.609964111328125,-1.0016937255859375,0.0298004150390625,-0.198822021484375
1726941016064950500,12.619950439453126,-1.0943756103515625,0.0471649169921875,-0.2038726806640625
1726941016074936300,12.629936279296874,-1.025146484375,0.0582427978515625,-0.23175048828125
1726941016084922400,12.63992236328125,-0.94793701171875,0.072357177734375,-0.2454376220703125
1726941016094908400,12.649908447265625,-0.847320556640625,0.116485595703125,-0.2145233154296875
1726941016104894500,12.65989453125,-0.81219482421875,0.138031005859375,-0.2174224853515625
1726941016114880300,12.66988037109375,-0.831268310546875,0.1346893310546875,-0.261138916015625
1726941016124866300,12.6798662109375,-0.8220062255859375,0.1212615966796875,-0.2976837158203125
1726941016134852400,12.689852294921875,-0.792572021484375,0.141632080078125,-0.31890869140625
1726941016144838400,12.69983837890625,-0.8112640380859375,0.17071533203125,-0.34423828125
1726941016154824200,12.70982421875,-0.9191436767578125,0.188140869140625,-0.3795623779296875
1726941016164810500,12.719810546875,-1.0450897216796875,0.18743896484375,-0.4081573486328125
1726941016174796300,12.72979638671875,-1.1301422119140625,0.156829833984375,-0.400299072265625
1726941016184782300,12.7397822265625,-1.09320068359375,0.1404266357421875,-0.3374481201171875
1726941016194768400,12.749768310546875,-1.016571044921875,0.15869140625,-0.2793426513671875
1726941016204754400,12.75975439453125,-1.0351104736328125,0.1883544921875,-0.25115966796875
1726941016214739200,12.7697392578125,-1.0417633056640625,0.19476318359375,-0.2755889892578125
1726941016224725500,12.7797255859375,-1.0822296142578125,0.1739349365234375,-0.2932891845703125
1726941016234711300,12.789711181640625,-1.0897064208984375,0.148040771484375,-0.30841064453125
1726941016244697300,12.799697265625,-1.0687713623046875,0.148468017578125,-0.2984466552734375
1726941016254683100,12.80968310546875,-1.0804595947265625,0.1578826904296875,-0.2640380859375
1726941016264669400,12.81966943359375,-1.0767669677734375,0.1467742919921875,-0.216949462890625
1726941016274655200,12.8296552734375,-0.9854736328125,0.1229095458984375,-0.176361083984375
1726941016284641300,12.839641357421876,-0.8690338134765625,0.1170806884765625,-0.13848876953125
1726941016294627300,12.84962744140625,-0.8486328125,0.139251708984375,-0.0965118408203125
