time,seconds_elapsed,z,y,x
1726941003456392000,0.011391845703125,-0.05323579162359238,-0.5592007040977478,1.3244965076446533
1726941003466378000,0.0213779296875,0.03362374007701874,-0.35075056552886963,1.3486132621765137
1726941003476364000,0.031364013671875,0.027692880481481552,-0.12220127880573273,1.3666682243347168
1726941003486350000,0.04135009765625,-0.05776103585958481,0.05080166086554527,1.3681540489196777
1726941003496336000,0.0513359375,-0.23732547461986542,-0.07913902401924133,1.2810741662979126
1726941003506322200,0.061322265625,-0.4663618505001068,-0.34913694858551025,1.179051399230957
1726941003516308000,0.071307861328125,-0.687034547328949,-0.47427037358283997,1.103729248046875
1726941003526294000,0.0812939453125,-0.8385375142097473,-0.49354714155197144,1.0335932970046997
1726941003536279800,0.09127978515625,-0.8757762312889099,-0.4426730275154114,0.9605521559715271
1726941003546266000,0.10126611328125,-0.8382467031478882,-0.5036892294883728,0.9723078608512878
1726941003556252000,0.111251953125,-0.7520066499710083,-0.47243252396583557,1.1831660270690918
1726941003566238000,0.121238037109375,-0.6057743430137634,-0.5406549572944641,1.5203450918197632
1726941003576224000,0.13122412109375,-0.3685697615146637,-0.9858393669128418,1.8314553499221802
1726941003586210000,0.1412099609375,-0.13386033475399017,-1.5391006469726562,2.0259110927581787
1726941003596195800,0.15119580078125,0.022467492148280144,-2.0434393882751465,2.1360883712768555
1726941003606182100,0.16118212890625,0.20897318422794342,-2.4424524307250977,2.242034673690796
1726941003616168000,0.17116796875,0.45219409465789795,-3.1851110458374023,2.344555616378784
1726941003626154000,0.181154052734375,0.47413453459739685,-4.347232341766357,2.3932507038116455
1726941003636140000,0.19114013671875,0.36668798327445984,-4.990258693695068,2.4259257316589355
1726941003646126000,0.2011259765625,0.37903812527656555,-5.500095367431641,2.3684308528900146
1726941003656111900,0.21111181640625,0.27550560235977173,-5.47083044052124,2.3361449241638184
1726941003666098200,0.22109814453125,-0.09290410578250885,-5.35518217086792,2.3270058631896973
1726941003676084000,0.231083984375,-0.5088136792182922,-4.96290397644043,2.220831871032715
1726941003686070000,0.241070068359375,-0.8146787881851196,-4.2724928855896,2.05553936958313
1726941003696056000,0.25105615234375,-0.9189772605895996,-3.3198390007019043,1.8695003986358643
1726941003706042000,0.2610419921875,-0.8146367073059082,-2.249075174331665,1.7744852304458618
1726941003716028000,0.27102783203125,-0.519736647605896,-1.867640733718872,1.7905247211456299
1726941003726014200,0.28101416015625,-0.060020994395017624,-2.2426748275756836,1.869064211845398
1726941003735999200,0.290999267578125,0.4465958774089813,-2.8870689868927,1.993605375289917
1726941003745985000,0.300985107421875,0.9947550892829895,-2.451038360595703,1.7641500234603882
1726941003755971000,0.31097119140625,1.5559214353561401,-1.2728031873703003,1.5199744701385498
1726941003765957000,0.32095703125,2.027650833129883,-0.3016165792942047,1.423964023590088
1726941003775943200,0.330943115234375,2.318669319152832,-0.1550295352935791,1.2776129245758057
1726941003785929000,0.340928955078125,2.4173812866210938,-0.24162301421165466,1.192124366760254
1726941003795915000,0.3509150390625,2.5583455562591553,-0.32821887731552124,1.2237720489501953
1726941003805901000,0.360901123046875,2.9139492511749268,-0.45777902007102966,1.3815619945526123
1726941003815886800,0.370886962890625,3.2163245677948,-0.6706593036651611,1.5598797798156738
1726941003825873200,0.380873046875,3.2597317695617676,-0.8741469383239746,1.6405024528503418
1726941003835859000,0.39085888671875,3.0495617389678955,-0.8036272525787354,1.725976824760437
1726941003845845000,0.400844970703125,2.75344181060791,-0.6234257817268372,1.88705575466156
1726941003855831000,0.4108310546875,2.612089157104492,-0.3493284285068512,2.048487663269043
1726941003865817000,0.420817138671875,2.700742244720459,-0.5365782380104065,2.2718186378479004
1726941003875803000,0.430802978515625,2.9300732612609863,-0.5743503570556641,2.5186898708343506
1726941003885789000,0.440788818359375,3.211123466491699,-0.5019661784172058,2.57669734954834
1726941003895775000,0.45077490234375,3.4172754287719727,-0.531765878200531,2.6813530921936035
1726941003905761000,0.460760986328125,2.8323826789855957,-0.47912877798080444,2.4323174953460693
1726941003915746800,0.470746826171875,2.7331392765045166,1.0417073965072632,2.0684988498687744
1726941003925733000,0.480733154296875,3.0722665786743164,0.9951527118682861,1.8490651845932007
1726941003935719000,0.490718994140625,3.3223392963409424,1.0454390048980713,1.7020363807678223
1726941003945705000,0.500705078125,3.3630192279815674,1.43083918094635,1.4363481998443604
1726941003955691000,0.51069091796875,3.3002030849456787,1.333175778388977,1.3160101175308228
1726941003965677000,0.520677001953125,3.1660265922546387,0.6340384483337402,1.116862416267395
1726941003975662800,0.530662841796875,3.0971083641052246,-0.29575681686401367,0.8815734386444092
1726941003985649200,0.540649169921875,3.3698692321777344,-1.1427507400512695,0.8080512881278992
1726941003995635000,0.550635009765625,3.9049196243286133,-1.7098839282989502,1.3536640405654907
1726941004005621000,0.56062109375,4.643176555633545,-1.4301079511642456,2.1841976642608643
1726941004015607000,0.57060693359375,5.170130729675293,-0.8503896594047546,3.0068507194519043
1726941004025593000,0.580593017578125,5.586306095123291,-0.3629592955112457,3.67615008354187
1726941004035579100,0.5905791015625,5.80793571472168,-0.4497178792953491,3.7487452030181885
1726941004045565200,0.600565185546875,5.617345333099365,-0.40755152702331543,2.957634210586548
1726941004055551000,0.610551025390625,5.216758728027344,-0.29709744453430176,1.5263832807540894
1726941004065537300,0.620537353515625,4.722846031188965,-1.171579360961914,0.17890450358390808
1726941004075523000,0.630523193359375,4.125864028930664,-2.553104877471924,-1.0008747577667236
1726941004085509000,0.640509033203125,3.553072214126587,-3.3122904300689697,-1.693783164024353
1726941004095495200,0.6504951171875,2.968111753463745,-3.1550564765930176,-1.8196167945861816
1726941004105481200,0.660481201171875,2.7792093753814697,-1.4157569408416748,-1.5636709928512573
1726941004115467000,0.670467041015625,2.786602020263672,-0.1288895457983017,-1.1841408014297485
1726941004125453300,0.680453369140625,2.5733046531677246,0.39659687876701355,-0.8578861951828003
1726941004135439000,0.690439208984375,2.5302348136901855,1.0722712278366089,-0.6384979486465454
1726941004145425200,0.700425048828125,2.2292208671569824,1.49150550365448,-0.4650252163410187
1726941004155411000,0.710410888671875,1.4741997718811035,1.8676737546920776,-0.41559240221977234
1726941004165397200,0.720397216796875,0.42759475111961365,1.1693775653839111,-0.4439156651496887
1726941004175383000,0.730383056640625,-0.4748314917087555,0.1470155417919159,-0.5515920519828796
1726941004185369000,0.740369140625,-0.9800052046775818,-0.16582918167114258,-0.6533306837081909
1726941004195355100,0.750355224609375,-0.810541570186615,-0.041913360357284546,-0.6568242311477661
1726941004205341200,0.760341064453125,-0.19746220111846924,0.40900400280952454,-0.49177879095077515
1726941004215327000,0.770326904296875,0.6205378174781799,0.9661269187927246,-0.2959829270839691
1726941004225313300,0.780313232421875,1.2622991800308228,1.5240604877471924,-0.09684425592422485
1726941004235299000,0.790299072265625,1.4655718803405762,1.3472106456756592,0.15064117312431335
1726941004245285000,0.80028515625,0.862008273601532,0.12776435911655426,0.3814999461174011
1726941004255271200,0.810271240234375,0.39552921056747437,-1.0191746950149536,0.7608597874641418
1726941004265257200,0.82025732421875,0.6301957964897156,-2.3333566188812256,1.2640761137008667
1726941004275243000,0.830242919921875,1.119335412979126,-3.5840680599212646,1.7905709743499756
1726941004285229300,0.840229248046875,1.6704051494598389,-3.8586089611053467,2.022526741027832
1726941004295215000,0.850215087890625,1.7563685178756714,-2.9052088260650635,2.2929203510284424
1726941004305201200,0.860201171875,1.7969520092010498,-1.7394782304763794,2.2621335983276367
1726941004315187200,0.870187255859375,1.5205981731414795,-0.615068793296814,2.1975111961364746
1726941004325173200,0.88017333984375,1.1359425783157349,-0.03706933930516243,2.212162971496582
1726941004335159000,0.890158935546875,0.922248125076294,0.19560225307941437,2.3718700408935547
1726941004345145300,0.900145263671875,0.915145218372345,0.29571714997291565,2.3803791999816895
1726941004355131100,0.910131103515625,1.2180500030517578,0.10694482177495956,2.11309814453125
1726941004365117200,0.9201171875,1.4051638841629028,-0.33170390129089355,1.2423460483551025
1726941004375103000,0.93010302734375,1.4677716493606567,-0.6854755282402039,0.3842208981513977
1726941004385088300,0.940088134765625,1.6379303932189941,-0.6411339044570923,-0.15204200148582458
1726941004395074000,0.950073974609375,1.7947574853897095,-0.28495877981185913,-0.3957369327545166
1726941004405060000,0.96006005859375,1.8540418148040771,0.3443855941295624,-0.4065190255641937
1726941004415046100,0.970046142578125,1.8515536785125732,1.0197118520736694,-0.32810595631599426
1726941004425032200,0.9800322265625,1.721846580505371,1.581459879875183,-0.23533529043197632
1726941004435018000,0.99001806640625,1.4354376792907715,1.9745395183563232,-0.14247672259807587
1726941004445004300,1.00000439453125,0.9067056775093079,2.3372132778167725,-0.031320370733737946
1726941004454990000,1.009989990234375,0.2431226372718811,2.575868844985962,0.10306832939386368
1726941004464976100,1.01997607421875,-0.814801037311554,1.9433704614639282,0.26802611351013184
1726941004474962200,1.029962158203125,-2.047334671020508,0.7281383275985718,0.4711739122867584
1726941004484948200,1.0399482421875,-2.9706315994262695,0.3085775375366211,0.6402223110198975
1726941004494934000,1.04993408203125,-3.6075944900512695,0.4499035179615021,0.7131191492080688
1726941004504920000,1.059920166015625,-4.001176834106445,0.7841325998306274,0.6029636263847351
1726941004514906000,1.069906005859375,-4.075804710388184,1.145253300666809,0.31326285004615784
1726941004524892200,1.07989208984375,-4.097036361694336,1.4436982870101929,0.026028404012322426
1726941004534878000,1.0898779296875,-4.044775485992432,1.8253103494644165,-0.1586700677871704
1726941004544864300,1.0998642578125,-3.892589569091797,1.888787865638733,-0.20293819904327393
1726941004554850000,1.10985009765625,-3.5969748497009277,1.670845627784729,-0.1521112322807312
1726941004564836000,1.119836181640625,-3.360762596130371,1.4339252710342407,-0.06878252327442169
1726941004574822100,1.129822265625,-2.548740863800049,1.352073073387146,-0.01834704913198948
1726941004584808200,1.13980810546875,-1.5656441450119019,1.3179140090942383,-0.05651041492819786
1726941004594794000,1.1497939453125,-0.5795542001724243,1.0490590333938599,-0.21950465440750122
1726941004604780300,1.1597802734375,0.06794282793998718,0.6883816123008728,-0.3641164302825928
1726941004614766000,1.16976611328125,0.1267736554145813,0.225441113114357,-0.36238643527030945
1726941004624752000,1.179752197265625,0.08143839985132217,-0.07935820519924164,-0.25924915075302124
1726941004634738200,1.18973828125,0.07405371963977814,-0.16223551332950592,-0.09149342775344849
1726941004644724200,1.19972412109375,0.0886736735701561,-0.1409592479467392,0.005865079816430807
1726941004654710000,1.2097099609375,0.06692416965961456,-0.08501981943845749,0.05188263952732086
1726941004664696300,1.2196962890625,0.03003273345530033,-0.004599545616656542,0.04794622212648392
1726941004674682000,1.22968212890625,-0.007243798114359379,0.06658488512039185,0.036007270216941833
1726941004684668200,1.239668212890625,-0.030723556876182556,0.11181867867708206,0.012517123483121395
1726941004694654200,1.249654296875,-0.04794622212648392,0.1280093640089035,-0.00038296254933811724
1726941004704640300,1.25964013671875,-0.06825069338083267,0.13612668216228485,-0.0231186356395483
1726941004714626000,1.2696259765625,-0.10456342995166779,0.14870718121528625,-0.02965829335153103
1726941004724612000,1.279612060546875,-0.13751338422298431,0.15349075198173523,-0.012544021010398865
1726941004734598100,1.28959814453125,-0.1849866360425949,0.15766100585460663,0.00971601065248251
1726941004744584200,1.299584228515625,-0.23785516619682312,0.1802493929862976,0.04899763688445091
1726941004754570000,1.309570068359375,-0.28739476203918457,0.2368498295545578,0.07624123990535736
1726941004764556300,1.319556396484375,-0.3314999043941498,0.30696818232536316,0.10200706124305725
1726941004774542000,1.3295419921875,-0.3340131342411041,0.35446834564208984,0.11123491078615189
1726941004784528100,1.339528076171875,-0.3291073143482208,0.3603951930999756,0.10551177710294724
1726941004794514200,1.34951416015625,-0.3068438172340393,0.3358360528945923,0.13937920331954956
1726941004804500200,1.359500244140625,-0.2848708927631378,0.3230758011341095,0.2049451619386673
1726941004814486000,1.369486083984375,-0.2623554468154907,0.3396763503551483,0.28910955786705017
1726941004824472000,1.37947216796875,-0.22199417650699615,0.38770484924316406,0.3842637836933136
1726941004834458000,1.3894580078125,-0.18567532300949097,0.44264212250709534,0.45150861144065857
1726941004844444200,1.399444091796875,-0.16373834013938904,0.49946680665016174,0.45084813237190247
1726941004854430200,1.40943017578125,-0.11910268664360046,0.5631038546562195,0.38186267018318176
1726941004864416000,1.419416015625,-0.09026943892240524,0.6351252794265747,0.3031657338142395
1726941004874402000,1.429402099609375,-0.1122378557920456,0.6800392270088196,0.21069519221782684
1726941004884388000,1.43938818359375,-0.17475929856300354,0.7123689651489258,0.12146411091089249
1726941004894374100,1.4493740234375,-0.24190904200077057,0.7408080697059631,0.015605324879288673
1726941004904360000,1.45935986328125,-0.31582561135292053,0.7178175449371338,-0.04709533974528313
1726941004914346200,1.46934619140625,-0.3781726062297821,0.6946408152580261,-0.05108848586678505
1726941004924332000,1.47933203125,-0.44870641827583313,0.6980352997779846,-0.05708139389753342
1726941004934318000,1.489318115234375,-0.5019837617874146,0.6862497329711914,-0.09716036915779114
1726941004944304000,1.49930419921875,-0.4746067225933075,0.6352986693382263,-0.15748868882656097
1726941004954290200,1.509290283203125,-0.4264083206653595,0.5952154397964478,-0.1990683674812317
1726941004964276000,1.51927587890625,-0.37599998712539673,0.5898678302764893,-0.25240933895111084
1726941004974262000,1.529261962890625,-0.2996610105037689,0.46682071685791016,-0.2711995542049408
1726941004984248000,1.539248046875,-0.28154751658439636,0.3334232270717621,-0.3066408932209015
1726941004994234000,1.549234130859375,-0.27465739846229553,0.26598507165908813,-0.344109445810318
1726941005004219100,1.55921923828125,-0.2596909701824188,0.26483431458473206,-0.36317288875579834
1726941005014205200,1.569205078125,-0.2583029270172119,0.2920140027999878,-0.3663577437400818
1726941005024191200,1.579191162109375,-0.2805440425872803,0.32731500267982483,-0.363425076007843
1726941005034177000,1.589177001953125,-0.31013521552085876,0.39009878039360046,-0.34510278701782227
1726941005044163300,1.599163330078125,-0.3351649343967438,0.45613157749176025,-0.33188313245773315
1726941005054149000,1.609149169921875,-0.3683641850948334,0.5112784504890442,-0.3116644024848938
1726941005064135200,1.61913525390625,-0.4066457748413086,0.5654708743095398,-0.28344210982322693
1726941005074121000,1.629120849609375,-0.44607362151145935,0.6027902364730835,-0.24981117248535156
1726941005084107300,1.639107177734375,-0.4763537645339966,0.60901939868927,-0.24216149747371674
1726941005094093000,1.649093017578125,-0.49973657727241516,0.5775008797645569,-0.2225944548845291
1726941005104079000,1.6590791015625,-0.5083223581314087,0.5455014109611511,-0.2076469361782074
1726941005114065200,1.669065185546875,-0.48844796419143677,0.5051239132881165,-0.19311486184597015
1726941005124051200,1.67905126953125,-0.43036070466041565,0.44477081298828125,-0.19082054495811462
1726941005134037000,1.689037109375,-0.35767343640327454,0.36904674768447876,-0.16647286713123322
1726941005144023300,1.699023193359375,-0.2818969190120697,0.2830868363380432,-0.11300431936979294
1726941005154009000,1.709009033203125,-0.20052537322044373,0.21009758114814758,-0.027591414749622345
1726941005163995100,1.7189951171875,-0.12518401443958282,0.14184395968914032,0.07438927888870239
1726941005173981200,1.728981201171875,-0.05498176068067551,0.13202567398548126,0.16697540879249573
1726941005183967200,1.73896728515625,0.016635701060295105,0.11730079352855682,0.2343592345714569
1726941005193953000,1.748953125,0.08654528111219406,0.11374813318252563,0.27236708998680115
1726941005203939000,1.75893896484375,0.1001974418759346,0.08575697988271713,0.3091384172439575
1726941005213925000,1.768925048828125,0.07740690559148788,0.07118149846792221,0.3604109287261963
1726941005223911200,1.7789111328125,0.04348995164036751,0.05266321077942848,0.40060681104660034
1726941005233897200,1.788897216796875,0.027817515656352043,0.018247181549668312,0.4175706207752228
1726941005243883000,1.798883056640625,0.01733611337840557,0.0018032263033092022,0.433023601770401
1726941005253869000,1.808869140625,0.010823619551956654,0.0046789078041911125,0.4393342137336731
1726941005263855000,1.818855224609375,0.021754564717411995,-0.018923090770840645,0.427568644285202
1726941005273841200,1.828841064453125,0.06287723034620285,-0.051000334322452545,0.4165663421154022
1726941005283827000,1.838826904296875,0.09109342098236084,-0.1158704087138176,0.37160205841064453
1726941005293813200,1.848813232421875,0.092835932970047,-0.15393230319023132,0.29538556933403015
1726941005303799000,1.858799072265625,0.07043581455945969,-0.17759396135807037,0.21607956290245056
1726941005313785000,1.86878515625,0.0046272422187030315,-0.11844834685325623,0.12928661704063416
1726941005323771000,1.87877099609375,-0.02117559313774109,-0.06017545610666275,0.06296564638614655
1726941005333757200,1.888757080078125,-0.007072290405631065,-0.0135656101629138,0.0521598719060421
1726941005343743000,1.898742919921875,0.014520885422825813,0.06898625940084457,0.08951976150274277
1726941005353729000,1.90872900390625,0.012506471015512943,0.16122564673423767,0.15554751455783844
1726941005363715000,1.918715087890625,-0.009046758525073528,0.23974254727363586,0.22707229852676392
1726941005373701000,1.928701171875,-0.007266434840857983,0.2487190067768097,0.2892877459526062
1726941005383687000,1.93868701171875,0.02899330109357834,0.16258971393108368,0.32011622190475464
1726941005393673200,1.948673095703125,0.07709185779094696,0.08552688360214233,0.31905123591423035
1726941005403659000,1.958658935546875,0.10824710875749588,0.05336335673928261,0.3007531762123108
1726941005413645000,1.96864501953125,0.12267904728651047,0.07855020463466644,0.2787192463874817
1726941005423631000,1.978631103515625,0.13568486273288727,0.12504953145980835,0.2742438018321991
1726941005433617200,1.9886171875,0.1367192268371582,0.1518864631652832,0.298232764005661
1726941005443603000,1.99860302734375,0.11094196140766144,0.1418415606021881,0.31932711601257324
1726941005453589200,2.00858935546875,0.08753171563148499,0.10076016932725906,0.33164238929748535
1726941005463575000,2.018574951171875,0.07348673045635223,0.10501030832529068,0.32578742504119873
1726941005473561000,2.02856103515625,0.050341732800006866,0.1280522346496582,0.2860892713069916
1726941005483547100,2.038547119140625,0.04559411481022835,0.22684752941131592,0.2457951158285141
1726941005493533200,2.048533203125,0.0645289272069931,0.38419079780578613,0.21198149025440216
1726941005503519000,2.05851904296875,0.09884002804756165,0.5729037523269653,0.17924432456493378
1726941005513505300,2.06850537109375,0.12013386189937592,0.7441362142562866,0.1808621883392334
1726941005523491000,2.078490966796875,0.12070244550704956,0.8635914921760559,0.19800283014774323
1726941005533477000,2.08847705078125,0.10586864501237869,0.9099483489990234,0.21436502039432526
1726941005543463200,2.098463134765625,0.09666262567043304,0.8643470406532288,0.19585418701171875
1726941005553449200,2.10844921875,0.12112003564834595,0.7721518874168396,0.15232296288013458
1726941005563435000,2.11843505859375,0.16359345614910126,0.6839452981948853,0.09686768800020218
1726941005573421000,2.128421142578125,0.18167445063591003,0.5864091515541077,0.0638950914144516
1726941005583407000,2.138406982421875,0.15397252142429352,0.5142649412155151,0.03874979168176651
1726941005593393200,2.14839306640625,0.10124166309833527,0.4623713791370392,0.016883641481399536
1726941005603379000,2.15837890625,0.0542115718126297,0.4239867031574249,-0.022973759099841118
1726941005613364200,2.1683642578125,0.006405701395124197,0.4113135039806366,-0.06857852637767792
1726941005623350000,2.17835009765625,-0.04875289276242256,0.40440741181373596,-0.10855976492166519
1726941005633336000,2.188336181640625,-0.06771007180213928,0.40537840127944946,-0.14141571521759033
1726941005643322000,2.198322021484375,-0.04204705357551575,0.4363786578178406,-0.14324131608009338
1726941005653308200,2.20830810546875,0.010937335900962353,0.47265276312828064,-0.10171490907669067
1726941005663294000,2.2182939453125,0.0709301009774208,0.5642953515052795,-0.04272828996181488
1726941005673280000,2.228280029296875,0.10807081311941147,0.6489462852478027,-0.016566192731261253
1726941005683266000,2.23826611328125,0.12153495103120804,0.6883517503738403,-0.019098592922091484
1726941005693252000,2.248252197265625,0.12232564389705658,0.7090991139411926,-0.03338911384344101
1726941005703238000,2.25823779296875,0.12196105718612671,0.673876941204071,-0.06670073419809341
1726941005713224200,2.26822412109375,0.1198212057352066,0.57771897315979,-0.07312773913145065
1726941005723210000,2.2782099609375,0.133070707321167,0.42331239581108093,-0.03212811052799225
1726941005733196000,2.288196044921875,0.16637273132801056,0.2828623354434967,0.013815147802233696
1726941005743182000,2.29818212890625,0.20400187373161316,0.17592895030975342,0.04212028905749321
1726941005753168100,2.308168212890625,0.21277591586112976,0.1535874307155609,0.037224866449832916
1726941005763154000,2.31815380859375,0.21678157150745392,0.19547602534294128,0.02201981469988823
1726941005773140200,2.32814013671875,0.1726498007774353,0.28973114490509033,0.005789978429675102
1726941005783126000,2.3381259765625,0.11602114140987396,0.4376694858074188,-0.012799684889614582
1726941005793112000,2.348112060546875,0.055819857865571976,0.6193007826805115,-0.04008163884282112
1726941005803098000,2.35809814453125,-0.014185327105224133,0.7773402333259583,-0.060925669968128204
1726941005813084200,2.368084228515625,-0.06654227524995804,0.8592973947525024,-0.0633840337395668
1726941005823070000,2.378070068359375,-0.0890960544347763,0.9164086580276489,-0.06478192657232285
1726941005833056300,2.38805615234375,-0.09075067192316055,0.9616594910621643,-0.06488392502069473
1726941005843042000,2.3980419921875,-0.07007362693548203,1.0480995178222656,-0.03765363618731499
1726941005853028000,2.408028076171875,-0.020000873133540154,1.1514304876327515,-0.02448403835296631
1726941005863014100,2.41801416015625,0.03293078392744064,1.2628533840179443,0.007288272958248854
1726941005873000200,2.428000244140625,0.053530070930719376,1.3675720691680908,0.03971359133720398
1726941005882986000,2.437986083984375,0.06202688440680504,1.479645848274231,0.08232549577951431
1726941005892972300,2.44797216796875,0.07368380576372147,1.5992146730422974,0.15007391571998596
1726941005902958000,2.4579580078125,0.09946427494287491,1.7175849676132202,0.22425466775894165
1726941005912944000,2.467944091796875,0.1693038046360016,1.8130995035171509,0.28620645403862
1726941005922930000,2.477929931640625,0.23750123381614685,1.804730772972107,0.3088505268096924
1726941005932916200,2.487916259765625,0.2778981924057007,1.7274376153945923,0.3300367593765259
1726941005942902000,2.497902099609375,0.28471508622169495,1.6569828987121582,0.39674174785614014
1726941005952888000,2.50788818359375,0.24606649577617645,1.6011238098144531,0.4766395092010498
1726941005962874000,2.5178740234375,0.175043985247612,1.5911418199539185,0.5340151786804199
1726941005972860200,2.527860107421875,0.09689272195100784,1.6049326658248901,0.5732331871986389
1726941005982846000,2.537845947265625,0.05158782750368118,1.6497998237609863,0.5801262259483337
1726941005992832300,2.547832275390625,0.031687356531620026,1.7210257053375244,0.5454974174499512
1726941006002818000,2.557818115234375,0.031201329082250595,1.8405354022979736,0.5050383806228638
1726941006012804000,2.56780419921875,0.044015925377607346,2.0206210613250732,0.45660215616226196
1726941006022790100,2.5777900390625,0.05477190390229225,2.19181752204895,0.4105161726474762
1726941006032776200,2.587776123046875,0.04408863186836243,2.3443257808685303,0.36932849884033203
1726941006042762800,2.5977626953125,0.028599686920642853,2.494898557662964,0.33175209164619446
1726941006052748800,2.607748779296875,0.03952157497406006,2.6103501319885254,0.32758185267448425
1726941006062734800,2.61773486328125,0.13216309249401093,2.622318983078003,0.3189966380596161
1726941006072720600,2.627720703125,0.2595785856246948,2.5496292114257812,0.23122470080852509
1726941006082707000,2.63770703125,0.4187653064727783,2.284587860107422,0.12109020352363586
1726941006092692700,2.647692626953125,0.5274965763092041,1.8237433433532715,0.04061080887913704
1726941006102678800,2.6576787109375,0.5390715003013611,1.3299133777618408,-0.013975470326840878
1726941006112664000,2.6676640625,0.48425722122192383,0.6933449506759644,-0.02389334887266159
1726941006122651000,2.67765087890625,0.3582044839859009,0.2716141939163208,-0.06641577184200287
1726941006132636000,2.687635986328125,0.18997099995613098,0.10394290834665298,-0.0889865979552269
1726941006142623000,2.697623046875,0.0802234634757042,0.04075488820672035,-0.15168672800064087
1726941006152608000,2.70760791015625,0.021258683875203133,0.049319081008434296,-0.25485917925834656
1726941006162593800,2.71759375,0.007787082809954882,0.2516213059425354,-0.39589619636535645
1726941006172579800,2.727579833984375,-0.03726055100560188,0.734103262424469,-0.5313767790794373
1726941006182566000,2.73756591796875,-0.11872079223394394,1.2335666418075562,-0.6770767569541931
1726941006192552000,2.747552001953125,-0.34975960850715637,1.68912672996521,-0.650416910648346
1726941006202537700,2.757537841796875,-0.6289366483688354,1.949445128440857,-0.5559383630752563
1726941006212524000,2.76752392578125,-0.8897482752799988,1.9798719882965088,-0.50986248254776
1726941006222509800,2.777509765625,-1.0281487703323364,1.7266511917114258,-0.47459420561790466
1726941006232495900,2.787495849609375,-1.0796574354171753,1.4302279949188232,-0.44267168641090393
1726941006242482000,2.79748193359375,-1.051267385482788,1.1457818746566772,-0.4298568367958069
1726941006252468000,2.807468017578125,-0.9346187710762024,0.8428649306297302,-0.47354358434677124
1726941006262453800,2.817453857421875,-0.7935724854469299,0.6410364508628845,-0.5866703987121582
1726941006272440000,2.827440185546875,-0.6966339349746704,0.45256853103637695,-0.6714327335357666
1726941006282425900,2.83742578125,-0.6808789372444153,0.2849121689796448,-0.6511434316635132
1726941006292412000,2.847411865234375,-0.6721437573432922,0.23391076922416687,-0.6104574799537659
1726941006302398000,2.85739794921875,-0.6505966782569885,0.3129139542579651,-0.5919637084007263
1726941006312384000,2.867384033203125,-0.5484676361083984,0.48098793625831604,-0.6396372318267822
1726941006322369800,2.877369873046875,-0.36812689900398254,0.8241381049156189,-0.8071377873420715
1726941006332356000,2.887356201171875,-0.15121082961559296,1.181566834449768,-1.0339752435684204
1726941006342342000,2.897341796875,0.2517547309398651,1.7684448957443237,-1.3761203289031982
1726941006352328000,2.907327880859375,1.0414296388626099,3.2204768657684326,-2.13114595413208
1726941006362313700,2.917313720703125,1.7072808742523193,5.033749580383301,-3.176879405975342
1726941006372300000,2.927300048828125,1.6558467149734497,5.370488166809082,-3.7847893238067627
1726941006382285800,2.937285888671875,1.1827436685562134,4.977838039398193,-3.8446102142333984
1726941006392272000,2.94727197265625,0.5784897208213806,3.9906816482543945,-3.464831829071045
1726941006402258000,2.9572578125,0.0874563455581665,2.7187299728393555,-3.033855438232422
1726941006412244000,2.967243896484375,-0.13161155581474304,1.7720005512237549,-2.91283917427063
1726941006422229800,2.977229736328125,-0.1715720146894455,1.141087532043457,-2.961045742034912
1726941006432215800,2.9872158203125,-0.11927419900894165,0.7282730937004089,-3.0555248260498047
1726941006442201900,2.997201904296875,-0.0945451483130455,0.2873348295688629,-3.063303232192993
1726941006452188000,3.00718798828125,-0.10275433957576752,-0.4060356616973877,-2.890759229660034
1726941006462174000,3.017174072265625,-0.19278676807880402,-1.0334324836730957,-2.647702217102051
1726941006472159700,3.02715966796875,-0.2916124165058136,-1.4609135389328003,-2.4026997089385986
1726941006482145800,3.037145751953125,-0.3651236295700073,-1.8066935539245605,-2.255183696746826
1726941006492131800,3.0471318359375,-0.5020835995674133,-2.4264121055603027,-2.0973336696624756
1726941006502118000,3.057117919921875,-0.6335912942886353,-3.0721254348754883,-1.8071763515472412
1726941006512103700,3.067103759765625,-0.7171986103057861,-3.4911627769470215,-1.274895191192627
1726941006522090000,3.077090087890625,-0.6857261657714844,-3.6782612800598145,-0.5182844400405884
1726941006532075800,3.08707568359375,-0.5371667742729187,-3.4077303409576416,0.20375099778175354
1726941006542061800,3.097061767578125,-0.3578849136829376,-2.8296256065368652,0.729763388633728
1726941006552047900,3.1070478515625,-0.15160363912582397,-2.015197992324829,1.0067288875579834
1726941006562034000,3.117033935546875,-0.012207131832838058,-1.0381462574005127,1.087424874305725
1726941006572019700,3.127019775390625,0.006901049055159092,-0.3146010935306549,1.0221097469329834
1726941006582006000,3.137006103515625,-0.004208060912787914,0.10413385927677155,0.8053497672080994
1726941006591991800,3.14699169921875,-0.04493445158004761,0.5974154472351074,0.5380171537399292
1726941006601977900,3.156977783203125,-0.08539692312479019,1.0269519090652466,0.271113783121109
1726941006611963600,3.166963623046875,-0.18443961441516876,1.4017796516418457,0.11447464674711227
1726941006621950000,3.176949951171875,-0.26779550313949585,1.8437412977218628,0.11234385520219803
1726941006631935700,3.186935791015625,-0.3584281802177429,2.3268790245056152,0.22819988429546356
1726941006641920800,3.196920654296875,-0.3953867554664612,2.6752238273620605,0.38638046383857727
1726941006651907000,3.206906982421875,-0.3685295581817627,2.489816188812256,0.5999747514724731
1726941006661892900,3.216892822265625,-0.22294972836971283,2.3514859676361084,0.7552221417427063
1726941006671879000,3.22687890625,-0.08903799951076508,2.1072041988372803,0.806355893611908
1726941006681865000,3.236864990234375,0.039448339492082596,1.9465504884719849,0.8185246586799622
1726941006691851000,3.24685107421875,0.14112995564937592,1.9378670454025269,0.8179060220718384
1726941006701836800,3.2568369140625,0.006771353539079428,1.6384449005126953,0.41988223791122437
1726941006711822800,3.26682275390625,-0.22545629739761353,0.9839927554130554,-0.3573472201824188
1726941006721809000,3.276808837890625,-0.3873072564601898,0.4020768702030182,-0.948757529258728
1726941006731795000,3.286794921875,-0.37995851039886475,0.08995679020881653,-1.1487529277801514
1726941006741780700,3.29678076171875,-0.2892203629016876,-0.1848425567150116,-1.18538236618042
1726941006751767000,3.30676708984375,-0.26313310861587524,-0.5622345805168152,-1.1463606357574463
1726941006761752800,3.3167529296875,-0.22287915647029877,-0.7262080907821655,-0.9208928942680359
1726941006771739000,3.32673876953125,-0.1069759875535965,-0.7119726538658142,-0.4053594768047333
1726941006781725000,3.336724853515625,0.1088295429944992,-0.5080123543739319,0.09304738789796829
1726941006791711000,3.3467109375,0.2001781016588211,-0.14847229421138763,0.41247865557670593
1726941006801696800,3.35669677734375,0.1707291305065155,0.1451673060655594,0.6511945724487305
1726941006811682800,3.366682861328125,0.09219277650117874,0.2737274169921875,0.9010776281356812
1726941006821668900,3.3766689453125,0.041133854538202286,0.36981481313705444,1.147377371788025
1726941006831655000,3.386655029296875,0.03929360955953598,0.48413047194480896,1.2931783199310303
1726941006841641000,3.396640869140625,0.08012758940458298,0.6852454543113708,1.3507789373397827
1726941006851626800,3.406626708984375,0.1972946971654892,0.9444503784179688,1.2727545499801636
1726941006861612800,3.41661279296875,0.3186195194721222,1.000756859779358,1.087085247039795
1726941006871598800,3.426598876953125,0.36636415123939514,0.9267534017562866,0.9013740420341492
1726941006881585000,3.4365849609375,0.3517071604728699,0.7514292597770691,0.6361748576164246
1726941006891570700,3.44657080078125,0.3096230924129486,0.6411363482475281,0.3361649513244629
1726941006901557000,3.456556884765625,0.22515429556369781,0.6852694153785706,0.1396401822566986
1726941006911542800,3.466542724609375,0.10162942111492157,0.7309969663619995,0.20389187335968018
1726941006921528800,3.47652880859375,-0.0703793540596962,0.4848378002643585,0.1662832498550415
1726941006931515000,3.486514892578125,-0.20152992010116577,0.28643494844436646,0.1278913915157318
1726941006941501000,3.4965009765625,-0.2521052062511444,0.3671433925628662,0.21317538619041443
1726941006951486700,3.50648681640625,-0.23178236186504364,0.5045238733291626,0.40493443608283997
1726941006961472800,3.51647265625,-0.2836706042289734,0.35552799701690674,0.5017366409301758
1726941006971458800,3.526458740234375,-0.32041501998901367,0.24506540596485138,0.5488543510437012
1726941006981444900,3.53644482421875,-0.3343904912471771,0.20994044840335846,0.524739146232605
1726941006991430700,3.5464306640625,-0.33140215277671814,0.16941672563552856,0.4347149729728699
1726941007001417000,3.5564169921875,-0.32064804434776306,0.019455723464488983,0.34415337443351746
1726941007011402800,3.56640283203125,-0.32277750968933105,-0.09443861991167068,0.35137614607810974
1726941007021388800,3.576388916015625,-0.33066099882125854,-0.12675102055072784,0.4210361838340759
1726941007031374800,3.586374755859375,-0.3282407224178314,-0.14233370125293732,0.5047473311424255
1726941007041360000,3.59635986328125,-0.28204232454299927,-0.15406572818756104,0.6141536831855774
1726941007051346000,3.606345947265625,-0.2077942043542862,-0.14040051400661469,0.7623799443244934
1726941007061332000,3.61633203125,-0.14882703125476837,-0.11719319969415665,0.9153420329093933
1726941007071318000,3.626318115234375,-0.12287558615207672,-0.15786392986774445,0.968795120716095
1726941007081303800,3.6363037109375,-0.05903322622179985,-0.17446741461753845,0.9361066818237305
1726941007091290000,3.6462900390625,0.055877380073070526,-0.20711269974708557,0.9269171953201294
1726941007101276000,3.65627587890625,0.11400220543146133,-0.317699134349823,0.8868499398231506
1726941007111262000,3.666261962890625,0.14472202956676483,-0.37314534187316895,0.8034077882766724
1726941007121246700,3.676246826171875,0.20286762714385986,-0.2685134708881378,0.7559374570846558
1726941007131233000,3.68623291015625,0.2467418760061264,-0.10344383120536804,0.7289905548095703
1726941007141218800,3.69621875,0.2776294946670532,0.06558965891599655,0.7425409555435181
1726941007151204900,3.706204833984375,0.3143877685070038,0.1558590978384018,0.8040682673454285
1726941007161191000,3.71619091796875,0.3263387084007263,0.13060887157917023,0.8264979124069214
1726941007171177000,3.726177001953125,0.32854992151260376,0.06582295894622803,0.7989826798439026
1726941007181162800,3.736162841796875,0.35204166173934937,0.04795926809310913,0.763466477394104
1726941007191149000,3.746149169921875,0.36498862504959106,-0.039314914494752884,0.6630530953407288
1726941007201134800,3.756134765625,0.35675865411758423,-0.2632865011692047,0.4764624238014221
1726941007211121000,3.766120849609375,0.3526105284690857,-0.45137810707092285,0.2920944392681122
1726941007221107000,3.77610693359375,0.37159299850463867,-0.45098236203193665,0.18742635846138
1726941007231093000,3.786093017578125,0.3997623026371002,-0.370481938123703,0.1896498203277588
1726941007241078800,3.796078857421875,0.4286898374557495,-0.42260104417800903,0.24995097517967224
1726941007251065000,3.806065185546875,0.4272884726524353,-0.524446964263916,0.3311459720134735
1726941007261051000,3.81605078125,0.4183703660964966,-0.6224246621131897,0.4137178063392639
1726941007271037000,3.826036865234375,0.3903033137321472,-0.6810557842254639,0.4507139027118683
1726941007281023000,3.83602294921875,0.37829723954200745,-0.7577928900718689,0.430519700050354
1726941007291009000,3.846009033203125,0.3794786036014557,-0.8144439458847046,0.39133527874946594
1726941007300994800,3.855994873046875,0.36973410844802856,-0.8126772046089172,0.3486219048500061
1726941007310980900,3.86598095703125,0.3557218909263611,-0.7951895594596863,0.3160085678100586
1726941007320967000,3.875966796875,0.32841676473617554,-0.7595599293708801,0.3139808177947998
1726941007330953000,3.885952880859375,0.2842943072319031,-0.7231124043464661,0.2903801500797272
1726941007340938800,3.895938720703125,0.24009542167186737,-0.7043078541755676,0.21227870881557465
1726941007350925000,3.905925048828125,0.2151397317647934,-0.6496134400367737,0.13064908981323242
1726941007360910800,3.915910888671875,0.20966987311840057,-0.5697468519210815,0.10243555903434753
1726941007370897000,3.92589697265625,0.21386462450027466,-0.5392293930053711,0.08521263301372528
1726941007380883000,3.935883056640625,0.19723983108997345,-0.4471524655818939,0.1465473622083664
1726941007390869000,3.945868896484375,0.17628341913223267,-0.268344908952713,0.30675941705703735
1726941007400854800,3.955854736328125,0.13437111675739288,-0.058691807091236115,0.5130252242088318
1726941007410841000,3.965841064453125,0.016580574214458466,0.12282951921224594,0.7261726260185242
1726941007420827000,3.975826904296875,-0.2015184760093689,0.3122639060020447,0.9659175872802734
1726941007430813000,3.98581298828125,-0.44368690252304077,0.45270222425460815,1.1523215770721436
1726941007440799000,3.995799072265625,-0.5699747800827026,0.450991690158844,1.2441004514694214
1726941007450785000,4.005784912109375,-0.5605179071426392,0.40782955288887024,1.3079580068588257
1726941007460770800,4.015770751953125,-0.46593761444091797,0.3994201123714447,1.3223481178283691
1726941007470757000,4.025757080078125,-0.3758183717727661,0.4221096932888031,1.2747087478637695
1726941007480743000,4.035742919921875,-0.311233788728714,0.405261754989624,1.0731319189071655
1726941007490729000,4.04572900390625,-0.2817770838737488,0.31326285004615784,0.7289836406707764
1726941007500715000,4.055715087890625,-0.2852224111557007,0.26285451650619507,0.3460109233856201
1726941007510701000,4.065701171875,-0.296178936958313,0.1960238367319107,0.01161670871078968
1726941007520686800,4.075686767578125,-0.26510462164878845,0.023435818031430244,-0.18243105709552765
1726941007530673000,4.0856728515625,-0.2101162225008011,-0.16558843851089478,-0.2663874924182892
1726941007540659000,4.095658935546875,-0.09705384820699692,-0.28989386558532715,-0.2516884207725525
1726941007550645000,4.10564501953125,0.08063385635614395,-0.3538787066936493,-0.1658579409122467
1726941007560630800,4.115630859375,0.2727060914039612,-0.3426324427127838,0.008374842815101147
1726941007570617000,4.1256171875,0.4740906059741974,-0.3254944682121277,0.18119482696056366
1726941007580603000,4.135602783203125,0.6346307396888733,-0.294308602809906,0.2950420379638672
1726941007590589000,4.1455888671875,0.717663586139679,-0.21770702302455902,0.3212113082408905
1726941007600575000,4.155574951171875,0.7171735763549805,-0.1767129898071289,0.26940351724624634
1726941007610560800,4.165560791015625,0.6275355815887451,-0.1658795177936554,0.20073923468589783
1726941007620546800,4.175546875,0.47792211174964905,-0.14969122409820557,0.19392606616020203
1726941007630532900,4.185532958984375,0.3301965594291687,-0.1418636590242386,0.14828693866729736
1726941007640519000,4.195518798828125,0.23430916666984558,-0.1278325319290161,0.1361495852470398
1726941007650504700,4.205504638671875,0.2283780425786972,-0.15469449758529663,0.11986568570137024
1726941007660491000,4.215490966796875,0.3035108745098114,-0.19217902421951294,0.11679532378911972
1726941007670476800,4.225476806640625,0.3962748944759369,-0.26508358120918274,0.08441581577062607
1726941007680462800,4.235462890625,0.45039433240890503,-0.36749863624572754,0.02714666537940502
1726941007690449000,4.245448974609375,0.40665802359580994,-0.3488820791244507,0.03117842599749565
1726941007700435000,4.25543505859375,0.25825393199920654,-0.29181453585624695,0.015538745559751987
1726941007710420700,4.265420654296875,0.05107836425304413,-0.2701585292816162,-0.0009606021922081709
1726941007720407000,4.275406982421875,-0.17437419295310974,-0.26389768719673157,-0.035168904811143875
1726941007730392800,4.285392822265625,-0.3799510598182678,-0.23446284234523773,-0.09445752948522568
1726941007740379000,4.29537890625,-0.5268033742904663,-0.18897604942321777,-0.14509913325309753
1726941007750365000,4.305364990234375,-0.5913418531417847,-0.15907886624336243,-0.18325850367546082
1726941007760351000,4.31535107421875,-0.6073602437973022,-0.05339078605175018,-0.21742552518844604
1726941007770336800,4.325336669921875,-0.5824727416038513,0.07997632771730423,-0.26886847615242004
1726941007780322800,4.33532275390625,-0.5253031849861145,0.18829533457756042,-0.30236464738845825
1726941007790308900,4.345308837890625,-0.4451769292354584,0.2841353118419647,-0.3039902448654175
1726941007800294000,4.3552939453125,-0.3507854640483856,0.3490740954875946,-0.28140878677368164
1726941007810280000,4.365280029296875,-0.25720542669296265,0.35343024134635925,-0.2179453819990158
1726941007820266000,4.375265869140625,-0.1604655683040619,0.29178550839424133,-0.1779838502407074
1726941007830252000,4.385251953125,-0.040895503014326096,0.2385055124759674,-0.1807524710893631
1726941007840237800,4.39523779296875,0.07662633806467056,0.207510307431221,-0.1845243126153946
1726941007850224000,4.40522412109375,0.17006121575832367,0.17876921594142914,-0.2039898782968521
1726941007860210000,4.4152099609375,0.20914416015148163,0.1739848405122757,-0.25790318846702576
1726941007870196000,4.425196044921875,0.20039302110671997,0.2163109928369522,-0.275966078042984
1726941007880181800,4.435181640625,0.1736929565668106,0.2816007733345032,-0.2426224946975708
1726941007890168000,4.44516796875,0.17140823602676392,0.35122939944267273,-0.19959940016269684
1726941007900153900,4.45515380859375,0.18866366147994995,0.42233261466026306,-0.16924335062503815
1726941007910140000,4.465139892578125,0.1845826357603073,0.41273537278175354,-0.11046285927295685
1726941007920126000,4.4751259765625,0.1279531717300415,0.31436485052108765,-0.08775302022695541
1726941007930112000,4.485112060546875,0.07056418061256409,0.28566476702690125,-0.15753769874572754
1726941007940097800,4.495097900390625,0.026944532990455627,0.29001158475875854,-0.2505664527416229
1726941007950084000,4.505083984375,-0.01757925935089588,0.35763856768608093,-0.32055965065956116
1726941007960070000,4.51506982421875,-0.05747261270880699,0.3959777057170868,-0.3754417896270752
1726941007970056000,4.525055908203125,-0.10103314369916916,0.4435180425643921,-0.44060349464416504
1726941007980042000,4.5350419921875,-0.13703668117523193,0.4927726686000824,-0.5057142972946167
1726941007990028000,4.545028076171875,-0.2035062462091446,0.5861625671386719,-0.5461437702178955
1726941008000013800,4.555013916015625,-0.2844405174255371,0.6983487606048584,-0.5848743915557861
1726941008010000000,4.564999755859375,-0.36693617701530457,0.9219543933868408,-0.6353460550308228
1726941008019986000,4.57498583984375,-0.44723448157310486,1.0834405422210693,-0.6941415071487427
1726941008029971700,4.5849716796875,-0.4561145305633545,1.086977481842041,-0.7244402766227722
1726941008039959000,4.594958984375,-0.418008416891098,1.017816185951233,-0.6743409037590027
1726941008049944800,4.60494482421875,-0.3497934341430664,0.891754150390625,-0.5999470949172974
1726941008059931100,4.61493115234375,-0.30934372544288635,0.6805353760719299,-0.5560592412948608
1726941008069917000,4.6249169921875,-0.3113621473312378,0.5119426250457764,-0.5540216565132141
1726941008079903000,4.634903076171875,-0.28701233863830566,0.46576663851737976,-0.6053119897842407
1726941008089889000,4.644888916015625,-0.23368039727210999,0.4937910735607147,-0.7050066590309143
1726941008099875000,4.654875,-0.20619603991508484,0.5848256349563599,-0.8530198335647583
1726941008109860900,4.66486083984375,-0.2114589810371399,0.6299459934234619,-1.004721760749817
1726941008119847200,4.67484716796875,-0.19788245856761932,0.6470370888710022,-1.0898590087890625
1726941008129833000,4.6848330078125,-0.2020505666732788,0.5345150828361511,-1.0970535278320312
1726941008139819000,4.694819091796875,-0.23814278841018677,0.35346487164497375,-1.0382541418075562
1726941008149805000,4.70480517578125,-0.2692253589630127,0.19281046092510223,-0.97625732421875
1726941008159791000,4.714791015625,-0.26316213607788086,0.14169588685035706,-0.9448583722114563
1726941008169777000,4.72477685546875,-0.21487528085708618,0.18548144400119781,-0.9172629714012146
1726941008179763200,4.73476318359375,-0.12809325754642487,0.20280636847019196,-0.8808757066726685
1726941008189749000,4.7447490234375,-0.002810966456308961,0.23440824449062347,-0.8758750557899475
1726941008199735000,4.754735107421875,0.136360764503479,0.2696669101715088,-0.9252601861953735
1726941008209721000,4.76472119140625,0.23196105659008026,0.16880765557289124,-0.9537285566329956
1726941008219707100,4.77470703125,0.2087598741054535,-0.002281263703480363,-0.969307541847229
1726941008229693000,4.78469287109375,0.09802722930908203,-0.2208564728498459,-0.9270069599151611
1726941008239679000,4.794678955078125,-0.011536813341081142,-0.29573312401771545,-0.8478626012802124
1726941008249665000,4.8046650390625,-0.07098762691020966,-0.39855536818504333,-0.756139874458313
1726941008259651000,4.814651123046875,-0.11556387692689896,-0.5277456045150757,-0.6724239587783813
1726941008269637000,4.82463720703125,-0.15138553082942963,-0.5772731900215149,-0.6093355417251587
1726941008279623000,4.834622802734375,-0.18043822050094604,-0.5655014514923096,-0.5481027960777283
1726941008289609000,4.84460888671875,-0.1800009310245514,-0.5805310010910034,-0.4433731734752655
1726941008299594800,4.8545947265625,-0.1446586549282074,-0.6646230220794678,-0.29491686820983887
1726941008309581000,4.8645810546875,-0.08730827271938324,-0.7753404378890991,-0.06818757951259613
1726941008319566800,4.87456689453125,-0.015608254820108414,-0.7742125988006592,0.18792062997817993
1726941008329553000,4.884552978515625,0.04950683191418648,-0.6558780074119568,0.3429006338119507
1726941008339539000,4.8945390625,0.1513679474592209,-0.4736274778842926,0.36510711908340454
1726941008349525000,4.90452490234375,0.2499895989894867,-0.34284257888793945,0.2638063430786133
1726941008359510800,4.9145107421875,0.3246915340423584,-0.07378420978784561,0.09992313385009766
1726941008369497000,4.9244970703125,0.3116692006587982,0.2993323802947998,-0.03129134327173233
1726941008379483000,4.93448291015625,0.17262236773967743,0.49733734130859375,-0.1347932368516922
1726941008389469000,4.944468994140625,-0.012513927184045315,0.4584035277366638,-0.15985198318958282
1726941008399455000,4.954455078125,-0.12045690417289734,0.35234659910202026,-0.015793344005942345
1726941008409441000,4.96444091796875,-0.08035769313573837,0.3258225619792938,0.21593496203422546
1726941008419426800,4.9744267578125,0.02712962217628956,0.3975284695625305,0.4158121347427368
1726941008429413000,4.9844130859375,0.07401271164417267,0.5135301351547241,0.5135560035705566
1726941008439399000,4.99439892578125,0.102297343313694,0.7384144067764282,0.5229004621505737
1726941008449385000,5.004385009765625,0.11746404320001602,0.949359655380249,0.5193382501602173
1726941008459371000,5.01437109375,0.15288488566875458,0.984029233455658,0.5177384614944458
1726941008469357000,5.024357177734375,0.18971213698387146,0.9159740209579468,0.5558747053146362
1726941008479342800,5.0343427734375,0.20463356375694275,0.8343856930732727,0.6358648538589478
1726941008489329200,5.0443291015625,0.21544361114501953,0.7533470392227173,0.7123905420303345
1726941008499315000,5.05431494140625,0.20343327522277832,0.655052125453949,0.7696623206138611
1726941008509301000,5.064301025390625,0.13818849623203278,0.5550581812858582,0.8229508399963379
1726941008519287000,5.074287109375,0.025005217641592026,0.45114028453826904,0.8694906830787659
1726941008529273000,5.084273193359375,-0.05290822312235832,0.3129049241542816,0.8935089111328125
1726941008539259000,5.0942587890625,-0.036868803203105927,0.26636645197868347,0.8372581601142883
1726941008549245000,5.104244873046875,0.027963457629084587,0.18018601834774017,0.814497172832489
1726941008559231000,5.11423095703125,0.10616052150726318,0.0933922678232193,0.8548867106437683
1726941008569217000,5.124217041015625,0.16867396235466003,-0.0819300189614296,0.9102628827095032
1726941008579202800,5.134202880859375,0.16588804125785828,-0.27913764119148254,0.9384588003158569
1726941008589189000,5.144189208984375,0.12940140068531036,-0.4620664417743683,0.8957433104515076
1726941008599175000,5.1541748046875,0.10451069474220276,-0.6220976710319519,0.8244653940200806
1726941008609161000,5.164160888671875,0.07075139880180359,-0.719224214553833,0.7667038440704346
1726941008619147000,5.17414697265625,0.05194469168782234,-0.729173481464386,0.7319279909133911
1726941008629133000,5.184133056640625,0.0421953909099102,-0.704133152961731,0.7022444009780884
1726941008639118800,5.194118896484375,-0.004404069390147924,-0.711010754108429,0.6580343246459961
1726941008649105200,5.204105224609375,-0.11105754226446152,-0.7559528946876526,0.5598803758621216
1726941008659091000,5.214091064453125,-0.23653344810009003,-0.6747507452964783,0.43458500504493713
1726941008669077000,5.224076904296875,-0.3961777091026306,-0.4648502469062805,0.31151872873306274
1726941008679063000,5.23406298828125,-0.5105285048484802,-0.21161317825317383,0.21328751742839813
1726941008689048000,5.244048095703125,-0.5840930342674255,-0.04771239310503006,0.16462942957878113
1726941008699033900,5.254033935546875,-0.6358518004417419,0.014196246862411499,0.12551584839820862
1726941008709020000,5.26402001953125,-0.6775990128517151,-0.005846437532454729,0.08300327509641647
1726941008719006000,5.274005859375,-0.7091100215911865,-0.041608694940805435,0.06768637150526047
1726941008728992000,5.283991943359375,-0.7316297292709351,-0.053163353353738785,0.08664488047361374
1726941008738977800,5.293977783203125,-0.7452499270439148,-0.003937483765184879,0.11639372259378433
1726941008748964000,5.303964111328125,-0.712346613407135,0.09473183751106262,0.1295851618051529
1726941008758950000,5.313949951171875,-0.6770293116569519,0.11467625200748444,0.12245720624923706
1726941008768936000,5.32393603515625,-0.6877853274345398,0.0838773250579834,0.16225069761276245
1726941008778922000,5.333921875,-0.7199648022651672,-0.08020561933517456,0.2523078918457031
1726941008788908000,5.343907958984375,-0.7706463932991028,-0.38530853390693665,0.33484429121017456
1726941008798893800,5.353893798828125,-0.8641206622123718,-0.6496533751487732,0.23350170254707336
1726941008808880000,5.363880126953125,-0.936515748500824,-0.546859085559845,-0.11547040194272995
1726941008818866000,5.373865966796875,-0.8408129215240479,-0.14378540217876434,-0.312055379152298
1726941008828852000,5.38385205078125,-0.584812581539154,0.051055461168289185,-0.277087539434433
1726941008838838000,5.393838134765625,-0.33653753995895386,0.023610254749655724,-0.156738743185997
1726941008848824000,5.403823974609375,-0.19700361788272858,-0.07510007917881012,-0.04083877429366112
1726941008858809900,5.413809814453125,-0.14721128344535828,-0.14483840763568878,0.023027021437883377
1726941008868796000,5.4237958984375,-0.13342782855033875,-0.16035212576389313,0.04773210361599922
1726941008878782000,5.433781982421875,-0.12878674268722534,-0.17147880792617798,0.01678297482430935
1726941008888768000,5.44376806640625,-0.13893738389015198,-0.2276022732257843,-0.03075418435037136
1726941008898753800,5.45375390625,-0.17604027688503265,-0.2884238064289093,-0.01329663023352623
1726941008908740000,5.463739990234375,-0.27814188599586487,-0.2505944073200226,0.038063760846853256
1726941008918726000,5.473725830078125,-0.3867461085319519,-0.1318909227848053,0.07069361209869385
1726941008928712000,5.4837119140625,-0.42666131258010864,-0.02971954643726349,0.06756333261728287
1726941008938698000,5.493697998046875,-0.4505906105041504,0.01858620159327984,0.02738901413977146
1726941008948684000,5.50368408203125,-0.5086616277694702,0.029515014961361885,-0.061337660998106
1726941008958669800,5.513669921875,-0.5576512813568115,0.01056129764765501,-0.12357786297798157
1726941008968656100,5.52365625,-0.5776596069335938,0.09274432063102722,-0.07652992755174637
1726941008978642000,5.533641845703125,-0.5941262245178223,0.16255882382392883,-0.01884053274989128
1726941008988628000,5.5436279296875,-0.5721311569213867,0.18532058596611023,0.011030280962586403
1726941008998614000,5.553614013671875,-0.519878625869751,0.18175728619098663,-0.01835557073354721
1726941009008600000,5.56360009765625,-0.4573449194431305,0.1533922255039215,-0.10083899646997452
1726941009018585900,5.5735859375,-0.39896097779273987,0.08525151759386063,-0.20834414660930634
1726941009028572200,5.583572265625,-0.3356882631778717,0.09992819279432297,-0.2445354461669922
1726941009038558000,5.593557861328125,-0.23368892073631287,0.043713126331567764,-0.2168835699558258
1726941009048544000,5.6035439453125,-0.15269207954406738,-0.005832589231431484,-0.17552681267261505
1726941009058529800,5.61352978515625,-0.125449538230896,0.018930016085505486,-0.13494636118412018
1726941009068516000,5.62351611328125,-0.09298613667488098,0.05565740168094635,-0.12880218029022217
1726941009078502000,5.633501953125,-0.032466862350702286,0.04898139089345932,-0.20273393392562866
1726941009088488000,5.643488037109375,0.054776694625616074,0.01840510591864586,-0.3167955279350281
1726941009098474000,5.653473876953125,0.15469449758529663,0.0054488275200128555,-0.39338165521621704
1726941009108460000,5.6634599609375,0.24366964399814606,-0.02582014538347721,-0.4179586172103882
1726941009118445800,5.67344580078125,0.28610339760780334,-0.1259523332118988,-0.4021136164665222
1726941009128431900,5.683431884765625,0.2698621153831482,-0.2171514928340912,-0.3603177070617676
1726941009138418000,5.69341796875,0.19081096351146698,-0.30105116963386536,-0.31286948919296265
1726941009148404000,5.703404052734375,0.07451178133487701,-0.3238121569156647,-0.25124606490135193
1726941009158389800,5.7133896484375,-0.010388725437223911,-0.23052695393562317,-0.14479659497737885
1726941009168376000,5.7233759765625,-0.033782731741666794,-0.07334212213754654,-0.07391870021820068
1726941009178361900,5.73336181640625,0.0038743666373193264,0.1460765153169632,-0.06276910752058029
1726941009188348000,5.743347900390625,0.03705042973160744,0.3173513412475586,-0.1088162288069725
1726941009198334000,5.753333984375,0.01629534922540188,0.35829848051071167,-0.1676151007413864
1726941009208320000,5.763320068359375,-0.0630122572183609,0.3095996677875519,-0.1811804473400116
1726941009218305800,5.773305908203125,-0.1674092411994934,0.345236212015152,-0.21915018558502197
1726941009228292000,5.7832919921875,-0.26077887415885925,0.5185075998306274,-0.3235519528388977
1726941009238278000,5.79327783203125,-0.3004192113876343,0.6763550043106079,-0.41765210032463074
1726941009248264000,5.803263916015625,-0.291099488735199,0.8829705119132996,-0.4781971871852875
1726941009258250000,5.81325,-0.26737284660339355,1.0376828908920288,-0.5457578897476196
1726941009268236000,5.823236083984375,-0.24522040784358978,1.1393191814422607,-0.6383551955223083
1726941009278221800,5.833221923828125,-0.2571742832660675,1.116796851158142,-0.695401668548584
1726941009288208100,5.8432080078125,-0.298906534910202,0.9962853789329529,-0.698383629322052
1726941009298194000,5.85319384765625,-0.30605101585388184,0.9302605390548706,-0.7240644693374634
1726941009308180000,5.863179931640625,-0.2669374346733093,0.9812145233154297,-0.8046810626983643
1726941009318166000,5.873166015625,-0.17467646300792694,1.1307393312454224,-0.9318584203720093
1726941009328152000,5.883152099609375,-0.08283629268407822,1.2422751188278198,-1.0191177129745483
1726941009338137900,5.893137939453125,-0.0518549419939518,1.2588906288146973,-0.9513426423072815
1726941009348124000,5.9031240234375,-0.17198747396469116,1.1686714887619019,-0.7604666948318481
1726941009358110000,5.91310986328125,-0.3056163787841797,1.0037853717803955,-0.6354020237922668
1726941009368096000,5.923095947265625,-0.3408409357070923,0.9813767075538635,-0.7446118593215942
1726941009378081800,5.933081787109375,-0.3474985659122467,1.036924123764038,-1.011470913887024
1726941009388067800,5.94306787109375,-0.3438359200954437,1.0732083320617676,-1.3633911609649658
1726941009398054000,5.953053955078125,-0.34013307094573975,0.8656623959541321,-1.6841106414794922
1726941009408040000,5.9630400390625,-0.3347689211368561,0.36146098375320435,-1.7730519771575928
1726941009418026000,5.97302587890625,-0.31983524560928345,-0.09232726693153381,-1.5725984573364258
1726941009428011800,5.98301171875,-0.22118617594242096,-0.35182541608810425,-1.2306033372879028
1726941009437997800,5.992997802734375,-0.10679782181978226,-0.5105876326560974,-0.8366600275039673
1726941009447983900,6.00298388671875,-0.03529753535985947,-0.6758626103401184,-0.5073649287223816
1726941009457969000,6.012968994140625,-0.0916212648153305,-0.9244082570075989,-0.29751211404800415
1726941009467955000,6.022954833984375,-0.22106234729290009,-1.249957799911499,-0.1683722287416458
1726941009477940700,6.032940673828125,-0.27876850962638855,-1.575939655303955,-0.07012929022312164
1726941009487927000,6.042927001953125,-0.15873931348323822,-2.009565591812134,-0.0020719394087791443
1726941009497912800,6.052912841796875,0.1078987717628479,-2.364143133163452,0.0719977617263794
1726941009507899000,6.06289892578125,0.3531489968299866,-2.3444206714630127,0.19264641404151917
1726941009517885000,6.072885009765625,0.5441072583198547,-2.1246087551116943,0.2967624366283417
1726941009527871000,6.08287109375,0.7504037022590637,-1.7214387655258179,0.31201034784317017
1726941009537856800,6.092856689453125,0.9331263899803162,-1.2734711170196533,0.23466230928897858
1726941009547843000,6.102843017578125,1.1543946266174316,-1.0045571327209473,0.10273569822311401
1726941009557828900,6.112828857421875,1.3268516063690186,-0.7711041569709778,0.023793745785951614
1726941009567815000,6.12281494140625,1.3236339092254639,-0.4836809039115906,-0.001615473534911871
1726941009577801000,6.132801025390625,1.2154486179351807,-0.20858995616436005,0.050208043307065964
1726941009587787000,6.142787109375,1.153199553489685,0.03392015025019646,0.19629494845867157
1726941009597772800,6.152772705078125,1.1135600805282593,0.2956966459751129,0.36560487747192383
1726941009607759000,6.162759033203125,1.074141502380371,0.6007491946220398,0.4642382562160492
1726941009617745000,6.172744873046875,0.9410998821258545,0.8474761843681335,0.49571892619132996
1726941009627731000,6.18273095703125,0.6975710988044739,0.9931769371032715,0.5084016919136047
1726941009637717000,6.192717041015625,0.4463751018047333,1.0039256811141968,0.5611684918403625
1726941009647703000,6.202703125,0.24111168086528778,0.9248101115226746,0.6337692141532898
1726941009657688800,6.212688720703125,0.1133265569806099,0.9391147494316101,0.6916322708129883
1726941009667675100,6.222675048828125,0.03654522821307182,0.9901893734931946,0.7045312523841858
1726941009677661000,6.232660888671875,-0.026340261101722717,0.963555634021759,0.7394692897796631
1726941009687647000,6.24264697265625,-0.12299356609582901,0.7830969095230103,0.8280587792396545
1726941009697632800,6.2526328125,-0.23914919793605804,0.5735855102539062,0.9946011900901794
1726941009707619000,6.262619140625,-0.3301084041595459,0.4162909686565399,1.2080495357513428
1726941009717604900,6.27260498046875,-0.4288107454776764,0.3042911887168884,1.400353193283081
1726941009727591000,6.2825908203125,-0.5134433507919312,0.23491664230823517,1.5679155588150024
1726941009737577000,6.292576904296875,-0.5122970938682556,0.18337382376194,1.7340943813323975
1726941009747563000,6.30256298828125,-0.39745014905929565,0.38267654180526733,1.7451732158660889
1726941009757548800,6.312548828125,-0.16285575926303864,0.7562397122383118,1.5345815420150757
1726941009767534800,6.322534912109375,0.07387369126081467,0.7643994092941284,1.1948599815368652
1726941009777521000,6.33252099609375,0.28965845704078674,0.46951743960380554,0.860818088054657
1726941009787507000,6.3425068359375,0.2037818878889084,-0.24004003405570984,0.549330472946167
1726941009797493000,6.352492919921875,-0.20391477644443512,-1.230599045753479,0.150819331407547
1726941009807478800,6.362478759765625,-0.5242323279380798,-1.7117867469787598,-0.042458243668079376
1726941009817464800,6.37246484375,-0.6365828514099121,-1.6185857057571411,0.03127962723374367
1726941009827451000,6.382450927734375,-0.6155851483345032,-1.2978894710540771,0.15382099151611328
1726941009837437000,6.39243701171875,-0.47678759694099426,-1.0387729406356812,0.25448980927467346
1726941009847422700,6.402422607421875,-0.30907315015792847,-0.853270947933197,0.3342061936855316
1726941009857409000,6.412408935546875,-0.16718126833438873,-0.7631213665008545,0.4007394313812256
1726941009867394800,6.422394775390625,-0.024635838344693184,-0.6321889162063599,0.48472273349761963
1726941009877380900,6.432380859375,0.04008110612630844,-0.4372425675392151,0.5942588448524475
1726941009887367000,6.442366943359375,0.01464845146983862,-0.36506426334381104,0.6603156328201294
1726941009897353000,6.45235302734375,-0.054420895874500275,-0.4020709991455078,0.6106953024864197
1726941009907338800,6.4623388671875,-0.14390577375888824,-0.41180458664894104,0.39440828561782837
1726941009917325000,6.472324951171875,-0.3088981807231903,-0.47903555631637573,0.016537165269255638
1726941009927310800,6.482310791015625,-0.4811359941959381,-0.5004740357398987,-0.30079391598701477
1726941009937297000,6.492296875,-0.5828253626823425,-0.24125948548316956,-0.4496382474899292
1726941009947282700,6.50228271484375,-0.5899796485900879,0.007022489327937365,-0.48988077044487
1726941009957269000,6.51226904296875,-0.5515151023864746,0.10487581789493561,-0.4277808964252472
1726941009967254800,6.5222548828125,-0.47986674308776855,0.12626898288726807,-0.2441418319940567
1726941009977240800,6.53224072265625,-0.4212108850479126,0.08683183044195175,-0.05253031849861145
1726941009987227000,6.542226806640625,-0.4129159450531006,0.0660458654165268,0.10716000944375992
1726941009997213000,6.552212890625,-0.3974493443965912,0.09129396080970764,0.19272737205028534
1726941010007198700,6.56219873046875,-0.3710419833660126,0.09702428430318832,0.24624678492546082
1726941010017185000,6.57218505859375,-0.3054046630859375,0.0812799409031868,0.28599658608436584
1726941010027170800,6.5821708984375,-0.2526487708091736,0.012032427825033665,0.2621578574180603
1726941010037156900,6.592156982421875,-0.21445077657699585,-0.03562457114458084,0.21887855231761932
1726941010047142100,6.60214208984375,-0.18212532997131348,-0.06202848255634308,0.1497117280960083
1726941010057128200,6.612128173828125,-0.13487312197685242,-0.09453769028186798,0.10755042731761932
1726941010067114200,6.6221142578125,-0.07153463363647461,-0.19540278613567352,0.09989277273416519
1726941010077100000,6.63210009765625,-0.02275484800338745,-0.2820865511894226,0.08769070357084274
1726941010087086000,6.642086181640625,0.013492639176547527,-0.2910323739051819,0.05320436507463455
1726941010097072000,6.652072021484375,0.07582232356071472,-0.18790678679943085,0.02293381094932556
1726941010107058200,6.66205810546875,0.1577688604593277,-0.034207239747047424,0.000025832661776803434
1726941010117044200,6.672044189453125,0.23010404407978058,0.042154643684625626,-0.032587770372629166
1726941010127030000,6.682030029296875,0.24930596351623535,0.031082818284630775,-0.07721835374832153
1726941010137016000,6.69201611328125,0.2341427206993103,-0.004691424313932657,-0.10455384105443954
1726941010147002000,6.702002197265625,0.23788926005363464,-0.07647693157196045,-0.1268032193183899
1726941010156988200,6.71198828125,0.274180144071579,-0.10312744975090027,-0.15954731404781342
1726941010166974000,6.721973876953125,0.3023468255996704,-0.0766468420624733,-0.22775939106941223
1726941010176960300,6.731960205078125,0.298869252204895,-0.055213186889886856,-0.3063122630119324
1726941010186946000,6.741946044921875,0.2549486756324768,-0.09897318482398987,-0.35822179913520813
1726941010196932000,6.75193212890625,0.18157778680324554,-0.16151964664459229,-0.3569440245628357
1726941010206918000,6.76191796875,0.11524669826030731,-0.13783802092075348,-0.33980950713157654
1726941010216904200,6.771904296875,0.10732033103704453,-0.05179661884903908,-0.30134040117263794
1726941010226890000,6.781889892578125,0.1266852468252182,0.04168832302093506,-0.23050057888031006
1726941010236876000,6.7918759765625,0.1321902573108673,0.115204356610775,-0.16214069724082947
1726941010246862000,6.801862060546875,0.09606847912073135,0.1599302738904953,-0.09500933438539505
1726941010256848100,6.81184814453125,0.03272785246372223,0.16708406805992126,-0.08307784050703049
1726941010266834000,6.821833984375,0.03238190710544586,0.24052871763706207,-0.08703263849020004
1726941010276820200,6.8318203125,0.11152572929859161,0.28264233469963074,-0.14902250468730927
1726941010286806000,6.841805908203125,0.21170452237129211,0.33228233456611633,-0.23095199465751648
1726941010296792000,6.8517919921875,0.25484374165534973,0.3456237018108368,-0.33422112464904785
1726941010306778000,6.861778076171875,0.16473861038684845,0.5267847180366516,-0.3349694609642029
1726941010316764200,6.87176416015625,0.01558188907802105,0.642415463924408,-0.313703328371048
1726941010326750000,6.88175,-0.14263731241226196,0.718708336353302,-0.3025803565979004
1726941010336736300,6.891736328125,-0.2216985672712326,0.8343132138252258,-0.3259086012840271
1726941010346722000,6.90172216796875,-0.21764791011810303,1.1329582929611206,-0.41527843475341797
1726941010356708000,6.9117080078125,-0.20434248447418213,1.4213436841964722,-0.5240440368652344
1726941010366694100,6.921694091796875,-0.21776029467582703,1.5752224922180176,-0.6499021053314209
1726941010376680200,6.93168017578125,-0.20967227220535278,1.5743391513824463,-0.7450403571128845
1726941010386666000,6.941666015625,-0.1471172720193863,1.5494688749313354,-0.8587338924407959
1726941010396652300,6.95165234375,-0.05696900933980942,1.5443692207336426,-1.024295449256897
1726941010406638000,6.96163818359375,-0.0314527302980423,1.471721887588501,-1.1858060359954834
1726941010416624000,6.9716240234375,-0.09173258394002914,1.2654553651809692,-1.3220129013061523
1726941010426610200,6.981610107421875,-0.20363488793373108,0.8239415287971497,-1.4439622163772583
1726941010436596200,6.99159619140625,-0.2739737629890442,0.3843119740486145,-1.543518304824829
1726941010446582000,7.00158203125,-0.2532953917980194,0.0497417226433754,-1.5497056245803833
1726941010456568000,7.011568115234375,-0.2533925771713257,-0.08709468692541122,-1.559884786605835
1726941010466554000,7.02155419921875,-0.32393866777420044,-0.3709210753440857,-1.5620635747909546
1726941010476540200,7.0315400390625,-0.37355494499206543,-0.5689976811408997,-1.5306310653686523
1726941010486526000,7.04152587890625,-0.39684802293777466,-0.6009902358055115,-1.3965076208114624
1726941010496512300,7.05151220703125,-0.42140689492225647,-0.7826822400093079,-1.1455318927764893
1726941010506498000,7.061498046875,-0.4341338574886322,-1.2053238153457642,-0.8331896662712097
1726941010516484000,7.071484130859375,-0.39756521582603455,-1.5402551889419556,-0.5610297918319702
1726941010526470100,7.08147021484375,-0.3963337540626526,-1.8809916973114014,-0.2966785430908203
1726941010536456200,7.091456298828125,-0.36882251501083374,-2.148440361022949,-0.011299526318907738
1726941010546442000,7.10144189453125,-0.2940571904182434,-2.2847018241882324,0.29039669036865234
1726941010556428300,7.11142822265625,-0.10362812131643295,-2.230470657348633,0.489774227142334
1726941010566414000,7.1214140625,0.16315163671970367,-2.0567991733551025,0.5637422204017639
1726941010576400100,7.131400146484375,0.48685380816459656,-1.7959377765655518,0.563372790813446
1726941010586386200,7.14138623046875,0.7989320755004883,-1.4653204679489136,0.5123386383056641
1726941010596372200,7.151372314453125,1.0279293060302734,-1.0854991674423218,0.42865175008773804
1726941010606358000,7.16135791015625,1.1853770017623901,-0.6572897434234619,0.2881425619125366
1726941010616344300,7.17134423828125,1.3245282173156738,-0.1465524286031723,0.06889544427394867
1726941010626330000,7.181330078125,1.3683654069900513,0.34958356618881226,-0.15665645897388458
1726941010636316200,7.191316162109375,1.2402535676956177,0.723783016204834,-0.30254149436950684
1726941010646302200,7.20130224609375,0.9248750805854797,0.9303318858146667,-0.24769608676433563
1726941010656288300,7.211288330078125,0.5840762257575989,0.8448178172111511,0.027651866897940636
1726941010666274000,7.221274169921875,0.366301566362381,0.7852340936660767,0.30886995792388916
1726941010676260400,7.23126025390625,0.23865385353565216,0.7434528470039368,0.5430853962898254
1726941010686246100,7.24124609375,0.2191842794418335,0.7924246191978455,0.7637386918067932
1726941010696232200,7.251232177734375,0.2180044949054718,0.9409549832344055,0.9554724097251892
1726941010706218000,7.261218017578125,0.1924847662448883,1.104261875152588,1.0622960329055786
1726941010716204300,7.271204345703125,0.18095727264881134,1.2919095754623413,1.0769948959350586
1726941010726190000,7.281190185546875,0.19409330189228058,1.3611760139465332,1.0317407846450806
1726941010736176000,7.291176025390625,0.17206630110740662,1.2953354120254517,0.981559157371521
1726941010746162200,7.301162109375,0.07861944288015366,1.2055163383483887,1.0107004642486572
1726941010756148200,7.311148193359375,-0.023032881319522858,1.1917920112609863,1.097001075744629
1726941010766134000,7.321134033203125,-0.15117193758487701,1.2022733688354492,1.1797987222671509
1726941010776120000,7.3311201171875,-0.2807901203632355,0.9250156879425049,1.250164270401001
1726941010786106000,7.341106201171875,-0.40823596715927124,0.3460349142551422,1.2983325719833374
1726941010796092200,7.351092041015625,-0.5945352911949158,-0.04728442430496216,1.2193125486373901
1726941010806078200,7.361078125,-0.7097278833389282,-0.28200265765190125,1.1514153480529785
1726941010816064000,7.37106396484375,-0.7000502347946167,-0.3901512324810028,1.1103088855743408
1726941010826050000,7.381050048828125,-0.6589299440383911,-0.60258948802948,0.9086084961891174
1726941010836036000,7.3910361328125,-0.6437875032424927,-0.8238235712051392,0.6986203789710999
1726941010846022100,7.401022216796875,-0.6115201115608215,-1.0131514072418213,0.5569897294044495
1726941010856008000,7.411008056640625,-0.4853166341781616,-1.0758739709854126,0.4992052912712097
1726941010865994200,7.420994140625,-0.28973329067230225,-1.046101689338684,0.5148037075996399
1726941010875980000,7.43097998046875,-0.134734109044075,-1.1289304494857788,0.414641410112381
1726941010885966000,7.440966064453125,-0.050206709653139114,-1.220961332321167,0.2396429479122162
1726941010895952100,7.4509521484375,0.020839501172304153,-1.0989433526992798,0.14088468253612518
1726941010905938200,7.460938232421875,0.1183793768286705,-0.8985604047775269,0.15128272771835327
1726941010915924000,7.470924072265625,0.18392962217330933,-0.7311474084854126,0.25511404871940613
1726941010925910300,7.48091015625,0.2055550217628479,-0.5542882680892944,0.36209508776664734
1726941010935896000,7.49089599609375,0.1933835744857788,-0.36245355010032654,0.37558960914611816
1726941010945882000,7.500882080078125,0.1813759207725525,-0.20840540528297424,0.37086594104766846
1726941010955868000,7.510867919921875,0.14912503957748413,-0.15331099927425385,0.36169004440307617
1726941010965854200,7.520854248046875,0.09242180734872818,-0.20073576271533966,0.4002017378807068
1726941010975840000,7.530840087890625,-0.03569807484745979,-0.20429135859012604,0.4312842786312103
1726941010985826000,7.540825927734375,-0.19210313260555267,-0.14600327610969543,0.3609435558319092
1726941010995812000,7.55081201171875,-0.30019283294677734,-0.06184232980012894,0.27697035670280457
1726941011005798100,7.560798095703125,-0.3428606688976288,-0.004564924165606499,0.22067564725875854
1726941011015784000,7.570783935546875,-0.3645481467247009,-0.03128841519355774,0.17318056523799896
1726941011025770200,7.580770263671875,-0.36574894189834595,-0.0626884177327156,0.11697535216808319
1726941011035756000,7.590756103515625,-0.3213364779949188,-0.048829060047864914,0.0640716627240181
1726941011045742800,7.600742919921875,-0.22478224337100983,-0.029580796137452126,0.02460308000445366
1726941011055728600,7.610728759765625,-0.12273923307657242,-0.09263885766267776,0.00044048685231246054
1726941011065715000,7.62071484375,-0.08062240481376648,-0.12899206578731537,0.013142700307071209
1726941011075700700,7.63070068359375,-0.12166864424943924,-0.2138313204050064,0.03912876173853874
1726941011085686800,7.640686767578125,-0.24189598858356476,-0.15639333426952362,0.07011623680591583
1726941011095672800,7.6506728515625,-0.2908906936645508,-0.11183145642280579,0.047815993428230286
1726941011105659000,7.660658935546875,-0.22563499212265015,-0.1483612358570099,-0.00812237523496151
1726941011115644700,7.670644775390625,-0.0879969671368599,-0.17670287191867828,-0.03790104389190674
1726941011125631000,7.680630859375,-0.010311760008335114,-0.14249029755592346,-0.0371423102915287
1726941011135616800,7.69061669921875,-0.05255508795380592,-0.024204671382904053,-0.07807882130146027
1726941011145602800,7.700602783203125,-0.058333881199359894,-0.01330009289085865,-0.12887436151504517
1726941011155588900,7.7105888671875,0.0213585514575243,-0.030467361211776733,-0.16400091350078583
1726941011165575000,7.720574951171875,0.12114213407039642,-0.047683898359537125,-0.20473183691501617
1726941011175560700,7.730560791015625,0.1741528958082199,-0.03177284449338913,-0.1935308426618576
1726941011185546800,7.740546630859375,0.12653210759162903,0.000031158982892520726,-0.1500784456729889
1726941011195532800,7.75053271484375,0.025441177189350128,0.005111937876790762,-0.14642858505249023
1726941011205518800,7.760518798828125,-0.04224465787410736,0.03056376799941063,-0.15409688651561737
1726941011215505000,7.7705048828125,-0.026690199971199036,0.0732654258608818,-0.15462446212768555
1726941011225490700,7.78049072265625,-0.005918608978390694,0.11646615713834763,-0.1498536765575409
1726941011235476700,7.790476806640625,-0.047321710735559464,0.13918718695640564,-0.1625060886144638
1726941011245462800,7.800462890625,-0.1336912214756012,0.14768479764461517,-0.19236278533935547
1726941011255447800,7.81044775390625,-0.1927899569272995,0.15736804902553558,-0.24640604853630066
1726941011265433900,7.820433837890625,-0.14601126313209534,0.1557949185371399,-0.29983144998550415
1726941011275419600,7.830419677734375,-0.012267851270735264,0.19471409916877747,-0.33100321888923645
1726941011285406000,7.840406005859375,0.12606020271778107,0.2591543197631836,-0.33826780319213867
1726941011295391700,7.850391845703125,0.19354017078876495,0.28371214866638184,-0.31408122181892395
1726941011305378600,7.860378662109375,0.1804392784833908,0.2762121558189392,-0.27936694025993347
1726941011315363800,7.87036376953125,0.13373249769210815,0.2453320026397705,-0.2621661126613617
1726941011325350000,7.880349853515625,0.12065744400024414,0.24685879051685333,-0.2483632117509842
1726941011335335700,7.890335693359375,0.18071864545345306,0.35390880703926086,-0.2561715841293335
1726941011345322000,7.900322021484375,0.27959010004997253,0.5483009219169617,-0.35948652029037476
1726941011355307800,7.910307861328125,0.3370581865310669,0.7500505447387695,-0.5345749855041504
1726941011365293800,7.9202939453125,0.3146040141582489,0.8255077600479126,-0.6718913316726685
1726941011375279600,7.930279541015625,0.27395352721214294,0.8127352595329285,-0.6770921945571899
1726941011385266000,7.940265869140625,0.23941364884376526,0.8553303480148315,-0.6079778075218201
1726941011395251700,7.950251708984375,0.2179459184408188,1.021825909614563,-0.5349723100662231
1726941011405237800,7.96023779296875,0.20897291600704193,1.2243198156356812,-0.4852178394794464
1726941011415223800,7.970223876953125,0.22187727689743042,1.3000380992889404,-0.45999130606651306
1726941011425209900,7.9802099609375,0.2630294859409332,1.3059625625610352,-0.42454755306243896
1726941011435195600,7.990195556640625,0.34231048822402954,1.3421287536621094,-0.43110185861587524
1726941011445182000,8.000181884765626,0.407765656709671,1.2964822053909302,-0.5250629782676697
1726941011455167700,8.010167724609374,0.4435156583786011,1.2563235759735107,-0.7644941806793213
1726941011465153800,8.02015380859375,0.4193677008152008,1.1065988540649414,-1.115590214729309
1726941011475139800,8.030139892578125,0.32020303606987,0.808365523815155,-1.4697610139846802
1726941011485126000,8.0401259765625,0.1985676884651184,0.35827532410621643,-1.7489029169082642
1726941011495111700,8.050111572265624,0.06160157918930054,-0.1310967653989792,-1.8585822582244873
1726941011505098000,8.060097900390625,-0.1076340526342392,-0.4716751277446747,-1.8065273761749268
1726941011515083800,8.070083740234375,-0.29820558428764343,-0.7156009674072266,-1.6742860078811646
1726941011525069800,8.08006982421875,-0.3973180651664734,-0.7705467939376831,-1.4710114002227783
1726941011535056000,8.090055908203125,-0.39739954471588135,-0.8710121512413025,-1.188892126083374
1726941011545042000,8.1000419921875,-0.3883618414402008,-1.2103099822998047,-0.8323507308959961
1726941011555027700,8.11002783203125,-0.2867675721645355,-1.594253659248352,-0.48937156796455383
1726941011565013800,8.120013671875,-0.11598119884729385,-1.7232825756072998,-0.21333038806915283
1726941011574999800,8.129999755859375,0.026500316336750984,-1.665291666984558,0.001514273346401751
1726941011584985900,8.13998583984375,0.1206747516989708,-1.653795838356018,0.20238612592220306
1726941011594972000,8.149971923828126,0.22659265995025635,-1.7535240650177002,0.3536238372325897
1726941011604957700,8.159957763671875,0.4048590660095215,-1.706097960472107,0.40725085139274597
1726941011614943700,8.16994384765625,0.6269859075546265,-1.5665762424468994,0.298086017370224
1726941011624929800,8.1799296875,0.7676221132278442,-1.2135764360427856,0.12590999901294708
1726941011634915800,8.189915771484374,0.6160352230072021,-0.7094309329986572,0.02991262450814247
1726941011644901600,8.199901611328125,0.32552671432495117,-0.32092687487602234,-0.04506654292345047
1726941011654887700,8.2098876953125,0.1478768140077591,-0.0031965922098606825,-0.07779226452112198
1726941011664873700,8.219873779296876,0.08401340991258621,0.32912781834602356,-0.064248226583004
1726941011674859800,8.22985986328125,0.10290028154850006,0.5321424603462219,-0.020203804597258568
1726941011684845600,8.239845458984375,0.06799289584159851,0.6388310790061951,0.050396326929330826
1726941011694831900,8.249831787109375,0.005131911486387253,0.6757534146308899,0.11111107468605042
1726941011704817700,8.259817626953126,0.0320599302649498,0.805530309677124,0.1732197254896164
1726941011714803700,8.2698037109375,0.12030430883169174,1.0587478876113892,0.24036119878292084
1726941011724789800,8.279789794921875,0.24219505488872528,1.3509821891784668,0.27575355768203735
1726941011734775800,8.28977587890625,0.32629555463790894,1.62046480178833,0.305332750082016
1726941011744761600,8.29976171875,0.3780250549316406,1.731870174407959,0.4053797125816345
1726941011754748000,8.309747802734375,0.41702091693878174,1.5595955848693848,0.608797550201416
1726941011764733700,8.319733642578125,0.42605116963386536,1.2503902912139893,0.8531109094619751
1726941011774719700,8.3297197265625,0.37502819299697876,1.1491361856460571,1.0710115432739258
1726941011784705800,8.339705810546874,0.24694693088531494,1.1420526504516602,1.2784310579299927
1726941011794691800,8.34969189453125,0.10075510293245316,1.1752252578735352,1.4971513748168945
1726941011804677600,8.359677734375,0.04994811862707138,1.1867940425872803,1.6714757680892944
1726941011814664000,8.369663818359374,0.06998467445373535,1.0776231288909912,1.727081537246704
1726941011824649700,8.379649658203125,0.07092184573411942,0.7303615212440491,1.6896755695343018
1726941011834635800,8.3896357421875,-0.03759025037288666,0.13077852129936218,1.5749173164367676
1726941011844621800,8.399621826171876,-0.18823541700839996,-0.3142327666282654,1.357666254043579
1726941011854608000,8.40960791015625,-0.42923498153686523,-0.8837358951568604,1.0199939012527466
1726941011864593700,8.41959375,-0.6773784756660461,-1.2122498750686646,0.7727641463279724
1726941011874579700,8.429579833984375,-0.7233166694641113,-1.2447811365127563,0.6779419779777527
1726941011884565800,8.439565673828126,-0.7097718119621277,-1.3222746849060059,0.5698291063308716
1726941011894551800,8.4495517578125,-0.6404454708099365,-1.4124314785003662,0.45519495010375977
1726941011904537600,8.45953759765625,-0.5203036665916443,-1.3747833967208862,0.40598851442337036
1726941011914524000,8.46952392578125,-0.36346954107284546,-1.2453182935714722,0.4355669319629669
1726941011924509700,8.479509765625,-0.218232199549675,-1.093561053276062,0.43770915269851685
1726941011934495700,8.489495849609375,-0.14620807766914368,-0.9172869324684143,0.39848241209983826
1726941011944481800,8.499481689453125,-0.16316735744476318,-0.743361234664917,0.30151402950286865
1726941011954467800,8.5094677734375,-0.21989162266254425,-0.5652980208396912,0.2619818150997162
1726941011964453600,8.51945361328125,-0.3000091016292572,-0.394100159406662,0.3018101751804352
1726941011974440000,8.52943994140625,-0.3902881145477295,-0.24271251261234283,0.3280079662799835
1726941011984425700,8.53942578125,-0.4906024634838104,-0.09425486624240875,0.28902754187583923
1726941011994411800,8.549411865234376,-0.5349457263946533,0.0596952885389328,0.17763283848762512
1726941012004397800,8.559397705078124,-0.5088656544685364,0.2007719874382019,0.11333268135786057
1726941012014383900,8.5693837890625,-0.5045811533927917,0.2594270408153534,0.08890856802463531
1726941012024369700,8.57936962890625,-0.5363651514053345,0.30712878704071045,0.11440034210681915
1726941012034356000,8.58935595703125,-0.5626929402351379,0.19448000192642212,0.10369683057069778
1726941012044341500,8.599341552734375,-0.5609647631645203,0.08452953398227692,0.10006481409072876
1726941012054327600,8.60932763671875,-0.5305557250976562,-0.07813768088817596,0.08345068246126175
1726941012064313300,8.619313232421876,-0.5102440714836121,-0.2296864539384842,0.08299847692251205
1726941012074299600,8.629299560546874,-0.5537716150283813,-0.3334871530532837,0.07936912775039673
1726941012084285400,8.639285400390625,-0.587643027305603,-0.3065844476222992,0.06398537755012512
1726941012094271500,8.649271484375,-0.5381119251251221,-0.23464898765087128,0.0049465554766356945
1726941012104257500,8.659257568359376,-0.4152850806713104,-0.22648373246192932,-0.06937241554260254
1726941012114243600,8.66924365234375,-0.2763892412185669,-0.2456262707710266,-0.09254138171672821
1726941012124229400,8.6792294921875,-0.14922091364860535,-0.18752409517765045,-0.05156625434756279
1726941012134215700,8.689215576171875,-0.05836024507880211,-0.048884451389312744,0.0016655409708619118
1726941012144201500,8.699201416015624,0.03578196465969086,-0.018486332148313522,0.0002844255941454321
1726941012154187500,8.7091875,0.17864032089710236,-0.0903160497546196,-0.03449565917253494
1726941012164173600,8.719173583984375,0.3103131353855133,-0.19115132093429565,-0.029631927609443665
1726941012174159600,8.72915966796875,0.3958754241466522,-0.3378872275352478,0.05843880772590637
1726941012184145400,8.7391455078125,0.39049771428108215,-0.4196459949016571,0.06739608198404312
1726941012194131500,8.74913134765625,0.39570072293281555,-0.39225858449935913,-0.023600667715072632
1726941012204117500,8.759117431640625,0.48123958706855774,-0.326366662979126,-0.13843271136283875
1726941012214103600,8.769103515625,0.5653760433197021,-0.25539901852607727,-0.1593097597360611
1726941012224089300,8.77908935546875,0.5129903554916382,-0.17522534728050232,-0.11990243196487427
1726941012234075600,8.78907568359375,0.3685053288936615,-0.05468614771962166,-0.1382039487361908
1726941012244061400,8.7990615234375,0.2927391827106476,-0.01992843486368656,-0.14089453220367432
1726941012254047500,8.809047607421874,0.2895820140838623,-0.02942233718931675,-0.1621159315109253
1726941012264033500,8.819033447265625,0.2887130379676819,-0.04559624567627907,-0.14626666903495789
1726941012274019600,8.82901953125,0.27713653445243835,-0.12339543551206589,-0.07928017526865005
1726941012284005400,8.83900537109375,0.25237950682640076,-0.18964742124080658,-0.024032365530729294
1726941012293991700,8.84899169921875,0.24746198952198029,-0.12477309256792068,-0.04048830270767212
1726941012303977500,8.8589775390625,0.27263498306274414,-0.005643238313496113,-0.12086490541696548
1726941012313963500,8.868963623046875,0.3284947872161865,0.110600546002388,-0.19753918051719666
1726941012323949600,8.878949462890626,0.4063586890697479,0.16710403561592102,-0.2380586415529251
1726941012333935600,8.888935546875,0.48037806153297424,0.2758294641971588,-0.22641795873641968
1726941012343921400,8.89892138671875,0.5102872252464294,0.4291476309299469,-0.30350154638290405
1726941012353907700,8.90890771484375,0.530576765537262,0.5406810641288757,-0.4633026719093323
1726941012363893500,8.9188935546875,0.5431562066078186,0.7979035377502441,-0.645561158657074
1726941012373879600,8.928879638671875,0.5480449795722961,1.006460189819336,-0.7522798776626587
1726941012383865600,8.938865478515625,0.5023781657218933,1.038933277130127,-0.7139447331428528
1726941012393851400,8.948851318359376,0.43204647302627563,1.105663776397705,-0.6016152501106262
1726941012403837400,8.95883740234375,0.40904051065444946,1.2634047269821167,-0.49875468015670776
1726941012413823500,8.968823486328125,0.43201640248298645,1.5569186210632324,-0.4688609540462494
1726941012423809500,8.9788095703125,0.47994476556777954,1.8569769859313965,-0.5245993137359619
1726941012433795300,8.98879541015625,0.5061513185501099,1.9184421300888062,-0.6691223978996277
1726941012443781400,8.998781494140625,0.4473191797733307,1.6768900156021118,-0.8974692821502686
1726941012453766700,9.0087666015625,0.29868364334106445,1.2874666452407837,-1.1838229894638062
1726941012463752400,9.01875244140625,0.1525977998971939,0.8309187889099121,-1.460493564605713
1726941012473738500,9.028738525390626,0.07136312872171402,0.46074897050857544,-1.7206708192825317
1726941012483724500,9.038724609375,-0.00603419030085206,0.011729893274605274,-1.9410771131515503
1726941012493710600,9.048710693359375,-0.15002864599227905,-0.38877758383750916,-2.064845085144043
1726941012503696400,9.0586962890625,-0.3228539526462555,-0.7470105290412903,-2.0593810081481934
1726941012513682700,9.0686826171875,-0.36372095346450806,-0.9292677044868469,-1.892001748085022
1726941012523668500,9.07866845703125,-0.3310948312282562,-1.1390105485916138,-1.6103559732437134
1726941012533654500,9.088654541015625,-0.22331324219703674,-1.4477673768997192,-1.345194935798645
1726941012543640300,9.098640380859376,-0.11923345178365707,-1.760637640953064,-1.0886131525039673
1726941012553626600,9.108626708984374,-0.1440514475107193,-2.1153242588043213,-0.8333789706230164
1726941012563612400,9.1186123046875,-0.15052533149719238,-2.4072909355163574,-0.4845595061779022
1726941012573598500,9.128598388671875,-0.02274792268872261,-2.4332022666931152,-0.07661754637956619
1726941012583584500,9.13858447265625,0.21456795930862427,-2.204482078552246,0.24777545034885406
1726941012593570600,9.148570556640625,0.5216876864433289,-1.8807240724563599,0.43892329931259155
1726941012603556400,9.158556396484375,0.8281517624855042,-1.590517520904541,0.5333251953125
1726941012613542700,9.168542724609376,1.1060001850128174,-1.262292504310608,0.5531859397888184
1726941012623528400,9.178528564453124,1.2646483182907104,-0.7872434854507446,0.4991549551486969
1726941012633514500,9.188514404296875,1.2855554819107056,-0.22686617076396942,0.37336984276771545
1726941012643500500,9.19850048828125,1.206375002861023,0.2759934961795807,0.26482126116752625
1726941012653486600,9.208486572265626,1.019973635673523,0.6462136507034302,0.23266972601413727
1726941012663472400,9.218472412109374,0.7634015083312988,0.8839854598045349,0.29590675234794617
1726941012673458700,9.228458740234375,0.48034369945526123,0.9898490309715271,0.47419872879981995
1726941012683444500,9.238444580078125,0.29310110211372375,0.9588876366615295,0.6177516579627991
1726941012693430500,9.248430419921876,0.16410265862941742,0.9207975268363953,0.6851908564567566
1726941012703416600,9.25841650390625,0.07488089799880981,0.9359631538391113,0.7756147980690002
1726941012713402600,9.268402587890625,-0.016412528231739998,1.0305997133255005,0.8502746224403381
1726941012723388400,9.278388427734376,-0.06979133188724518,1.177860975265503,0.9304916858673096
1726941012733374700,9.288374755859374,-0.10056895017623901,1.3211904764175415,1.0340194702148438
1726941012743360500,9.298360595703125,-0.13320758938789368,1.4021356105804443,1.1388981342315674
1726941012753346600,9.3083466796875,-0.19307652115821838,1.3707427978515625,1.2413272857666016
1726941012763332600,9.31833251953125,-0.2479751855134964,1.2320622205734253,1.3772984743118286
1726941012773318700,9.328318603515624,-0.29654964804649353,0.9602612853050232,1.5466630458831787
1726941012783304400,9.338304443359375,-0.33686670660972595,0.6323590874671936,1.6605136394500732
1726941012793290500,9.34829052734375,-0.40152984857559204,0.20771831274032593,1.674786925315857
1726941012803276500,9.358276611328124,-0.49617621302604675,-0.261098176240921,1.4540071487426758
1726941012813262300,9.368262451171875,-0.6499130129814148,-0.7163754105567932,1.1206622123718262
1726941012823248400,9.378248291015625,-0.8585432171821594,-1.1375194787979126,0.8787366151809692
1726941012833234400,9.388234375,-0.9286184310913086,-1.177397608757019,0.8904963731765747
1726941012843220500,9.398220458984374,-0.8497454524040222,-1.1372781991958618,0.9142376184463501
1726941012853206300,9.408206298828125,-0.6975838541984558,-1.2591995000839233,0.8077167868614197
1726941012863192600,9.418192626953125,-0.505397379398346,-1.3215001821517944,0.6615166664123535
1726941012873178400,9.428178466796876,-0.27732187509536743,-1.1625219583511353,0.533414363861084
1726941012883164400,9.438164306640624,-0.11234385520219803,-1.0276904106140137,0.4096493124961853
1726941012893150500,9.448150390625,-0.05150047689676285,-0.9250771999359131,0.32267099618911743
1726941012903136500,9.458136474609375,0.0497497133910656,-0.7268224358558655,0.27645236253738403
1726941012913122300,9.468122314453124,0.0957784578204155,-0.597370982170105,0.2672860324382782
1726941012923108600,9.478108642578125,0.06888745725154877,-0.48804742097854614,0.2560613453388214
1726941012933094400,9.488094482421875,0.02333648130297661,-0.32796961069107056,0.221797913312912
1726941012943080400,9.49808056640625,-0.014752048067748547,-0.18326595425605774,0.21290640532970428
1726941012953066500,9.50806640625,-0.038055773824453354,-0.09136933088302612,0.23545806109905243
1726941012963052500,9.518052490234375,-0.07683911919593811,-0.05844626575708389,0.2510892152786255
1726941012973038300,9.528038330078125,-0.11849069595336914,-0.0392448753118515,0.23058819770812988
1726941012983024600,9.538024658203126,-0.16431809961795807,-0.022174544632434845,0.14868827164173126
1726941012993010400,9.548010498046875,-0.2542301416397095,0.007580687757581472,0.046066828072071075
1726941013002996500,9.55799658203125,-0.37420713901519775,0.032411202788352966,-0.04294666647911072
1726941013012982500,9.567982421875,-0.49723294377326965,0.0814269483089447,-0.13458524644374847
1726941013022968600,9.577968505859374,-0.5729053616523743,0.18004034459590912,-0.19467520713806152
1726941013032954400,9.587954345703125,-0.5669326782226562,0.16208423674106598,-0.2245476245880127
1726941013042940400,9.5979404296875,-0.5711292624473572,0.07514908164739609,-0.1530686467885971
1726941013052926500,9.607926513671876,-0.6296136379241943,-0.1051514521241188,-0.07601726800203323
1726941013062912500,9.61791259765625,-0.6878790855407715,-0.1423017531633377,-0.03226792439818382
1726941013072898300,9.627898193359375,-0.7046383023262024,-0.015157381072640419,-0.0367731936275959
1726941013082884600,9.637884521484375,-0.6731011867523193,0.04361405596137047,-0.08220033347606659
1726941013092870400,9.647870361328126,-0.615824282169342,-0.007465106900781393,-0.14092542231082916
1726941013102856400,9.6578564453125,-0.5577250719070435,-0.09024547040462494,-0.15424922108650208
1726941013112842500,9.667842529296875,-0.5102565884590149,-0.09136532992124557,-0.12546470761299133
1726941013122828500,9.67782861328125,-0.4008384943008423,0.040098417550325394,-0.07512244582176208
1726941013132814300,9.687814453125,-0.1982417106628418,0.05271194875240326,0.021450962871313095
1726941013142800600,9.697800537109375,-0.057142648845911026,-0.05414925515651703,0.09352196007966995
1726941013152786400,9.707786376953125,-0.03876230865716934,-0.12270993739366531,0.11579584330320358
1726941013162772500,9.7177724609375,-0.05567444860935211,-0.14852476119995117,0.07307367771863937
1726941013172758500,9.727758544921874,0.002353968098759651,-0.06900943070650101,-0.02328481525182724
1726941013182744600,9.73774462890625,0.13161368668079376,0.027292074635624886,-0.0986378937959671
1726941013192730400,9.74773046875,0.25690528750419617,0.03341042250394821,-0.113805390894413
1726941013202716700,9.757716552734376,0.2927256226539612,0.030775755643844604,-0.07989110052585602
1726941013212702500,9.767702392578125,0.2647397816181183,0.010634268634021282,-0.029999710619449615
1726941013222688500,9.7776884765625,0.2446289211511612,0.02635597437620163,-0.01582050882279873
1726941013232674600,9.787674560546876,0.2764377295970917,0.033777669072151184,-0.07399113476276398
1726941013242660600,9.79766064453125,0.35700738430023193,0.0029379993211477995,-0.10793845355510712
1726941013252646400,9.807646484375,0.40397757291793823,-0.10221664607524872,-0.11637721210718155
1726941013262632700,9.8176328125,0.3680179715156555,-0.24474823474884033,-0.15277330577373505
1726941013272618500,9.827618408203126,0.2570642828941345,-0.23243696987628937,-0.19838206470012665
1726941013282604500,9.8376044921875,0.14175526797771454,-0.013907826505601406,-0.2431761622428894
1726941013292590300,9.84759033203125,0.1283702254295349,0.16132311522960663,-0.2608473002910614
1726941013302576600,9.85757666015625,0.18851451575756073,0.23903602361679077,-0.26270246505737305
1726941013312562400,9.8675625,0.2503613829612732,0.3645790219306946,-0.24013297259807587
1726941013322548500,9.877548583984375,0.26853877305984497,0.5997452139854431,-0.2705540060997009
1726941013332534500,9.887534423828125,0.2747681736946106,0.7282595038414001,-0.29243001341819763
1726941013342520600,9.8975205078125,0.2645914554595947,0.8951488733291626,-0.3566337525844574
1726941013352506400,9.90750634765625,0.26801759004592896,1.0702840089797974,-0.4434879422187805
1726941013362492700,9.91749267578125,0.28299522399902344,1.3553471565246582,-0.505771815776825
1726941013372478500,9.927478515625,0.2576850652694702,1.7243847846984863,-0.5588635802268982
1726941013382464500,9.937464599609376,0.18752461671829224,2.0567736625671387,-0.6051833629608154
1726941013392450600,9.947450439453124,0.12821044027805328,2.3161630630493164,-0.689198911190033
1726941013402436600,9.9574365234375,0.12241965532302856,2.5540263652801514,-0.7571356296539307
1726941013412422400,9.96742236328125,0.13822685182094574,2.613903284072876,-0.8910396099090576
1726941013422408700,9.97740869140625,0.12618163228034973,2.369662284851074,-1.0709372758865356
1726941013432394500,9.98739453125,0.032703351229429245,1.8926094770431519,-1.2963173389434814
1726941013442380500,9.997380615234375,-0.09240076690912247,1.1386265754699707,-1.6495068073272705
1726941013452366600,10.00736669921875,-0.214663565158844,0.22734420001506805,-2.0333902835845947
1726941013462352600,10.0173525390625,-0.2168438881635666,-0.5733604431152344,-2.294712781906128
1726941013472338400,10.02733837890625,-0.16689631342887878,-1.0763686895370483,-2.275395154953003
1726941013482324500,10.037324462890625,-0.162811279296875,-1.7235698699951172,-1.8873186111450195
1726941013492310500,10.047310546875,-0.1232186034321785,-2.140711784362793,-1.2175378799438477
1726941013502295600,10.057295654296874,-0.00890720821917057,-2.524754762649536,-0.4456155598163605
1726941013512281300,10.06728125,0.14539821445941925,-2.6968934535980225,0.1645740270614624
1726941013522267600,10.077267578125,0.3198421895503998,-2.6702778339385986,0.44777804613113403
1726941013532253400,10.08725341796875,0.47901052236557007,-2.6283626556396484,0.575994074344635
1726941013542239500,10.097239501953124,0.6456471681594849,-2.5517940521240234,0.632337749004364
1726941013552225500,10.1072255859375,0.8676328659057617,-2.3352458477020264,0.6965423226356506
1726941013562211600,10.117211669921875,1.1249918937683105,-2.0847299098968506,0.744107723236084
1726941013572197400,10.127197265625,1.3590582609176636,-1.930084466934204,0.648620069026947
1726941013582183700,10.13718359375,1.4647138118743896,-1.659316062927246,0.4547427296638489
1726941013592169500,10.14716943359375,1.3860032558441162,-1.1304212808609009,0.27133670449256897
1726941013602155500,10.157155517578126,1.1268377304077148,-0.4943481981754303,0.10355941206216812
1726941013612141600,10.1671416015625,0.7938976287841797,0.02828090637922287,-0.07503988593816757
1726941013622127600,10.177127685546875,0.43955498933792114,0.5841132402420044,-0.13509151339530945
1726941013632113400,10.187113525390625,0.1860625445842743,0.9972802996635437,-0.0861990675330162
1726941013642099500,10.197099365234376,-0.0009353021741844714,1.1558598279953003,0.018814966082572937
1726941013652085500,10.20708544921875,-0.1410311609506607,1.1844792366027832,0.10416261851787567
1726941013662071600,10.217071533203125,-0.17708423733711243,1.1385431289672852,0.19550424814224243
1726941013672057300,10.227057373046875,-0.11086127161979675,1.1385364532470703,0.3263525366783142
1726941013682043600,10.237043701171874,-0.01053386740386486,1.2022292613983154,0.4876631498336792
1726941013692029400,10.247029541015625,0.07912411540746689,1.2802520990371704,0.6521517038345337
1726941013702015500,10.257015380859375,0.12976865470409393,1.4713482856750488,0.8253577947616577
1726941013712001500,10.26700146484375,0.13619431853294373,1.7109733819961548,0.9749635457992554
1726941013721987600,10.276987548828124,0.12879499793052673,1.8720861673355103,1.0971693992614746
1726941013731973400,10.286973388671875,0.11581208556890488,1.904407024383545,1.1783318519592285
1726941013741959700,10.296959716796875,0.16222858428955078,1.7500249147415161,1.2226558923721313
1726941013751945500,10.306945556640626,0.22339846193790436,1.4341859817504883,1.2847099304199219
1726941013761931500,10.316931640625,0.19113986194133759,1.102972388267517,1.3708826303482056
1726941013771917600,10.32691748046875,0.05591519549489021,0.6486344337463379,1.3322548866271973
1726941013781903600,10.336903564453126,-0.35458099842071533,-0.16809366643428802,0.9382588267326355
1726941013791889400,10.346889404296874,-0.958620548248291,-0.7669738531112671,0.6751999855041504
1726941013801875700,10.356875732421875,-1.4169631004333496,-0.7577670812606812,0.7555590271949768
1726941013811861500,10.366861572265625,-1.571536660194397,-0.5448148250579834,0.8737168312072754
1726941013821847600,10.37684765625,-1.4854425191879272,-0.4418104290962219,0.9061543941497803
1726941013831833600,10.38683349609375,-1.1610766649246216,-0.47528183460235596,0.8801510334014893
1726941013841819600,10.396819580078125,-0.8192320466041565,-0.632332980632782,0.8159968256950378
1726941013851805400,10.406805419921875,-0.5916891694068909,-0.7839555144309998,0.7088674306869507
1726941013861791500,10.41679150390625,-0.4514620006084442,-0.8347228169441223,0.5639134645462036
1726941013871777500,10.426777587890625,-0.3572329580783844,-0.8348410725593567,0.3829503059387207
1726941013881763600,10.436763671875,-0.2782425284385681,-0.8397295475006104,0.1997661143541336
1726941013891749400,10.446749267578125,-0.18904928863048553,-0.8475320935249329,0.08438119292259216
1726941013901735400,10.4567353515625,-0.1636376678943634,-0.7962167263031006,0.031809061765670776
1726941013911721500,10.466721435546875,-0.17772312462329865,-0.611627459526062,0.004388622939586639
1726941013921707300,10.476707275390625,-0.2096211314201355,-0.44048604369163513,-0.048409610986709595
1726941013931693600,10.486693603515626,-0.2328103482723236,-0.3036656081676483,-0.15662609040737152
1726941013941679400,10.496679443359374,-0.3064723014831543,-0.23110991716384888,-0.23642878234386444
1726941013951665400,10.50666552734375,-0.4120061993598938,-0.10701699554920197,-0.22202320396900177
1726941013961651500,10.5166513671875,-0.4957471787929535,-0.007309312000870705,-0.13929930329322815
1726941013971637500,10.526637451171876,-0.5296521186828613,0.07600048929452896,-0.05986865982413292
1726941013981623300,10.536623291015625,-0.5180780291557312,0.10734589397907257,0.015017298981547356
1726941013991609600,10.546609619140625,-0.5228844881057739,0.09683013707399368,0.07689185440540314
1726941014001595400,10.556595458984376,-0.5349422693252563,0.12311181426048279,0.10650167614221573
1726941014011581400,10.56658154296875,-0.5296281576156616,0.18689079582691193,0.10597863048315048
1726941014021567500,10.5765673828125,-0.5219873189926147,0.17732737958431244,0.06830316036939621
1726941014031553500,10.586553466796875,-0.5288332104682922,0.07116285711526871,0.024896029382944107
1726941014041539300,10.596539306640626,-0.5542299151420593,0.03574148565530777,0.0024972460232675076
1726941014051525400,10.606525390625,-0.5895373225212097,-0.0084262415766716,0.02239345572888851
1726941014061511400,10.616511474609375,-0.6232185959815979,-0.01034584827721119,0.05595700815320015
1726941014071497500,10.62649755859375,-0.603347659111023,0.05257586017251015,0.07143769413232803
1726941014081483300,10.636483154296876,-0.5282177329063416,0.11455773562192917,0.04034023359417915
1726941014091469600,10.646469482421875,-0.44397637248039246,0.11927100270986557,-0.02285764552652836
1726941014101455400,10.656455322265625,-0.39039090275764465,0.13867293298244476,-0.08880870044231415
1726941014111441400,10.66644140625,-0.34843549132347107,0.13970224559307098,-0.11047936975955963
1726941014121427200,10.67642724609375,-0.3093186914920807,0.06241330876946449,-0.14900998771190643
1726941014131413500,10.68641357421875,-0.2254035621881485,0.023864053189754486,-0.2056836485862732
1726941014141399300,10.6963994140625,-0.11185489594936371,0.03527143597602844,-0.3466455638408661
1726941014151385300,10.70638525390625,-0.022053636610507965,0.1177854910492897,-0.4943825602531433
1726941014161371400,10.716371337890624,-0.03259709104895592,0.32226380705833435,-0.46755334734916687
1726941014171357400,10.726357421875,-0.04693474993109703,0.353263258934021,-0.3819119334220886
1726941014181343200,10.73634326171875,-0.009290969930589199,0.11612927168607712,-0.20807915925979614
1726941014191329500,10.74632958984375,0.040832649916410446,-0.06151609122753143,0.0030690268613398075
1726941014201315300,10.7563154296875,0.05326668173074722,-0.08533540368080139,0.07107231020927429
1726941014211301400,10.76630126953125,0.03650821000337601,-0.042763710021972656,0.05264536663889885
1726941014221287400,10.776287353515626,0.03183675929903984,-0.00004713794987765141,0.006960171274840832
1726941014231273500,10.7862734375,0.11059948056936264,0.056897372007369995,-0.036555346101522446
1726941014241259300,10.79625927734375,0.25866004824638367,0.06064310669898987,-0.04071919992566109
1726941014251245600,10.80624560546875,0.3755949139595032,0.21804524958133698,-0.08872666954994202
1726941014261231400,10.8162314453125,0.4429295063018799,0.2877601385116577,-0.11714500188827515
1726941014271217400,10.826217529296875,0.4492315948009491,0.3245477080345154,-0.16597458720207214
1726941014281203500,10.836203369140625,0.4368484318256378,0.42684319615364075,-0.23526445031166077
1726941014291189500,10.846189453125,0.4372020959854126,0.5071950554847717,-0.2774137556552887
1726941014301175300,10.85617529296875,0.48568469285964966,0.5692765116691589,-0.3091663718223572
1726941014311161600,10.86616162109375,0.5363606214523315,0.7800313830375671,-0.4241960048675537
1726941014321147400,10.8761474609375,0.5570011734962463,1.0531136989593506,-0.5596473217010498
1726941014331133400,10.886133544921876,0.5248723030090332,1.2492777109146118,-0.6682595610618591
1726941014341119200,10.896119140625,0.4895835518836975,1.455426812171936,-0.724828839302063
1726941014351105500,10.90610546875,0.5096038579940796,1.673296332359314,-0.7308124303817749
1726941014361091300,10.91609130859375,0.5969012379646301,1.865535855293274,-0.7813740968704224
1726941014371077400,10.926077392578126,0.6388073563575745,1.74443519115448,-0.9251507520675659
1726941014381063400,10.9360634765625,0.5643653869628906,1.3959707021713257,-1.1480357646942139
1726941014391049500,10.946049560546875,0.40363746881484985,0.9363685250282288,-1.3573367595672607
1726941014401034200,10.9560341796875,0.245091512799263,0.40917178988456726,-1.5338054895401
1726941014411020500,10.9660205078125,0.16943643987178802,-0.14516252279281616,-1.713126540184021
1726941014421006300,10.97600634765625,0.10387606173753738,-0.4990287125110626,-1.8931900262832642
1726941014430992400,10.985992431640625,-0.022945795208215714,-0.807694673538208,-2.0151751041412354
1726941014440978200,10.995978271484375,-0.21567130088806152,-0.9636379480361938,-1.9847851991653442
1726941014450964500,11.005964599609374,-0.361967533826828,-1.3808701038360596,-1.7182270288467407
1726941014460950300,11.0159501953125,-0.40226301550865173,-1.8183635473251343,-1.2807344198226929
1726941014470936300,11.025936279296875,-0.2715846300125122,-2.2292799949645996,-0.7800928950309753
1726941014480922400,11.03592236328125,-0.026103772222995758,-2.604956865310669,-0.3513612151145935
1726941014490908400,11.045908447265624,0.14355184137821198,-2.8178770542144775,-0.05443447828292847
1726941014500894200,11.055894287109375,0.265616238117218,-2.7043395042419434,0.08410688489675522
1726941014510880500,11.065880615234375,0.37072452902793884,-2.5037717819213867,0.16768859326839447
1726941014520866300,11.0758662109375,0.48311206698417664,-2.2492024898529053,0.21913820505142212
1726941014530852400,11.085852294921875,0.6605427861213684,-2.050461769104004,0.23690389096736908
1726941014540838400,11.09583837890625,0.9011772274971008,-1.8515534400939941,0.160532146692276
1726941014550824400,11.105824462890626,1.0852775573730469,-1.582534670829773,0.05163842812180519
1726941014560810200,11.115810302734374,1.1104401350021362,-1.0140737295150757,0.015450328588485718
1726941014570796500,11.125796630859375,0.9190840721130371,-0.33485549688339233,0.08580651879310608
1726941014580782300,11.1357822265625,0.6251051425933838,0.13402624428272247,0.13223953545093536
1726941014590768400,11.145768310546876,0.37112054228782654,0.5607346892356873,0.14682991802692413
1726941014600754400,11.15575439453125,0.20100954174995422,0.9185996055603027,0.1816510260105133
1726941014610740500,11.165740478515625,0.13383689522743225,1.1050020456314087,0.255756676197052
1726941014620726300,11.175726318359375,0.13534609973430634,1.1891440153121948,0.3563080430030823
1726941014630712600,11.185712646484374,0.11200030148029327,1.2524175643920898,0.48459410667419434
1726941014640698400,11.195698486328125,0.15102200210094452,1.3861167430877686,0.6080249547958374
1726941014650684400,11.205684326171875,0.22140589356422424,1.5576975345611572,0.7054393887519836
1726941014660670500,11.21567041015625,0.2471751719713211,1.7824167013168335,0.7853931188583374
1726941014670656500,11.225656494140624,0.219668447971344,1.9906327724456787,0.8575626611709595
1726941014680642300,11.235642333984375,0.12706634402275085,1.927345633506775,0.975657045841217
1726941014690628400,11.24562841796875,-0.0048738508485257626,1.5688204765319824,1.208627462387085
1726941014700614400,11.255614501953126,-0.15420794486999512,1.0885186195373535,1.4874635934829712
1726941014710600400,11.265600341796874,-0.23498907685279846,0.7124469876289368,1.7646992206573486
1726941014720586200,11.275586181640625,-0.3472024202346802,0.2732190191745758,1.9358973503112793
1726941014730572500,11.285572509765625,-0.46164193749427795,0.09722748398780823,2.038743734359741
1726941014740558300,11.295558349609376,-0.4554378390312195,0.03843527287244797,2.090609073638916
1726941014750544400,11.30554443359375,-0.4221791923046112,-0.2479695975780487,1.8701732158660889
1726941014760530400,11.315530517578125,-0.39051714539527893,-0.5602191090583801,1.3016722202301025
1726941014770516500,11.3255166015625,-0.5593405365943909,-1.006286382675171,0.6212201118469238
1726941014780502300,11.335502197265624,-0.7347464561462402,-0.9943394064903259,0.25630128383636475
1726941014790488600,11.345488525390625,-0.8227753639221191,-0.8920623064041138,0.07705483585596085
1726941014800474400,11.355474365234375,-0.7502785325050354,-0.7610281109809875,0.04771958664059639
1726941014810460400,11.36546044921875,-0.5761194825172424,-0.7185983657836914,0.10689608752727509
1726941014820446500,11.375446533203124,-0.4456688165664673,-0.7762632369995117,0.19447892904281616
1726941014830432500,11.3854326171875,-0.4152291417121887,-0.8444867730140686,0.21276766061782837
1726941014840418300,11.395418212890625,-0.43934115767478943,-0.7950488924980164,0.16960181295871735
1726941014850404600,11.405404541015624,-0.4263233542442322,-0.6011630892753601,0.16803747415542603
1726941014860390400,11.415390380859375,-0.37717685103416443,-0.45009899139404297,0.2681662142276764
1726941014870376400,11.42537646484375,-0.35241398215293884,-0.44474682211875916,0.40412962436676025
1726941014880362500,11.435362548828126,-0.3514179587364197,-0.437654048204422,0.5114566087722778
1726941014890348500,11.4453486328125,-0.33479344844818115,-0.41351887583732605,0.5632162094116211
1726941014900334300,11.455334228515625,-0.26264840364456177,-0.3688661754131317,0.5184740424156189
1726941014910320600,11.465320556640625,-0.20286336541175842,-0.2898733615875244,0.3997681736946106
1726941014920306400,11.475306396484376,-0.20771804451942444,-0.1891062706708908,0.2804574966430664
1726941014930292500,11.48529248046875,-0.26076874136924744,-0.08653249591588974,0.21761967241764069
1726941014940278300,11.4952783203125,-0.3245019018650055,-0.02160675823688507,0.18915393948554993
1726941014950264600,11.5052646484375,-0.3577011525630951,0.01176238339394331,0.10910411924123764
1726941014960250400,11.51525048828125,-0.362604022026062,0.01769670471549034,0.011389806866645813
1726941014970236400,11.525236328125,-0.39646533131599426,0.06422293186187744,-0.05428081378340721
1726941014980222500,11.535222412109375,-0.44899803400039673,0.07047603279352188,-0.13122166693210602
1726941014990208500,11.54520849609375,-0.48230886459350586,0.09525488317012787,-0.16260941326618195
1726941015000194300,11.5551943359375,-0.4857533872127533,0.021091436967253685,-0.18905407190322876
1726941015010180400,11.565180419921875,-0.47155794501304626,-0.05144428089261055,-0.17832952737808228
1726941015020166400,11.57516650390625,-0.4484662115573883,-0.03315608948469162,-0.13154950737953186
1726941015030152400,11.58515234375,-0.42334407567977905,0.005261873826384544,-0.05851151421666145
1726941015040138500,11.595138427734375,-0.35952913761138916,0.06040368974208832,-0.020607806742191315
1726941015050124300,11.605124267578125,-0.2338782697916031,0.04183319956064224,0.036803554743528366
1726941015060110300,11.6151103515625,-0.08843851834535599,-0.04223507270216942,0.12568256258964539
1726941015070096100,11.62509619140625,0.02624332159757614,-0.09579070657491684,0.23941844701766968
1726941015080082200,11.635082275390625,0.11314466595649719,-0.06930370628833771,0.36348259449005127
1726941015090068200,11.645068115234375,0.2151714265346527,-0.11481553316116333,0.46610164642333984
1726941015100054300,11.65505419921875,0.3329968750476837,-0.24964046478271484,0.5350578427314758
1726941015110040000,11.6650400390625,0.4164086580276489,-0.32679250836372375,0.5243812203407288
1726941015120026400,11.6750263671875,0.40664926171302795,-0.39208921790122986,0.4492363929748535
1726941015130012200,11.68501220703125,0.32267871499061584,-0.4205022156238556,0.32427313923835754
1726941015139998200,11.694998291015626,0.20433662831783295,-0.3788653016090393,0.10546277463436127
1726941015149984300,11.704984375,0.18168990314006805,-0.20554757118225098,-0.2477046102285385
1726941015159970300,11.71497021484375,0.21599115431308746,-0.11412204802036285,-0.7182736992835999
1726941015169956000,11.7249560546875,0.28675106167793274,0.06453052163124084,-1.2103660106658936
1726941015179942100,11.734942138671874,0.3038027584552765,0.4439729154109955,-1.4887032508850098
1726941015189928200,11.74492822265625,0.2527630031108856,0.5905535817146301,-1.4787331819534302
1726941015199914200,11.754914306640625,0.1293976753950119,0.49666914343833923,-1.2982274293899536
1726941015209900000,11.764900146484376,0.011578358709812164,0.44807764887809753,-1.0220831632614136
1726941015219886300,11.77488623046875,-0.05128449201583862,0.6944519877433777,-0.706519603729248
1726941015229872000,11.7848720703125,-0.06359122693538666,0.9652352929115295,-0.40269312262535095
1726941015239858200,11.794858154296875,-0.04633660614490509,1.1086758375167847,-0.21004778146743774
1726941015249844200,11.80484423828125,-0.029409021139144897,1.2360295057296753,-0.14814499020576477
1726941015259830300,11.814830322265625,0.048651691526174545,1.3428294658660889,-0.18620049953460693
1726941015269816000,11.824816162109375,0.19984467327594757,1.4843569993972778,-0.26203349232673645
1726941015279801000,11.834801025390625,0.34921205043792725,1.7077008485794067,-0.3675076961517334
1726941015289787400,11.844787353515626,0.41998395323753357,1.9370681047439575,-0.5042743682861328
1726941015299773200,11.854773193359375,0.42470309138298035,2.1072988510131836,-0.6868888735771179
1726941015309759200,11.86475927734375,0.3709823191165924,2.0910804271698,-0.9276735186576843
1726941015319745300,11.874745361328126,0.24131381511688232,1.810314655303955,-1.1552276611328125
1726941015329731300,11.8847314453125,0.053400374948978424,1.5221747159957886,-1.3788564205169678
1726941015339717000,11.894717041015625,-0.12001881748437881,1.3135852813720703,-1.5676442384719849
1726941015349703400,11.904703369140625,-0.2546064555644989,0.6638243198394775,-1.7857621908187866
1726941015359689200,11.914689208984376,-0.42793989181518555,-0.06769862025976181,-2.097930908203125
1726941015369675300,11.92467529296875,-0.4712301194667816,-0.8184751272201538,-2.3466904163360596
1726941015379661300,11.934661376953125,-0.42731723189353943,-1.3300598859786987,-2.3523001670837402
1726941015389647400,11.9446474609375,-0.365810751914978,-1.765486478805542,-2.014026165008545
1726941015399633200,11.954633056640626,-0.27785158157348633,-2.06024169921875,-1.5189744234085083
1726941015409619500,11.964619384765625,-0.19152149558067322,-2.4385321140289307,-1.050984501838684
1726941015419605200,11.974605224609375,-0.08378145098686218,-2.9883148670196533,-0.6445454359054565
1726941015429591300,11.98459130859375,0.1041056290268898,-3.3575406074523926,-0.15433605015277863
1726941015439577300,11.994577392578124,0.4511496126651764,-3.3722622394561768,0.3221287727355957
1726941015449563400,12.0045634765625,0.8577144145965576,-3.131345748901367,0.6731754541397095
1726941015459549200,12.014549072265625,1.249632716178894,-2.8303449153900146,0.8459160923957825
1726941015469535200,12.02453515625,1.5699342489242554,-2.3847007751464844,0.8666911721229553
1726941015479521300,12.034521240234374,1.7913843393325806,-1.906882405281067,0.7277127504348755
1726941015489507000,12.044507080078125,1.8266733884811401,-1.331917405128479,0.4750829041004181
1726941015499493000,12.0544931640625,1.6411207914352417,-0.5934258103370667,0.1609119176864624
1726941015509479200,12.064479248046876,1.3156570196151733,0.12943123281002045,-0.17802059650421143
1726941015519465200,12.07446533203125,0.9156174063682556,0.7241326570510864,-0.4239693880081177
1726941015529451000,12.084450927734375,0.5734906792640686,1.0485621690750122,-0.5138891339302063
1726941015539437300,12.094437255859376,0.32539406418800354,1.0903871059417725,-0.4498355984687805
1726941015549423000,12.104423095703124,0.19307571649551392,1.0007187128067017,-0.14967525005340576
1726941015559409200,12.1144091796875,0.21383638679981232,0.7503570914268494,0.22620144486427307
1726941015569395200,12.124395263671875,0.23825517296791077,0.7561950087547302,0.4917348623275757
1726941015579381200,12.13438134765625,0.2558418810367584,0.8029694557189941,0.7027394771575928
1726941015589367000,12.144366943359374,0.2845047116279602,0.8736785054206848,0.9183338284492493
1726941015599353300,12.154353271484375,0.27309730648994446,1.024215817451477,1.1568721532821655
1726941015609339100,12.164339111328125,0.18295224010944366,1.224468469619751,1.386387825012207
1726941015619325200,12.1743251953125,0.04993613436818123,1.2955807447433472,1.6060943603515625
1726941015629311200,12.184311279296875,-0.11815433949232101,1.3462910652160645,1.7754466533660889
1726941015639297300,12.19429736328125,-0.2476651966571808,1.3893362283706665,1.8827682733535767
1726941015649283000,12.204282958984376,-0.3076246678829193,1.4334256649017334,1.8756539821624756
1726941015659269400,12.214269287109374,-0.21954193711280823,1.4853440523147583,1.709228277206421
1726941015669255200,12.224255126953125,-0.14897030591964722,1.446217656135559,1.413648009300232
1726941015679241200,12.2342412109375,-0.07249470800161362,1.1544760465621948,1.1140048503875732
1726941015689227300,12.244227294921876,-0.14944009482860565,0.46987828612327576,0.8681281805038452
1726941015699213300,12.25421337890625,-0.4332678020000458,-0.26087313890457153,0.5751287937164307
1726941015709199000,12.26419921875,-1.0652791261672974,-1.1100391149520874,0.2576453983783722
1726941015719185400,12.274185302734375,-1.5046918392181396,-1.3447120189666748,0.20859262347221375
1726941015729171200,12.284171142578124,-1.66994309425354,-1.1322319507598877,0.34276479482650757
1726941015739157200,12.2941572265625,-1.5496960878372192,-0.8218754529953003,0.5018644332885742
1726941015749143000,12.30414306640625,-1.184888243675232,-0.6613867282867432,0.6329534649848938
1726941015759129300,12.31412939453125,-0.8608790636062622,-0.7133146524429321,0.6620815396308899
1726941015769115100,12.324115234375,-0.580780565738678,-0.7395321130752563,0.6120961308479309
1726941015779101200,12.33410107421875,-0.3614921569824219,-0.7389401197433472,0.5406709909439087
1726941015789087200,12.344087158203125,-0.23596006631851196,-0.8435906171798706,0.45820432901382446
1726941015799073300,12.3540732421875,-0.1790272742509842,-0.978346586227417,0.3648759722709656
1726941015809059000,12.36405908203125,-0.1565973311662674,-0.9995653033256531,0.300068736076355
1726941015819045400,12.37404541015625,-0.16512317955493927,-0.8839337825775146,0.2740437984466553
1726941015829031200,12.38403125,-0.17991064488887787,-0.6248998045921326,0.2779224216938019
