time,seconds_elapsed,z,y,x
1726941003458889000,0.013888916015625,-0.022286342456936836,-0.49486231803894043,1.3420825004577637
1726941003468875000,0.023875,0.03853439539670944,-0.30485695600509644,1.3488844633102417
1726941003478861000,0.033861083984375,0.014509626664221287,-0.06074118986725807,1.3760592937469482
1726941003488847000,0.04384716796875,-0.095047228038311,0.047427624464035034,1.3548290729522705
1726941003498832000,0.053831787109375,-0.2936362028121948,-0.1517852544784546,1.256183385848999
1726941003508818200,0.063818115234375,-0.5247453451156616,-0.3952687382698059,1.1599143743515015
1726941003518804000,0.073803955078125,-0.7328450083732605,-0.48710253834724426,1.0896130800247192
1726941003528790000,0.0837900390625,-0.8567783832550049,-0.4862293004989624,1.0161237716674805
1726941003538775800,0.09377587890625,-0.8737624287605286,-0.4414404332637787,0.9515768885612488
1726941003548762000,0.10376220703125,-0.8189737796783447,-0.5204015970230103,1.0099658966064453
1726941003558748000,0.113747802734375,-0.7242079377174377,-0.45587801933288574,1.2651728391647339
1726941003568734000,0.12373388671875,-0.5533616542816162,-0.6253322958946228,1.609178900718689
1726941003578720000,0.133719970703125,-0.303255558013916,-1.1181457042694092,1.8957072496414185
1726941003588706000,0.1437060546875,-0.08744017779827118,-1.680924654006958,2.0622916221618652
1726941003598691800,0.15369189453125,0.05633150413632393,-2.1341168880462646,2.1662304401397705
1726941003608678100,0.16367822265625,0.277341365814209,-2.5749454498291016,2.276460647583008
1726941003618664000,0.173663818359375,0.4824814796447754,-3.5315606594085693,2.341785430908203
1726941003628650000,0.18364990234375,0.4458712637424469,-4.538768291473389,2.416771173477173
1726941003638636000,0.193635986328125,0.34419336915016174,-5.108250141143799,2.407336950302124
1726941003648622000,0.2036220703125,0.3756551742553711,-5.542181491851807,2.3615899085998535
1726941003658607900,0.21360791015625,0.1992654949426651,-5.430537223815918,2.3373405933380127
1726941003668594200,0.22359423828125,-0.20169711112976074,-5.306485176086426,2.311934232711792
1726941003678580000,0.233580078125,-0.5967960953712463,-4.801878929138184,2.190140724182129
1726941003688566000,0.24356591796875,-0.859836220741272,-4.070754051208496,2.014302968978882
1726941003698552000,0.253552001953125,-0.9109482765197754,-3.028074026107788,1.8335449695587158
1726941003708538000,0.2635380859375,-0.7629913091659546,-2.066502571105957,1.779540777206421
1726941003718524000,0.27352392578125,-0.41376954317092896,-1.910508155822754,1.8022252321243286
1726941003728510200,0.28351025390625,0.06038123741745949,-2.398677349090576,1.9028294086456299
1726941003738496000,0.29349609375,0.5800738334655762,-2.939429521560669,1.9828697443008423
1726941003748482000,0.30348193359375,1.1374273300170898,-2.1878702640533447,1.6971298456192017
1726941003758468000,0.313468017578125,1.6819732189178467,-0.9817856550216675,1.4900835752487183
1726941003768454100,0.3234541015625,2.129473924636841,-0.217339426279068,1.3941154479980469
1726941003778440000,0.33343994140625,2.3533265590667725,-0.17452551424503326,1.249210238456726
1726941003788426000,0.343426025390625,2.4299418926239014,-0.2591365575790405,1.1925238370895386
1726941003798412000,0.353412109375,2.6390624046325684,-0.35750287771224976,1.259969711303711
1726941003808398000,0.363398193359375,3.006704092025757,-0.5025506615638733,1.4294836521148682
1726941003818384000,0.3733837890625,3.249114513397217,-0.7322713136672974,1.592253565788269
1726941003828370200,0.3833701171875,3.2312393188476562,-0.8875551819801331,1.6592257022857666
1726941003838356000,0.39335595703125,2.9664173126220703,-0.7683159708976746,1.76529860496521
1726941003848342000,0.403342041015625,2.7042064666748047,-0.5402023792266846,1.9238871335983276
1726941003858328000,0.413328125,2.616053342819214,-0.3615577518939972,2.1067352294921875
1726941003868314000,0.423314208984375,2.74334454536438,-0.5842805504798889,2.326770544052124
1726941003878300000,0.4332998046875,3.001249074935913,-0.5195659399032593,2.540713310241699
1726941003888286200,0.4432861328125,3.2946367263793945,-0.5186165571212769,2.594666004180908
1726941003898272000,0.45327197265625,3.396355152130127,-0.46435546875,2.7369415760040283
1726941003908258000,0.463258056640625,2.5972983837127686,-0.3533833920955658,2.1832380294799805
1726941003918244000,0.473244140625,2.8306331634521484,1.1900041103363037,2.0387048721313477
1726941003928230100,0.483230224609375,3.1318798065185547,0.9601147770881653,1.8085389137268066
1726941003938216000,0.4932158203125,3.3660008907318115,1.1121933460235596,1.6435924768447876
1726941003948202200,0.5032021484375,3.333596706390381,1.4896801710128784,1.3875969648361206
1726941003958188000,0.51318798828125,3.2790367603302,1.2033827304840088,1.280176043510437
1726941003968174000,0.523174072265625,3.1286096572875977,0.39729735255241394,1.0597659349441528
1726941003978160000,0.53316015625,3.107750177383423,-0.45174065232276917,0.8104131817817688
1726941003988146200,0.543146240234375,3.4729669094085693,-1.349764347076416,0.8823446035385132
1726941003998132000,0.553132080078125,4.100538730621338,-1.716806173324585,1.5639078617095947
1726941004008118000,0.563117919921875,4.762500762939453,-1.2498509883880615,2.3865649700164795
1726941004018104000,0.57310400390625,5.291646957397461,-0.7508596181869507,3.256835460662842
1726941004028090000,0.583090087890625,5.659170150756836,-0.3624953329563141,3.7344985008239746
1726941004038076200,0.593076171875,5.804197311401367,-0.5124791264533997,3.6192426681518555
1726941004048062200,0.603062255859375,5.527493953704834,-0.34725263714790344,2.643928289413452
1726941004058048000,0.613048095703125,5.109035491943359,-0.41473695635795593,1.1713320016860962
1726941004068034000,0.623033935546875,4.577045440673828,-1.4716057777404785,-0.17801174521446228
1726941004078020000,0.63302001953125,3.984868049621582,-2.8179831504821777,-1.2111700773239136
1726941004088006100,0.643006103515625,3.406916618347168,-3.3691084384918213,-1.7801568508148193
1726941004097992200,0.6529921875,2.8586483001708984,-2.880924701690674,-1.7868572473526
1726941004107978000,0.66297802734375,2.7983920574188232,-0.9268998503684998,-1.4726585149765015
1726941004117964000,0.672964111328125,2.7329423427581787,-0.017186742275953293,-1.0740444660186768
1726941004127950000,0.6829501953125,2.56386661529541,0.5775117874145508,-0.7962579131126404
1726941004137936100,0.69293603515625,2.4795081615448,1.189229965209961,-0.5786097645759583
1726941004147922000,0.702921875,2.065048933029175,1.6097207069396973,-0.4373692274093628
1726941004157908200,0.712908203125,1.2146188020706177,1.8065482378005981,-0.42185935378074646
1726941004167894000,0.72289404296875,0.18941445648670197,0.8698268532752991,-0.45061057806015015
1726941004177880000,0.732880126953125,-0.6642444133758545,0.014302918687462807,-0.5860159993171692
1726941004187866000,0.7428662109375,-0.9858112335205078,-0.17195165157318115,-0.6652508974075317
1726941004197852200,0.75285205078125,-0.7027474045753479,0.0512164942920208,-0.6337248086929321
1726941004207838000,0.762837890625,0.012084685266017914,0.5576882362365723,-0.43040019273757935
1726941004217824300,0.77282421875,0.8015578985214233,1.1260770559310913,-0.2590261995792389
1726941004227810000,0.78281005859375,1.305922031402588,1.6226831674575806,-0.023184385150671005
1726941004237796000,0.792796142578125,1.3620872497558594,1.1773223876953125,0.22198618948459625
1726941004247782100,0.8027822265625,0.7876306176185608,-0.2518952488899231,0.4774150252342224
1726941004257768200,0.812768310546875,0.40424156188964844,-1.3074876070022583,0.9158371090888977
1726941004267754000,0.82275390625,0.6558796167373657,-2.6311464309692383,1.467004418373108
1726941004277740000,0.832739990234375,1.315224289894104,-3.8184916973114014,1.8449240922927856
1726941004287726000,0.84272607421875,1.6773009300231934,-3.668264389038086,2.1390738487243652
1726941004297712000,0.852712158203125,1.7787190675735474,-2.6248679161071777,2.3070268630981445
1726941004307698000,0.862697998046875,1.7518513202667236,-1.436362385749817,2.241673707962036
1726941004317684200,0.872684326171875,1.4227226972579956,-0.4022817611694336,2.1954002380371094
1726941004327670000,0.882669921875,1.0662378072738647,0.030435295775532722,2.246793031692505
1726941004337656000,0.892656005859375,0.8905057311058044,0.23291751742362976,2.4056835174560547
1726941004347642000,0.90264208984375,0.9688985347747803,0.283781498670578,2.3677399158477783
1726941004357628200,0.912628173828125,1.29019033908844,0.0055635105818510056,1.9383422136306763
1726941004367614000,0.922614013671875,1.4101558923721313,-0.44725456833839417,0.988821268081665
1726941004377600300,0.932600341796875,1.496744990348816,-0.7113182544708252,0.23072709143161774
1726941004387585300,0.942585205078125,1.6838352680206299,-0.5868543386459351,-0.2367042750120163
1726941004397572000,0.952572021484375,1.8229612112045288,-0.14401619136333466,-0.4108906388282776
1726941004407557000,0.96255712890625,1.8636229038238525,0.5193593502044678,-0.3843650221824646
1726941004417543200,0.972543212890625,1.8284590244293213,1.1792570352554321,-0.3030848503112793
1726941004427529200,0.982529296875,1.6701202392578125,1.69317626953125,-0.20597052574157715
1726941004437515000,0.992514892578125,1.3329768180847168,2.0609350204467773,-0.11686311662197113
1726941004447501000,1.0025009765625,0.7516289353370667,2.4188990592956543,0.00327819911763072
1726941004457487000,1.012487060546875,0.027224110439419746,2.525315046310425,0.13865305483341217
1726941004467473200,1.02247314453125,-1.1390225887298584,1.6328526735305786,0.32821473479270935
1726941004477459200,1.032459228515625,-2.309661388397217,0.5381917357444763,0.5208109021186829
1726941004487445000,1.042445068359375,-3.157658576965332,0.3027179539203644,0.6755067110061646
1726941004497431000,1.05243115234375,-3.7212436199188232,0.524314820766449,0.7092894911766052
1726941004507417000,1.0624169921875,-4.057104587554932,0.8782473206520081,0.5472137331962585
1726941004517403100,1.072403076171875,-4.08381986618042,1.2243915796279907,0.24123357236385345
1726941004527389000,1.082388916015625,-4.090450286865234,1.5432348251342773,-0.031057339161634445
1726941004537375200,1.092375244140625,-4.013866424560547,1.88141667842865,-0.1782275289297104
1726941004547361000,1.102361083984375,-3.840691328048706,1.849814534187317,-0.19544726610183716
1726941004557347000,1.11234716796875,-3.5407555103302,1.5957928895950317,-0.12415914237499237
1726941004567333000,1.1223330078125,-3.220985174179077,1.394562840461731,-0.04624304175376892
1726941004577319200,1.132319091796875,-2.3022403717041016,1.3544172048568726,-0.015474630519747734
1726941004587305000,1.142304931640625,-1.3213911056518555,1.267564296722412,-0.08592988550662994
1726941004597291300,1.152291259765625,-0.3505402207374573,0.9700832366943359,-0.2655418813228607
1726941004607277000,1.162277099609375,0.11921925842761993,0.5688258409500122,-0.3739738166332245
1726941004617263000,1.17226318359375,0.12272518873214722,0.1278400868177414,-0.34112992882728577
1726941004627249000,1.182248779296875,0.07302021235227585,-0.1175377294421196,-0.21718135476112366
1726941004637235200,1.192235107421875,0.08008650690317154,-0.16280755400657654,-0.054939739406108856
1726941004647221000,1.202220947265625,0.08524557948112488,-0.12901070713996887,0.026905328035354614
1726941004657207000,1.21220703125,0.05852383002638817,-0.06771077960729599,0.05861746892333031
1726941004667193000,1.222193115234375,0.020896825939416885,0.01547278929501772,0.048019420355558395
1726941004677179100,1.23217919921875,-0.012362056411802769,0.08178810030221939,0.034324467182159424
1726941004687165000,1.2421650390625,-0.03586950898170471,0.11700814217329025,0.012187739834189415
1726941004697151200,1.252151123046875,-0.05142131820321083,0.12761670351028442,-0.003584737190976739
1726941004707137000,1.262136962890625,-0.0765189453959465,0.1391865462064743,-0.023311570286750793
1726941004717123000,1.272123046875,-0.1111149936914444,0.14994265139102936,-0.02431168220937252
1726941004727109000,1.282109130859375,-0.147682324051857,0.15436296164989471,-0.0031344906892627478
1726941004737095200,1.29209521484375,-0.19789062440395355,0.15738603472709656,0.022169649600982666
1726941004747081000,1.3020810546875,-0.24835778772830963,0.189779132604599,0.06105180084705353
1726941004757067300,1.3120673828125,-0.29981550574302673,0.25426629185676575,0.08610377460718155
1726941004767053000,1.322052978515625,-0.33735036849975586,0.3248502016067505,0.10885462164878845
1726941004777039000,1.3320390625,-0.33643704652786255,0.35473302006721497,0.1127123087644577
1726941004787025200,1.342025146484375,-0.32124000787734985,0.3526512086391449,0.11370300501585007
1726941004797011200,1.35201123046875,-0.30445292592048645,0.32844194769859314,0.15640889108181
1726941004806997000,1.3619970703125,-0.2800900638103485,0.3240589201450348,0.2301022857427597
1726941004816983300,1.3719833984375,-0.25251662731170654,0.3502216935157776,0.3172799348831177
1726941004826969000,1.381968994140625,-0.21037422120571136,0.3975401818752289,0.40879279375076294
1726941004836955100,1.391955078125,-0.17975491285324097,0.4575903117656708,0.4618625044822693
1726941004846941200,1.401941162109375,-0.1504196673631668,0.5122197866439819,0.44100648164749146
1726941004856927200,1.41192724609375,-0.10961245000362396,0.5810559988021851,0.36783549189567566
1726941004866913000,1.4219130859375,-0.08877108246088028,0.6468979120254517,0.28291821479797363
1726941004876899000,1.431899169921875,-0.12840478122234344,0.6884156465530396,0.19038400053977966
1726941004886885000,1.441885009765625,-0.19300827383995056,0.718946635723114,0.09901653230190277
1726941004896871200,1.45187109375,-0.263545423746109,0.7373595237731934,-0.006109271198511124
1726941004906857000,1.46185693359375,-0.3317692279815674,0.7110629677772522,-0.04795392230153084
1726941004916843300,1.47184326171875,-0.3929898142814636,0.6940648555755615,-0.04788373038172722
1726941004926829000,1.4818291015625,-0.4680219888687134,0.6965448260307312,-0.0605236291885376
1726941004936815000,1.491815185546875,-0.5034918189048767,0.6716188192367554,-0.1091928631067276
1726941004946801200,1.50180126953125,-0.4575997292995453,0.6131038069725037,-0.16265900433063507
1726941004956787200,1.511787109375,-0.41984671354293823,0.6026159524917603,-0.21130521595478058
1726941004966773000,1.52177294921875,-0.3511027991771698,0.5641180872917175,-0.2525162994861603
1726941004976759300,1.53175927734375,-0.2882004380226135,0.4310603737831116,-0.276592880487442
1726941004986745000,1.5417451171875,-0.2808176279067993,0.30515676736831665,-0.3125428855419159
1726941004996730000,1.551730224609375,-0.26973700523376465,0.25905972719192505,-0.34835588932037354
1726941005006716000,1.5617158203125,-0.25848647952079773,0.2719118595123291,-0.36180564761161804
1726941005016702200,1.5717021484375,-0.26608461141586304,0.29696065187454224,-0.3658166825771332
1726941005026688000,1.58168798828125,-0.28603968024253845,0.34254518151283264,-0.35313737392425537
1726941005036674000,1.591674072265625,-0.31682994961738586,0.4046434164047241,-0.33983364701271057
1726941005046660000,1.60166015625,-0.3429363965988159,0.47152096033096313,-0.32435187697410583
1726941005056646100,1.611646240234375,-0.3783244788646698,0.5211266279220581,-0.3037054240703583
1726941005066632000,1.6216318359375,-0.4154505431652069,0.5785859227180481,-0.2716044783592224
1726941005076618200,1.6316181640625,-0.45512738823890686,0.6046907901763916,-0.24311710894107819
1726941005086604000,1.64160400390625,-0.48217737674713135,0.6022334694862366,-0.23362107574939728
1726941005096590000,1.651590087890625,-0.5031253695487976,0.5677673816680908,-0.2160213440656662
1726941005106576100,1.661576171875,-0.5065531134605408,0.5357369780540466,-0.20001201331615448
1726941005116562200,1.671562255859375,-0.4743335247039795,0.4915854036808014,-0.1912422925233841
1726941005126548000,1.6815478515625,-0.41350772976875305,0.42749032378196716,-0.18208608031272888
1726941005136534300,1.6915341796875,-0.3401878774166107,0.34440353512763977,-0.15097549557685852
1726941005146520000,1.70152001953125,-0.2633700370788574,0.2654682397842407,-0.09279873967170715
1726941005156506000,1.711506103515625,-0.1794503778219223,0.18751566112041473,0.0015035844407975674
1726941005166492200,1.7214921875,-0.10748831182718277,0.13644155859947205,0.10271994769573212
1726941005176478200,1.731478271484375,-0.039871178567409515,0.12292225658893585,0.19134855270385742
1726941005186464000,1.741464111328125,0.03544700890779495,0.11486673355102539,0.2505578100681305
1726941005196450300,1.7514501953125,0.09405054152011871,0.1106005609035492,0.2847555875778198
1726941005206436000,1.76143603515625,0.0971885398030281,0.07800719887018204,0.32589635252952576
1726941005216422100,1.771422119140625,0.06602635979652405,0.06654015928506851,0.3769124150276184
1726941005226408000,1.781407958984375,0.0372847281396389,0.04246677830815315,0.4089773893356323
1726941005236394200,1.791394287109375,0.022437991574406624,0.009445877745747566,0.4254726767539978
1726941005246380000,1.801380126953125,0.015772631391882896,0.00031869212398305535,0.44054803252220154
1726941005256366000,1.811365966796875,0.010837124660611153,0.0019401018507778645,0.4373343288898468
1726941005266352000,1.82135205078125,0.029156744480133057,-0.027854278683662415,0.42867720127105713
1726941005276338200,1.831338134765625,0.07157266139984131,-0.0648450255393982,0.41407522559165955
1726941005286324000,1.841323974609375,0.09320072084665298,-0.12251311540603638,0.35557064414024353
1726941005296310300,1.851310302734375,0.08653922379016876,-0.16551916301250458,0.28343653678894043
1726941005306296000,1.861296142578125,0.05697361007332802,-0.17232275009155273,0.1971043348312378
1726941005316282000,1.8712822265625,-0.008754950016736984,-0.1019304096698761,0.11241072416305542
1726941005326268200,1.88126806640625,-0.01901504397392273,-0.049383051693439484,0.058893438428640366
1726941005336254200,1.891254150390625,-0.0007289844215847552,0.003565451130270958,0.06208914890885353
1726941005346240000,1.901239990234375,0.015617764554917812,0.09305937588214874,0.10863268375396729
1726941005356226300,1.911226318359375,0.01115137618035078,0.18406283855438232,0.17623686790466309
1726941005366212000,1.921212158203125,-0.013596581295132637,0.24662980437278748,0.24678534269332886
1726941005376198100,1.9311982421875,0.0008654628181830049,0.23195791244506836,0.3025000989437103
1726941005386184200,1.94118408203125,0.03926238790154457,0.1391105353832245,0.32557159662246704
1726941005396170200,1.951170166015625,0.08908480405807495,0.0723634734749794,0.3182785212993622
1726941005406156000,1.961156005859375,0.11164896935224533,0.055165309458971024,0.298196405172348
1726941005416142300,1.971142333984375,0.12379323691129684,0.08953525871038437,0.2784689664840698
1726941005426128100,1.981128173828125,0.14207370579242706,0.1353488266468048,0.2803307771682739
1726941005436114200,1.9911142578125,0.13364240527153015,0.15219400823116302,0.30872592329978943
1726941005446100200,2.001100341796875,0.10437186807394028,0.1329055279493332,0.32834649085998535
1726941005456086300,2.011086181640625,0.08382012695074081,0.09615103155374527,0.3345853388309479
1726941005466072000,2.021072021484375,0.06856580078601837,0.10516263544559479,0.3217867314815521
1726941005476058000,2.03105810546875,0.045345306396484375,0.1460934281349182,0.27654144167900085
1726941005486044200,2.041044189453125,0.04801752418279648,0.2585536539554596,0.24186573922634125
1726941005496030200,2.0510302734375,0.07201952487230301,0.42998990416526794,0.20505930483341217
1726941005506016000,2.06101611328125,0.10540863871574402,0.6167219281196594,0.1781049221754074
1726941005516002300,2.071002197265625,0.1213897317647934,0.7797796130180359,0.18956516683101654
1726941005525988000,2.080988037109375,0.11756623536348343,0.8851422667503357,0.2050863355398178
1726941005535974100,2.09097412109375,0.10257596522569656,0.9050523042678833,0.21675394475460052
1726941005545960200,2.100960205078125,0.09871011972427368,0.8432861566543579,0.18607085943222046
1726941005555946000,2.110946044921875,0.13125090301036835,0.745972752571106,0.14466746151447296
1726941005565932000,2.12093212890625,0.173418328166008,0.6567464470863342,0.08976452797651291
1726941005575918000,2.13091796875,0.1796940565109253,0.5648750066757202,0.05793185532093048
1726941005585904000,2.140904052734375,0.1397320032119751,0.5014193058013916,0.04235449433326721
1726941005595890000,2.150889892578125,0.08851540088653564,0.45074746012687683,0.012389174662530422
1726941005605876200,2.160876220703125,0.042192116379737854,0.4189402759075165,-0.032330092042684555
1726941005615861200,2.170861328125,-0.006531710736453533,0.40948325395584106,-0.07403068244457245
1726941005625847000,2.180846923828125,-0.05883752554655075,0.3993331491947174,-0.1168748214840889
1726941005635833000,2.1908330078125,-0.0642152726650238,0.40963447093963623,-0.14074493944644928
1726941005645819100,2.200819091796875,-0.031079955399036407,0.4438837766647339,-0.13252243399620056
1726941005655805200,2.21080517578125,0.027944743633270264,0.4884723722934723,-0.08184169232845306
1726941005665791000,2.220791015625,0.08133473247289658,0.5889827013015747,-0.03288879990577698
1726941005675777300,2.23077734375,0.11309865862131119,0.6604195237159729,-0.00999328214675188
1726941005685763000,2.24076318359375,0.12242531776428223,0.6961005926132202,-0.018119918182492256
1726941005695749000,2.2507490234375,0.12080370634794235,0.7099672555923462,-0.03638390079140663
1726941005705735200,2.260735107421875,0.1212945282459259,0.6589645147323608,-0.07075652480125427
1726941005715721200,2.27072119140625,0.12322119623422623,0.5385650992393494,-0.06183230131864548
1726941005725707000,2.28070703125,0.13657934963703156,0.38419631123542786,-0.01844754070043564
1726941005735693300,2.290693359375,0.17572247982025146,0.25134506821632385,0.02760975807905197
1726941005745679000,2.30067919921875,0.20906898379325867,0.15873843431472778,0.045375972986221313
1726941005755665200,2.3106650390625,0.21797780692577362,0.16355350613594055,0.037591807544231415
1726941005765651200,2.320651123046875,0.20610837638378143,0.21062380075454712,0.021484212949872017
1726941005775637200,2.33063720703125,0.15870875120162964,0.3194577097892761,0.005789349786937237
1726941005785623000,2.340623046875,0.10078660398721695,0.48131343722343445,-0.01757882349193096
1726941005795609000,2.350609130859375,0.04321425035595894,0.6700607538223267,-0.036214470863342285
1726941005805595100,2.36059521484375,-0.03326694294810295,0.7956769466400146,-0.061300117522478104
1726941005815581200,2.370581298828125,-0.07489854842424393,0.8761703372001648,-0.059351712465286255
1726941005825567000,2.38056689453125,-0.08852115273475647,0.9269235134124756,-0.06238079071044922
1726941005835553300,2.39055322265625,-0.08690860867500305,0.9791781306266785,-0.05498797446489334
1726941005845539000,2.4005390625,-0.05892517417669296,1.0682284832000732,-0.03073909506201744
1726941005855525000,2.410525146484375,-0.00324805174022913,1.1795885562896729,-0.014419132843613625
1726941005865511200,2.42051123046875,0.04113858938217163,1.290461540222168,0.020361484959721565
1726941005875497200,2.430497314453125,0.05606905743479729,1.394473910331726,0.04900973290205002
1726941005885483000,2.44048291015625,0.06415122002363205,1.5083621740341187,0.10005774348974228
1726941005895469300,2.45046923828125,0.08013150840997696,1.6266310214996338,0.17017629742622375
1726941005905455000,2.460455078125,0.11571346968412399,1.7447224855422974,0.2469983696937561
1726941005915441200,2.470441162109375,0.1898064762353897,1.8330062627792358,0.30290859937667847
1726941005925427200,2.48042724609375,0.2487475574016571,1.7763975858688354,0.3119204640388489
1726941005935413200,2.490413330078125,0.28245240449905396,1.7091330289840698,0.3420776128768921
1726941005945399000,2.50039892578125,0.28141218423843384,1.638051986694336,0.41684800386428833
1726941005955385000,2.510385009765625,0.22870633006095886,1.5887341499328613,0.49211758375167847
1726941005965371100,2.52037109375,0.15253832936286926,1.5926562547683716,0.5523801445960999
1726941005975357000,2.53035693359375,0.08207190036773682,1.6061229705810547,0.5791146159172058
1726941005985343200,2.54034326171875,0.045068345963954926,1.6678715944290161,0.5782214403152466
1726941005995329000,2.5503291015625,0.02876259572803974,1.745930790901184,0.5421395897865295
1726941006005315000,2.560315185546875,0.03308064490556717,1.8807804584503174,0.4948623478412628
1726941006015301000,2.570301025390625,0.04754174128174782,2.068937063217163,0.4499762952327728
1726941006025287200,2.580287109375,0.0522930845618248,2.2273635864257812,0.40385594964027405
1726941006035273700,2.590273681640625,0.03970685973763466,2.380647659301758,0.36201778054237366
1726941006045260000,2.600260009765625,0.025495434179902077,2.534237861633301,0.3281434178352356
1726941006055245800,2.610245849609375,0.053304027765989304,2.6162121295928955,0.3336653709411621
1726941006065232000,2.62023193359375,0.15824028849601746,2.6113603115081787,0.3100772202014923
1726941006075218000,2.630218017578125,0.2966342568397522,2.415201187133789,0.24540859460830688
1726941006085204000,2.640203857421875,0.45148295164108276,2.157923698425293,0.11401382088661194
1726941006095189800,2.650189697265625,0.5414330959320068,1.7255138158798218,0.01344025507569313
1726941006105176000,2.660176025390625,0.534027636051178,1.1580660343170166,-0.005671388003975153
1726941006115161900,2.670161865234375,0.46154212951660156,0.5680155158042908,-0.033387262374162674
1726941006125148000,2.68014794921875,0.3172648549079895,0.20879849791526794,-0.07198552042245865
1726941006135132700,2.690132568359375,0.1548977792263031,0.08910304307937622,-0.09430476278066635
1726941006145119000,2.700118896484375,0.06493566185235977,0.026036197319626808,-0.17894214391708374
1726941006155104800,2.710104736328125,0.02753155678510666,0.0898117795586586,-0.2858694791793823
1726941006165090800,2.7200908203125,-0.01335462462157011,0.3629434406757355,-0.3666154444217682
1726941006175076900,2.730076904296875,-0.04806507006287575,0.857936680316925,-0.5770426392555237
1726941006185063000,2.74006298828125,-0.16493895649909973,1.3559741973876953,-0.6803162693977356
1726941006195048700,2.750048583984375,-0.4169358015060425,1.7749862670898438,-0.6227731108665466
1726941006205035000,2.760034912109375,-0.6998758316040039,1.9829999208450317,-0.5349215269088745
1726941006215020800,2.770020751953125,-0.9374894499778748,1.934594988822937,-0.49684420228004456
1726941006225006800,2.7800068359375,-1.0477880239486694,1.6515816450119019,-0.46571266651153564
1726941006234993000,2.789992919921875,-1.0812134742736816,1.363303542137146,-0.4293656349182129
1726941006244979000,2.79997900390625,-1.0309274196624756,1.060249924659729,-0.4289286136627197
1726941006254964700,2.80996484375,-0.8963070511817932,0.7829745411872864,-0.4951886534690857
1726941006264950800,2.81995068359375,-0.7614211440086365,0.6041198372840881,-0.6140530109405518
1726941006274936800,2.829936767578125,-0.6870967149734497,0.39975738525390625,-0.6726696491241455
1726941006284923000,2.8399228515625,-0.6788667440414429,0.2569296658039093,-0.6362091302871704
1726941006294908700,2.84990869140625,-0.6680320501327515,0.250683456659317,-0.5993795394897461
1726941006304895000,2.85989501953125,-0.6360749006271362,0.3329508900642395,-0.5857787728309631
1726941006314880800,2.869880859375,-0.5031458139419556,0.5593037605285645,-0.6697982549667358
1726941006324866800,2.87986669921875,-0.31950268149375916,0.9083104729652405,-0.8528652787208557
1726941006334852900,2.889852783203125,-0.08193262666463852,1.2792772054672241,-1.0941675901412964
1726941006344839000,2.8998388671875,0.41689127683639526,2.034301519393921,-1.5145502090454102
1726941006354824700,2.90982470703125,1.2568765878677368,3.708322048187256,-2.38266658782959
1726941006364811000,2.91981103515625,1.768842339515686,5.289770603179932,-3.3895390033721924
1726941006374796800,2.929796875,1.5730187892913818,5.289504528045654,-3.8491406440734863
1726941006384782800,2.939782958984375,1.0119714736938477,4.78645133972168,-3.7291030883789062
1726941006394769000,2.949768798828125,0.4396333694458008,3.6642539501190186,-3.3284757137298584
1726941006404755000,2.9597548828125,0.010259358212351799,2.4478375911712646,-2.9780516624450684
1726941006414740700,2.96974072265625,-0.15803870558738708,1.5821505784988403,-2.9111130237579346
1726941006424727000,2.97972705078125,-0.16367262601852417,1.0262035131454468,-2.9804975986480713
1726941006434712800,2.989712890625,-0.10586525499820709,0.6281343698501587,-3.0711870193481445
1726941006444699000,2.999698974609375,-0.09369061142206192,0.15084108710289001,-3.034954786300659
1726941006454685000,3.009684814453125,-0.11627808958292007,-0.5833983421325684,-2.8307652473449707
1726941006464671000,3.0196708984375,-0.22158798575401306,-1.1684086322784424,-2.5756783485412598
1726941006474656800,3.02965673828125,-0.30579033493995667,-1.5306825637817383,-2.360340118408203
1726941006484643000,3.03964306640625,-0.39706698060035706,-1.9467474222183228,-2.22725510597229
1726941006494628900,3.04962890625,-0.5337628126144409,-2.601890802383423,-2.042823076248169
1726941006504615000,3.059614990234375,-0.6681357622146606,-3.1878209114074707,-1.6961969137191772
1726941006514600700,3.0696005859375,-0.7198559641838074,-3.5772576332092285,-1.0932570695877075
1726941006524587000,3.0795869140625,-0.6581057906150818,-3.6359777450561523,-0.3242998719215393
1726941006534572800,3.08957275390625,-0.49588334560394287,-3.2907822132110596,0.3613651990890503
1726941006544558800,3.099558837890625,-0.3027213215827942,-2.6528308391571045,0.8254774212837219
1726941006554545000,3.109544921875,-0.10513288527727127,-1.7763241529464722,1.0447347164154053
1726941006564531000,3.119531005859375,0.0018412313656881452,-0.8182348608970642,1.0883362293243408
1726941006574516700,3.129516845703125,0.0037989297416061163,-0.20610271394252777,0.9827064871788025
1726941006584503000,3.1395029296875,-0.008532305248081684,0.21989867091178894,0.7424517869949341
1726941006594488800,3.14948876953125,-0.0576455257833004,0.7112078070640564,0.4726291596889496
1726941006604475000,3.159474853515625,-0.09771332144737244,1.1232986450195312,0.22041235864162445
1726941006614461000,3.1694609375,-0.21299265325069427,1.4983363151550293,0.10381297767162323
1726941006624447000,3.179447021484375,-0.2858583331108093,1.9634158611297607,0.13659915328025818
1726941006634431700,3.189431640625,-0.3745529055595398,2.440375566482544,0.27045196294784546
1726941006644417800,3.199417724609375,-0.40261808037757874,2.695200204849243,0.43408215045928955
1726941006654403800,3.20940380859375,-0.3414672613143921,2.453655242919922,0.6467499732971191
1726941006664390000,3.219389892578125,-0.18652480840682983,2.3003530502319336,0.7831317782402039
1726941006674375700,3.229375732421875,-0.06079057976603508,2.0424177646636963,0.8095290660858154
1726941006684362000,3.239362060546875,0.07867331057786942,1.956527829170227,0.8426300287246704
1726941006694347800,3.24934765625,0.12869957089424133,1.8895896673202515,0.7606433629989624
1726941006704333800,3.259333740234375,-0.049195852130651474,1.4948194026947021,0.2500280439853668
1726941006714320000,3.26931982421875,-0.28054529428482056,0.8080034852027893,-0.5468472838401794
1726941006724306000,3.279305908203125,-0.40151381492614746,0.3060239851474762,-1.0192817449569702
1726941006734291700,3.289291748046875,-0.35915103554725647,0.034546248614788055,-1.1662793159484863
1726941006744278000,3.299278076171875,-0.28005728125572205,-0.279663622379303,-1.1777316331863403
1726941006754263800,3.309263916015625,-0.25717779994010925,-0.6332150101661682,-1.1155915260314941
1726941006764249900,3.319249755859375,-0.2028016597032547,-0.7437815070152283,-0.8088287711143494
1726941006774236000,3.32923583984375,-0.05839015170931816,-0.6747090816497803,-0.2665651738643646
1726941006784222000,3.339221923828125,0.14931485056877136,-0.4319198727607727,0.18604676425457
1726941006794207700,3.349207763671875,0.20366649329662323,-0.05237451195716858,0.485004186630249
1726941006804194000,3.359194091796875,0.14967861771583557,0.17727439105510712,0.7109068036079407
1726941006814179800,3.369179931640625,0.07522771507501602,0.30421268939971924,0.9731679558753967
1726941006824166000,3.379165771484375,0.03698764741420746,0.3853467106819153,1.1938481330871582
1726941006834152000,3.38915185546875,0.045083511620759964,0.5303794145584106,1.3208231925964355
1726941006844138000,3.399137939453125,0.10666830837726593,0.7474420070648193,1.348209261894226
1726941006854123800,3.409123779296875,0.2307889312505722,0.980247437953949,1.2342461347579956
1726941006864109800,3.41910986328125,0.3382706344127655,0.9867064356803894,1.045580506324768
1726941006874095900,3.429095947265625,0.36449676752090454,0.8843160271644592,0.8465641140937805
1726941006884082000,3.43908203125,0.3450879156589508,0.7117985486984253,0.5636174082756042
1726941006894067700,3.449067626953125,0.29212486743927,0.6423178911209106,0.2762622833251953
1726941006904054000,3.459053955078125,0.20193077623844147,0.729190468788147,0.1504356414079666
1726941006914039800,3.469039794921875,0.060858353972435,0.6802079677581787,0.2089860588312149
1726941006924025900,3.47902587890625,-0.11221621930599213,0.41686660051345825,0.1537502408027649
1726941006934012000,3.489011962890625,-0.2265595942735672,0.27967098355293274,0.13674871623516083
1726941006943998000,3.498998046875,-0.24190819263458252,0.43072018027305603,0.27114513516426086
1726941006953983700,3.508983642578125,-0.2413615733385086,0.4763236343860626,0.4384874403476715
1726941006963970000,3.518969970703125,-0.297508180141449,0.3199097812175751,0.5242465138435364
1726941006973955800,3.528955810546875,-0.3276004493236542,0.2297246903181076,0.5503008365631104
1726941006983942000,3.53894189453125,-0.33175230026245117,0.20786413550376892,0.5111185312271118
1726941006993928000,3.548927978515625,-0.32960179448127747,0.1390688568353653,0.40939435362815857
1726941007003914000,3.5589140625,-0.3172639310359955,-0.011790434829890728,0.3409476578235626
1726941007013899800,3.568899658203125,-0.32809287309646606,-0.11465523391962051,0.3651948571205139
1726941007023886000,3.578885986328125,-0.3365215063095093,-0.13371813297271729,0.44409075379371643
1726941007033870800,3.588870849609375,-0.316890686750412,-0.1508631557226181,0.5334093570709229
1726941007043857000,3.59885693359375,-0.26741182804107666,-0.15791600942611694,0.6467750668525696
1726941007053843000,3.608843017578125,-0.1876562535762787,-0.12975303828716278,0.8115721940994263
1726941007063829000,3.6188291015625,-0.14191779494285583,-0.12890668213367462,0.9387959241867065
1726941007073814800,3.628814697265625,-0.10922509431838989,-0.16506658494472504,0.9680860042572021
1726941007083800800,3.63880078125,-0.036559414118528366,-0.1795951873064041,0.931999683380127
1726941007093787000,3.648786865234375,0.07947982847690582,-0.2294750064611435,0.9303346872329712
1726941007103773000,3.65877294921875,0.1216384768486023,-0.3461233377456665,0.871244490146637
1726941007113758000,3.668758056640625,0.15924350917339325,-0.36479368805885315,0.7912573218345642
1726941007123744000,3.678743896484375,0.21562156081199646,-0.22435641288757324,0.7497660517692566
1726941007133730000,3.68872998046875,0.2576883137226105,-0.06201392412185669,0.7294580936431885
1726941007143715800,3.6987158203125,0.28781747817993164,0.10270445048809052,0.7591167092323303
1726941007153702100,3.7087021484375,0.3175360858440399,0.1546774059534073,0.8186935782432556
1726941007163688000,3.71868798828125,0.32749179005622864,0.11147001385688782,0.8249437212944031
1726941007173674000,3.728674072265625,0.336283802986145,0.056522201746702194,0.7934780716896057
1726941007183659800,3.73865966796875,0.3576039969921112,0.038707517087459564,0.751762330532074
1726941007193646000,3.74864599609375,0.3664979040622711,-0.08680817484855652,0.6248170137405396
1726941007203631900,3.7586318359375,0.35310325026512146,-0.32773423194885254,0.43093839287757874
1726941007213618000,3.768617919921875,0.35525986552238464,-0.4601864516735077,0.2586768567562103
1726941007223604000,3.77860400390625,0.37424689531326294,-0.4334475100040436,0.1842721402645111
1726941007233589800,3.78858984375,0.4088262915611267,-0.3684045076370239,0.20571759343147278
1726941007243575800,3.798575927734375,0.43183866143226624,-0.45343950390815735,0.27003079652786255
1726941007253561900,3.808561767578125,0.42898815870285034,-0.5490120053291321,0.3579832911491394
1726941007263548000,3.8185478515625,0.40978118777275085,-0.6396212577819824,0.4315917193889618
1726941007273533700,3.82853369140625,0.3843604028224945,-0.7000843286514282,0.45424190163612366
1726941007283520000,3.83852001953125,0.3793717622756958,-0.7759263515472412,0.42328131198883057
1726941007293505800,3.848505859375,0.3819791078567505,-0.819998562335968,0.3845260441303253
1726941007303491800,3.858491943359375,0.364420086145401,-0.811332643032074,0.34439724683761597
1726941007313478000,3.868477783203125,0.3482931852340698,-0.7834773659706116,0.31688281893730164
1726941007323464000,3.8784638671875,0.3166433870792389,-0.7477383017539978,0.31559357047080994
1726941007333449700,3.88844970703125,0.2696194052696228,-0.7188960313796997,0.2781756818294525
1726941007343436000,3.89843603515625,0.22963498532772064,-0.6952998638153076,0.1915246844291687
1726941007353421800,3.908421875,0.21290409564971924,-0.6318808197975159,0.12423846870660782
1726941007363408000,3.918407958984375,0.21180154383182526,-0.5574824810028076,0.10039625316858292
1726941007373394000,3.928393798828125,0.21238768100738525,-0.5291574001312256,0.08842939883470535
1726941007383380000,3.9383798828125,0.19291172921657562,-0.40959054231643677,0.1868438571691513
1726941007393365800,3.94836572265625,0.16994847357273102,-0.21627801656723022,0.35972896218299866
1726941007403352000,3.95835205078125,0.11697474122047424,-0.016659969463944435,0.5671322345733643
1726941007413337900,3.968337890625,-0.030988609418272972,0.16825513541698456,0.7865120768547058
1726941007423324000,3.978323974609375,-0.2619198262691498,0.355557918548584,1.023880958557129
1726941007433309700,3.988309814453125,-0.48987603187561035,0.4616803824901581,1.1813617944717407
1726941007443296000,3.9982958984375,-0.5779289603233337,0.43778783082962036,1.2710016965866089
1726941007453281800,4.00828173828125,-0.5396348237991333,0.4038149118423462,1.3192728757858276
1726941007463267800,4.018267822265625,-0.4435442388057709,0.3960438072681427,1.3215426206588745
1726941007473254000,4.02825390625,-0.3581790030002594,0.4239983856678009,1.248471975326538
1726941007483240000,4.038239990234375,-0.30115246772766113,0.3851846754550934,0.9978213310241699
1726941007493225700,4.048225830078125,-0.27994316816329956,0.294977605342865,0.6376100778579712
1726941007503212000,4.0582119140625,-0.2908101975917816,0.25406745076179504,0.25602808594703674
1726941007513197800,4.06819775390625,-0.2930978238582611,0.16330599784851074,-0.043035924434661865
1726941007523183900,4.078183837890625,-0.25073492527008057,-0.029940959066152573,-0.21288301050662994
1726941007533170000,4.088169921875,-0.18920113146305084,-0.20153027772903442,-0.26353684067726135
1726941007543156000,4.098156005859375,-0.05654881149530411,-0.3164432942867279,-0.23601573705673218
1726941007553141800,4.108141845703125,0.1291830986738205,-0.35449546575546265,-0.12582258880138397
1726941007563128000,4.118128173828125,0.32515525817871094,-0.34305986762046814,0.05908441171050072
1726941007573113900,4.12811376953125,0.5178205966949463,-0.32346826791763306,0.21857671439647675
1726941007583100000,4.138099853515625,0.6654726266860962,-0.27738332748413086,0.3137857913970947
1726941007593086000,4.1480859375,0.7282047271728516,-0.20384392142295837,0.3166099488735199
1726941007603072000,4.158072021484375,0.7028679251670837,-0.17618300020694733,0.25422459840774536
1726941007613057800,4.168057861328125,0.5918940305709839,-0.15751118957996368,0.19920673966407776
1726941007623044000,4.178044189453125,0.43980008363723755,-0.1495741754770279,0.18555617332458496
1726941007633030000,4.18802978515625,0.2978495955467224,-0.13209553062915802,0.14736516773700714
1726941007643016000,4.198015869140625,0.2222570925951004,-0.1323874145746231,0.13418170809745789
1726941007653002000,4.208001953125,0.24405188858509064,-0.16973623633384705,0.12115375697612762
1726941007662988000,4.217988037109375,0.32436057925224304,-0.20073916018009186,0.11951591819524765
1726941007672973800,4.227973876953125,0.41492483019828796,-0.2975732386112213,0.07018151134252548
1726941007682960000,4.2379599609375,0.4489687979221344,-0.37506139278411865,0.028372809290885925
1726941007692946000,4.24794580078125,0.37666210532188416,-0.3338797986507416,0.030884822830557823
1726941007702932000,4.257931884765625,0.20977406203746796,-0.28181979060173035,0.014758316799998283
1726941007712917800,4.267917724609375,-0.005053419154137373,-0.27007928490638733,-0.004174657166004181
1726941007722904000,4.277904052734375,-0.23013927042484283,-0.2604719400405884,-0.04496602714061737
1726941007732889900,4.287889892578125,-0.4229697287082672,-0.21923580765724182,-0.10699078440666199
1726941007742876000,4.2978759765625,-0.5500682592391968,-0.18516838550567627,-0.15167702734470367
1726941007752862000,4.307862060546875,-0.5983066558837891,-0.14080403745174408,-0.18724362552165985
1726941007762848000,4.317847900390625,-0.6061285734176636,-0.0205876212567091,-0.22600805759429932
1726941007772833800,4.327833740234375,-0.5717082619667053,0.11005325615406036,-0.2771032750606537
1726941007782820000,4.337820068359375,-0.5076283812522888,0.21256178617477417,-0.3029005229473114
1726941007792804900,4.347804931640625,-0.42363905906677246,0.2983432412147522,-0.297309547662735
1726941007802791000,4.357791015625,-0.32621532678604126,0.35852694511413574,-0.262299120426178
1726941007812776700,4.367776611328125,-0.23478515446186066,0.33963730931282043,-0.19902196526527405
1726941007822763000,4.377762939453125,-0.13258713483810425,0.2745661437511444,-0.17226199805736542
1726941007832748800,4.387748779296875,-0.011538203805685043,0.23016208410263062,-0.17838042974472046
1726941007842734800,4.39773486328125,0.10380277037620544,0.19951044023036957,-0.18169713020324707
1726941007852721000,4.407720947265625,0.18407125771045685,0.17122089862823486,-0.21125265955924988
1726941007862707000,4.41770703125,0.2086266577243805,0.18261763453483582,-0.2624058425426483
1726941007872692700,4.427692626953125,0.19523866474628448,0.22627755999565125,-0.26741063594818115
1726941007882679000,4.437678955078125,0.1709650158882141,0.29471999406814575,-0.22755509614944458
1726941007892664800,4.447664794921875,0.176554337143898,0.3675927519798279,-0.18397334218025208
1726941007902651000,4.45765087890625,0.19164513051509857,0.43714413046836853,-0.1559251844882965
1726941007912637000,4.467636962890625,0.17275066673755646,0.39359423518180847,-0.09355664253234863
1726941007922623000,4.477623046875,0.11551161855459213,0.30086749792099,-0.09350764751434326
1726941007932608800,4.48760888671875,0.06086381897330284,0.2867109179496765,-0.17722363770008087
1726941007942595000,4.497594970703125,0.015886489301919937,0.3030872344970703,-0.27126118540763855
1726941007952580900,4.507580810546875,-0.02508518099784851,0.36959919333457947,-0.33154892921447754
1726941007962567000,4.51756689453125,-0.06943453848361969,0.4031981825828552,-0.38696399331092834
1726941007972553000,4.527552978515625,-0.1083635464310646,0.45605728030204773,-0.45525652170181274
1726941007982539000,4.5375390625,-0.15168385207653046,0.5096326470375061,-0.5183520913124084
1726941007992524800,4.54752490234375,-0.2234838753938675,0.6090549826622009,-0.5533930063247681
1726941008002511000,4.557510986328125,-0.30372998118400574,0.7433520555496216,-0.5934094190597534
1726941008012497000,4.567496826171875,-0.38804271817207336,0.975516676902771,-0.6492763757705688
1726941008022483000,4.57748291015625,-0.465022474527359,1.094473123550415,-0.6986319422721863
1726941008032468700,4.58746875,-0.44791218638420105,1.0714480876922607,-0.7124810218811035
1726941008042455800,4.597455810546875,-0.4052419662475586,0.9965044260025024,-0.654084324836731
1726941008052442000,4.607442138671875,-0.33253300189971924,0.8404600620269775,-0.5838912725448608
1726941008062428000,4.617427978515625,-0.30867695808410645,0.6301539540290833,-0.5476791858673096
1726941008072414000,4.6274140625,-0.3107912242412567,0.48932725191116333,-0.5565221905708313
1726941008082400000,4.63739990234375,-0.27299216389656067,0.46680036187171936,-0.6227437853813171
1726941008092386000,4.647385986328125,-0.22683320939540863,0.5154902935028076,-0.7356097102165222
1726941008102371800,4.657371826171875,-0.20262667536735535,0.5980522632598877,-0.8903902769088745
1726941008112358100,4.667358154296875,-0.21352286636829376,0.6392000317573547,-1.0324597358703613
1726941008122344000,4.677343994140625,-0.19719316065311432,0.63245689868927,-1.0955531597137451
1726941008132330000,4.687330078125,-0.20754647254943848,0.4936429262161255,-1.0842649936676025
1726941008142316000,4.69731591796875,-0.24695007503032684,0.30783843994140625,-1.0174909830093384
1726941008152302000,4.707302001953125,-0.27168774604797363,0.16695718467235565,-0.9630712866783142
1726941008162287900,4.717287841796875,-0.255187064409256,0.14421752095222473,-0.9335700869560242
1726941008172274000,4.72727392578125,-0.19671738147735596,0.19736556708812714,-0.9058525562286377
1726941008182260000,4.737260009765625,-0.09918363392353058,0.20520085096359253,-0.8721465468406677
1726941008192246000,4.74724609375,0.03586670756340027,0.24832381308078766,-0.882259726524353
1726941008202231800,4.757231689453125,0.16242757439613342,0.25527361035346985,-0.9342382550239563
1726941008212218000,4.767218017578125,0.24062025547027588,0.13184364140033722,-0.9565299153327942
1726941008222204000,4.777203857421875,0.18595542013645172,-0.06970757991075516,-0.9621249437332153
1726941008232190000,4.78718994140625,0.06730600446462631,-0.24583923816680908,-0.9072422981262207
1726941008242176000,4.797176025390625,-0.030882617458701134,-0.32092198729515076,-0.822264552116394
1726941008252162000,4.807162109375,-0.08219759911298752,-0.43174228072166443,-0.7338585257530212
1726941008262147800,4.81714794921875,-0.1264026165008545,-0.5489844679832458,-0.651299774646759
1726941008272134100,4.827134033203125,-0.1594720035791397,-0.5775429606437683,-0.5947141647338867
1726941008282120000,4.837119873046875,-0.1824260652065277,-0.5665650963783264,-0.5223811268806458
1726941008292106000,4.84710595703125,-0.17616072297096252,-0.6014842391014099,-0.4089468717575073
1726941008302092000,4.857092041015625,-0.1301375776529312,-0.6953825354576111,-0.24131259322166443
1726941008312078000,4.867078125,-0.07209157198667526,-0.7857250571250916,0.0010275014210492373
1726941008322064000,4.87706396484375,-0.00026505408459343016,-0.757075309753418,0.24324944615364075
1726941008332050200,4.88705029296875,0.07393623143434525,-0.6125737428665161,0.36436352133750916
1726941008342036000,4.897035888671875,0.17333045601844788,-0.4435219168663025,0.35481634736061096
1726941008352022000,4.90702197265625,0.273633748292923,-0.2927178144454956,0.2254636585712433
1726941008362008000,4.917008056640625,0.331836074590683,0.01889413222670555,0.06571899354457855
1726941008371994000,4.926994140625,0.2859075665473938,0.37271368503570557,-0.05814184248447418
1726941008381980000,4.93697998046875,0.1259424239397049,0.5073348879814148,-0.15184862911701202
1726941008391966200,4.94696630859375,-0.05355437099933624,0.42778074741363525,-0.13793763518333435
1726941008401952000,4.956951904296875,-0.12165965884923935,0.34078752994537354,0.046231403946876526
1726941008411938000,4.96693798828125,-0.052690841257572174,0.33546945452690125,0.27687931060791016
1726941008421923800,4.976923828125,0.03902416303753853,0.41625964641571045,0.4544663429260254
1726941008431910100,4.98691015625,0.08309056609869003,0.5621216893196106,0.5239052772521973
1726941008441896000,4.99689599609375,0.10462035983800888,0.8033694624900818,0.5270949602127075
1726941008451882000,5.006882080078125,0.12321653962135315,0.9719668626785278,0.5216296911239624
1726941008461868000,5.016867919921875,0.16415971517562866,0.9721636772155762,0.5267411470413208
1726941008471854000,5.02685400390625,0.19554653763771057,0.8951752781867981,0.5770231485366821
1726941008481839900,5.03683984375,0.20673447847366333,0.8082662224769592,0.6587507724761963
1726941008491826200,5.046826171875,0.21646232903003693,0.7255323529243469,0.7304259538650513
1726941008501812000,5.05681201171875,0.19241371750831604,0.6303024888038635,0.7872897982597351
1726941008511798000,5.066798095703125,0.1108284443616867,0.5298184752464294,0.8374856114387512
1726941008521784000,5.0767841796875,0.0007536049815826118,0.41796940565109253,0.882171630859375
1726941008531770000,5.08677001953125,-0.05652313306927681,0.29622912406921387,0.8898708820343018
1726941008541756000,5.096755859375,-0.025523938238620758,0.2480030208826065,0.8302996754646301
1726941008551742000,5.106741943359375,0.04523039236664772,0.15646591782569885,0.8210641145706177
1726941008561728000,5.11672802734375,0.12456835806369781,0.059938568621873856,0.8760210871696472
1726941008571714000,5.126714111328125,0.17229580879211426,-0.13330848515033722,0.9212093353271484
1726941008581700000,5.1367001953125,0.15961889922618866,-0.3265884518623352,0.9367720484733582
1726941008591686000,5.146685791015625,0.12145832180976868,-0.5021564960479736,0.8782395720481873
1726941008601672000,5.156671875,0.09468210488557816,-0.65857994556427,0.8137561678886414
1726941008611658000,5.166657958984375,0.06382445991039276,-0.7215871810913086,0.7568539381027222
1726941008621644000,5.17664404296875,0.049811169505119324,-0.7273931503295898,0.7284236550331116
1726941008631629800,5.1866298828125,0.03482796624302864,-0.6970150470733643,0.6960012316703796
1726941008641616100,5.1966162109375,-0.02942984737455845,-0.7280241250991821,0.6434522867202759
1726941008651602000,5.206601806640625,-0.13867591321468353,-0.7508742213249207,0.5307297706604004
1726941008661588000,5.216587890625,-0.27674007415771484,-0.6361479163169861,0.40830501914024353
1726941008671573800,5.22657373046875,-0.43053507804870605,-0.3981296122074127,0.28406521677970886
1726941008681559000,5.23655908203125,-0.5319490432739258,-0.1603442132472992,0.1965058147907257
1726941008691545900,5.2465458984375,-0.6001080870628357,-0.031725794076919556,0.15856428444385529
1726941008701531000,5.25653076171875,-0.6462305784225464,0.01729154959321022,0.11666928976774216
1726941008711517200,5.26651708984375,-0.6847506761550903,-0.01613721251487732,0.07746285945177078
1726941008721503000,5.2765029296875,-0.7149818539619446,-0.04723867401480675,0.0710664838552475
1726941008731489000,5.286489013671875,-0.7387144565582275,-0.04829365015029907,0.09829463809728622
1726941008741475000,5.29647509765625,-0.7407270073890686,0.02122683823108673,0.12723441421985626
1726941008751461000,5.306461181640625,-0.704723596572876,0.10532064735889435,0.13057738542556763
1726941008761447000,5.316447021484375,-0.6750242710113525,0.11541189253330231,0.12831076979637146
1726941008771433000,5.326432861328125,-0.6965722441673279,0.05130208283662796,0.18711869418621063
1726941008781419000,5.3364189453125,-0.7266169786453247,-0.14134539663791656,0.2825501561164856
1726941008791405000,5.346405029296875,-0.7950946092605591,-0.4750528931617737,0.3412632346153259
1726941008801390800,5.356390869140625,-0.8901993036270142,-0.658913791179657,0.16414068639278412
1726941008811377200,5.366377197265625,-0.9332326650619507,-0.4519806206226349,-0.1872810423374176
1726941008821363000,5.376363037109375,-0.787733256816864,-0.07482027262449265,-0.3158526122570038
1726941008831349000,5.386348876953125,-0.5145297050476074,0.054614920169115067,-0.2464834302663803
1726941008841335000,5.3963349609375,-0.29083725810050964,-0.0012491436209529638,-0.1218876987695694
1726941008851321000,5.406321044921875,-0.179287388920784,-0.09251952171325684,-0.013861170038580894
1726941008861307000,5.416306884765625,-0.14344151318073273,-0.15789560973644257,0.038552235811948776
1726941008871293200,5.426293212890625,-0.13120590150356293,-0.15608207881450653,0.04884609952569008
1726941008881279000,5.436279052734375,-0.12961731851100922,-0.18000605702400208,0.0024778039660304785
1726941008891265000,5.44626513671875,-0.14640921354293823,-0.2456790953874588,-0.02646498754620552
1726941008901251000,5.4562509765625,-0.19571392238140106,-0.2870747447013855,0.0002979158889502287
1726941008911237000,5.466237060546875,-0.3082389831542969,-0.2270316779613495,0.05284998193383217
1726941008921223000,5.476222900390625,-0.40237027406692505,-0.10069318860769272,0.07818569988012314
1726941008931209000,5.486208984375,-0.4286988079547882,-0.015680091455578804,0.06313439458608627
1726941008941195000,5.496195068359375,-0.46323442459106445,0.026982683688402176,0.011015537194907665
1726941008951181000,5.50618115234375,-0.5249627828598022,0.02293745055794716,-0.08082247525453568
1726941008961167000,5.5161669921875,-0.5641176104545593,0.014243562705814838,-0.11700151860713959
1726941008971153000,5.52615283203125,-0.5823898315429688,0.11611426621675491,-0.057399969547986984
1726941008981139000,5.536138916015625,-0.5936400890350342,0.171965554356575,-0.002909565344452858
1726941008991125000,5.546125,-0.5612267255783081,0.18616153299808502,0.011387614533305168
1726941009001111000,5.556111083984375,-0.5059549808502197,0.17313547432422638,-0.032913804054260254
1726941009011096800,5.566096923828125,-0.44309893250465393,0.13290105760097504,-0.12161070853471756
1726941009021083000,5.576082763671875,-0.3843509256839752,0.0848190039396286,-0.22625961899757385
1726941009031069000,5.58606884765625,-0.31181785464286804,0.09606762230396271,-0.2354254573583603
1726941009041055000,5.596054931640625,-0.20788080990314484,0.023010194301605225,-0.20487608015537262
1726941009051040800,5.606040771484375,-0.14098221063613892,-0.004459138959646225,-0.1615847498178482
1726941009061026800,5.61602685546875,-0.11795519292354584,0.03268902748823166,-0.12533247470855713
1726941009071012900,5.626012939453125,-0.08040502667427063,0.0539374016225338,-0.13365571200847626
1726941009080999000,5.6359990234375,-0.012974858283996582,0.042368095368146896,-0.2265520989894867
1726941009090984700,5.645984619140625,0.0787229835987091,0.009798294864594936,-0.33872297406196594
1726941009100971000,5.655970947265625,0.17951270937919617,0.0041342843323946,-0.3998395800590515
1726941009110956800,5.665956787109375,0.256893128156662,-0.050287794321775436,-0.41510140895843506
1726941009120942800,5.67594287109375,0.28849607706069946,-0.14885617792606354,-0.388839989900589
1726941009130929000,5.685928955078125,0.2571861743927002,-0.23825183510780334,-0.34403449296951294
1726941009140915000,5.6959150390625,0.16292013227939606,-0.31479907035827637,-0.2960142195224762
1726941009150900700,5.705900634765625,0.04925815761089325,-0.31229519844055176,-0.22700463235378265
1726941009160887000,5.715886962890625,-0.022119352594017982,-0.1968652904033661,-0.11575240641832352
1726941009170872800,5.725872802734375,-0.02759825810790062,-0.024070776998996735,-0.06279539316892624
1726941009180859000,5.73585888671875,0.016293033957481384,0.19179414212703705,-0.0660116896033287
1726941009190845000,5.745844970703125,0.0369986891746521,0.33987709879875183,-0.1227458119392395
1726941009200831000,5.7558310546875,0.001420454471372068,0.3532333970069885,-0.17365825176239014
1726941009210816800,5.765816650390625,-0.08569606393575668,0.2988733947277069,-0.18545815348625183
1726941009220803000,5.775802978515625,-0.20306983590126038,0.3990394175052643,-0.2276679277420044
1726941009230788900,5.785788818359375,-0.27373239398002625,0.5542694330215454,-0.3470248878002167
1726941009240775000,5.79577490234375,-0.3024194538593292,0.7234429717063904,-0.4312279224395752
1726941009250760700,5.8057607421875,-0.28626418113708496,0.9243826866149902,-0.487679123878479
1726941009260747000,5.8157470703125,-0.2607992887496948,1.0706149339675903,-0.5638583302497864
1726941009270732800,5.82573291015625,-0.24482618272304535,1.1513251066207886,-0.6571059226989746
1726941009280718800,5.83571875,-0.2673355042934418,1.0931872129440308,-0.6961153745651245
1726941009290705000,5.845704833984375,-0.304193913936615,0.969467282295227,-0.6971357464790344
1726941009300691000,5.85569091796875,-0.3009374141693115,0.9305976033210754,-0.733619749546051
1726941009310676700,5.8656767578125,-0.2477221041917801,1.010335087776184,-0.8300552368164062
1726941009320663000,5.8756630859375,-0.14961418509483337,1.1666064262390137,-0.9581005573272705
1726941009330648800,5.88564892578125,-0.0628848746418953,1.252927541732788,-1.016088604927063
1726941009340635000,5.895634765625,-0.06873637437820435,1.248388409614563,-0.9056675434112549
1726941009350621000,5.905620849609375,-0.2126368284225464,1.127381682395935,-0.7107947468757629
1726941009360607000,5.91560693359375,-0.32108795642852783,0.9832266569137573,-0.6363914012908936
1726941009370592800,5.9255927734375,-0.3427591621875763,0.9928644895553589,-0.7982043027877808
1726941009380579000,5.9355791015625,-0.3472018539905548,1.0510566234588623,-1.0903054475784302
1726941009390564900,5.94556494140625,-0.3445296287536621,1.054153561592102,-1.4523334503173828
1726941009400551000,5.955551025390625,-0.3364322781562805,0.7554323673248291,-1.731601595878601
1726941009410536000,5.965535888671875,-0.33738863468170166,0.2294480800628662,-1.7406728267669678
1726941009420523000,5.97552294921875,-0.3027094900608063,-0.17299284040927887,-1.4927014112472534
1726941009430507800,5.9855078125,-0.18784266710281372,-0.39619895815849304,-1.1311496496200562
1726941009440495000,5.9954951171875,-0.08284727483987808,-0.5477607846260071,-0.7401102185249329
1726941009450481000,6.00548095703125,-0.03388027474284172,-0.7270864844322205,-0.4416384994983673
1726941009460466000,6.0154658203125,-0.12312626093626022,-1.0061380863189697,-0.2550662159919739
1726941009470451700,6.02545166015625,-0.2468988001346588,-1.3326756954193115,-0.13957083225250244
1726941009480438000,6.03543798828125,-0.2673681378364563,-1.666166067123413,-0.046197474002838135
1726941009490423800,6.045423828125,-0.10070816427469254,-2.1330742835998535,0.017044460400938988
1726941009500409900,6.055409912109375,0.1766403466463089,-2.3883774280548096,0.10069355368614197
1726941009510396000,6.06539599609375,0.4008566737174988,-2.3101978302001953,0.22804008424282074
1726941009520382000,6.0753818359375,0.5920771956443787,-2.0390772819519043,0.31470468640327454
1726941009530367700,6.08536767578125,0.7985071539878845,-1.6051404476165771,0.3013908565044403
1726941009540354000,6.09535400390625,0.9836143851280212,-1.1879853010177612,0.20881593227386475
1726941009550339800,6.10533984375,1.208624243736267,-0.9544610381126404,0.07653358578681946
1726941009560326000,6.115325927734375,1.3463929891586304,-0.7046527862548828,0.015801262110471725
1726941009570312000,6.12531201171875,1.2994239330291748,-0.4103320837020874,0.00862525962293148
1726941009580298000,6.135298095703125,1.194683313369751,-0.14372330904006958,0.08179241418838501
1726941009590283800,6.14528369140625,1.1411534547805786,0.08752904087305069,0.2443726807832718
1726941009600269800,6.155269775390625,1.1070221662521362,0.36821475625038147,0.401691198348999
1726941009610256000,6.165255859375,1.0530884265899658,0.6687918305397034,0.48148730397224426
1726941009620242000,6.175241943359375,0.8856522440910339,0.8929439783096313,0.49882954359054565
1726941009630227700,6.185227783203125,0.6316211223602295,1.0087224245071411,0.5204978585243225
1726941009640214000,6.195214111328125,0.38840532302856445,0.9837324023246765,0.5819172859191895
1726941009650199800,6.20519970703125,0.20205384492874146,0.9209079146385193,0.6540037393569946
1726941009660185900,6.215185791015625,0.0910612940788269,0.9505611062049866,0.7038426995277405
1726941009670172000,6.225171875,0.022114554420113564,0.995193362236023,0.7129839062690735
1726941009680158000,6.235157958984375,-0.04878438636660576,0.9295759797096252,0.7579790949821472
1726941009690143700,6.245143798828125,-0.15236973762512207,0.7237151265144348,0.8668959140777588
1726941009700130000,6.255130126953125,-0.2643335461616516,0.529436469078064,1.0499460697174072
1726941009710115800,6.26511572265625,-0.35210415720939636,0.3825172185897827,1.263288974761963
1726941009720102000,6.275101806640625,-0.4555661082267761,0.28175732493400574,1.4463926553726196
1726941009730088000,6.285087890625,-0.5199400186538696,0.21956300735473633,1.615662693977356
1726941009740074000,6.295073974609375,-0.5017191767692566,0.18775233626365662,1.7696226835250854
1726941009750059800,6.305059814453125,-0.33848193287849426,0.4914121627807617,1.7108277082443237
1726941009760046000,6.315046142578125,-0.10696855932474136,0.7900587916374207,1.45974600315094
1726941009770031900,6.325031982421875,0.13504178822040558,0.7213227152824402,1.108776569366455
1726941009780018000,6.335017822265625,0.3090932071208954,0.3336208164691925,0.795257031917572
1726941009790004000,6.34500390625,0.11752498149871826,-0.49143990874290466,0.4535090923309326
1726941009799990000,6.354989990234375,-0.30040618777275085,-1.41592538356781,0.0816308781504631
1726941009809975800,6.364975830078125,-0.5670504570007324,-1.7346289157867432,-0.03886053338646889
1726941009819962000,6.374962158203125,-0.6416053771972656,-1.5469365119934082,0.06768561899662018
1726941009829948000,6.384947998046875,-0.5883085131645203,-1.2256723642349243,0.18554732203483582
1726941009839934000,6.394933837890625,-0.43328770995140076,-0.9811968207359314,0.28134655952453613
1726941009849919700,6.404919677734375,-0.26778608560562134,-0.822660505771637,0.35341504216194153
1726941009859906000,6.414906005859375,-0.13054700195789337,-0.7416445016860962,0.4211634695529938
1726941009869891800,6.424891845703125,0.0013039896730333567,-0.5830814838409424,0.5130088925361633
1726941009879878000,6.4348779296875,0.04201733320951462,-0.40595492720603943,0.6222858428955078
1726941009889864000,6.444864013671875,0.00044655631063506007,-0.3672768473625183,0.666965663433075
1726941009899850000,6.45485009765625,-0.07218743115663528,-0.4118421971797943,0.5766091346740723
1726941009909835800,6.464835693359375,-0.17675179243087769,-0.42190301418304443,0.31676945090293884
1726941009919822000,6.474822021484375,-0.35551515221595764,-0.506144106388092,-0.07966788113117218
1726941009929808000,6.484807861328125,-0.5128199458122253,-0.4594283103942871,-0.3435821831226349
1726941009939794000,6.4947939453125,-0.5916793346405029,-0.16487790644168854,-0.46652114391326904
1726941009949780000,6.504780029296875,-0.5849319696426392,0.04494478926062584,-0.4812016487121582
1726941009959766000,6.51476611328125,-0.5357303023338318,0.11532094329595566,-0.38666582107543945
1726941009969751800,6.524751708984375,-0.46274057030677795,0.12392599880695343,-0.1894901543855667
1726941009979738000,6.534738037109375,-0.4143943190574646,0.07150407135486603,-0.0016952280420809984
1726941009989724000,6.544723876953125,-0.41171157360076904,0.07120165973901749,0.1345527619123459
1726941009999710000,6.5547099609375,-0.3932414948940277,0.08942966163158417,0.20901767909526825
1726941010009696000,6.564696044921875,-0.35713887214660645,0.09890259802341461,0.26257723569869995
1726941010019682000,6.57468212890625,-0.2915814518928528,0.06878277659416199,0.28532886505126953
1726941010029667800,6.584667724609375,-0.23886683583259583,-0.0090446462854743,0.2590988874435425
1726941010039653000,6.594653076171875,-0.207923024892807,-0.0423317588865757,0.20691795647144318
1726941010049639200,6.60463916015625,-0.16959480941295624,-0.06944496184587479,0.13652850687503815
1726941010059625200,6.614625244140625,-0.1195225864648819,-0.1121990829706192,0.10626168549060822
1726941010069611000,6.624611083984375,-0.059330347925424576,-0.22286006808280945,0.10126107186079025
1726941010079597300,6.634597412109375,-0.013517053797841072,-0.2959792912006378,0.08599263429641724
1726941010089583000,6.6445830078125,0.026334090158343315,-0.28466886281967163,0.04597248136997223
1726941010099569200,6.654569091796875,0.09353629499673843,-0.1477099508047104,0.020870056003332138
1726941010109555000,6.664554931640625,0.17886316776275635,-0.005518055520951748,-0.0038908577989786863
1726941010119541200,6.674541259765625,0.24008630216121674,0.042117640376091,-0.03893459215760231
1726941010129527000,6.684527099609375,0.2461351454257965,0.026403702795505524,-0.08365241438150406
1726941010139513000,6.69451318359375,0.23436316847801208,-0.02452925406396389,-0.10848772525787354
1726941010149499100,6.7044990234375,0.24471785128116608,-0.09098232537508011,-0.13080471754074097
1726941010159485200,6.714485107421875,0.2839435338973999,-0.10192152112722397,-0.1708592027425766
1726941010169471000,6.724470947265625,0.30506065487861633,-0.07016241550445557,-0.2442619800567627
1726941010179457300,6.734457275390625,0.2873002886772156,-0.055958978831768036,-0.32021480798721313
1726941010189443000,6.744443115234375,0.24314561486244202,-0.12338802218437195,-0.3557257354259491
1726941010199429000,6.75442919921875,0.16053223609924316,-0.1648840606212616,-0.3519360423088074
1726941010209415200,6.764415283203125,0.10742230713367462,-0.1202278733253479,-0.3293488323688507
1726941010219401200,6.774401123046875,0.1101512536406517,-0.030162960290908813,-0.2829277813434601
1726941010229387000,6.784386962890625,0.1299893707036972,0.05884333327412605,-0.20868107676506042
1726941010239373300,6.794373291015625,0.13094091415405273,0.13196122646331787,-0.13656294345855713
1726941010249359000,6.804359130859375,0.07799088954925537,0.16131289303302765,-0.08322831988334656
1726941010259345200,6.81434521484375,0.02063598856329918,0.18317344784736633,-0.08162563294172287
1726941010269331200,6.824331298828125,0.04853193834424019,0.24843847751617432,-0.0942104235291481
1726941010279317200,6.834317138671875,0.13925331830978394,0.29611971974372864,-0.16456101834774017
1726941010289303000,6.844302978515625,0.22995539009571075,0.33680638670921326,-0.2576853930950165
1726941010299289300,6.854289306640625,0.2510601580142975,0.36442843079566956,-0.33274897933006287
1726941010309275100,6.864275146484375,0.12739412486553192,0.5745555758476257,-0.3346717953681946
1726941010319261200,6.87426123046875,-0.028374696150422096,0.6432249546051025,-0.2936258316040039
1726941010329247000,6.8842470703125,-0.17015646398067474,0.7415094375610352,-0.3069159984588623
1726941010339233300,6.8942333984375,-0.2235504537820816,0.8916518092155457,-0.33779266476631165
1726941010349219000,6.904218994140625,-0.2086789608001709,1.214627742767334,-0.4387749135494232
1726941010359205000,6.914205078125,-0.20343387126922607,1.473500370979309,-0.5524407625198364
1726941010369191200,6.924191162109375,-0.21997955441474915,1.5872039794921875,-0.6763238906860352
1726941010379177200,6.93417724609375,-0.20105992257595062,1.5683866739273071,-0.7649304270744324
1726941010389163000,6.9441630859375,-0.12269028276205063,1.548318862915039,-0.8938267230987549
1726941010399149000,6.954149169921875,-0.043464697897434235,1.5349478721618652,-1.0612303018569946
1726941010409135000,6.964135009765625,-0.03656005859375,1.4378217458724976,-1.2190827131271362
1726941010419121200,6.97412109375,-0.11925040930509567,1.1686941385269165,-1.3476934432983398
1726941010429107200,6.984107177734375,-0.22668473422527313,0.7082762122154236,-1.4702030420303345
1726941010439093000,6.994093017578125,-0.27532923221588135,0.289753794670105,-1.5484896898269653
1726941010449079000,7.0040791015625,-0.2467038333415985,0.00622344808652997,-1.546422004699707
1726941010459065000,7.014065185546875,-0.27092820405960083,-0.14472639560699463,-1.559512734413147
1726941010469051100,7.024051025390625,-0.33927929401397705,-0.4462968707084656,-1.5579662322998047
1726941010479037000,7.034036865234375,-0.3792770504951477,-0.5780187249183655,-1.5024813413619995
1726941010489023200,7.044023193359375,-0.3996543884277344,-0.6268618106842041,-1.34299898147583
1726941010499009000,7.054009033203125,-0.4348430037498474,-0.8745706677436829,-1.0638501644134521
1726941010508995000,7.0639951171875,-0.4225223958492279,-1.3040395975112915,-0.7589576244354248
1726941010518981000,7.073981201171875,-0.39595815539360046,-1.6240018606185913,-0.49166837334632874
1726941010528967200,7.08396728515625,-0.39389288425445557,-1.9642127752304077,-0.22351953387260437
1726941010538953000,7.093952880859375,-0.35630983114242554,-2.192864418029785,0.06899914890527725
1726941010548939300,7.103939208984375,-0.255890429019928,-2.292635202407837,0.35829612612724304
1726941010558925000,7.113925048828125,-0.042892150580883026,-2.1951680183410645,0.5181236267089844
1726941010568911000,7.1239111328125,0.2406085580587387,-2.002202033996582,0.5716297626495361
1726941010578897000,7.13389697265625,0.5707835555076599,-1.7194324731826782,0.5595555305480957
1726941010588883200,7.14388330078125,0.8670578598976135,-1.3764543533325195,0.4974837899208069
1726941010598869000,7.153868896484375,1.0735212564468384,-0.9841499924659729,0.405904620885849
1726941010608855000,7.16385498046875,1.2233549356460571,-0.5387887358665466,0.24253752827644348
1726941010618841000,7.173841064453125,1.3467154502868652,-0.01780438981950283,0.015299580991268158
1726941010628827100,7.1838271484375,1.357049822807312,0.4619089663028717,-0.20183798670768738
1726941010638813000,7.19381298828125,1.17478609085083,0.7935010194778442,-0.3097727298736572
1726941010648799200,7.20379931640625,0.8350298404693604,0.9302206635475159,-0.18960893154144287
1726941010658785000,7.213784912109375,0.51736980676651,0.8172624111175537,0.1076861172914505
1726941010668771000,7.22377099609375,0.3245578110218048,0.7757445573806763,0.37381115555763245
1726941010678757000,7.233757080078125,0.2244165539741516,0.7449914813041687,0.6008583903312683
1726941010688743200,7.2437431640625,0.22118984162807465,0.8175795674324036,0.8177068829536438
1726941010698729000,7.25372900390625,0.21221819519996643,0.9787623286247253,0.9940469861030579
1726941010708715300,7.26371533203125,0.18552148342132568,1.1542580127716064,1.075355052947998
1726941010718701000,7.273701171875,0.18180690705776215,1.3266184329986572,1.0732228755950928
1726941010728687000,7.28368701171875,0.19717413187026978,1.350972056388855,1.0188030004501343
1726941010738673200,7.293673095703125,0.1522548645734787,1.2682018280029297,0.9837462902069092
1726941010748659200,7.3036591796875,0.05364186689257622,1.1966639757156372,1.0335216522216797
1726941010758645000,7.31364501953125,-0.05600074306130409,1.2013458013534546,1.1230427026748657
1726941010768631300,7.32363134765625,-0.187453031539917,1.1658068895339966,1.1991076469421387
1726941010778617000,7.3336171875,-0.3058060109615326,0.7878465056419373,1.2762384414672852
1726941010788603100,7.34360302734375,-0.45554617047309875,0.21592499315738678,1.2899097204208374
1726941010798589200,7.353589111328125,-0.6325576901435852,-0.1082991510629654,1.2025343179702759
1726941010808575200,7.3635751953125,-0.7162365913391113,-0.3253757059574127,1.1470650434494019
1726941010818561000,7.37356103515625,-0.6904404163360596,-0.41900232434272766,1.08204185962677
1726941010828547000,7.383547119140625,-0.6543011665344238,-0.6677255630493164,0.8554980158805847
1726941010838533000,7.393533203125,-0.6391230225563049,-0.8755679726600647,0.661135196685791
1726941010848519200,7.403519287109375,-0.5935193300247192,-1.0491479635238647,0.5369711518287659
1726941010858505000,7.4135048828125,-0.44030019640922546,-1.0689905881881714,0.5058017373085022
1726941010868491300,7.4234912109375,-0.2468883991241455,-1.0582313537597656,0.5046201348304749
1726941010878477000,7.43347705078125,-0.10718296468257904,-1.16049325466156,0.37385764718055725
1726941010888463000,7.443463134765625,-0.03654460236430168,-1.2150650024414062,0.21069210767745972
1726941010898449200,7.45344921875,0.048572421073913574,-1.0414612293243408,0.13606978952884674
1726941010908435200,7.463435302734375,0.13852159678936005,-0.8587143421173096,0.17498154938220978
1726941010918421000,7.4734208984375,0.19472894072532654,-0.6933336853981018,0.2887621819972992
1726941010928407300,7.4834072265625,0.20477984845638275,-0.5048657655715942,0.3772564232349396
1726941010938393000,7.49339306640625,0.19030636548995972,-0.31654325127601624,0.3783174455165863
1726941010948379100,7.503379150390625,0.17804716527462006,-0.18906576931476593,0.3707256019115448
1726941010958365200,7.513365234375,0.13675805926322937,-0.1623374968767166,0.3667428493499756
1726941010968351200,7.523351318359375,0.06940685957670212,-0.21603655815124512,0.4181348383426666
1726941010978337000,7.5333369140625,-0.07338038831949234,-0.191651850938797,0.4228920340538025
1726941010988323300,7.5433232421875,-0.22736449539661407,-0.12290175259113312,0.3414287269115448
1726941010998309000,7.55330908203125,-0.3148229718208313,-0.04507433995604515,0.26283326745033264
1726941011008295200,7.563295166015625,-0.34964126348495483,-0.005583996418863535,0.21326738595962524
1726941011018281200,7.57328125,-0.36888182163238525,-0.04741959273815155,0.16215546429157257
1726941011028267300,7.583267333984375,-0.3569420576095581,-0.061278268694877625,0.10931689292192459
1726941011038253800,7.59325390625,-0.3015608489513397,-0.05016809329390526,0.05143548175692558
1726941011048239600,7.603239501953125,-0.19971463084220886,-0.027443381026387215,0.023406393826007843
1726941011058226000,7.613225830078125,-0.10593940317630768,-0.10982214659452438,0.0010070782154798508
1726941011068211700,7.623211669921875,-0.0832841545343399,-0.14346642792224884,0.021443523466587067
1726941011078197800,7.63319775390625,-0.14960512518882751,-0.20659080147743225,0.05574823543429375
1726941011088183800,7.643183837890625,-0.2654864490032196,-0.1462448537349701,0.06919524818658829
1726941011098169900,7.653169921875,-0.285781592130661,-0.11863398551940918,0.03807247802615166
1726941011108155600,7.66315576171875,-0.19621030986309052,-0.1567198485136032,-0.01784801296889782
1726941011118142000,7.673141845703125,-0.05428539961576462,-0.1843661218881607,-0.028898531571030617
1726941011128127700,7.683127685546875,-0.016228290274739265,-0.10978595167398453,-0.04162649065256119
1726941011138113800,7.69311376953125,-0.06304879486560822,-0.008790368214249611,-0.08595108240842819
1726941011148099800,7.703099853515625,-0.0450812503695488,-0.02439853549003601,-0.13763239979743958
1726941011158086000,7.7130859375,0.046332020312547684,-0.03221544623374939,-0.1698625087738037
1726941011168071700,7.72307177734375,0.14383049309253693,-0.04952666535973549,-0.20467469096183777
1726941011178057700,7.7330576171875,0.1710543930530548,-0.020685695111751556,-0.1780499964952469
1726941011188043800,7.743043701171875,0.1032930314540863,-0.0017151968786492944,-0.1431514471769333
1726941011198029800,7.75302978515625,0.002108087297528982,0.006417298223823309,-0.14539383351802826
1726941011208015600,7.763015625,-0.04640975221991539,0.04041252285242081,-0.15326720476150513
1726941011218002000,7.773001953125,-0.018926993012428284,0.0850449725985527,-0.14634539186954498
1726941011227987700,7.78298779296875,-0.007319748867303133,0.11855240911245346,-0.15075697004795074
1726941011237973800,7.792973876953125,-0.06769867241382599,0.13639718294143677,-0.16743288934230804
1726941011247959800,7.802959716796875,-0.15499895811080933,0.14983214437961578,-0.1989513635635376
1726941011257945900,7.81294580078125,-0.19167974591255188,0.15765836834907532,-0.25900352001190186
1726941011267930600,7.8229306640625,-0.11865080893039703,0.15856167674064636,-0.3055652976036072
1726941011277916700,7.832916748046875,0.024808086454868317,0.21133700013160706,-0.33128076791763306
1726941011287902700,7.84290283203125,0.15291719138622284,0.2697962820529938,-0.3341541290283203
1726941011297888800,7.852888671875,0.19545532763004303,0.2822686731815338,-0.3030356168746948
1726941011307874600,7.86287451171875,0.1700567603111267,0.2651991844177246,-0.27010148763656616
1726941011317860900,7.87286083984375,0.12335929274559021,0.24214741587638855,-0.25622400641441345
1726941011327846700,7.8828466796875,0.12572923302650452,0.26744452118873596,-0.24159526824951172
1726941011337832700,7.892832763671875,0.2086041420698166,0.390058308839798,-0.2680329978466034
1726941011347818800,7.90281884765625,0.29883259534835815,0.6031670570373535,-0.3941742777824402
1726941011357804800,7.9128046875,0.33455196022987366,0.7874844670295715,-0.5761731266975403
1726941011367790600,7.92279052734375,0.3052551746368408,0.822250247001648,-0.6826360821723938
1726941011377777000,7.93277685546875,0.26346856355667114,0.8212236166000366,-0.6641018390655518
1726941011387762700,7.9427626953125,0.23365823924541473,0.87525874376297,-0.5824518799781799
1726941011397748700,7.952748779296875,0.21433115005493164,1.0776758193969727,-0.5150550007820129
1726941011407734800,7.96273486328125,0.20693407952785492,1.2628928422927856,-0.47605225443840027
1726941011417720800,7.972720947265625,0.23075126111507416,1.3017982244491577,-0.4491215646266937
1726941011427706600,7.98270654296875,0.2822979688644409,1.3186498880386353,-0.41719716787338257
1726941011437693000,7.99269287109375,0.3602050244808197,1.3375282287597656,-0.43998903036117554
1726941011447678700,8.0026787109375,0.4176548421382904,1.2860081195831299,-0.5678604245185852
1726941011457664800,8.012664794921875,0.4430488646030426,1.239070177078247,-0.8422864079475403
1726941011467650800,8.02265087890625,0.40050008893013,1.0373013019561768,-1.201779842376709
1726941011477636900,8.032636962890624,0.2869141399860382,0.716682493686676,-1.5468312501907349
1726941011487622700,8.04262255859375,0.16676682233810425,0.22188813984394073,-1.7881537675857544
1726941011497609000,8.05260888671875,0.02556576021015644,-0.2326980084180832,-1.856321930885315
1726941011507594800,8.0625947265625,-0.15708915889263153,-0.5425909757614136,-1.7756389379501343
1726941011517580800,8.072580810546874,-0.33646848797798157,-0.7511955499649048,-1.6287158727645874
1726941011527566600,8.082566650390625,-0.40566450357437134,-0.776027500629425,-1.40701425075531
1726941011537553000,8.092552978515625,-0.39496710896492004,-0.9417943358421326,-1.0978153944015503
1726941011547538700,8.10253857421875,-0.37526875734329224,-1.3166598081588745,-0.7384803295135498
1726941011557524700,8.112524658203125,-0.2449307143688202,-1.6509836912155151,-0.4102545380592346
1726941011567510800,8.1225107421875,-0.074988953769207,-1.721730351448059,-0.15321293473243713
1726941011577496800,8.132496826171876,0.053714968264102936,-1.6493631601333618,0.05731181055307388
1726941011587482600,8.142482666015624,0.14069312810897827,-1.6771180629730225,0.2467905730009079
1726941011597469000,8.152468994140625,0.26253488659858704,-1.7606775760650635,0.38192227482795715
1726941011607454700,8.162454833984375,0.45704230666160583,-1.6840837001800537,0.3983471989631653
1726941011617440800,8.172440673828126,0.6793861985206604,-1.5067945718765259,0.2585746645927429
1726941011627426800,8.1824267578125,0.7612475752830505,-1.0917891263961792,0.09747645258903503
1726941011637412900,8.192412841796875,0.5436651706695557,-0.5959399938583374,0.01255037635564804
1726941011647398700,8.202398681640625,0.2647366523742676,-0.23993802070617676,-0.05820019915699959
1726941011657385000,8.212385009765624,0.12413853406906128,0.08854079246520996,-0.07264918088912964
1726941011667370800,8.222370849609375,0.08421467989683151,0.3878389000892639,-0.05497889593243599
1726941011677356800,8.232356689453125,0.1048874706029892,0.5670421719551086,0.0004891566932201385
1726941011687342800,8.2423427734375,0.04755214974284172,0.6537418365478516,0.0717126727104187
1726941011697329000,8.252328857421874,0.0015388530446216464,0.688153862953186,0.12550346553325653
1726941011707314700,8.262314697265625,0.049631670117378235,0.8608959317207336,0.19525645673274994
1726941011717301000,8.272301025390625,0.14702481031417847,1.1267718076705933,0.2549360394477844
1726941011727286800,8.282286865234376,0.26750102639198303,1.42303466796875,0.2840469479560852
1726941011737272800,8.29227294921875,0.34038934111595154,1.666620135307312,0.3219708800315857
1726941011747259000,8.3022587890625,0.3905145525932312,1.71707022190094,0.4532061219215393
1726941011757245000,8.312244873046875,0.4211694002151489,1.4742355346679688,0.6714311242103577
1726941011767230700,8.322230712890626,0.4192138612270355,1.2077510356903076,0.9134365916252136
1726941011777216800,8.332216796875,0.35040736198425293,1.1390159130096436,1.1263365745544434
1726941011787202800,8.342202880859375,0.20637041330337524,1.1537227630615234,1.3362683057785034
1726941011797188900,8.35218896484375,0.07562518864870071,1.1807007789611816,1.5492924451828003
1726941011807174700,8.362174560546874,0.05419261381030083,1.1739128828048706,1.700692057609558
1726941011817161000,8.372160888671875,0.07494503259658813,1.0152337551116943,1.7294776439666748
1726941011827146800,8.382146728515625,0.05283357948064804,0.5951551198959351,1.668932318687439
1726941011837132800,8.3921328125,-0.07247506827116013,-0.005600460804998875,1.5314128398895264
1726941011847118800,8.402118896484374,-0.23074139654636383,-0.4342101812362671,1.2922550439834595
1726941011857105000,8.41210498046875,-0.5071908235549927,-1.0189080238342285,0.940605103969574
1726941011867090700,8.422090576171875,-0.7015308737754822,-1.2381891012191772,0.7451593279838562
1726941011877077000,8.432076904296874,-0.7223259210586548,-1.2495256662368774,0.6595554947853088
1726941011887062800,8.442062744140625,-0.6991420388221741,-1.3539072275161743,0.5380021333694458
1726941011897048800,8.452048828125,-0.6140937209129333,-1.4168025255203247,0.43648219108581543
1726941011907035000,8.462034912109376,-0.4829298257827759,-1.3514381647109985,0.4126308560371399
1726941011917020700,8.472020751953124,-0.3246147632598877,-1.2056738138198853,0.4398486316204071
1726941011927006700,8.4820068359375,-0.18930940330028534,-1.0502078533172607,0.4336659908294678
1726941011936992800,8.49199267578125,-0.14610067009925842,-0.8728712797164917,0.38000914454460144
1726941011946978800,8.501978759765626,-0.1740841120481491,-0.7019394636154175,0.28555455803871155
1726941011956964600,8.511964599609374,-0.23959867656230927,-0.5234948992729187,0.2670668959617615
1726941011966951000,8.521950927734375,-0.31615522503852844,-0.35564154386520386,0.31905490159988403
1726941011976936700,8.531936767578125,-0.4178272485733032,-0.20560039579868317,0.3276979327201843
1726941011986922800,8.5419228515625,-0.5107551217079163,-0.050575513392686844,0.2710191011428833
1726941011996908500,8.551908447265625,-0.5297319889068604,0.09218883514404297,0.15302054584026337
1726941012006894800,8.561894775390625,-0.5023946166038513,0.2283628284931183,0.11204598098993301
1726941012016880600,8.571880615234376,-0.509276270866394,0.2683808207511902,0.09318787604570389
1726941012026866700,8.58186669921875,-0.5488153696060181,0.2890077531337738,0.11869066208600998
1726941012036852700,8.591852783203125,-0.5643916726112366,0.1810290813446045,0.10837197303771973
1726941012046838500,8.601838623046875,-0.5570904612541199,0.024239733815193176,0.08929577469825745
1726941012056824300,8.61182421875,-0.5227695107460022,-0.10185828059911728,0.08971602469682693
1726941012066810600,8.621810546875,-0.5136019587516785,-0.2747930586338043,0.08474677801132202
1726941012076796400,8.63179638671875,-0.5663512349128723,-0.3386383354663849,0.0842764675617218
1726941012086782500,8.641782470703125,-0.5847395658493042,-0.28555673360824585,0.05657926946878433
1726941012096768300,8.651768310546874,-0.5099449753761292,-0.22265103459358215,-0.006210880354046822
1726941012106754600,8.661754638671875,-0.3796370029449463,-0.24423226714134216,-0.08374574035406113
1726941012116740400,8.671740234375,-0.24179285764694214,-0.23653893172740936,-0.07997949421405792
1726941012126726400,8.681726318359376,-0.12404371052980423,-0.1583818942308426,-0.033063922077417374
1726941012136712400,8.69171240234375,-0.037672337144613266,-0.029234835878014565,0.011855081655085087
1726941012146698500,8.701698486328125,0.06765780597925186,-0.02802889049053192,-0.003064032644033432
1726941012156684300,8.711684326171875,0.21488454937934875,-0.11364339292049408,-0.03621479496359825
1726941012166670600,8.721670654296876,0.3415430188179016,-0.235734224319458,-0.007628634572029114
1726941012176656400,8.731656494140625,0.4024505913257599,-0.3694233298301697,0.07346329092979431
1726941012186642400,8.741642333984375,0.3857119381427765,-0.4237286150455475,0.055202558636665344
1726941012196628500,8.75162841796875,0.41113367676734924,-0.3743416368961334,-0.05127488449215889
1726941012206614500,8.761614501953124,0.5069073438644409,-0.31086117029190063,-0.15066565573215485
1726941012216600300,8.771600341796875,0.5650683641433716,-0.23386387526988983,-0.14434464275836945
1726941012226586600,8.781586669921875,0.4752793610095978,-0.13367141783237457,-0.10403452813625336
1726941012236572400,8.791572509765626,0.3402025103569031,-0.04059606045484543,-0.14492256939411163
1726941012246558500,8.801558349609374,0.28757044672966003,-0.024113468825817108,-0.1420164704322815
1726941012256544500,8.81154443359375,0.2890271842479706,-0.03548942506313324,-0.16200456023216248
1726941012266530600,8.821530517578125,0.28480395674705505,-0.05498844385147095,-0.13242816925048828
1726941012276516400,8.831516357421876,0.2706673741340637,-0.15667352080345154,-0.05848231911659241
1726941012286502700,8.841502685546875,0.24838244915008545,-0.18190501630306244,-0.015014998614788055
1726941012296488400,8.851488525390625,0.25191086530685425,-0.10132522135972977,-0.05344121530652046
1726941012306474500,8.861474609375,0.28396639227867126,0.028817657381296158,-0.13706912100315094
1726941012316460500,8.87146044921875,0.3433855175971985,0.12784889340400696,-0.21184535324573517
1726941012326446600,8.881446533203125,0.42578545212745667,0.18955138325691223,-0.2349046766757965
1726941012336432400,8.891432373046875,0.4931327998638153,0.31694555282592773,-0.2289261519908905
1726941012346418400,8.90141845703125,0.5157186388969421,0.44400152564048767,-0.3302394449710846
1726941012356404500,8.911404541015624,0.532765805721283,0.6005634069442749,-0.510829746723175
1726941012366390500,8.921390625,0.5497051477432251,0.8622142672538757,-0.67284095287323
1726941012376376300,8.931376220703125,0.5418626666069031,1.0258928537368774,-0.7532979846000671
1726941012386362600,8.941362548828126,0.48394662141799927,1.0463838577270508,-0.6846086382865906
1726941012396348400,8.951348388671875,0.4185817241668701,1.1349090337753296,-0.5703939199447632
1726941012406334500,8.96133447265625,0.40856823325157166,1.323073387145996,-0.478510320186615
1726941012416320500,8.971320556640626,0.44156748056411743,1.6401478052139282,-0.4760389029979706
1726941012426306600,8.981306640625,0.4891442060470581,1.901829481124878,-0.5490532517433167
1726941012436292400,8.991292236328125,0.5012910962104797,1.8799302577972412,-0.7162784934043884
1726941012446278700,9.001278564453125,0.41523706912994385,1.590514063835144,-0.960739016532898
1726941012456263400,9.011263427734375,0.2568759024143219,1.172491192817688,-1.2520067691802979
1726941012466249500,9.02124951171875,0.1264248639345169,0.7329410314559937,-1.524429202079773
1726941012476235300,9.0312353515625,0.0535687617957592,0.3536267578601837,-1.7745643854141235
1726941012486221600,9.0412216796875,-0.03152643144130707,-0.0953243225812912,-1.9833201169967651
1726941012496207400,9.051207275390626,-0.19929838180541992,-0.48185205459594727,-2.0733227729797363
1726941012506193400,9.061193359375,-0.3479642868041992,-0.8128665685653687,-2.0317881107330322
1726941012516179500,9.071179443359375,-0.35921400785446167,-0.9709363579750061,-1.8195255994796753
1726941012526165500,9.08116552734375,-0.31380754709243774,-1.2148981094360352,-1.5394866466522217
1726941012536151300,9.0911513671875,-0.1838971972465515,-1.5239790678024292,-1.273861289024353
1726941012546137600,9.1011376953125,-0.12148229032754898,-1.844785451889038,-1.026536226272583
1726941012556123400,9.111123291015625,-0.15280798077583313,-2.2089481353759766,-0.75448077917099
1726941012566109400,9.121109375,-0.1317148208618164,-2.443190097808838,-0.37933409214019775
1726941012576095500,9.131095458984374,0.031850676983594894,-2.3956027030944824,0.022303877398371696
1726941012586081500,9.14108154296875,0.2882462441921234,-2.132591724395752,0.3078722059726715
1726941012596067300,9.1510673828125,0.597953736782074,-1.797008752822876,0.4737943410873413
1726941012606053600,9.1610537109375,0.9035846590995789,-1.5216808319091797,0.5492931008338928
1726941012616039400,9.171039306640624,1.1583813428878784,-1.15517258644104,0.5506859421730042
1726941012626025500,9.181025390625,1.2791341543197632,-0.6584927439689636,0.47209298610687256
1726941012636011500,9.191011474609375,1.275415062904358,-0.0949188694357872,0.34329986572265625
1726941012645997600,9.20099755859375,1.1681761741638184,0.3787832260131836,0.2520701587200165
1726941012655983400,9.2109833984375,0.9607523679733276,0.7217555046081543,0.243193581700325
1726941012665969400,9.220969482421875,0.688352644443512,0.9262959957122803,0.3350699543952942
1726941012675955500,9.23095556640625,0.42142269015312195,0.992293119430542,0.5263136625289917
1726941012685941500,9.24094140625,0.2573622465133667,0.9517290592193604,0.6431172490119934
1726941012695927300,9.25092724609375,0.13893252611160278,0.9099397659301758,0.7083806991577148
1726941012705913600,9.26091357421875,0.04933006688952446,0.9591622948646545,0.800477921962738
1726941012715899400,9.2708994140625,-0.032231904566287994,1.0592806339263916,0.8699997067451477
1726941012725885400,9.280885498046874,-0.07851244509220123,1.2178130149841309,0.9578920006752014
1726941012735871500,9.29087158203125,-0.10680640488862991,1.3518989086151123,1.0642088651657104
1726941012745857500,9.300857421875,-0.14469438791275024,1.4017585515975952,1.1658341884613037
1726941012755843300,9.31084326171875,-0.2074619084596634,1.3458747863769531,1.2753955125808716
1726941012765829600,9.32082958984375,-0.2617529630661011,1.1729254722595215,1.4216426610946655
1726941012775815400,9.3308154296875,-0.30517980456352234,0.8813074827194214,1.5892385244369507
1726941012785801500,9.340801513671876,-0.3457563817501068,0.5421513915061951,1.683624267578125
1726941012795787500,9.35078759765625,-0.4238186776638031,0.07714533060789108,1.6481897830963135
1726941012805773600,9.360773681640625,-0.5208556652069092,-0.3660532832145691,1.374610185623169
1726941012815759400,9.37075927734375,-0.707378625869751,-0.8561286926269531,1.0441819429397583
1726941012825745700,9.38074560546875,-0.8907145261764526,-1.1770892143249512,0.8648079037666321
1726941012835731500,9.3907314453125,-0.9169551730155945,-1.1631531715393066,0.9099695086479187
1726941012845717500,9.400717529296875,-0.816157341003418,-1.1636015176773071,0.9012987017631531
1726941012855703600,9.41070361328125,-0.6539521813392639,-1.2955760955810547,0.7720152735710144
1726941012865689600,9.420689697265624,-0.44731414318084717,-1.3022491931915283,0.6340751647949219
1726941012875675400,9.43067529296875,-0.22854560613632202,-1.1153045892715454,0.5053139925003052
1726941012885661700,9.44066162109375,-0.08352037519216537,-1.0066713094711304,0.38075584173202515
1726941012895647500,9.4506474609375,-0.03809057176113129,-0.8840110898017883,0.3099306523799896
1726941012905633500,9.460633544921874,0.07132632285356522,-0.6864191889762878,0.2743421196937561
1726941012915619300,9.470619384765625,0.09043850004673004,-0.5751105546951294,0.27020809054374695
1726941012925605600,9.480605712890625,0.058654725551605225,-0.4511415362358093,0.2497117668390274
1726941012935591400,9.49059130859375,0.009963617660105228,-0.28527718782424927,0.2236572504043579
1726941012945577500,9.500577392578125,-0.01805015839636326,-0.1585708111524582,0.21762877702713013
1726941012955563500,9.5105634765625,-0.04639418050646782,-0.07801790535449982,0.24619385600090027
1726941012965549600,9.520549560546876,-0.08857094496488571,-0.05120609328150749,0.2537475526332855
1726941012975535400,9.530535400390624,-0.13023503124713898,-0.03313973918557167,0.2238493412733078
1726941012985521700,9.540521728515625,-0.1805594563484192,-0.01535544078797102,0.1237410455942154
1726941012995507500,9.550507568359375,-0.2808184325695038,0.00284593366086483,0.018567759543657303
1726941013005493500,9.560493408203126,-0.40861910581588745,0.04185375198721886,-0.05882618576288223
1726941013015479600,9.5704794921875,-0.5199075937271118,0.09510979056358337,-0.1554187834262848
1726941013025465600,9.580465576171875,-0.579054057598114,0.19298839569091797,-0.20156259834766388
1726941013035451400,9.590451416015625,-0.5635324120521545,0.15239490568637848,-0.20726655423641205
1726941013045437700,9.600437744140624,-0.5799422860145569,0.030500046908855438,-0.13154491782188416
1726941013055423500,9.610423583984375,-0.6458603143692017,-0.14927716553211212,-0.06286413967609406
1726941013065409500,9.620409423828125,-0.6970850229263306,-0.12313828617334366,-0.028449608013033867
1726941013075395600,9.6303955078125,-0.7023956179618835,0.011463998816907406,-0.04399634152650833
1726941013085381600,9.640381591796874,-0.6589023470878601,0.03412074223160744,-0.09269730746746063
1726941013095367400,9.650367431640625,-0.60235595703125,-0.02627895027399063,-0.15067139267921448
1726941013105353500,9.660353515625,-0.5455246567726135,-0.09787355363368988,-0.14103005826473236
1726941013115339500,9.670339599609376,-0.4932151138782501,-0.06996335834264755,-0.11444826424121857
1726941013125325600,9.68032568359375,-0.3534705340862274,0.06539717316627502,-0.047160446643829346
1726941013135311600,9.6903115234375,-0.15131954848766327,0.024708334356546402,0.04784729331731796
1726941013145297400,9.70029736328125,-0.04489748552441597,-0.07636725902557373,0.10699047148227692
1726941013155283500,9.710283447265626,-0.04616142436861992,-0.1368340700864792,0.11869026720523834
1726941013165269200,9.720269287109375,-0.05001742020249367,-0.14017759263515472,0.05445767194032669
1726941013175255600,9.730255615234375,0.030464904382824898,-0.038573477417230606,-0.044453464448451996
1726941013185241300,9.740241455078126,0.16579969227313995,0.03575613722205162,-0.10309523344039917
1726941013195227400,9.750227294921874,0.27590861916542053,0.02113272063434124,-0.10699756443500519
1726941013205213400,9.76021337890625,0.2880057394504547,0.024266613647341728,-0.06518685072660446
1726941013215199500,9.770199462890625,0.2573293447494507,0.016845716163516045,-0.010683925822377205
1726941013225185300,9.780185302734376,0.24505271017551422,0.03430313616991043,-0.021649053320288658
1726941013235171600,9.790171630859374,0.29399147629737854,0.020501570776104927,-0.08839399367570877
1726941013245157400,9.800157470703125,0.3732467293739319,-0.018393265083432198,-0.10592024773359299
1726941013255143400,9.810143310546875,0.40338918566703796,-0.12715968489646912,-0.11303408443927765
1726941013265129500,9.82012939453125,0.34504854679107666,-0.27236664295196533,-0.16193941235542297
1726941013275115500,9.830115478515625,0.22514745593070984,-0.19206035137176514,-0.20838120579719543
1726941013285101300,9.840101318359375,0.1270855814218521,0.0399528332054615,-0.24869215488433838
1726941013295087600,9.850087646484376,0.1393587589263916,0.18866854906082153,-0.2545771896839142
1726941013305073400,9.860073486328124,0.20584341883659363,0.2633533179759979,-0.25700005888938904
1726941013315059500,9.8700595703125,0.26008403301239014,0.4023895263671875,-0.22958867251873016
1726941013325045500,9.88004541015625,0.2697230279445648,0.6355529427528381,-0.2719305455684662
1726941013335031600,9.890031494140626,0.2713017463684082,0.7683053612709045,-0.2998756170272827
1726941013345017300,9.900017333984374,0.2644153833389282,0.9342643022537231,-0.37170153856277466
1726941013355003600,9.910003662109375,0.27293267846107483,1.1228678226470947,-0.45866358280181885
1726941013364989400,9.919989501953125,0.282113254070282,1.4451420307159424,-0.5159839391708374
1726941013374975500,9.9299755859375,0.24321991205215454,1.8168998956680298,-0.5646337866783142
1726941013384961500,9.93996142578125,0.16988565027713776,2.121765375137329,-0.6211733222007751
1726941013394947600,9.949947509765625,0.12030104547739029,2.374995470046997,-0.700305700302124
1726941013404933400,9.959933349609376,0.126569464802742,2.5921859741210938,-0.7804899215698242
1726941013414919400,9.96991943359375,0.1415739804506302,2.5847301483154297,-0.9291462302207947
1726941013424905500,9.979905517578125,0.11103246361017227,2.264554262161255,-1.117265224456787
1726941013434891500,9.9898916015625,0.002627959242090583,1.7279834747314453,-1.3693721294403076
1726941013444877300,9.999877197265626,-0.12417380511760712,0.9287624955177307,-1.748225212097168
1726941013454863600,10.009863525390625,-0.2328624725341797,-0.002084207721054554,-2.1147561073303223
1726941013464849400,10.019849365234375,-0.2013174593448639,-0.7028648257255554,-2.318510055541992
1726941013474834400,10.02983447265625,-0.16143262386322021,-1.226872205734253,-2.208815097808838
1726941013484821500,10.039821533203124,-0.15824788808822632,-1.8548353910446167,-1.7377104759216309
1726941013494806500,10.049806640625,-0.10113746672868729,-2.2375295162200928,-1.0216420888900757
1726941013504792600,10.05979248046875,0.02685418538749218,-2.599039316177368,-0.2640160620212555
1726941013514778400,10.0697783203125,0.18866120278835297,-2.701871395111084,0.2669721841812134
1726941013524764400,10.079764404296874,0.363482266664505,-2.6597914695739746,0.4896305203437805
1726941013534750500,10.08975048828125,0.5185155272483826,-2.608083963394165,0.6008062958717346
1726941013544736500,10.099736572265625,0.6972815990447998,-2.516390800476074,0.6448162794113159
1726941013554722600,10.10972265625,0.9296240210533142,-2.2680513858795166,0.7197962403297424
1726941013564708400,10.119708251953124,1.1895644664764404,-2.037818431854248,0.7395564317703247
1726941013574694400,10.1296943359375,1.4026604890823364,-1.8905272483825684,0.6056846380233765
1726941013584680400,10.139680419921875,1.4619799852371216,-1.5401179790496826,0.4116787016391754
1726941013594666500,10.14966650390625,1.3380591869354248,-0.9747543334960938,0.23116695880889893
1726941013604652300,10.15965234375,1.049862265586853,-0.36651429533958435,0.059404272586107254
1726941013614638600,10.169638671875,0.7015678882598877,0.17113184928894043,-0.09947752207517624
1726941013624624400,10.179624267578125,0.3668551743030548,0.7057174444198608,-0.1320374608039856
1726941013634610400,10.1896103515625,0.13571567833423615,1.0621845722198486,-0.056731779128313065
1726941013644596500,10.199596435546875,-0.04435247927904129,1.1762291193008423,0.04518777132034302
1726941013654582500,10.20958251953125,-0.1614716500043869,1.1680196523666382,0.1267542690038681
1726941013664568300,10.219568359375,-0.16843436658382416,1.1343786716461182,0.23152472078800201
1726941013674554600,10.2295546875,-0.08923381567001343,1.144992470741272,0.36694565415382385
1726941013684540400,10.23954052734375,0.016708092764019966,1.2272093296051025,0.5352993607521057
1726941013694526500,10.2495263671875,0.09467026591300964,1.3138943910598755,0.6961223483085632
1726941013704512500,10.259512451171876,0.13354986906051636,1.5313563346862793,0.8692542910575867
1726941013714498600,10.26949853515625,0.1345251202583313,1.7636339664459229,1.0112422704696655
1726941013724484400,10.279484375,0.12259483337402344,1.8926520347595215,1.1226507425308228
1726941013734470700,10.289470703125,0.11935003846883774,1.890968680381775,1.1949372291564941
1726941013744456400,10.29945654296875,0.180592879652977,1.6823949813842773,1.239909052848816
1726941013754442500,10.3094423828125,0.22773322463035583,1.3451207876205444,1.3060609102249146
1726941013764428300,10.31942822265625,0.16645391285419464,1.025884747505188,1.392422080039978
1726941013774414600,10.32941455078125,-0.006222526542842388,0.4755083918571472,1.2697103023529053
1726941013784400400,10.339400390625,-0.5086097717285156,-0.3841012120246887,0.8350964784622192
1726941013794386400,10.349386474609375,-1.0936654806137085,-0.8098631501197815,0.6792664527893066
1726941013804372500,10.35937255859375,-1.4823598861694336,-0.7046810984611511,0.7965446710586548
1726941013814358500,10.369358642578124,-1.5740288496017456,-0.5114338994026184,0.8889662623405457
1726941013824344300,10.37934423828125,-1.4193212985992432,-0.43259790539741516,0.9093893766403198
1726941013834330600,10.38933056640625,-1.067508578300476,-0.5097496509552002,0.8679170608520508
1726941013844316400,10.39931640625,-0.7469577789306641,-0.672383725643158,0.8006005883216858
1726941013854302500,10.409302490234374,-0.5506340265274048,-0.8104278445243835,0.6803178191184998
1726941013864288500,10.41928857421875,-0.4260270297527313,-0.836240828037262,0.5245218873023987
1726941013874274600,10.429274658203125,-0.3409978747367859,-0.8444609045982361,0.34091684222221375
1726941013884260400,10.43926025390625,-0.25370317697525024,-0.8381214737892151,0.16532424092292786
1726941013894246700,10.44924658203125,-0.18068861961364746,-0.8464713096618652,0.07012635469436646
1726941013904232400,10.459232421875,-0.1619773805141449,-0.758632481098175,0.027960166335105896
1726941013914218500,10.469218505859375,-0.18754398822784424,-0.5669221878051758,-0.0018185025546699762
1726941013924204500,10.47920458984375,-0.21257451176643372,-0.4081666171550751,-0.07221291959285736
1726941013934190600,10.489190673828125,-0.24787311255931854,-0.2847732901573181,-0.18081475794315338
1726941013944176400,10.49917626953125,-0.33173826336860657,-0.21029995381832123,-0.23987214267253876
1726941013954162700,10.50916259765625,-0.43769532442092896,-0.07716000825166702,-0.20181690156459808
1726941013964148500,10.5191484375,-0.5103985667228699,0.011028813198208809,-0.11416132748126984
1726941013974134500,10.529134521484375,-0.5306814908981323,0.08955291658639908,-0.039227429777383804
1726941013984120600,10.53912060546875,-0.5173103213310242,0.1055217832326889,0.03808632865548134
1726941013994106600,10.549106689453126,-0.5257797241210938,0.09312476962804794,0.08798278123140335
1726941014004092400,10.559092529296874,-0.5360907912254333,0.1384369283914566,0.11495788395404816
1726941014014078500,10.569078369140625,-0.5255193710327148,0.19555054605007172,0.10208256542682648
1726941014024064500,10.579064453125,-0.5221191644668579,0.1451638638973236,0.06506317853927612
1726941014034050600,10.589050537109374,-0.5335752964019775,0.06556463986635208,0.018916454166173935
1726941014044036400,10.599036376953125,-0.562568187713623,0.02286079153418541,0.006203996948897839
1726941014054022400,10.6090224609375,-0.5990833044052124,-0.01052912324666977,0.03488118201494217
1726941014064008400,10.619008544921876,-0.6225714087486267,0.005459836684167385,0.06839127093553543
1726941014073994500,10.628994384765624,-0.5903434157371521,0.07181435823440552,0.0702725276350975
1726941014083980300,10.638980224609375,-0.5065053701400757,0.11449076980352402,0.02922164835035801
1726941014093966600,10.648966552734375,-0.4273836314678192,0.11698322743177414,-0.03874941170215607
1726941014103952400,10.658952392578126,-0.3790999948978424,0.14529140293598175,-0.09273530542850494
1726941014113938400,10.6689384765625,-0.3383096754550934,0.12759336829185486,-0.11428933590650558
1726941014123924500,10.678924560546875,-0.29369959235191345,0.0428132563829422,-0.1566188782453537
1726941014133910500,10.68891064453125,-0.19812673330307007,0.01688419096171856,-0.2292155772447586
1726941014143896300,10.698896240234374,-0.08513970673084259,0.04676419496536255,-0.3871925175189972
1726941014153882600,10.708882568359375,-0.004605715628713369,0.15109246969223022,-0.49613630771636963
1726941014163868400,10.718868408203125,-0.0408012755215168,0.3489653766155243,-0.46464061737060547
1726941014173854500,10.7288544921875,-0.041311539709568024,0.3104398250579834,-0.33860066533088684
1726941014183840500,10.738840576171874,0.0054823230020701885,0.047112930566072464,-0.15177299082279205
1726941014193826600,10.74882666015625,0.04679780453443527,-0.08369381725788116,0.03910241648554802
1726941014203812400,10.758812255859375,0.05376117676496506,-0.06939295679330826,0.07586190849542618
1726941014213798400,10.76879833984375,0.030393004417419434,-0.029665246605873108,0.048101913183927536
1726941014223784400,10.778784423828125,0.04056200012564659,0.011676330119371414,-0.00042867986485362053
1726941014233770500,10.7887705078125,0.14300954341888428,0.0626489594578743,-0.0438067801296711
1726941014243756300,10.79875634765625,0.2818725109100342,0.10293439775705338,-0.05156247690320015
1726941014253742300,10.808742431640624,0.40231236815452576,0.23192939162254333,-0.08757906407117844
1726941014263728400,10.818728271484375,0.4514514207839966,0.29207897186279297,-0.12825065851211548
1726941014273714200,10.828714111328125,0.44614800810813904,0.34581705927848816,-0.1746000498533249
1726941014283700500,10.838700439453126,0.4319276809692383,0.46383073925971985,-0.2505415380001068
1726941014293686300,10.848686279296874,0.44525572657585144,0.5122693777084351,-0.27553877234458923
1726941014303672300,10.85867236328125,0.49973079562187195,0.6039942502975464,-0.32428258657455444
1726941014313658400,10.868658447265625,0.5461121201515198,0.8534901142120361,-0.45884838700294495
1726941014323644400,10.87864453125,0.552844226360321,1.1036179065704346,-0.5879520773887634
1726941014333630200,10.888630126953124,0.5124651193618774,1.3020061254501343,-0.6844804883003235
1726941014343616500,10.898616455078125,0.489050030708313,1.5088735818862915,-0.7246553301811218
1726941014353602300,10.908602294921875,0.528030514717102,1.7319560050964355,-0.7303545475006104
1726941014363588400,10.91858837890625,0.615533173084259,1.8671677112579346,-0.8069860935211182
1726941014373574400,10.928574462890625,0.632123589515686,1.6741873025894165,-0.9702714085578918
1726941014383560400,10.938560546875,0.5277004837989807,1.2810697555541992,-1.2029409408569336
1726941014393546200,10.948546142578126,0.3591884970664978,0.8261749744415283,-1.3956060409545898
1726941014403531300,10.95853125,0.22377683222293854,0.2415296733379364,-1.576960563659668
1726941014413517600,10.968517578125,0.154963418841362,-0.24580243229866028,-1.7583225965499878
1726941014423503400,10.97850341796875,0.08240040391683578,-0.5872648358345032,-1.9307173490524292
1726941014433489400,10.988489501953126,-0.06744501739740372,-0.8528887629508972,-2.0240252017974854
1726941014443475500,10.998475341796874,-0.2585987150669098,-1.0424391031265259,-1.9359335899353027
1726941014453461500,11.00846142578125,-0.38568130135536194,-1.5052788257598877,-1.6171859502792358
1726941014463447300,11.018447265625,-0.3850790560245514,-1.9278169870376587,-1.1524457931518555
1726941014473433600,11.02843359375,-0.21228782832622528,-2.323537588119507,-0.6602834463119507
1726941014483419400,11.03841943359375,0.02688240446150303,-2.687633514404297,-0.2619420289993286
1726941014493405400,11.048405517578125,0.17429156601428986,-2.8218584060668945,-0.004127277992665768
1726941014503391500,11.0583916015625,0.29321518540382385,-2.651303291320801,0.11228907108306885
1726941014513377500,11.06837744140625,0.3952976167201996,-2.448744058609009,0.18609698116779327
1726941014523363300,11.07836328125,0.5196192860603333,-2.1965620517730713,0.232885479927063
1726941014533349600,11.088349609375,0.7186069488525391,-2.001929998397827,0.2284177541732788
1726941014543335400,11.09833544921875,0.9568189978599548,-1.8053779602050781,0.13728801906108856
1726941014553321500,11.108321533203124,1.1097818613052368,-1.470200538635254,0.03653210774064064
1726941014563307500,11.1183076171875,1.084018349647522,-0.8471333384513855,0.02398522011935711
1726941014573293600,11.12829345703125,0.8445322513580322,-0.1872640699148178,0.11210735887289047
1726941014583279400,11.138279296875,0.5546684861183167,0.22792880237102509,0.13819283246994019
1726941014593265400,11.148265380859375,0.3220410645008087,0.6640949249267578,0.15653668344020844
1726941014603251500,11.15825146484375,0.17126516997814178,0.9767606854438782,0.19885925948619843
1726941014613237500,11.168237548828126,0.13522514700889587,1.1358258724212646,0.2815259099006653
1726941014623223300,11.178223388671874,0.12882943451404572,1.1999610662460327,0.391867458820343
1726941014633209300,11.188209228515625,0.11332345753908157,1.2785691022872925,0.5200963020324707
1726941014643195400,11.1981953125,0.16990813612937927,1.427804946899414,0.6409990191459656
1726941014653181400,11.208181396484376,0.2301749438047409,1.607503890991211,0.7286742925643921
1726941014663167500,11.21816748046875,0.2451845407485962,1.8424831628799438,0.808728039264679
1726941014673153300,11.2281533203125,0.20263521373271942,2.0034732818603516,0.8824014663696289
1726941014683139300,11.238139404296875,0.09463296830654144,1.8644589185714722,1.0273200273513794
1726941014693125400,11.24812548828125,-0.040497422218322754,1.446363925933838,1.2799592018127441
1726941014703111400,11.258111328125,-0.18797528743743896,0.9906602501869202,1.5613666772842407
1726941014713097200,11.26809716796875,-0.25054362416267395,0.619620680809021,1.8258230686187744
1726941014723083500,11.27808349609375,-0.3849163353443146,0.19362463057041168,1.9676332473754883
1726941014733069300,11.2880693359375,-0.466884970664978,0.08521586656570435,2.0635221004486084
1726941014743055400,11.298055419921875,-0.45107975602149963,-0.009216973558068275,2.0728681087493896
1726941014753041400,11.30804150390625,-0.39895927906036377,-0.31064125895500183,1.7627387046813965
1726941014763027500,11.31802734375,-0.42211228609085083,-0.693095326423645,1.123181939125061
1726941014773013200,11.32801318359375,-0.6088272929191589,-1.0461716651916504,0.5077837109565735
1726941014782999600,11.33799951171875,-0.7687614560127258,-0.95844966173172,0.2022927701473236
1726941014792985300,11.3479853515625,-0.8210214972496033,-0.864524781703949,0.06063096970319748
1726941014802971400,11.357971435546874,-0.7075944542884827,-0.7393070459365845,0.06145533174276352
1726941014812957400,11.36795751953125,-0.5354781150817871,-0.7294490933418274,0.1318165808916092
1726941014822943500,11.377943603515625,-0.4284731447696686,-0.7936347126960754,0.21117748320102692
1726941014832929300,11.38792919921875,-0.4219699501991272,-0.8511515259742737,0.20958703756332397
1726941014842915300,11.397915283203124,-0.4408871829509735,-0.7496062517166138,0.16716356575489044
1726941014852901400,11.4079013671875,-0.4169200658798218,-0.5534726977348328,0.1887548863887787
1726941014862887400,11.417887451171875,-0.36791232228279114,-0.44353434443473816,0.3023834824562073
1726941014872873200,11.427873291015626,-0.35066673159599304,-0.4493328332901001,0.4377623200416565
1726941014882859500,11.437859619140625,-0.350857675075531,-0.4317179024219513,0.5347063541412354
1726941014892845300,11.44784521484375,-0.3205980360507965,-0.40423646569252014,0.5647692084312439
1726941014902831400,11.457831298828125,-0.24358634650707245,-0.3547706604003906,0.4966454803943634
1726941014912817400,11.4678173828125,-0.1978742480278015,-0.26559287309646606,0.3715147376060486
1726941014922803500,11.477803466796875,-0.21927358210086823,-0.16114258766174316,0.2591933012008667
1726941014932789200,11.487789306640625,-0.27827775478363037,-0.06898017227649689,0.2175678312778473
1726941014942775600,11.497775634765626,-0.3362576961517334,-0.00824515800923109,0.17643031477928162
1726941014952761300,11.50776123046875,-0.3590429127216339,0.01113892626017332,0.09010873734951019
1726941014962747400,11.517747314453125,-0.3687639832496643,0.027250831946730614,-0.0034340661950409412
1726941014972733400,11.5277333984375,-0.4091433882713318,0.06754285842180252,-0.0700778067111969
1726941014982719500,11.537719482421876,-0.4584372937679291,0.08335953950881958,-0.13474370539188385
1726941014992705300,11.547705322265625,-0.4854081869125366,0.08233582228422165,-0.1667109578847885
1726941015002691600,11.557691650390625,-0.4827856421470642,0.0003089195233769715,-0.1817282885313034
1726941015012677400,11.567677490234376,-0.46762824058532715,-0.051436834037303925,-0.16692377626895905
1726941015022663400,11.577663330078124,-0.4431999921798706,-0.020987484604120255,-0.11058752983808517
1726941015032649500,11.5876494140625,-0.4132263958454132,0.02109632082283497,-0.04165533930063248
1726941015042635300,11.59763525390625,-0.3337133228778839,0.057796087116003036,-0.008128858171403408
1726941015052621000,11.60762109375,-0.1969834417104721,0.023026924580335617,0.05795002728700638
1726941015062607400,11.617607421875,-0.05692686140537262,-0.06001639738678932,0.1539473980665207
1726941015072593200,11.62759326171875,0.048768941313028336,-0.09454881399869919,0.27583974599838257
1726941015082579200,11.6375791015625,0.1344098150730133,-0.06911273300647736,0.3955114185810089
1726941015092565200,11.647565185546876,0.24683701992034912,-0.1493828147649765,0.49659356474876404
1726941015102551300,11.65755126953125,0.3590866029262543,-0.2770240008831024,0.5427417159080505
1726941015112537000,11.667537109375,0.4235401749610901,-0.33617866039276123,0.5175538063049316
1726941015122523400,11.6775234375,0.39367905259132385,-0.40494832396507263,0.430774986743927
1726941015132509200,11.68750927734375,0.29315802454948425,-0.4307900369167328,0.2821146845817566
1726941015142495200,11.6974951171875,0.18716463446617126,-0.33445656299591064,0.035661254078149796
1726941015152481300,11.707481201171875,0.18316669762134552,-0.1839165985584259,-0.3541530966758728
1726941015162467300,11.71746728515625,0.23719051480293274,-0.08618299663066864,-0.8471060395240784
1726941015172453000,11.727453125,0.2947150468826294,0.14497965574264526,-1.3031885623931885
1726941015182439400,11.737439453125,0.2993413507938385,0.5138404369354248,-1.5081406831741333
1726941015192425200,11.74742529296875,0.22834523022174835,0.5781400799751282,-1.4430525302886963
1726941015202411300,11.757411376953126,0.10138395428657532,0.45281192660331726,-1.237762212753296
1726941015212397300,11.767397216796875,-0.008264245465397835,0.4871315658092499,-0.9381209015846252
1726941015222383400,11.77738330078125,-0.05911584198474884,0.7723665237426758,-0.6241679191589355
1726941015232369200,11.787369140625,-0.058173082768917084,1.0045299530029297,-0.3397194743156433
1726941015242355500,11.79735546875,-0.04264376685023308,1.145019769668579,-0.17994160950183868
1726941015252341200,11.80734130859375,-0.01778661645948887,1.2589112520217896,-0.14862044155597687
1726941015262327300,11.817327392578125,0.08335303515195847,1.3695813417434692,-0.19776244461536407
1726941015272312000,11.82731201171875,0.24134133756160736,1.5297057628631592,-0.2820272445678711
1726941015282298400,11.83729833984375,0.37693578004837036,1.7666510343551636,-0.393961101770401
1726941015292284200,11.8472841796875,0.42608335614204407,1.9868438243865967,-0.5356231927871704
1726941015302270200,11.857270263671875,0.4136480987071991,2.127497911453247,-0.7454591989517212
1726941015312256300,11.86725634765625,0.3455508053302765,2.03598952293396,-0.9816381335258484
1726941015322242300,11.8772421875,0.19479647278785706,1.7307206392288208,-1.207429051399231
1726941015332228000,11.88722802734375,0.0077299089170992374,1.4640769958496094,-1.4263901710510254
1726941015342214400,11.89721435546875,-0.1560308039188385,1.2047436237335205,-1.6041866540908813
1726941015352200200,11.9072001953125,-0.29732242226600647,0.4658314287662506,-1.8633300065994263
1726941015362186200,11.917186279296875,-0.45650291442871094,-0.24703025817871094,-2.1646437644958496
1726941015372172300,11.92717236328125,-0.46004170179367065,-0.9824568629264832,-2.382253646850586
1726941015382158300,11.937158447265626,-0.4165237843990326,-1.4259188175201416,-2.2891664505004883
1726941015392144100,11.94714404296875,-0.34226980805397034,-1.8600971698760986,-1.8936876058578491
1726941015402130200,11.957130126953125,-0.25696343183517456,-2.1229588985443115,-1.39116632938385
1726941015412116200,11.9671162109375,-0.16595999896526337,-2.5754141807556152,-0.9474292397499084
1726941015422102300,11.977102294921876,-0.04604997858405113,-3.107396125793457,-0.527836799621582
1726941015432088000,11.987088134765624,0.17973414063453674,-3.393209457397461,-0.024282798171043396
1726941015442074400,11.997074462890625,0.5540540814399719,-3.328979969024658,0.426737904548645
1726941015452060200,12.00706005859375,0.9587741494178772,-3.0574746131896973,0.7384979724884033
1726941015462046200,12.017046142578126,1.3394914865493774,-2.7379813194274902,0.8652438521385193
1726941015472032300,12.0270322265625,1.638627052307129,-2.2666046619415283,0.8499996662139893
1726941015482018300,12.037018310546875,1.8222354650497437,-1.7795923948287964,0.673033595085144
1726941015492004000,12.047004150390626,1.795954942703247,-1.1579853296279907,0.4097992479801178
1726941015501990400,12.056990478515624,1.570145845413208,-0.40098199248313904,0.08001771569252014
1726941015511976200,12.06697607421875,1.217284917831421,0.3061980605125427,-0.24747441709041595
1726941015521962200,12.076962158203125,0.8257007598876953,0.8006594777107239,-0.46113887429237366
1726941015531948300,12.0869482421875,0.49921610951423645,1.0831286907196045,-0.5079007744789124
1726941015541934300,12.096934326171874,0.2810622453689575,1.084938406944275,-0.397247850894928
1726941015551920000,12.106920166015625,0.18888568878173828,0.9303008913993835,-0.047561485320329666
1726941015561906400,12.116906494140625,0.22080916166305542,0.7315151691436768,0.30480852723121643
1726941015571892200,12.126892333984374,0.24248196184635162,0.7644062638282776,0.5496723055839539
1726941015581878300,12.136878173828125,0.2609781324863434,0.8144153952598572,0.7596673965454102
1726941015591864300,12.1468642578125,0.28571784496307373,0.9048542380332947,0.9784694910049438
1726941015601850400,12.156850341796876,0.2549436688423157,1.081437349319458,1.2189369201660156
1726941015611836200,12.166836181640624,0.15570656955242157,1.2538951635360718,1.448380470275879
1726941015621822500,12.176822509765625,0.007537506055086851,1.3072766065597534,1.6558979749679565
1726941015631808300,12.186808349609375,-0.15757982432842255,1.3661493062973022,1.812474250793457
1726941015641794300,12.196794189453126,-0.2764669358730316,1.3946127891540527,1.897449016571045
1726941015651780000,12.206780029296874,-0.30038079619407654,1.4537557363510132,1.8508634567260742
1726941015661766400,12.216766357421875,-0.19406446814537048,1.4782147407531738,1.6488714218139648
1726941015671752200,12.226752197265625,-0.13022291660308838,1.4034364223480225,1.3341835737228394
1726941015681738200,12.23673828125,-0.06865622848272324,1.024521827697754,1.0640119314193726
1726941015691724300,12.246724365234375,-0.19866669178009033,0.2853759229183197,0.809408962726593
1726941015701710300,12.25671044921875,-0.5762313008308411,-0.4925796091556549,0.48038917779922485
1726941015711696100,12.266696044921876,-1.2067581415176392,-1.2379257678985596,0.22233207523822784
1726941015721682400,12.276682373046874,-1.5722304582595825,-1.313610553741455,0.24273362755775452
1726941015731668200,12.286668212890625,-1.6671944856643677,-1.0633149147033691,0.3848939836025238
1726941015741654300,12.296654296875,-1.4707106351852417,-0.7565415501594543,0.5406643152236938
1726941015751640300,12.306640380859376,-1.0963610410690308,-0.6612011790275574,0.6558606624603271
1726941015761626400,12.31662646484375,-0.7901929616928101,-0.7294071316719055,0.6541339159011841
1726941015771612200,12.326612060546875,-0.5159515738487244,-0.730633020401001,0.6001564264297485
1726941015781598200,12.33659814453125,-0.31952813267707825,-0.758902370929718,0.5253181457519531
1726941015791584300,12.346584228515624,-0.21657350659370422,-0.8821683526039124,0.43530169129371643
1726941015801570300,12.3565703125,-0.1761263608932495,-0.9965267777442932,0.35058215260505676
1726941015811556400,12.366556396484375,-0.15267989039421082,-0.9866490960121155,0.2903670072555542
1726941015821542100,12.376542236328126,-0.17030881345272064,-0.8288078904151917,0.2779407203197479
1726941015831528200,12.386528076171874,-0.1815558820962906,-0.5475096106529236,0.2829679548740387
