time,seconds_elapsed,z,y,x
1726226024403051300,0.02105126953125,-0.9405670166015625,-0.3315582275390625,-0.0698089599609375
1726226024413046300,0.03104638671875,-0.9557342529296875,-0.32562255859375,-0.056182861328125
1726226024423041300,0.041041259765625,-0.958099365234375,-0.3250732421875,-0.0517730712890625
1726226024433036300,0.051036376953125,-0.9494171142578125,-0.3290252685546875,-0.0509490966796875
1726226024443031300,0.06103125,-0.9484100341796875,-0.333770751953125,-0.0559539794921875
1726226024453025300,0.071025390625,-0.9691162109375,-0.3438568115234375,-0.042083740234375
1726226024463020300,0.081020263671875,-0.9952392578125,-0.342620849609375,-0.0254669189453125
1726226024473015300,0.091015380859375,-1.0143585205078125,-0.3348541259765625,-0.008331298828125
1726226024483010300,0.10101025390625,-1.0152130126953125,-0.3277435302734375,0.001373291015625
1726226024493005300,0.11100537109375,-1.009033203125,-0.3252105712890625,0.0027923583984375
1726226024503000300,0.121000244140625,-0.9926910400390625,-0.3326873779296875,0.0062103271484375
1726226024512995300,0.130995361328125,-0.9779815673828125,-0.3397369384765625,0.0189361572265625
1726226024522990300,0.140990234375,-1.0141143798828125,-0.303131103515625,0.0634765625
1726226024532984300,0.150984375,-1.052154541015625,-0.28857421875,0.0550994873046875
1726226024542979300,0.160979248046875,-1.0775909423828125,-0.29583740234375,0.023406982421875
1726226024552974300,0.170974365234375,-1.12109375,-0.3197174072265625,0.022613525390625
1726226024562969000,0.180968994140625,-1.1291351318359375,-0.33514404296875,0.03106689453125
1726226024572964000,0.190964111328125,-1.1113128662109375,-0.3620452880859375,0.054656982421875
1726226024582959000,0.200958984375,-1.0201263427734375,-0.3976287841796875,0.1002349853515625
1726226024592954000,0.2109541015625,-0.763214111328125,-0.4018096923828125,0.210235595703125
1726226024602949400,0.220949462890625,-0.653167724609375,-0.5142974853515625,0.1671142578125
1726226024612944400,0.2309443359375,-0.709228515625,-0.496551513671875,0.038177490234375
1726226024622938000,0.240938232421875,-0.7212677001953125,-0.45587158203125,-0.00384521484375
1726226024632933400,0.250933349609375,-0.7561492919921875,-0.47509765625,0.072265625
1726226024642928400,0.260928466796875,-0.79779052734375,-0.46783447265625,0.1531219482421875
1726226024652923400,0.27092333984375,-0.8240814208984375,-0.4291229248046875,0.1663665771484375
1726226024662918400,0.28091845703125,-0.867645263671875,-0.39532470703125,0.1511993408203125
1726226024672913400,0.290913330078125,-0.8790130615234375,-0.3896942138671875,0.145538330078125
1726226024682908400,0.300908447265625,-0.84661865234375,-0.3916015625,0.1463775634765625
1726226024692903200,0.310903076171875,-0.7667236328125,-0.3677520751953125,0.151824951171875
1726226024702897400,0.3208974609375,-0.766571044921875,-0.3687286376953125,0.178802490234375
1726226024712892400,0.330892333984375,-0.7487640380859375,-0.3613128662109375,0.2074127197265625
1726226024722887200,0.34088720703125,-0.7372589111328125,-0.352081298828125,0.21539306640625
1726226024732882200,0.350882080078125,-0.7710723876953125,-0.3477935791015625,0.2057342529296875
1726226024742877200,0.360877197265625,-0.8275909423828125,-0.361663818359375,0.181060791015625
1726226024752872200,0.3708720703125,-0.930206298828125,-0.37664794921875,0.127838134765625
1726226024762867200,0.3808671875,-0.9234771728515625,-0.3295135498046875,0.1069488525390625
1726226024772862200,0.3908623046875,-0.871673583984375,-0.293975830078125,0.1144561767578125
1726226024782856200,0.400856201171875,-0.8438720703125,-0.2874298095703125,0.084869384765625
1726226024792851200,0.410851318359375,-0.82550048828125,-0.2667999267578125,0.060577392578125
1726226024802846200,0.42084619140625,-0.82568359375,-0.2017669677734375,0.0236053466796875
1726226024812841200,0.43084130859375,-0.8947296142578125,-0.1261138916015625,0.0073089599609375
1726226024822836200,0.440836181640625,-0.9669342041015625,-0.0906982421875,0.05816650390625
1726226024832831500,0.45083154296875,-0.9603118896484375,-0.09503173828125,0.0762481689453125
1726226024842826200,0.460826171875,-0.9025421142578125,-0.1456451416015625,-0.032958984375
1726226024852821200,0.4708212890625,-0.8091278076171875,-0.1936187744140625,-0.291412353515625
1726226024862815500,0.4808154296875,-0.81494140625,-0.2645263671875,-0.462188720703125
1726226024872810200,0.490810302734375,-0.801422119140625,-0.23870849609375,-0.4857025146484375
1726226024882805200,0.50080517578125,-0.748321533203125,-0.23193359375,-0.446258544921875
1726226024892800300,0.51080029296875,-0.6806488037109375,-0.22113037109375,-0.4385528564453125
1726226024902795300,0.520795166015625,-0.636505126953125,-0.18218994140625,-0.40704345703125
1726226024912790300,0.530790283203125,-0.6091156005859375,-0.1479339599609375,-0.390838623046875
1726226024922785300,0.540785400390625,-0.6013336181640625,-0.0932159423828125,-0.39617919921875
1726226024932780300,0.5507802734375,-0.5972900390625,-0.0790252685546875,-0.41766357421875
1726226024942774300,0.560774169921875,-0.5459136962890625,-0.0513763427734375,-0.4579010009765625
1726226024952769300,0.570769287109375,-0.4608001708984375,0.0098419189453125,-0.4778900146484375
1726226024962764300,0.580764404296875,-0.3869781494140625,0.0665283203125,-0.45916748046875
1726226024972759300,0.59075927734375,-0.3412322998046875,0.1053009033203125,-0.4705352783203125
1726226024982754300,0.60075439453125,-0.324615478515625,0.1277618408203125,-0.5364990234375
1726226024992749300,0.610749267578125,-0.3115692138671875,0.1923980712890625,-0.55010986328125
1726226025002744300,0.620744384765625,-0.2894439697265625,0.2262115478515625,-0.4967498779296875
1726226025012739000,0.630739013671875,-0.311553955078125,0.3348236083984375,-0.4546661376953125
1726226025022733300,0.6407333984375,-0.399322509765625,0.537139892578125,-0.472076416015625
1726226025032728300,0.650728271484375,-0.52313232421875,0.6809539794921875,-0.404693603515625
1726226025042723000,0.66072314453125,-0.6631317138671875,0.8171539306640625,-0.39404296875
1726226025052718000,0.670718017578125,-0.7330780029296875,0.9149627685546875,-0.5245513916015625
1726226025062713300,0.68071337890625,-0.769927978515625,0.9996490478515625,-0.6855316162109375
1726226025072708400,0.690708251953125,-0.7661590576171875,1.0617523193359375,-0.83367919921875
1726226025082703400,0.700703369140625,-0.7589263916015625,1.116302490234375,-0.948944091796875
1726226025092698400,0.710698486328125,-0.768890380859375,1.1718597412109375,-0.961761474609375
1726226025102692400,0.7206923828125,-0.743804931640625,1.2610321044921875,-0.8467864990234375
1726226025112687400,0.730687255859375,-0.6803741455078125,1.416595458984375,-0.69091796875
1726226025122682400,0.740682373046875,-0.715545654296875,1.6135711669921875,-0.647064208984375
1726226025132677400,0.750677490234375,-0.85833740234375,1.737762451171875,-0.724090576171875
1726226025142672400,0.76067236328125,-1.048370361328125,1.8189849853515625,-0.8996124267578125
1726226025152667400,0.77066748046875,-1.1759490966796875,1.94769287109375,-1.145599365234375
1726226025162662100,0.780662109375,-1.292144775390625,1.94329833984375,-1.2833709716796875
1726226025172657200,0.7906572265625,-1.3434295654296875,1.83575439453125,-1.36724853515625
1726226025182651400,0.8006513671875,-1.3211822509765625,1.8219757080078125,-1.5195465087890625
1726226025192646100,0.810646240234375,-1.3729705810546875,1.8140869140625,-1.6651611328125
1726226025202641200,0.82064111328125,-1.4348907470703125,1.6967926025390625,-1.749114990234375
1726226025212636200,0.83063623046875,-1.4784698486328125,1.66094970703125,-1.913360595703125
1726226025222631200,0.840631103515625,-1.5063629150390625,1.55084228515625,-2.069122314453125
1726226025232626200,0.850626220703125,-1.5020599365234375,1.31201171875,-2.240814208984375
1726226025242621200,0.86062109375,-1.3777008056640625,1.0981597900390625,-2.5236663818359375
1726226025252616200,0.8706162109375,-1.1742095947265625,0.8554229736328125,-2.7451934814453125
1726226025262610200,0.880610107421875,-0.891876220703125,0.6849517822265625,-2.905548095703125
1726226025272605200,0.890605224609375,-0.523773193359375,0.5336151123046875,-2.8444976806640625
1726226025282600200,0.90060009765625,0.0972900390625,0.510040283203125,-2.7635345458984375
1726226025292595200,0.91059521484375,0.171112060546875,0.490234375,-2.5194854736328125
1726226025302590500,0.920590576171875,0.09942626953125,0.57940673828125,-2.145904541015625
1726226025312585500,0.93058544921875,0.2208404541015625,0.6964111328125,-1.796722412109375
1726226025322580200,0.940580322265625,0.2939605712890625,0.795654296875,-1.4712066650390625
1726226025332574500,0.950574462890625,0.134063720703125,0.8663330078125,-1.250091552734375
1726226025342569500,0.960569580078125,0.186981201171875,0.888702392578125,-1.0923309326171875
1726226025352564200,0.970564208984375,0.3155517578125,0.8513336181640625,-0.9497833251953125
1726226025362559200,0.980559326171875,0.3542327880859375,0.7546539306640625,-0.8785552978515625
1726226025372554200,0.99055419921875,0.3509521484375,0.7150421142578125,-0.849945068359375
1726226025382549200,1.00054931640625,0.2805023193359375,0.7804412841796875,-0.7476654052734375
1726226025392544300,1.010544189453125,0.1355438232421875,0.9003143310546875,-0.5963897705078125
1726226025402539300,1.020539306640625,0.057769775390625,1.038726806640625,-0.463958740234375
1726226025412533200,1.030533203125,0.0331878662109375,1.11724853515625,-0.4346160888671875
1726226025422528300,1.0405283203125,0.0031890869140625,1.083770751953125,-0.488128662109375
1726226025432523300,1.050523193359375,0.0297088623046875,1.0525054931640625,-0.468719482421875
1726226025442518300,1.060518310546875,0.110870361328125,1.035430908203125,-0.5558929443359375
1726226025452513300,1.07051318359375,0.234893798828125,1.265899658203125,-0.4641571044921875
1726226025462508300,1.08050830078125,0.1621551513671875,1.3874359130859375,-0.2779083251953125
1726226025472503300,1.09050341796875,-0.1098480224609375,1.4424896240234375,-0.0333099365234375
1726226025482497300,1.100497314453125,-0.41461181640625,1.5754547119140625,0.27886962890625
1726226025492492300,1.1104921875,-0.5005035400390625,1.5116119384765625,0.298431396484375
1726226025502487300,1.1204873046875,-0.099945068359375,1.239990234375,0.0119476318359375
1726226025512482300,1.130482421875,0.06842041015625,1.0904998779296875,-0.3409576416015625
1726226025522477300,1.140477294921875,0.0452728271484375,0.9972381591796875,-0.58203125
1726226025532472300,1.150472412109375,0.2342681884765625,0.896942138671875,-0.6231536865234375
1726226025542467300,1.16046728515625,-0.0042724609375,1.043487548828125,-0.6508026123046875
1726226025552462300,1.17046240234375,-0.1748809814453125,1.17926025390625,-0.761383056640625
1726226025562456300,1.180456298828125,-0.3284912109375,1.070587158203125,-0.8119659423828125
1726226025572451300,1.190451416015625,-0.4992218017578125,1.0153961181640625,-0.966827392578125
1726226025582446300,1.2004462890625,-0.421051025390625,0.91229248046875,-1.1504669189453125
1726226025592441300,1.21044140625,-0.041168212890625,0.59283447265625,-0.970062255859375
1726226025602436400,1.220436279296875,0.0312652587890625,0.5982666015625,-1.056427001953125
1726226025612431400,1.230431396484375,0.0386962890625,0.55206298828125,-1.062591552734375
1726226025622426400,1.24042626953125,0.025054931640625,0.444366455078125,-1.022491455078125
1726226025632420400,1.25042041015625,-0.070404052734375,0.3473663330078125,-1.0191802978515625
1726226025642415400,1.260415283203125,-0.22821044921875,0.3018646240234375,-1.035736083984375
1726226025652410400,1.270410400390625,-0.2967071533203125,0.3350830078125,-1.0594329833984375
1726226025662405400,1.2804052734375,-0.16705322265625,0.2140655517578125,-1.0677947998046875
1726226025672400100,1.290400146484375,-0.0115203857421875,0.1320648193359375,-1.17242431640625
1726226025682395100,1.30039501953125,0.1113433837890625,0.1593170166015625,-1.1247406005859375
1726226025692390100,1.31039013671875,0.229248046875,0.1371917724609375,-0.998931884765625
1726226025702385400,1.320385498046875,0.31036376953125,0.135345458984375,-0.94403076171875
1726226025712379100,1.330379150390625,0.4001312255859375,0.191497802734375,-0.8357391357421875
1726226025722374100,1.3403740234375,0.360198974609375,0.228240966796875,-0.7621002197265625
1726226025732369400,1.350369384765625,0.1280670166015625,0.3189849853515625,-0.7731475830078125
1726226025742364400,1.360364501953125,-0.0829925537109375,0.430755615234375,-0.6808013916015625
1726226025752359400,1.370359375,-0.1470947265625,0.43896484375,-0.6442108154296875
1726226025762354400,1.3803544921875,-0.06292724609375,0.45989990234375,-0.6248931884765625
1726226025772349400,1.390349365234375,0.01885986328125,0.5465087890625,-0.6041717529296875
1726226025782343400,1.400343505859375,0.1092376708984375,0.635498046875,-0.60223388671875
1726226025792338400,1.41033837890625,0.1786651611328125,0.671112060546875,-0.640167236328125
1726226025802333400,1.42033349609375,0.2725677490234375,0.6321258544921875,-0.7907562255859375
1726226025812328400,1.430328369140625,0.42974853515625,0.5382537841796875,-1.030517578125
1726226025822323200,1.4403232421875,0.45721435546875,0.529388427734375,-1.2766571044921875
1726226025832318200,1.450318115234375,0.314727783203125,0.527008056640625,-1.3116607666015625
1726226025842313200,1.460313232421875,0.17791748046875,0.536285400390625,-1.2880859375
1726226025852307200,1.47030712890625,0.127044677734375,0.585113525390625,-1.1602935791015625
1726226025862302200,1.48030224609375,0.1321868896484375,0.667755126953125,-0.97833251953125
1726226025872297200,1.490297119140625,0.1452484130859375,0.7333221435546875,-0.8429107666015625
1726226025882292200,1.500292236328125,0.216766357421875,0.7321319580078125,-0.7750701904296875
1726226025892287200,1.510287353515625,0.3831787109375,0.6442108154296875,-0.8211669921875
1726226025902282200,1.5202822265625,0.4977264404296875,0.623504638671875,-0.8959503173828125
1726226025912277200,1.53027734375,0.476959228515625,0.6236419677734375,-0.98114013671875
1726226025922272300,1.540272216796875,0.3082733154296875,0.6109161376953125,-1.0084228515625
1726226025932266200,1.550266357421875,0.1880340576171875,0.634857177734375,-0.9203033447265625
1726226025942261200,1.56026123046875,0.1087493896484375,0.7326202392578125,-0.9024810791015625
1726226025952256300,1.57025634765625,0.0673675537109375,0.7590179443359375,-0.8508148193359375
1726226025962251500,1.58025146484375,0.0896759033203125,0.790985107421875,-0.7820587158203125
1726226025972246500,1.59024658203125,0.2986297607421875,0.809356689453125,-0.7149810791015625
1726226025982241300,1.6002412109375,0.3887939453125,0.920257568359375,-0.7290191650390625
1726226025992236300,1.610236328125,0.3642425537109375,0.9409942626953125,-0.5502166748046875
1726226026002230500,1.62023046875,0.23406982421875,0.876190185546875,-0.4009552001953125
1726226026012225300,1.630225341796875,0.1002197265625,1.0249786376953125,-0.3335418701171875
1726226026022220300,1.64022021484375,0.0193634033203125,1.281707763671875,-0.2814178466796875
1726226026032215300,1.65021533203125,-0.1082611083984375,1.4505767822265625,-0.1921844482421875
1726226026042210300,1.660210205078125,-0.2077178955078125,1.6563568115234375,-0.10284423828125
1726226026052205300,1.670205322265625,-0.376434326171875,1.944976806640625,0.0555572509765625
1726226026062200300,1.680200439453125,-0.4349822998046875,2.178619384765625,0.1140289306640625
1726226026072194300,1.6901943359375,-0.1043548583984375,2.393463134765625,-0.074066162109375
1726226026082189300,1.700189208984375,0.1719970703125,2.591583251953125,-0.3210296630859375
1726226026092184300,1.710184326171875,-0.129913330078125,2.5568695068359375,-0.3900909423828125
1726226026102179300,1.720179443359375,0.0123138427734375,2.3535308837890625,-0.8607635498046875
1726226026112174300,1.73017431640625,-0.1442413330078125,2.2844390869140625,-0.9759368896484375
1726226026122169300,1.74016943359375,-0.7453460693359375,2.308441162109375,-0.8748016357421875
1726226026132164400,1.750164306640625,-0.5867919921875,2.064208984375,-1.286163330078125
1726226026142158300,1.760158447265625,-0.398345947265625,1.7152099609375,-1.845306396484375
1726226026152153300,1.7701533203125,-0.3964080810546875,1.4635009765625,-2.3550262451171875
1726226026162148400,1.7801484375,-0.395233154296875,1.117706298828125,-2.58050537109375
1726226026172143000,1.79014306640625,-0.337066650390625,0.625823974609375,-2.54022216796875
1726226026182138000,1.80013818359375,0.1044464111328125,0.3585968017578125,-2.619903564453125
1726226026192133400,1.81013330078125,0.181365966796875,0.2458648681640625,-2.595977783203125
1726226026202128400,1.82012841796875,0.139617919921875,0.0810394287109375,-2.39349365234375
1726226026212122000,1.8301220703125,0.2341156005859375,0.162078857421875,-2.12689208984375
1726226026222117400,1.840117431640625,0.2640228271484375,0.2996826171875,-1.8499755859375
1726226026232112400,1.8501123046875,0.2913818359375,0.423736572265625,-1.673431396484375
1726226026242107400,1.860107421875,0.295379638671875,0.6045379638671875,-1.3764495849609375
1726226026252102400,1.870102294921875,0.2327117919921875,0.808319091796875,-0.97125244140625
1726226026262097400,1.880097412109375,0.1295166015625,0.93804931640625,-0.664337158203125
1726226026272092400,1.890092529296875,0.0011749267578125,0.9759063720703125,-0.53057861328125
1726226026282086400,1.90008642578125,-0.1878509521484375,0.972076416015625,-0.2767181396484375
1726226026292081400,1.910081298828125,-0.2478179931640625,0.9094696044921875,-0.36767578125
1726226026302076400,1.920076416015625,-0.2066650390625,0.8480682373046875,-0.4390411376953125
1726226026312071400,1.930071533203125,-0.152618408203125,0.9409027099609375,-0.3029632568359375
1726226026322066400,1.94006640625,-0.1854705810546875,1.18853759765625,0.128814697265625
1726226026332061200,1.950061279296875,-0.3867950439453125,1.2910003662109375,0.70733642578125
1726226026342056200,1.96005615234375,-0.7444915771484375,1.222442626953125,0.911651611328125
1726226026352050400,1.970050537109375,-0.928802490234375,1.1737518310546875,0.9297637939453125
1726226026362045200,1.980045166015625,-0.7894744873046875,1.069427490234375,0.8812408447265625
1726226026372040200,1.990040283203125,-0.6988983154296875,0.991668701171875,0.992462158203125
1726226026382035200,2.00003515625,-0.5807037353515625,1.0747833251953125,0.83154296875
1726226026392030200,2.0100302734375,-0.31036376953125,1.3975067138671875,0.66864013671875
1726226026402025200,2.020025146484375,-0.360595703125,1.273712158203125,0.5454559326171875
1726226026412019200,2.030019287109375,-0.697357177734375,0.9640960693359375,-0.191558837890625
1726226026422013700,2.040013671875,-0.7131805419921875,0.8248291015625,-0.46820068359375
1726226026432008700,2.0500087890625,-0.657379150390625,0.99932861328125,-0.4713134765625
1726226026442003700,2.060003662109375,-0.7209930419921875,1.1367034912109375,-0.4232635498046875
1726226026451998700,2.069998779296875,-0.86334228515625,1.0947113037109375,-0.4395751953125
1726226026461993700,2.07999365234375,-0.8119049072265625,1.042816162109375,-0.4888916015625
1726226026471988700,2.08998876953125,-0.647979736328125,1.0253448486328125,-0.5779266357421875
1726226026481982700,2.099982666015625,-0.7203216552734375,1.0410308837890625,-0.697265625
1726226026491977700,2.109977783203125,-0.778106689453125,1.0086822509765625,-0.757904052734375
1726226026501972700,2.11997265625,-0.755523681640625,0.97650146484375,-0.7973785400390625
1726226026511967700,2.1299677734375,-0.584320068359375,0.8614501953125,-0.802154541015625
1726226026521962800,2.139962646484375,-0.3957977294921875,0.7873992919921875,-1.0497283935546875
1726226026531957500,2.14995751953125,-0.34124755859375,0.7977447509765625,-1.072906494140625
1726226026541952500,2.159952392578125,-0.351104736328125,0.8431854248046875,-0.9379730224609375
1726226026551946800,2.16994677734375,-0.28759765625,0.8770294189453125,-0.8370208740234375
1726226026561941500,2.17994140625,-0.1652069091796875,0.89190673828125,-0.69482421875
1726226026571936500,2.1899365234375,-0.03521728515625,0.9220733642578125,-0.6265716552734375
1726226026581931500,2.199931640625,0.0150146484375,0.888031005859375,-0.5576629638671875
1726226026591926500,2.209926513671875,0.0013580322265625,0.7982635498046875,-0.5526580810546875
1726226026601921500,2.219921630859375,-0.173431396484375,0.6175079345703125,-0.611724853515625
1726226026611916500,2.22991650390625,-0.2621307373046875,0.5077362060546875,-0.763916015625
1726226026621910500,2.23991064453125,-0.2706146240234375,0.4116058349609375,-0.8498077392578125
1726226026631905500,2.249905517578125,-0.348358154296875,0.3577117919921875,-0.88323974609375
1726226026641900500,2.259900634765625,-0.4694976806640625,0.4100494384765625,-0.828643798828125
1726226026651895600,2.2698955078125,-0.47625732421875,0.548126220703125,-0.8701171875
1726226026661890800,2.279890869140625,0.35821533203125,0.347747802734375,-1.4276885986328125
1726226026671885800,2.2898857421875,-0.6756591796875,0.337738037109375,-0.896270751953125
1726226026681880800,2.299880859375,-1.2820281982421875,0.546875,-0.7649078369140625
1726226026691874800,2.309874755859375,-1.37945556640625,0.5333251953125,-0.6188812255859375
1726226026701869800,2.319869873046875,-1.296661376953125,0.454010009765625,-0.4026031494140625
1726226026711864800,2.32986474609375,-0.93682861328125,0.227264404296875,-0.5379791259765625
1726226026721859600,2.339859619140625,-0.6253509521484375,0.0882720947265625,-0.641326904296875
1726226026731854600,2.3498544921875,-0.4742279052734375,0.0500335693359375,-0.6146697998046875
1726226026741849600,2.359849609375,-0.328460693359375,0.3000335693359375,-0.6621856689453125
1726226026751843600,2.369843505859375,-0.811920166015625,0.4842681884765625,-0.3361663818359375
1726226026761838600,2.379838623046875,-1.4211883544921875,1.1176605224609375,0.34979248046875
1726226026771833600,2.38983349609375,-1.4446258544921875,1.3775482177734375,0.747894287109375
1726226026781828600,2.39982861328125,-1.3407745361328125,1.2957916259765625,0.8642578125
1726226026791823600,2.40982373046875,-0.9742584228515625,1.118804931640625,0.7872314453125
1726226026801818600,2.419818603515625,-0.6116180419921875,0.8739013671875,0.4732208251953125
1726226026811813600,2.429813720703125,-0.3362884521484375,0.7957611083984375,0.2149200439453125
1726226026821807600,2.4398076171875,-0.1205596923828125,0.821563720703125,0.063934326171875
1726226026831802600,2.449802734375,0.1417388916015625,0.9600372314453125,-0.0992584228515625
1726226026841797600,2.459797607421875,0.15618896484375,1.059112548828125,-0.1865081787109375
1726226026851792600,2.469792724609375,0.030975341796875,1.192596435546875,-0.2769012451171875
1726226026861787600,2.47978759765625,0.0045623779296875,1.211944580078125,-0.4778289794921875
1726226026871782700,2.48978271484375,0.033782958984375,1.1634979248046875,-0.7600555419921875
1726226026881777400,2.49977734375,-0.060791015625,1.0712738037109375,-0.8805084228515625
1726226026891771600,2.509771728515625,0.05328369140625,0.889739990234375,-1.1879730224609375
1726226026901766700,2.5197666015625,0.133331298828125,0.664947509765625,-1.49560546875
1726226026911761700,2.52976171875,0.180755615234375,0.636383056640625,-1.619384765625
1726226026921756700,2.539756591796875,0.0916748046875,0.5171356201171875,-1.46240234375
1726226026931751700,2.549751708984375,-0.1650543212890625,0.29095458984375,-1.48223876953125
1726226026941746700,2.55974658203125,-0.4447479248046875,0.2212677001953125,-1.6817169189453125
1726226026951740700,2.56974072265625,-0.6226959228515625,0.2072906494140625,-1.509613037109375
1726226026961735700,2.579735595703125,-0.701141357421875,0.3024749755859375,-1.391387939453125
1726226026971730700,2.589730712890625,-0.5554656982421875,0.3851165771484375,-1.2146759033203125
1726226026981725700,2.5997255859375,-0.421661376953125,0.314361572265625,-1.00885009765625
1726226026991720700,2.609720703125,-0.289337158203125,0.183502197265625,-0.9043731689453125
1726226027001715700,2.6197158203125,-0.1265716552734375,0.1130523681640625,-0.9201202392578125
1726226027011710700,2.629710693359375,0.00994873046875,0.2133331298828125,-0.8481597900390625
1726226027021704700,2.63970458984375,0.1365509033203125,0.342620849609375,-0.75445556640625
1726226027031699700,2.64969970703125,-0.1117095947265625,0.64971923828125,-0.59906005859375
1726226027041694700,2.65969482421875,-0.21826171875,0.8291015625,-0.6237640380859375
1726226027051689700,2.669689697265625,-0.238250732421875,0.7728729248046875,-0.8533477783203125
1726226027061684700,2.679684814453125,-0.3153839111328125,0.615966796875,-0.9394683837890625
1726226027071679500,2.689679443359375,-0.2916412353515625,0.526580810546875,-0.788055419921875
1726226027081674500,2.699674560546875,-0.2457122802734375,0.525177001953125,-0.7925872802734375
1726226027091668500,2.70966845703125,-0.1125030517578125,0.582183837890625,-0.8251953125
1726226027101663500,2.71966357421875,0.0536041259765625,0.55810546875,-0.95733642578125
1726226027111658500,2.729658447265625,-0.0151519775390625,0.3555450439453125,-0.8997955322265625
1726226027121653500,2.739653564453125,0.0610809326171875,0.1813201904296875,-0.840240478515625
1726226027131648500,2.7496484375,0.4645233154296875,0.2784423828125,-0.90594482421875
1726226027141643500,2.7596435546875,0.6197509765625,0.4492034912109375,-0.9179840087890625
1726226027151638800,2.769638671875,0.5135955810546875,0.4402618408203125,-0.9395904541015625
1726226027161632500,2.779632568359375,0.3749847412109375,0.4224395751953125,-0.8543701171875
1726226027171627800,2.789627685546875,0.2586517333984375,0.351043701171875,-0.847137451171875
1726226027181622800,2.799622802734375,0.16229248046875,0.2656707763671875,-0.9145355224609375
1726226027191617800,2.80961767578125,0.2852020263671875,0.1510772705078125,-1.0067291259765625
1726226027201612800,2.81961279296875,0.3301849365234375,0.12188720703125,-1.007843017578125
1726226027211607800,2.82960791015625,0.2250213623046875,0.16424560546875,-0.968719482421875
1726226027221601800,2.839601806640625,0.10687255859375,0.197662353515625,-0.97735595703125
1726226027231596800,2.8495966796875,0.0567474365234375,0.2404632568359375,-0.9542999267578125
1726226027241591800,2.859591796875,0.0121612548828125,0.3223114013671875,-0.9528350830078125
1726226027251586600,2.869586669921875,-0.09417724609375,0.5000762939453125,-1.0924835205078125
1726226027261581600,2.87958154296875,-0.123870849609375,0.468841552734375,-1.0021514892578125
1726226027271576600,2.88957666015625,-0.162078857421875,0.369720458984375,-0.9660491943359375
1726226027281571600,2.899571533203125,-0.1491851806640625,0.3860931396484375,-0.896087646484375
1726226027291565600,2.909565673828125,-0.0311279296875,0.52996826171875,-0.9074859619140625
1726226027301560600,2.919560546875,-0.020233154296875,0.6246337890625,-1.1012420654296875
1726226027311555600,2.9295556640625,-0.028106689453125,0.6212615966796875,-1.1204376220703125
1726226027321550600,2.939550537109375,-0.0383148193359375,0.643218994140625,-1.2289581298828125
1726226027331545600,2.949545654296875,0.0047454833984375,0.757110595703125,-1.2212371826171875
1726226027341540600,2.95954052734375,0.001617431640625,0.9232635498046875,-1.052581787109375
1726226027351534600,2.96953466796875,-0.0773162841796875,1.0348052978515625,-0.8271484375
1726226027361529600,2.979529541015625,-0.046905517578125,1.037689208984375,-0.79742431640625
1726226027371524600,2.989524658203125,0.1942138671875,0.824554443359375,-0.9448699951171875
1726226027381519600,2.99951953125,0.268402099609375,0.5135650634765625,-0.996612548828125
1726226027391514600,3.0095146484375,0.1823272705078125,0.2789459228515625,-0.94561767578125
1726226027401509600,3.019509521484375,0.1470947265625,0.336761474609375,-0.8363800048828125
1726226027411504600,3.029504638671875,0.2553863525390625,0.500091552734375,-0.7968902587890625
1726226027421499000,3.039498779296875,0.232025146484375,0.589996337890625,-0.7740325927734375
1726226027431494000,3.049493896484375,0.0070037841796875,0.6343841552734375,-0.8573455810546875
1726226027441489000,3.059489013671875,0.0516357421875,0.79046630859375,-0.9031982421875
1726226027451484000,3.06948388671875,0.074371337890625,1.00225830078125,-0.84100341796875
1726226027461479000,3.07947900390625,-0.178131103515625,1.060638427734375,-0.7730560302734375
1726226027471474000,3.089473876953125,-0.3380584716796875,1.026031494140625,-0.738922119140625
1726226027481468000,3.099468017578125,-0.5053253173828125,1.10186767578125,-0.6930999755859375
1726226027491463000,3.109462890625,-0.63037109375,1.0418548583984375,-0.63031005859375
1726226027501458000,3.1194580078125,-0.636383056640625,0.8997344970703125,-0.6206817626953125
1726226027511453000,3.129452880859375,-0.563751220703125,0.8126983642578125,-0.701568603515625
1726226027521448000,3.139447998046875,-0.6362762451171875,0.8072662353515625,-0.808746337890625
1726226027531443000,3.14944287109375,-0.7549285888671875,0.662841796875,-0.91796875
1726226027541437000,3.15943701171875,-0.5131988525390625,0.394317626953125,-1.0528411865234375
1726226027551432000,3.169431884765625,-0.4851226806640625,0.333099365234375,-1.178802490234375
1726226027561427000,3.179427001953125,-0.4239044189453125,0.2103118896484375,-1.1642608642578125
1726226027571422000,3.189421875,-0.1697235107421875,-0.0902862548828125,-1.185211181640625
1726226027581417000,3.1994169921875,-0.112213134765625,-0.2335662841796875,-1.154998779296875
1726226027591411700,3.20941162109375,0.04071044921875,-0.384246826171875,-1.1683502197265625
1726226027601406700,3.21940673828125,0.1409759521484375,-0.488433837890625,-1.143310546875
1726226027611401000,3.22940087890625,0.02593994140625,-0.4950714111328125,-1.047271728515625
1726226027621395700,3.239395751953125,-0.147064208984375,-0.36676025390625,-1.0627593994140625
1726226027631390700,3.249390625,-0.168792724609375,-0.1871185302734375,-0.97314453125
1726226027641385700,3.2593857421875,-0.25018310546875,0.0507659912109375,-0.8990325927734375
1726226027651380700,3.269380615234375,-0.2638092041015625,0.323516845703125,-0.81512451171875
1726226027661376000,3.2793759765625,-0.2645416259765625,0.5662384033203125,-0.66839599609375
1726226027671369700,3.28936962890625,-0.2415618896484375,0.7227783203125,-0.492706298828125
1726226027681364700,3.29936474609375,-0.1967010498046875,0.77789306640625,-0.3462982177734375
1726226027691360000,3.309360107421875,-0.2086944580078125,0.7888336181640625,-0.190826416015625
1726226027701355000,3.31935498046875,-0.2426605224609375,0.94989013671875,-0.0628662109375
1726226027711350000,3.32935009765625,-0.3100738525390625,1.173492431640625,0.045196533203125
1726226027721345000,3.339344970703125,-0.2975311279296875,1.387725830078125,0.127655029296875
1726226027731340000,3.349340087890625,-0.150634765625,1.368743896484375,0.03582763671875
1726226027741334000,3.359333984375,-0.0595703125,1.2590179443359375,-0.1963958740234375
1726226027751329000,3.3693291015625,-0.02081298828125,1.144744873046875,-0.443878173828125
1726226027761324000,3.379323974609375,-0.036346435546875,1.0445098876953125,-0.6664886474609375
1726226027771319000,3.389319091796875,-0.05181884765625,0.94134521484375,-0.776885986328125
1726226027781313800,3.399313720703125,-0.0579986572265625,0.815216064453125,-0.78778076171875
1726226027791308800,3.409308837890625,-0.177886962890625,0.752471923828125,-0.67437744140625
1726226027801302800,3.419302734375,-0.3165435791015625,0.7317657470703125,-0.56842041015625
1726226027811297800,3.4292978515625,-0.3868865966796875,0.8077392578125,-0.484375
1726226027821292800,3.439292724609375,-0.4775238037109375,0.9065399169921875,-0.457275390625
1726226027831287800,3.449287841796875,-0.544708251953125,0.9603424072265625,-0.4348602294921875
1726226027841282800,3.45928271484375,-0.5171966552734375,0.9138336181640625,-0.508056640625
1726226027851277800,3.46927783203125,-0.378204345703125,0.8748321533203125,-0.6135711669921875
1726226027861272800,3.47927294921875,-0.3587188720703125,0.855438232421875,-0.7252349853515625
1726226027871266800,3.489266845703125,-0.3999481201171875,0.756072998046875,-0.9053955078125
1726226027881261800,3.49926171875,-0.3642578125,0.65179443359375,-1.0435791015625
1726226027891256800,3.5092568359375,-0.36517333984375,0.613616943359375,-1.14190673828125
1726226027901251800,3.519251953125,-0.3311920166015625,0.6427154541015625,-1.20941162109375
1726226027911246800,3.529246826171875,-0.23944091796875,0.606597900390625,-1.0416412353515625
1726226027921242000,3.5392421875,-0.1517486572265625,0.5278472900390625,-0.7755584716796875
1726226027931236900,3.54923681640625,-0.013641357421875,0.5810546875,-0.7895660400390625
1726226027941230800,3.55923095703125,0.05084228515625,0.6481170654296875,-0.696014404296875
1726226027951226000,3.56922607421875,0.0092926025390625,0.685943603515625,-0.5456390380859375
1726226027961220900,3.579220947265625,0.025970458984375,0.7954559326171875,-0.431549072265625
1726226027971216000,3.5892158203125,0.041351318359375,0.8814544677734375,-0.3847198486328125
1726226027981211000,3.5992109375,0.02362060546875,0.907196044921875,-0.388275146484375
1726226027991206000,3.609205810546875,0.065643310546875,0.9011383056640625,-0.4070587158203125
1726226028001201000,3.619200927734375,0.1103973388671875,0.8617706298828125,-0.427459716796875
1726226028011195000,3.62919482421875,0.1481475830078125,0.749237060546875,-0.52783203125
1726226028021190000,3.63918994140625,0.1543426513671875,0.6470184326171875,-0.625213623046875
1726226028031185000,3.649184814453125,0.16888427734375,0.6065673828125,-0.678802490234375
1726226028041180000,3.659179931640625,0.220947265625,0.6165771484375,-0.6934356689453125
1726226028051175000,3.6691748046875,0.2589263916015625,0.662445068359375,-0.7194671630859375
1726226028061170000,3.679169921875,0.168670654296875,0.76434326171875,-0.6743316650390625
1726226028071165000,3.6891650390625,-0.0147247314453125,0.8191070556640625,-0.637359619140625
1726226028081159000,3.699158935546875,-0.19146728515625,0.8276519775390625,-0.6971435546875
1726226028091154000,3.70915380859375,-0.250274658203125,0.819122314453125,-0.816009521484375
1726226028101149000,3.71914892578125,-0.222442626953125,0.790679931640625,-0.8794403076171875
1726226028111144000,3.72914404296875,-0.133392333984375,0.6723480224609375,-0.945892333984375
1726226028121138700,3.739138671875,-0.1047210693359375,0.552032470703125,-1.002105712890625
1726226028131133700,3.7491337890625,-0.0081634521484375,0.4938201904296875,-1.011871337890625
1726226028141128700,3.759128662109375,0.159698486328125,0.45220947265625,-0.975433349609375
1726226028151122700,3.769122802734375,0.479949951171875,0.2890625,-1.0632781982421875
1726226028161117700,3.77911767578125,0.3916473388671875,0.2204437255859375,-1.109222412109375
1726226028171112700,3.78911279296875,0.250335693359375,0.37158203125,-1.0110321044921875
1726226028181108000,3.79910791015625,0.064544677734375,0.5770416259765625,-0.8685455322265625
1726226028191103000,3.80910302734375,0.030364990234375,0.6450958251953125,-0.8560943603515625
1726226028201098000,3.819097900390625,0.0420684814453125,0.6259765625,-0.829315185546875
1726226028211093000,3.829093017578125,0.0013427734375,0.50299072265625,-0.8244171142578125
1726226028221087000,3.8390869140625,0.3314208984375,0.27880859375,-0.7426300048828125
1726226028231082000,3.84908203125,0.030853271484375,0.3198699951171875,-1.0206298828125
1726226028241077000,3.859076904296875,0.3348846435546875,0.3297576904296875,-0.9462738037109375
1726226028251072000,3.869072021484375,0.1031494140625,0.854278564453125,-0.4417572021484375
1726226028261067000,3.87906689453125,-0.122100830078125,0.8784637451171875,-0.610809326171875
1726226028271062000,3.88906201171875,-0.19580078125,0.8040618896484375,-0.597198486328125
1726226028281056800,3.899056884765625,-0.2028350830078125,0.7646026611328125,-0.5296783447265625
1726226028291051000,3.909051025390625,-0.1525115966796875,0.6730194091796875,-0.57928466796875
1726226028301046000,3.9190458984375,-0.209686279296875,0.7017364501953125,-0.6309661865234375
1726226028311040800,3.929040771484375,-0.27093505859375,0.8255767822265625,-0.63311767578125
1726226028321035800,3.939035888671875,-0.2569580078125,0.915740966796875,-0.6420745849609375
1726226028331030800,3.94903076171875,-0.2259979248046875,0.8923492431640625,-0.7091827392578125
1726226028341025800,3.95902587890625,-0.13702392578125,0.78607177734375,-0.815704345703125
1726226028351020800,3.969020751953125,-0.0410308837890625,0.619171142578125,-0.9137115478515625
1726226028361014800,3.979014892578125,-0.001678466796875,0.4323577880859375,-1.0548248291015625
1726226028371009800,3.989009765625,0.012115478515625,0.30828857421875,-1.1917266845703125
1726226028381004800,3.9990048828125,0.2467041015625,0.1964263916015625,-1.2306671142578125
1726226028390999800,4.008999755859375,0.337310791015625,0.218109130859375,-1.25799560546875
1726226028400994800,4.018994873046875,0.373321533203125,0.3538055419921875,-1.1758880615234375
1726226028410990000,4.028989990234375,0.4528656005859375,0.4582366943359375,-1.1483612060546875
1726226028420986000,4.038986083984375,0.4172515869140625,0.5059967041015625,-1.0842742919921875
1726226028430980000,4.04897998046875,0.32147216796875,0.4500579833984375,-1.0167388916015625
1726226028440975000,4.05897509765625,0.237701416015625,0.332061767578125,-1.0648040771484375
1726226028450970000,4.06897021484375,0.1660308837890625,0.2312164306640625,-1.1024932861328125
1726226028460965000,4.078965087890625,0.081939697265625,0.18536376953125,-1.091033935546875
1726226028470960000,4.088960205078125,0.054931640625,0.1909027099609375,-1.0736541748046875
1726226028480955100,4.098955078125,0.0216827392578125,0.21124267578125,-1.0442047119140625
1726226028490950100,4.1089501953125,0.023834228515625,0.266021728515625,-1.04705810546875
1726226028500945200,4.118945068359375,0.0518798828125,0.3052520751953125,-0.9739837646484375
1726226028510939100,4.128939208984375,-0.0235137939453125,0.272705078125,-0.900909423828125
1726226028520934100,4.13893408203125,-0.0969696044921875,0.20147705078125,-0.92620849609375
1726226028530929200,4.14892919921875,-0.1409912109375,0.0751800537109375,-0.9140625
1726226028540924200,4.158924072265625,-0.1440887451171875,-0.00494384765625,-0.9543914794921875
1726226028550919200,4.168919189453125,-0.0925750732421875,-0.061737060546875,-0.993743896484375
1726226028560914000,4.178913818359375,-0.0409088134765625,-0.127960205078125,-1.05328369140625
1726226028570909000,4.188908935546875,-0.0381011962890625,-0.0868377685546875,-1.0124664306640625
1726226028580903200,4.198903076171875,-0.0643463134765625,-0.03753662109375,-0.95843505859375
1726226028590898000,4.20889794921875,-0.1331634521484375,-0.0308074951171875,-0.8614654541015625
1726226028600893200,4.21889306640625,-0.161956787109375,-0.0213165283203125,-0.837188720703125
1726226028610888200,4.22888818359375,-0.1983184814453125,-0.00823974609375,-0.9498748779296875
1726226028620883200,4.23888330078125,-0.164642333984375,-0.056793212890625,-1.024993896484375
1726226028630878200,4.248878173828125,-0.0865020751953125,0.0277099609375,-0.8350830078125
1726226028640873200,4.258873291015625,-0.0579071044921875,0.1062164306640625,-0.847808837890625
1726226028650867200,4.2688671875,0.0579681396484375,0.0926513671875,-0.9109954833984375
1726226028660862200,4.2788623046875,-0.14349365234375,0.0507659912109375,-1.0269622802734375
1726226028670857200,4.288857177734375,-0.3836669921875,-0.0261688232421875,-1.069976806640625
1726226028680852200,4.298852294921875,-0.1503143310546875,0.0300445556640625,-0.987640380859375
1726226028690847200,4.30884716796875,-0.281524658203125,-0.023712158203125,-1.1543121337890625
1726226028700842200,4.31884228515625,-0.30462646484375,-0.1207275390625,-1.1061859130859375
1726226028710837200,4.328837158203125,0.0299224853515625,-0.115081787109375,-1.1727447509765625
1726226028720831200,4.338831298828125,0.110260009765625,-0.0025787353515625,-1.0943756103515625
1726226028730826200,4.348826171875,-0.2805938720703125,0.2395477294921875,-1.090179443359375
1726226028740821200,4.3588212890625,-0.5102691650390625,0.379364013671875,-1.31695556640625
1726226028750816000,4.36881591796875,-0.6435089111328125,0.3589324951171875,-1.2713623046875
1726226028760811000,4.37881103515625,-0.59161376953125,0.3101654052734375,-1.11962890625
1726226028770806000,4.388805908203125,-0.3279266357421875,0.277923583984375,-1.033905029296875
1726226028780801000,4.398801025390625,-0.025177001953125,0.235809326171875,-0.997161865234375
1726226028790795000,4.408794921875,-0.0556640625,0.2234344482421875,-0.8581695556640625
1726226028800790000,4.4187900390625,-0.041229248046875,0.3876190185546875,-0.835540771484375
1726226028810785000,4.428784912109375,-0.1344146728515625,0.42913818359375,-0.8577117919921875
1726226028820780000,4.438780029296875,-0.116912841796875,0.3585052490234375,-0.82318115234375
1726226028830775300,4.448775390625,-0.0450897216796875,0.2162628173828125,-0.79205322265625
1726226028840770300,4.458770263671875,-0.05621337890625,0.0903167724609375,-0.830078125
1726226028850765300,4.468765380859375,-0.0821075439453125,0.0486907958984375,-0.82647705078125
1726226028860759300,4.47875927734375,-0.0235595703125,0.1242523193359375,-0.66094970703125
1726226028870754300,4.48875439453125,-0.18304443359375,-0.129180908203125,-0.8158416748046875
1726226028880749300,4.498749267578125,-0.19207763671875,-0.164703369140625,-0.7631072998046875
1726226028890744300,4.508744384765625,-0.160064697265625,-0.0772705078125,-0.8006439208984375
1726226028900739000,4.518739013671875,-0.052886962890625,-0.06378173828125,-0.8099212646484375
1726226028910734000,4.528734130859375,-0.0631103515625,-0.0753631591796875,-0.7730255126953125
1726226028920729000,4.53872900390625,-0.32464599609375,-0.1175537109375,-0.56201171875
1726226028930723000,4.54872314453125,-0.0691680908203125,0.0068206787109375,-0.8149261474609375
1726226028940718000,4.558718017578125,0.17755126953125,-0.017059326171875,-1.026702880859375
1726226028950713000,4.568713134765625,0.4144439697265625,-0.0967254638671875,-0.935577392578125
1726226028960708000,4.5787080078125,0.4903411865234375,-0.0596466064453125,-0.861083984375
1726226028970703000,4.588703125,0.474700927734375,0.023345947265625,-0.7853240966796875
1726226028980698000,4.598697998046875,0.3458709716796875,0.0057373046875,-0.623382568359375
1726226028990693000,4.608693115234375,0.2266845703125,0.1227264404296875,-0.7371063232421875
1726226029000687000,4.61868701171875,0.100341796875,0.0867156982421875,-0.8647003173828125
1726226029010682000,4.62868212890625,0.0968017578125,0.040069580078125,-0.7764129638671875
1726226029020677000,4.638677001953125,0.1916961669921875,0.0571441650390625,-1.0020904541015625
1726226029030672100,4.648672119140625,0.34002685546875,-0.102813720703125,-0.9283599853515625
1726226029040667100,4.658667236328125,1.0288543701171875,-0.1167144775390625,-1.03973388671875
1726226029050662100,4.668662109375,0.9491119384765625,-0.065643310546875,-0.7663421630859375
1726226029060657200,4.6786572265625,0.0878753662109375,-0.18206787109375,-0.840972900390625
1726226029070651100,4.688651123046875,0.7433929443359375,-0.277099609375,-0.7959136962890625
1726226029080646100,4.698646240234375,0.4928741455078125,-0.2350921630859375,-0.834228515625
1726226029090641200,4.70864111328125,0.572113037109375,-0.1915283203125,-1.0593109130859375
1726226029100636200,4.71863623046875,0.6934356689453125,-0.2462005615234375,-0.919036865234375
1726226029110631200,4.728631103515625,0.7060546875,-0.218597412109375,-0.831085205078125
1726226029120626200,4.738626220703125,0.6959075927734375,-0.213653564453125,-0.713348388671875
1726226029130621200,4.74862109375,0.7313995361328125,-0.2588653564453125,-0.5841064453125
1726226029140615200,4.758615234375,0.7274322509765625,-0.4182586669921875,-0.6058349609375
1726226029150610200,4.768610107421875,0.754150390625,-0.6312713623046875,-0.693817138671875
1726226029160605200,4.778605224609375,0.8658599853515625,-0.7882232666015625,-0.8078460693359375
1726226029170600200,4.78860009765625,0.94195556640625,-0.8226318359375,-0.8379974365234375
1726226029180595200,4.79859521484375,0.641387939453125,-0.6202850341796875,-0.6214599609375
1726226029190590200,4.808590087890625,0.8983917236328125,-0.4046630859375,-0.57958984375
1726226029200585200,4.818585205078125,1.0825653076171875,-0.4445037841796875,-0.972320556640625
1726226029210579200,4.8285791015625,1.1440582275390625,-0.4290618896484375,-1.1636810302734375
1726226029220574200,4.83857421875,0.948455810546875,-0.33563232421875,-1.4237060546875
1726226029230569200,4.8485693359375,0.5609130859375,-0.308349609375,-1.6959991455078125
1726226029240564200,4.858564208984375,0.39361572265625,-0.1566925048828125,-1.5452728271484375
1726226029250559000,4.86855908203125,0.2758941650390625,0.02978515625,-1.1831817626953125
1726226029260554000,4.878553955078125,0.276763916015625,0.16253662109375,-0.98895263671875
1726226029270549000,4.888549072265625,0.347442626953125,0.2546539306640625,-0.8470306396484375
1726226029280543000,4.89854296875,0.48602294921875,0.232330322265625,-0.8307952880859375
1726226029290538000,4.9085380859375,0.521240234375,0.137908935546875,-0.9685516357421875
1726226029300533000,4.918532958984375,0.4886016845703125,0.16888427734375,-0.99981689453125
1726226029310528000,4.928528076171875,0.5131988525390625,0.2803955078125,-0.8100738525390625
1726226029320523000,4.93852294921875,0.5239105224609375,0.394805908203125,-0.5743408203125
1726226029330518300,4.948518310546875,0.4018707275390625,0.436126708984375,-0.5238037109375
1726226029340513300,4.95851318359375,0.350311279296875,0.3955535888671875,-0.5568389892578125
1726226029350507300,4.96850732421875,0.418792724609375,0.33258056640625,-0.5401763916015625
1726226029360502300,4.978502197265625,0.50689697265625,0.34527587890625,-0.45849609375
1726226029370497300,4.988497314453125,0.60699462890625,0.3585205078125,-0.3586273193359375
1726226029380492300,4.9984921875,0.667572021484375,0.2599945068359375,-0.2425537109375
1726226029390487300,5.0084873046875,0.717620849609375,0.1934661865234375,-0.2232513427734375
1726226029400482300,5.018482421875,0.65972900390625,0.12371826171875,-0.1052703857421875
1726226029410477000,5.02847705078125,0.6253662109375,-0.044036865234375,0.01641845703125
1726226029420471300,5.03847119140625,0.6919403076171875,-0.2444000244140625,-0.0885162353515625
1726226029430465000,5.048465087890625,0.9665679931640625,-0.3463897705078125,-0.140228271484375
1726226029440460000,5.0584599609375,1.0800628662109375,-0.4650115966796875,-0.2302398681640625
1726226029450455000,5.068455078125,0.8750457763671875,-0.59375,-0.468536376953125
1726226029460450000,5.078449951171875,0.8149871826171875,-0.626922607421875,-0.7483062744140625
1726226029470444800,5.08844482421875,0.8781585693359375,-0.5006866455078125,-0.8667144775390625
1726226029480439800,5.098439697265625,0.732879638671875,-0.3492584228515625,-0.6551666259765625
1726226029490434000,5.10843408203125,0.6913299560546875,-0.22998046875,-0.5623321533203125
1726226029500428800,5.1184287109375,0.647186279296875,0.059356689453125,-0.531951904296875
1726226029510423800,5.128423828125,0.1559295654296875,0.382568359375,-0.5047454833984375
1726226029520418800,5.138418701171875,0.3244171142578125,0.6118011474609375,-0.7363128662109375
1726226029530413800,5.148413818359375,0.5154571533203125,0.840484619140625,-1.0247344970703125
1726226029540408800,5.158408935546875,0.108184814453125,1.0374603271484375,-1.4231414794921875
1726226029550403800,5.16840380859375,-0.26953125,0.9816436767578125,-1.6724395751953125
1726226029560397800,5.178397705078125,-0.443572998046875,0.8589630126953125,-1.522918701171875
1726226029570392800,5.188392822265625,-0.548492431640625,0.670135498046875,-1.54486083984375
1726226029580387800,5.198387939453125,-0.5407867431640625,0.6375274658203125,-1.4622650146484375
1726226029590382800,5.2083828125,-0.158721923828125,0.7988433837890625,-1.30096435546875
1726226029600377900,5.2183779296875,0.1690521240234375,0.750518798828125,-1.1030426025390625
1726226029610372900,5.228372802734375,0.3307037353515625,0.58807373046875,-0.9725799560546875
1726226029620366800,5.238366943359375,0.473907470703125,0.4432220458984375,-0.8900604248046875
1726226029630361900,5.24836181640625,0.72369384765625,0.328521728515625,-0.8464508056640625
1726226029640356900,5.25835693359375,0.8441009521484375,0.3021240234375,-0.7843475341796875
1726226029650352000,5.26835205078125,0.818511962890625,0.3419952392578125,-0.623291015625
1726226029660347000,5.278346923828125,0.723175048828125,0.4370574951171875,-0.508941650390625
1726226029670342000,5.288341796875,0.6841583251953125,0.5591278076171875,-0.48199462890625
1726226029680337000,5.2983369140625,0.610748291015625,0.6234893798828125,-0.4095611572265625
1726226029690331000,5.308330810546875,0.4826507568359375,0.583099365234375,-0.433746337890625
1726226029700326000,5.318325927734375,0.49945068359375,0.4811553955078125,-0.5968170166015625
1726226029710321000,5.32832080078125,0.642364501953125,0.500152587890625,-0.4636993408203125
1726226029720316000,5.33831591796875,0.6113128662109375,0.5564727783203125,-0.252777099609375
1726226029730311000,5.348310791015625,0.588165283203125,0.7160797119140625,-0.208892822265625
1726226029740306000,5.358305908203125,0.56854248046875,0.884246826171875,-0.12677001953125
1726226029750301000,5.368301025390625,0.5808563232421875,0.912109375,-0.105316162109375
1726226029760295000,5.378294921875,0.4896697998046875,0.8994140625,-0.2552490234375
1726226029770290000,5.3882900390625,0.58734130859375,0.791290283203125,-0.2925262451171875
1726226029780285000,5.398284912109375,0.568817138671875,0.618377685546875,-0.1401519775390625
1726226029790280000,5.408280029296875,0.5117645263671875,0.5249786376953125,-0.017059326171875
1726226029800275000,5.41827490234375,0.4691314697265625,0.5046844482421875,-0.0495452880859375
1726226029810270000,5.42827001953125,0.5725860595703125,0.5302886962890625,-0.0854034423828125
1726226029820264000,5.438263916015625,0.532928466796875,0.543853759765625,-0.1416778564453125
1726226029830259000,5.448259033203125,0.108428955078125,0.5452423095703125,-0.152618408203125
1726226029840254000,5.45825390625,0.145355224609375,0.5003509521484375,-0.1290283203125
1726226029850248700,5.468248779296875,0.208404541015625,0.4959259033203125,-0.1231231689453125
1726226029860243700,5.47824365234375,0.2802581787109375,0.5660552978515625,-0.07012939453125
1726226029870238700,5.48823876953125,0.388458251953125,1.04656982421875,-0.0976409912109375
1726226029880234000,5.49823388671875,0.623779296875,2.148406982421875,-0.156158447265625
1726226029890227700,5.508227783203125,-0.4674224853515625,2.6774139404296875,-0.3235015869140625
1726226029900222700,5.51822265625,-0.2425994873046875,2.92486572265625,-0.2983551025390625
1726226029910218000,5.528218017578125,0.3834991455078125,1.9434051513671875,-0.0742340087890625
1726226029920213000,5.538212890625,0.0501861572265625,1.121337890625,-0.459014892578125
1726226029930208000,5.5482080078125,0.01605224609375,0.8045501708984375,-0.6268310546875
1726226029940203000,5.558203125,0.1534423828125,0.72113037109375,-0.489990234375
1726226029950198000,5.568197998046875,0.264373779296875,0.7875518798828125,-0.290557861328125
1726226029960192000,5.57819189453125,0.2218780517578125,0.883270263671875,-0.10845947265625
1726226029970187000,5.58818701171875,0.146759033203125,0.974334716796875,0.002288818359375
1726226029980182000,5.59818212890625,0.0830230712890625,1.03070068359375,0.056732177734375
1726226029990177000,5.608177001953125,0.0229339599609375,0.9599609375,0.0254974365234375
1726226030000171800,5.618171875,0.0600433349609375,0.9342498779296875,0.0853424072265625
1726226030010166800,5.628166748046875,0.2133026123046875,0.615234375,-0.0326080322265625
1726226030020161800,5.638161865234375,0.30059814453125,0.3421173095703125,-0.1701812744140625
1726226030030155800,5.64815576171875,0.2577667236328125,0.610321044921875,-0.0830078125
1726226030040150800,5.65815087890625,0.16729736328125,0.868133544921875,0.02239990234375
1726226030050145800,5.668145751953125,0.09600830078125,1.0436248779296875,0.094390869140625
1726226030060140800,5.678140869140625,0.0037689208984375,1.161346435546875,0.1666107177734375
1726226030070135800,5.6881357421875,-0.0195465087890625,1.168792724609375,0.1846923828125
1726226030080130800,5.698130859375,-0.142547607421875,1.030029296875,0.083343505859375
1726226030090124800,5.708124755859375,-0.063751220703125,0.935882568359375,0.068084716796875
1726226030100119800,5.718119873046875,0.005340576171875,0.939788818359375,0.0731201171875
1726226030110114800,5.72811474609375,0.1056365966796875,0.91595458984375,-0.0555419921875
1726226030120109800,5.73810986328125,0.2445068359375,1.0493621826171875,-0.119537353515625
1726226030130104800,5.748104736328125,0.369781494140625,1.0947418212890625,-0.0331878662109375
1726226030140100000,5.75810009765625,0.5744476318359375,1.1042938232421875,0.0573883056640625
1726226030150095000,5.76809521484375,0.6407623291015625,0.986053466796875,0.13555908203125
1726226030160088800,5.7780888671875,0.5842132568359375,0.8017578125,0.180419921875
1726226030170084000,5.788083984375,0.4777984619140625,0.7071533203125,0.171783447265625
1726226030180079000,5.7980791015625,0.3731536865234375,0.7106170654296875,0.1294097900390625
1726226030190073900,5.808073974609375,0.2745361328125,0.748809814453125,0.028961181640625
1726226030200068900,5.81806884765625,0.202545166015625,0.8220672607421875,-0.09503173828125
1726226030210064000,5.82806396484375,0.16265869140625,0.913299560546875,-0.18328857421875
1726226030220057900,5.838057861328125,0.1086273193359375,0.9293975830078125,-0.301910400390625
1726226030230052900,5.848052978515625,-0.0367584228515625,0.986785888671875,-0.2423095703125
1726226030240047900,5.8580478515625,-0.07763671875,1.075286865234375,-0.1330718994140625
1726226030250043000,5.86804296875,-0.0469970703125,1.16455078125,-0.019439697265625
1726226030260038000,5.878037841796875,0.0374908447265625,1.16351318359375,0.093353271484375
1726226030270033000,5.888032958984375,0.09564208984375,1.0733795166015625,0.1859893798828125
1726226030280028000,5.89802783203125,0.236602783203125,0.99346923828125,0.2558746337890625
1726226030290022000,5.90802197265625,0.515167236328125,0.949310302734375,0.3641815185546875
1726226030300017000,5.918016845703125,0.78460693359375,0.903076171875,0.44879150390625
1726226030310012000,5.928011962890625,0.897796630859375,0.8714447021484375,0.501129150390625
1726226030320007000,5.9380068359375,0.943878173828125,0.8187103271484375,0.473236083984375
1726226030330002000,5.948001953125,0.898895263671875,0.8058929443359375,0.48974609375
1726226030339997000,5.957996826171875,0.746917724609375,0.7724761962890625,0.4057464599609375
1726226030349991700,5.96799169921875,0.5692138671875,0.7476959228515625,0.277435302734375
1726226030359986000,5.97798583984375,0.4232635498046875,0.76947021484375,0.2442779541015625
1726226030369981000,5.98798095703125,0.277008056640625,0.7980499267578125,0.2323455810546875
1726226030379975700,5.9979755859375,0.1617279052734375,0.8208160400390625,0.2860565185546875
1726226030389970700,6.007970703125,0.1007537841796875,0.875335693359375,0.361541748046875
1726226030399966000,6.017966064453125,0.0542755126953125,0.925750732421875,0.3866119384765625
1726226030409961000,6.0279609375,0.0191497802734375,0.9542388916015625,0.408233642578125
1726226030419954700,6.03795458984375,0.0193939208984375,0.9774322509765625,0.4188995361328125
1726226030429950200,6.0479501953125,0.0395660400390625,0.9948272705078125,0.4356231689453125
1726226030439945200,6.0579453125,0.0375823974609375,1.0196380615234375,0.51763916015625
1726226030449940200,6.067940185546875,0.029388427734375,1.0413665771484375,0.584503173828125
1726226030459935200,6.077935302734375,-0.023040771484375,0.997528076171875,0.620513916015625
1726226030469930200,6.08793017578125,-0.0371551513671875,0.938720703125,0.6101226806640625
1726226030479925200,6.09792529296875,-0.0936431884765625,0.8877410888671875,0.5820465087890625
1726226030489919200,6.107919189453125,-0.058868408203125,0.846343994140625,0.586822509765625
1726226030499914200,6.117914306640625,-0.0068359375,0.836212158203125,0.6071624755859375
1726226030509909200,6.1279091796875,0.0332489013671875,0.8586273193359375,0.62835693359375
1726226030519904300,6.137904296875,0.06158447265625,0.887451171875,0.631988525390625
1726226030529899000,6.14789892578125,0.083404541015625,0.9247589111328125,0.6132965087890625
1726226030539894000,6.15789404296875,0.1024322509765625,0.9540557861328125,0.578887939453125
1726226030549888300,6.16788818359375,0.1197357177734375,0.9671783447265625,0.53814697265625
1726226030559883000,6.177883056640625,0.1350555419921875,0.9601593017578125,0.5052642822265625
1726226030569878000,6.1878779296875,0.1607513427734375,0.957366943359375,0.4779815673828125
1726226030579873000,6.197873046875,0.180328369140625,0.9636688232421875,0.466217041015625
1726226030589868000,6.207867919921875,0.18896484375,0.959564208984375,0.4609832763671875
1726226030599863000,6.217863037109375,0.1919097900390625,0.9637451171875,0.4617919921875
1726226030609858000,6.227858154296875,0.178741455078125,0.94989013671875,0.45751953125
1726226030619852000,6.23785205078125,0.1910400390625,0.9410400390625,0.4532623291015625
1726226030629847000,6.247846923828125,0.202117919921875,0.91845703125,0.485382080078125
1726226030639842000,6.257842041015625,0.2201690673828125,0.85992431640625,0.594268798828125
1726226030649837300,6.26783740234375,0.254730224609375,0.7693023681640625,0.698974609375
1726226030659832300,6.277832275390625,0.3344268798828125,0.749908447265625,0.7331085205078125
1726226030669827300,6.287827392578125,0.3981781005859375,0.801910400390625,0.6692657470703125
1726226030679821300,6.2978212890625,0.4782257080078125,0.880767822265625,0.6032562255859375
1726226030689816300,6.30781640625,0.497650146484375,0.935150146484375,0.5457305908203125
1726226030699811300,6.317811279296875,0.4217681884765625,0.9239501953125,0.5027008056640625
1726226030709806000,6.32780615234375,0.32684326171875,0.89654541015625,0.48291015625
1726226030719801000,6.337801025390625,0.256317138671875,0.8559722900390625,0.43121337890625
1726226030729796000,6.347796142578125,0.21405029296875,0.8610382080078125,0.3839263916015625
1726226030739791000,6.357791015625,0.1880645751953125,0.875946044921875,0.3744049072265625
1726226030749785000,6.36778515625,0.1804656982421875,0.9184722900390625,0.3825531005859375
1726226030759780000,6.377780029296875,0.1706085205078125,0.9605865478515625,0.3980255126953125
1726226030769775000,6.387775146484375,0.155059814453125,0.9982452392578125,0.429779052734375
1726226030779770000,6.39777001953125,0.14361572265625,1.0447235107421875,0.4526214599609375
1726226030789765000,6.40776513671875,0.1186981201171875,1.0670013427734375,0.4742431640625
1726226030799760100,6.417760009765625,0.091705322265625,1.06439208984375,0.4807281494140625
1726226030809754000,6.427754150390625,0.06976318359375,1.053558349609375,0.4774322509765625
1726226030819749000,6.4377490234375,0.048614501953125,1.0333099365234375,0.4733123779296875
1726226030829744000,6.447744140625,0.0437774658203125,1.00323486328125,0.468780517578125
1726226030839739100,6.4577392578125,0.0548095703125,0.95391845703125,0.45941162109375
1726226030849734100,6.467734130859375,0.072662353515625,0.9080810546875,0.4458465576171875
1726226030859729200,6.477729248046875,0.0797576904296875,0.86810302734375,0.4320068359375
1726226030869724200,6.48772412109375,0.0769805908203125,0.8359832763671875,0.4246673583984375
1726226030879718100,6.49771826171875,0.0746917724609375,0.819580078125,0.4205474853515625
1726226030889713200,6.507713134765625,0.0804595947265625,0.85321044921875,0.433807373046875
1726226030899708200,6.517708251953125,0.099456787109375,0.9354248046875,0.4590606689453125
1726226030909703200,6.527703125,0.1161956787109375,1.017120361328125,0.4826507568359375
1726226030919698200,6.5376982421875,0.1255645751953125,1.045166015625,0.491302490234375
1726226030929693200,6.547693115234375,0.119384765625,1.016387939453125,0.4958038330078125
1726226030939688200,6.557688232421875,0.1155242919921875,0.96429443359375,0.46710205078125
1726226030949682200,6.56768212890625,0.1161346435546875,0.9143829345703125,0.435211181640625
1726226030959677200,6.57767724609375,0.122802734375,0.8699951171875,0.4108123779296875
1726226030969672200,6.587672119140625,0.1337890625,0.8277130126953125,0.4006805419921875
1726226030979667200,6.597667236328125,0.1345062255859375,0.7776031494140625,0.38037109375
1726226030989662200,6.607662109375,0.1433258056640625,0.7471771240234375,0.3471527099609375
1726226030999657200,6.6176572265625,0.1603546142578125,0.755157470703125,0.3507232666015625
1726226031009651200,6.627651123046875,0.1790618896484375,0.7906036376953125,0.374786376953125
1726226031019646200,6.637646240234375,0.1864166259765625,0.825836181640625,0.3999176025390625
1726226031029641200,6.64764111328125,0.1780242919921875,0.860198974609375,0.420257568359375
1726226031039636200,6.65763623046875,0.16168212890625,0.8888397216796875,0.43743896484375
1726226031049631200,6.66763134765625,0.149993896484375,0.9178924560546875,0.4654388427734375
1726226031059626000,6.6776259765625,0.141357421875,0.94122314453125,0.4884185791015625
1726226031069620200,6.6876201171875,0.1358642578125,0.931915283203125,0.4803314208984375
1726226031079615200,6.697615234375,0.1268463134765625,0.89849853515625,0.456451416015625
1726226031089610000,6.70760986328125,0.1252899169921875,0.87481689453125,0.4403228759765625
1726226031099605000,6.71760498046875,0.1311492919921875,0.87066650390625,0.438568115234375
1726226031109600000,6.72760009765625,0.1400909423828125,0.8801116943359375,0.4516448974609375
1726226031119595000,6.737594970703125,0.1415557861328125,0.8639984130859375,0.4512939453125
1726226031129590000,6.747590087890625,0.129150390625,0.823272705078125,0.4364776611328125
1726226031139584000,6.757583984375,0.1156158447265625,0.7939453125,0.4276580810546875
1726226031149579000,6.7675791015625,0.1107635498046875,0.799346923828125,0.443634033203125
1726226031159574000,6.777573974609375,0.116607666015625,0.8099365234375,0.4541168212890625
1726226031169569300,6.7875693359375,0.1239166259765625,0.83502197265625,0.4744110107421875
1726226031179564300,6.797564208984375,0.1325225830078125,0.8741302490234375,0.5003662109375
1726226031189559300,6.807559326171875,0.134033203125,0.90008544921875,0.504302978515625
1726226031199553300,6.81755322265625,0.1378936767578125,0.907745361328125,0.488861083984375
1726226031209548300,6.82754833984375,0.1491546630859375,0.8926239013671875,0.4595947265625
1726226031219543300,6.837543212890625,0.17047119140625,0.8799896240234375,0.4324493408203125
1726226031229538300,6.847538330078125,0.194671630859375,0.875030517578125,0.4073638916015625
1726226031239533300,6.857533203125,0.2148895263671875,0.8721466064453125,0.3865203857421875
1726226031249528000,6.867528076171875,0.22601318359375,0.8638458251953125,0.367340087890625
1726226031259523000,6.877523193359375,0.229827880859375,0.8562774658203125,0.357635498046875
1726226031269517000,6.88751708984375,0.2275390625,0.8596038818359375,0.3507537841796875
1726226031279512000,6.897511962890625,0.2215576171875,0.88165283203125,0.35260009765625
1726226031289507000,6.907507080078125,0.2161865234375,0.9156036376953125,0.36767578125
1726226031299502000,6.917502197265625,0.2044219970703125,0.9303436279296875,0.380035400390625
1726226031309497000,6.9274970703125,0.17822265625,0.9178466796875,0.3884735107421875
1726226031319492000,6.9374921875,0.1396331787109375,0.8787384033203125,0.3892822265625
1726226031329486000,6.947486083984375,0.110565185546875,0.845794677734375,0.3936309814453125
1726226031339481000,6.957481201171875,0.0913543701171875,0.8278350830078125,0.4020538330078125
1726226031349476000,6.96747607421875,0.08880615234375,0.8290557861328125,0.41876220703125
1726226031359471000,6.97747119140625,0.08416748046875,0.8356475830078125,0.4317779541015625
1726226031369466000,6.987466064453125,0.082763671875,0.8364105224609375,0.435638427734375
1726226031379461000,6.997461181640625,0.0864105224609375,0.8278045654296875,0.4293212890625
1726226031389455000,7.007455078125,0.098968505859375,0.8106231689453125,0.4141693115234375
1726226031399450000,7.0174501953125,0.1148223876953125,0.7784271240234375,0.38482666015625
1726226031409445000,7.027445068359375,0.1329803466796875,0.7534027099609375,0.359222412109375
1726226031419440000,7.037440185546875,0.159759521484375,0.7688446044921875,0.3484039306640625
1726226031429435100,7.04743505859375,0.185302734375,0.828277587890625,0.363311767578125
1726226031439430100,7.05743017578125,0.20086669921875,0.887359619140625,0.385894775390625
1726226031449425200,7.067425048828125,0.2042236328125,0.92950439453125,0.3961639404296875
1726226031459419100,7.077419189453125,0.1967010498046875,0.9592437744140625,0.3951263427734375
1726226031469414100,7.0874140625,0.191375732421875,0.9598846435546875,0.376617431640625
1726226031479409200,7.0974091796875,0.1899566650390625,0.94097900390625,0.34881591796875
1726226031489404200,7.107404052734375,0.191864013671875,0.9332275390625,0.33477783203125
1726226031499399200,7.117399169921875,0.1970977783203125,0.946807861328125,0.337890625
1726226031509394200,7.127394287109375,0.2016143798828125,0.9789276123046875,0.351898193359375
1726226031519388200,7.13738818359375,0.2041778564453125,1.0233612060546875,0.368194580078125
1726226031529383200,7.147383056640625,0.195648193359375,1.05035400390625,0.3774566650390625
1726226031539378200,7.157378173828125,0.1794281005859375,1.063934326171875,0.3848876953125
1726226031549373200,7.167373291015625,0.1661224365234375,1.0589447021484375,0.381317138671875
1726226031559368200,7.1773681640625,0.1554412841796875,1.0441436767578125,0.36358642578125
1726226031569363200,7.18736328125,0.1307830810546875,1.000335693359375,0.3397979736328125
1726226031579357200,7.197357177734375,0.1188507080078125,0.9446868896484375,0.3250885009765625
1726226031589352200,7.207352294921875,0.1221923828125,0.9118194580078125,0.326019287109375
1726226031599347200,7.21734716796875,0.129150390625,0.92474365234375,0.3511810302734375
1726226031609342200,7.22734228515625,0.1377716064453125,0.978912353515625,0.3932037353515625
1726226031619337000,7.2373369140625,0.14056396484375,1.0335845947265625,0.44000244140625
1726226031629332000,7.24733203125,0.132843017578125,1.066192626953125,0.473358154296875
1726226031639326200,7.257326171875,0.1102294921875,1.0400238037109375,0.485107421875
1726226031649321000,7.267321044921875,0.07659912109375,0.9656982421875,0.470977783203125
1726226031659316000,7.27731591796875,0.0460357666015625,0.8810577392578125,0.447418212890625
1726226031669311000,7.28731103515625,0.033233642578125,0.816986083984375,0.4403076171875
1726226031679306000,7.297305908203125,0.0387115478515625,0.781890869140625,0.446380615234375
1726226031689301200,7.30730126953125,0.051544189453125,0.7698516845703125,0.458160400390625
1726226031699296300,7.317296142578125,0.0707855224609375,0.7697296142578125,0.47332763671875
1726226031709290000,7.3272900390625,0.089447021484375,0.780181884765625,0.4951019287109375
1726226031719285200,7.33728515625,0.0965576171875,0.7902069091796875,0.519378662109375
1726226031729280300,7.3472802734375,0.1029052734375,0.8090972900390625,0.539031982421875
1726226031739275300,7.357275146484375,0.1099700927734375,0.845184326171875,0.5753936767578125
1726226031749270300,7.367270263671875,0.122802734375,0.8726959228515625,0.5769500732421875
1726226031759265300,7.377265380859375,0.142730712890625,0.897491455078125,0.5777587890625
1726226031769259300,7.38725927734375,0.1549072265625,0.9124298095703125,0.5716400146484375
1726226031779254300,7.397254150390625,0.16790771484375,0.9085845947265625,0.5483551025390625
1726226031789249300,7.407249267578125,0.164093017578125,0.8683929443359375,0.5407257080078125
1726226031799244300,7.417244384765625,0.1544952392578125,0.815460205078125,0.5115509033203125
1726226031809239000,7.427239013671875,0.148895263671875,0.7862396240234375,0.4680023193359375
1726226031819234000,7.437234130859375,0.153411865234375,0.7937469482421875,0.4429168701171875
1726226031829228300,7.447228271484375,0.172271728515625,0.8245391845703125,0.43719482421875
1726226031839223000,7.45722314453125,0.1903533935546875,0.85748291015625,0.4314727783203125
1726226031849218000,7.467218017578125,0.1972198486328125,0.8901519775390625,0.431549072265625
1726226031859213000,7.477213134765625,0.1818084716796875,0.8897552490234375,0.4167633056640625
1726226031869208000,7.4872080078125,0.1552886962890625,0.8591461181640625,0.392791748046875
1726226031879203000,7.497203125,0.136993408203125,0.8368377685546875,0.377197265625
1726226031889197000,7.507197021484375,0.1384124755859375,0.83868408203125,0.3683624267578125
1726226031899192000,7.517192138671875,0.154632568359375,0.8689422607421875,0.3632965087890625
1726226031909187000,7.52718701171875,0.1703643798828125,0.91796875,0.355926513671875
1726226031919182000,7.53718212890625,0.181884765625,0.94696044921875,0.338592529296875
1726226031929177000,7.547177001953125,0.18170166015625,0.9607696533203125,0.3149871826171875
1726226031939172000,7.557172119140625,0.1718292236328125,0.956146240234375,0.2950592041015625
1726226031949167400,7.56716748046875,0.1566925048828125,0.943206787109375,0.289031982421875
1726226031959161000,7.5771611328125,0.148345947265625,0.93780517578125,0.3072509765625
1726226031969156000,7.587156005859375,0.1597442626953125,0.9484100341796875,0.3434600830078125
1726226031979151400,7.5971513671875,0.164306640625,0.9750823974609375,0.3867340087890625
1726226031989146000,7.60714599609375,0.157440185546875,1.000823974609375,0.418212890625
1726226031999141000,7.61714111328125,0.1535797119140625,1.0072174072265625,0.428558349609375
1726226032009136000,7.62713623046875,0.141632080078125,0.960662841796875,0.4265594482421875
1726226032019130000,7.637130126953125,0.1345672607421875,0.9203643798828125,0.43536376953125
1726226032029125000,7.647125,0.1511383056640625,0.8949737548828125,0.448883056640625
1726226032039120100,7.6571201171875,0.1793975830078125,0.874664306640625,0.4623565673828125
1726226032049115100,7.667115234375,0.193389892578125,0.869903564453125,0.4747467041015625
1726226032059110100,7.677110107421875,0.211334228515625,0.8763275146484375,0.4800567626953125
1726226032069105200,7.687105224609375,0.233154296875,0.878448486328125,0.475555419921875
1726226032079099100,7.69709912109375,0.2530059814453125,0.8619232177734375,0.4495086669921875
1726226032089094100,7.70709423828125,0.25341796875,0.8240203857421875,0.4260406494140625
1726226032099089200,7.717089111328125,0.2425689697265625,0.777557373046875,0.396514892578125
1726226032109084200,7.727084228515625,0.2300262451171875,0.7355499267578125,0.37115478515625
1726226032119079200,7.7370791015625,0.2138214111328125,0.7152099609375,0.36590576171875
1726226032129074200,7.74707421875,0.2028350830078125,0.7397918701171875,0.37542724609375
1726226032139068200,7.757068115234375,0.194793701171875,0.7694854736328125,0.4072265625
1726226032149063200,7.767063232421875,0.167510986328125,0.7495880126953125,0.4356231689453125
1726226032159058200,7.77705810546875,0.1292266845703125,0.7043914794921875,0.445709228515625
1726226032169053200,7.78705322265625,0.0955047607421875,0.6601409912109375,0.461090087890625
1726226032179048000,7.7970478515625,0.0633544921875,0.637054443359375,0.4944305419921875
1726226032189043000,7.80704296875,0.04638671875,0.6483917236328125,0.523193359375
1726226032199038000,7.817037841796875,0.0736236572265625,0.699310302734375,0.540557861328125
1726226032209032000,7.827031982421875,0.098968505859375,0.7630615234375,0.5816497802734375
1726226032219027000,7.83702685546875,0.1170196533203125,0.80303955078125,0.611053466796875
1726226032229022000,7.84702197265625,0.127655029296875,0.8121795654296875,0.610137939453125
1726226032239017200,7.857017333984375,0.1434478759765625,0.810150146484375,0.5870819091796875
1726226032249012200,7.86701220703125,0.17535400390625,0.816802978515625,0.550018310546875
1726226032259007200,7.87700732421875,0.2390899658203125,0.858367919921875,0.5100860595703125
1726226032269001200,7.887001220703125,0.3339385986328125,0.93463134765625,0.4688873291015625
1726226032278996200,7.896996337890625,0.403961181640625,1.016876220703125,0.439453125
1726226032288991200,7.9069912109375,0.427947998046875,1.1056671142578125,0.422760009765625
1726226032298986200,7.916986328125,0.392608642578125,1.1429901123046875,0.4184722900390625
1726226032308981200,7.926981201171875,0.3184356689453125,1.1213531494140625,0.413909912109375
1726226032318976300,7.936976318359375,0.274505615234375,1.06719970703125,0.3612213134765625
1726226032328970200,7.94697021484375,0.2794189453125,1.0202178955078125,0.3128814697265625
1726226032338965200,7.95696533203125,0.309173583984375,1.0150909423828125,0.310333251953125
1726226032348960300,7.966960205078125,0.3498687744140625,1.0401153564453125,0.3280181884765625
1726226032358955300,7.976955322265625,0.36370849609375,1.055572509765625,0.3406982421875
1726226032368950000,7.986949951171875,0.348358154296875,1.039642333984375,0.3593597412109375
1726226032378945000,7.996945068359375,0.33843994140625,0.9957122802734375,0.3729095458984375
1726226032388939300,8.006939208984376,0.3360443115234375,0.94512939453125,0.38140869140625
1726226032398934000,8.01693408203125,0.3382568359375,0.8969573974609375,0.4034423828125
1726226032408929000,8.026928955078125,0.3408966064453125,0.848968505859375,0.4249725341796875
1726226032418924000,8.036924072265625,0.3441619873046875,0.8150177001953125,0.440032958984375
1726226032428918800,8.046918701171874,0.355987548828125,0.8302001953125,0.465545654296875
1726226032438913800,8.056913818359375,0.36273193359375,0.8837738037109375,0.494415283203125
1726226032448907800,8.06690771484375,0.3462066650390625,0.91253662109375,0.5063629150390625
1726226032458902800,8.07690283203125,0.3145751953125,0.8858489990234375,0.4873809814453125
1726226032468897800,8.086897705078124,0.2820892333984375,0.83270263671875,0.4630279541015625
1726226032478892800,8.096892822265625,0.2700958251953125,0.77880859375,0.4387969970703125
1726226032488887800,8.1068876953125,0.2790374755859375,0.741058349609375,0.417938232421875
1726226032498882800,8.1168828125,0.3045806884765625,0.733673095703125,0.398529052734375
1726226032508876800,8.126876708984375,0.3284149169921875,0.7740631103515625,0.400146484375
1726226032518871800,8.136871826171875,0.3297119140625,0.829681396484375,0.4171295166015625
1726226032528866800,8.14686669921875,0.3046112060546875,0.8424224853515625,0.40478515625
1726226032538861800,8.15686181640625,0.2638397216796875,0.8248443603515625,0.3823394775390625
1726226032548856800,8.16685693359375,0.2351226806640625,0.8046875,0.3678436279296875
1726226032558851800,8.176851806640625,0.233245849609375,0.7948150634765625,0.3708953857421875
1726226032568845800,8.186845703125,0.2388153076171875,0.7974395751953125,0.384002685546875
1726226032578840800,8.1968408203125,0.240203857421875,0.80584716796875,0.4072113037109375
1726226032588835800,8.2068359375,0.237274169921875,0.8245697021484375,0.435211181640625
1726226032598830600,8.21683056640625,0.22528076171875,0.8412933349609375,0.4540252685546875
1726226032608825900,8.226825927734374,0.2000885009765625,0.8249664306640625,0.450927734375
1726226032618820900,8.23682080078125,0.170074462890625,0.77801513671875,0.4464874267578125
1726226032628816000,8.24681591796875,0.16119384765625,0.753662109375,0.46466064453125
1726226032638809900,8.256809814453124,0.165435791015625,0.7508697509765625,0.50384521484375
1726226032648804900,8.266804931640625,0.1722259521484375,0.7577056884765625,0.52691650390625
1726226032658799900,8.2767998046875,0.17193603515625,0.757354736328125,0.5353240966796875
1726226032668795000,8.286794921875,0.1764068603515625,0.7595062255859375,0.5396575927734375
1726226032678790000,8.296789794921875,0.1805877685546875,0.750396728515625,0.551239013671875
1726226032688785000,8.306784912109375,0.180267333984375,0.731536865234375,0.55413818359375
1726226032698779000,8.31677880859375,0.1864776611328125,0.707122802734375,0.546356201171875
1726226032708774000,8.32677392578125,0.212249755859375,0.7052764892578125,0.553741455078125
1726226032718769000,8.336768798828125,0.249420166015625,0.719940185546875,0.5597686767578125
1726226032728764000,8.346763916015625,0.2927398681640625,0.7537384033203125,0.5441131591796875
1726226032738759000,8.356759033203126,0.32891845703125,0.794586181640625,0.5534210205078125
1726226032748753700,8.366753662109375,0.3449554443359375,0.8350830078125,0.5655059814453125
1726226032758748000,8.376747802734375,0.3473968505859375,0.8569793701171875,0.56365966796875
1726226032768743000,8.386742919921875,0.367431640625,0.880950927734375,0.5364990234375
1726226032778737700,8.396737548828124,0.404327392578125,0.921173095703125,0.510223388671875
1726226032788732700,8.406732666015625,0.430084228515625,0.9590606689453125,0.5073089599609375
1726226032798727700,8.416727783203125,0.4523162841796875,0.9826202392578125,0.4999542236328125
1726226032808722700,8.42672265625,0.4629364013671875,0.98504638671875,0.4827117919921875
1726226032818716700,8.436716552734374,0.4525604248046875,0.9699554443359375,0.4722442626953125
1726226032828711700,8.446711669921875,0.4208526611328125,0.9344024658203125,0.4821014404296875
1726226032838706700,8.456706787109376,0.3943634033203125,0.88043212890625,0.4889984130859375
1726226032848701700,8.46670166015625,0.388092041015625,0.8289337158203125,0.514862060546875
1726226032858696700,8.47669677734375,0.3822021484375,0.80023193359375,0.556396484375
1726226032868692000,8.48669189453125,0.3693695068359375,0.78936767578125,0.5809783935546875
1726226032878685700,8.496685791015626,0.353759765625,0.768310546875,0.5905609130859375
1726226032888680700,8.5066806640625,0.3535614013671875,0.7633056640625,0.6014404296875
1726226032898676000,8.516676025390625,0.35284423828125,0.76483154296875,0.618194580078125
1726226032908671000,8.5266708984375,0.3462371826171875,0.7510223388671875,0.619110107421875
1726226032918666000,8.536666015625,0.32855224609375,0.7213134765625,0.60711669921875
1726226032928661000,8.546660888671875,0.3182373046875,0.700927734375,0.6063079833984375
1726226032938655000,8.556655029296875,0.3304901123046875,0.6900482177734375,0.604705810546875
1726226032948650000,8.56664990234375,0.328033447265625,0.6771697998046875,0.5883331298828125
1726226032958645000,8.57664501953125,0.32647705078125,0.6514892578125,0.5514373779296875
1726226032968639700,8.5866396484375,0.32586669921875,0.6443023681640625,0.5228118896484375
1726226032978634800,8.596634765625,0.3415679931640625,0.6648101806640625,0.5135345458984375
1726226032988629800,8.606629638671874,0.3531494140625,0.708282470703125,0.52349853515625
1726226032998623700,8.616623779296875,0.342315673828125,0.728179931640625,0.508758544921875
1726226033008618800,8.62661865234375,0.321502685546875,0.7448883056640625,0.4856414794921875
1726226033018613800,8.63661376953125,0.3136749267578125,0.77093505859375,0.4763946533203125
1726226033028608800,8.64660888671875,0.3302459716796875,0.8166961669921875,0.4816741943359375
1726226033038603800,8.656603759765625,0.344573974609375,0.84478759765625,0.481170654296875
1726226033048598800,8.666598876953126,0.3458251953125,0.82666015625,0.4960784912109375
1726226033058592800,8.6765927734375,0.34869384765625,0.796783447265625,0.5093231201171875
1726226033068587800,8.686587890625,0.3615875244140625,0.778778076171875,0.5240631103515625
1726226033078582800,8.696582763671875,0.387420654296875,0.770233154296875,0.54876708984375
1726226033088577800,8.706577880859374,0.4121246337890625,0.76483154296875,0.566497802734375
1726226033098572800,8.71657275390625,0.425750732421875,0.766693115234375,0.5791473388671875
1726226033108567800,8.72656787109375,0.4164886474609375,0.7397003173828125,0.5686492919921875
1726226033118561800,8.736561767578126,0.3993682861328125,0.716583251953125,0.5541534423828125
1726226033128556800,8.746556884765624,0.38360595703125,0.706207275390625,0.52764892578125
1726226033138551800,8.7565517578125,0.3812408447265625,0.704132080078125,0.5102691650390625
1726226033148546800,8.766546875,0.401611328125,0.72393798828125,0.497161865234375
1726226033158541800,8.776541748046874,0.419830322265625,0.75701904296875,0.46148681640625
1726226033168536800,8.786536865234375,0.4383697509765625,0.7865753173828125,0.4283294677734375
1726226033178530800,8.79653076171875,0.43585205078125,0.80224609375,0.4171142578125
1726226033188525800,8.80652587890625,0.420745849609375,0.81121826171875,0.4184722900390625
1726226033198520800,8.816520751953124,0.404693603515625,0.8051910400390625,0.4200897216796875
1726226033208515800,8.826515869140625,0.3964385986328125,0.814178466796875,0.4327239990234375
1726226033218510800,8.8365107421875,0.40191650390625,0.8243255615234375,0.4490509033203125
1726226033228505900,8.846505859375,0.3931427001953125,0.824981689453125,0.46234130859375
1726226033238499800,8.856499755859375,0.3829498291015625,0.811553955078125,0.475250244140625
1726226033248494800,8.866494873046875,0.3708343505859375,0.7966461181640625,0.4858551025390625
1726226033258489900,8.87648974609375,0.35662841796875,0.7805328369140625,0.49725341796875
1726226033268484900,8.88648486328125,0.3360595703125,0.7487945556640625,0.50091552734375
1726226033278480000,8.89647998046875,0.314788818359375,0.72528076171875,0.48968505859375
1726226033288475000,8.906474853515626,0.3112640380859375,0.726287841796875,0.489715576171875
1726226033298470000,8.916469970703124,0.329498291015625,0.75091552734375,0.5006561279296875
1726226033308463900,8.9264638671875,0.3455657958984375,0.7838897705078125,0.5265045166015625
1726226033318459000,8.936458984375,0.352874755859375,0.80377197265625,0.5392913818359375
1726226033328454000,8.946453857421876,0.346099853515625,0.8072357177734375,0.5485076904296875
1726226033338448600,8.95644873046875,0.32470703125,0.7974700927734375,0.5587310791015625
1726226033348443600,8.966443603515625,0.3283538818359375,0.782257080078125,0.5601806640625
1726226033358438700,8.976438720703126,0.3554229736328125,0.7733306884765625,0.569976806640625
1726226033368432600,8.9864326171875,0.396087646484375,0.7696380615234375,0.5654296875
1726226033378427600,8.996427734375,0.423828125,0.751708984375,0.546539306640625
1726226033388422700,9.006422607421875,0.4188232421875,0.7191162109375,0.525848388671875
1726226033398417700,9.016417724609376,0.401611328125,0.6888580322265625,0.5103607177734375
1726226033408412700,9.02641259765625,0.37677001953125,0.67742919921875,0.5055084228515625
1726226033418408000,9.036407958984375,0.3592376708984375,0.697845458984375,0.5137176513671875
1726226033428402000,9.04640185546875,0.34619140625,0.717803955078125,0.506805419921875
1726226033438397000,9.05639697265625,0.350341796875,0.7523651123046875,0.5005340576171875
1726226033448392000,9.066391845703125,0.370452880859375,0.778717041015625,0.4926300048828125
1726226033458387000,9.076386962890625,0.3699188232421875,0.7802276611328125,0.499237060546875
1726226033468382200,9.08638232421875,0.353271484375,0.747711181640625,0.5056304931640625
1726226033478377200,9.096377197265625,0.32696533203125,0.7307586669921875,0.52142333984375
1726226033488371200,9.10637109375,0.3035125732421875,0.733612060546875,0.5478668212890625
1726226033498366200,9.1163662109375,0.305908203125,0.763641357421875,0.5800628662109375
1726226033508361200,9.126361328125,0.30712890625,0.7975616455078125,0.6077117919921875
1726226033518356000,9.13635595703125,0.299652099609375,0.803619384765625,0.620819091796875
1726226033528351000,9.14635107421875,0.2790069580078125,0.7890625,0.61383056640625
1726226033538346000,9.156345947265624,0.255401611328125,0.745697021484375,0.5937957763671875
1726226033548340000,9.166340087890624,0.23394775390625,0.6810302734375,0.55999755859375
1726226033558335000,9.1763349609375,0.2254180908203125,0.632415771484375,0.5316009521484375
1726226033568330000,9.186330078125,0.238494873046875,0.620269775390625,0.503570556640625
1726226033578325000,9.196324951171874,0.2626495361328125,0.641143798828125,0.486785888671875
1726226033588320000,9.206320068359375,0.28704833984375,0.692138671875,0.4763641357421875
1726226033598315000,9.21631494140625,0.3007354736328125,0.751922607421875,0.4796142578125
1726226033608309000,9.22630908203125,0.31787109375,0.8068389892578125,0.4562530517578125
1726226033618304000,9.236303955078125,0.3386688232421875,0.8546142578125,0.446380615234375
1726226033628299000,9.246299072265625,0.3665771484375,0.883056640625,0.46148681640625
1726226033638294000,9.2562939453125,0.3801116943359375,0.88623046875,0.470001220703125
1726226033648289000,9.2662890625,0.377532958984375,0.864501953125,0.468780517578125
1726226033658284000,9.276283935546875,0.37579345703125,0.8389434814453125,0.479461669921875
1726226033668278000,9.286278076171875,0.3721160888671875,0.8050994873046875,0.490203857421875
1726226033678273000,9.29627294921875,0.3668975830078125,0.7833709716796875,0.5071563720703125
1726226033688268000,9.30626806640625,0.3539581298828125,0.7828216552734375,0.5156707763671875
1726226033698263000,9.316262939453125,0.3271636962890625,0.78802490234375,0.514068603515625
1726226033708257800,9.3262578125,0.31646728515625,0.791015625,0.51123046875
1726226033718253000,9.336253173828124,0.3147735595703125,0.788360595703125,0.502899169921875
1726226033728247000,9.3462470703125,0.3177490234375,0.7926025390625,0.4958648681640625
1726226033738241800,9.35624169921875,0.3250274658203125,0.7942047119140625,0.486724853515625
1726226033748237000,9.366237060546876,0.331756591796875,0.791900634765625,0.480987548828125
1726226033758232000,9.376232177734375,0.3307037353515625,0.7895050048828125,0.4773712158203125
1726226033768227000,9.38622705078125,0.32305908203125,0.7778472900390625,0.4629974365234375
1726226033778222000,9.39622216796875,0.31280517578125,0.7751922607421875,0.443695068359375
1726226033788216000,9.406216064453124,0.3041534423828125,0.7772979736328125,0.42242431640625
1726226033798211000,9.416211181640625,0.302734375,0.78643798828125,0.39947509765625
1726226033808206000,9.4262060546875,0.299957275390625,0.798980712890625,0.381134033203125
1726226033818201000,9.436201171875,0.3066253662109375,0.8113861083984375,0.3761749267578125
1726226033828196000,9.446196044921875,0.314422607421875,0.8104400634765625,0.372802734375
1726226033838191000,9.456191162109375,0.3145294189453125,0.816314697265625,0.3680419921875
1726226033848185000,9.46618505859375,0.31500244140625,0.83526611328125,0.369171142578125
1726226033858180000,9.47618017578125,0.310089111328125,0.867279052734375,0.3690948486328125
1726226033868175000,9.486175048828125,0.3091278076171875,0.9140167236328125,0.3741302490234375
1726226033878170000,9.496170166015625,0.299835205078125,0.9547576904296875,0.39154052734375
1726226033888165000,9.5061650390625,0.2727813720703125,0.9605712890625,0.407958984375
1726226033898159900,9.516159912109375,0.239990234375,0.9495697021484375,0.418975830078125
1726226033908154000,9.526154052734375,0.226837158203125,0.9500732421875,0.436798095703125
1726226033918149000,9.536149169921876,0.2246551513671875,0.95306396484375,0.4564361572265625
1726226033928144000,9.546143798828124,0.212188720703125,0.933685302734375,0.47430419921875
1726226033938139000,9.556138916015625,0.19476318359375,0.9046173095703125,0.4837188720703125
1726226033948134000,9.5661337890625,0.189666748046875,0.8983612060546875,0.4983062744140625
1726226033958129000,9.57612890625,0.1954803466796875,0.8977508544921875,0.51983642578125
1726226033968123000,9.586122802734375,0.205780029296875,0.9087677001953125,0.5541229248046875
1726226033978118000,9.596117919921875,0.2083892822265625,0.89801025390625,0.5816192626953125
1726226033988113000,9.60611279296875,0.2042999267578125,0.8717803955078125,0.6022186279296875
1726226033998108000,9.61610791015625,0.1903076171875,0.837646484375,0.596099853515625
1726226034008103200,9.626103271484375,0.19317626953125,0.8083648681640625,0.59259033203125
1726226034018098200,9.63609814453125,0.20648193359375,0.8000030517578125,0.6138916015625
1726226034028092000,9.646091796875,0.2180938720703125,0.8032379150390625,0.6511688232421875
1726226034038087200,9.656087158203125,0.223114013671875,0.7885894775390625,0.6506195068359375
1726226034048082200,9.666082275390625,0.2204132080078125,0.76171875,0.6371917724609375
1726226034058077200,9.6760771484375,0.218658447265625,0.729766845703125,0.6278839111328125
1726226034068072200,9.686072265625,0.2238922119140625,0.7083892822265625,0.6309051513671875
1726226034078067000,9.69606689453125,0.2421112060546875,0.7000732421875,0.632354736328125
1726226034088061200,9.706061279296875,0.273712158203125,0.689849853515625,0.6193695068359375
1726226034098056200,9.71605615234375,0.3038177490234375,0.699676513671875,0.605499267578125
1726226034108051000,9.726051025390625,0.3326416015625,0.7245330810546875,0.5989990234375
1726226034118046000,9.7360458984375,0.349334716796875,0.751953125,0.583251953125
1726226034128041000,9.746041015625,0.353759765625,0.77069091796875,0.5770416259765625
1726226034138036000,9.756035888671875,0.3466339111328125,0.7941436767578125,0.5618896484375
1726226034148030000,9.766030029296875,0.3221893310546875,0.8175506591796875,0.5337066650390625
1726226034158025000,9.77602490234375,0.3027801513671875,0.8490142822265625,0.520965576171875
1726226034168020000,9.78602001953125,0.287506103515625,0.876983642578125,0.5277099609375
1726226034178015000,9.796014892578125,0.2574462890625,0.8819732666015625,0.5166168212890625
1726226034188010000,9.806010009765625,0.2261810302734375,0.8742523193359375,0.4968414306640625
1726226034198005000,9.8160048828125,0.207275390625,0.875,0.4823760986328125
1726226034207999000,9.8259990234375,0.1910247802734375,0.880035400390625,0.4684906005859375
1726226034217994000,9.835993896484375,0.177947998046875,0.875030517578125,0.454925537109375
1726226034227989000,9.845989013671876,0.1632537841796875,0.861541748046875,0.4366912841796875
1726226034237984000,9.85598388671875,0.1501617431640625,0.8490142822265625,0.422882080078125
1726226034247979000,9.86597900390625,0.1590728759765625,0.8543853759765625,0.4120025634765625
1726226034257974000,9.87597412109375,0.177398681640625,0.8766632080078125,0.4085235595703125
1726226034267969000,9.885968994140624,0.184326171875,0.881591796875,0.39324951171875
1726226034277963000,9.895962890625,0.172943115234375,0.866302490234375,0.3768157958984375
1726226034287958000,9.9059580078125,0.1565399169921875,0.846099853515625,0.361358642578125
1726226034297953000,9.915953125,0.1558837890625,0.844696044921875,0.3559417724609375
1726226034307948000,9.925947998046874,0.1682281494140625,0.859771728515625,0.3621673583984375
1726226034317943000,9.935943115234375,0.177520751953125,0.8654632568359375,0.3658294677734375
1726226034327937000,9.94593701171875,0.1835784912109375,0.8538055419921875,0.3692169189453125
1726226034337932000,9.95593212890625,0.17822265625,0.8308868408203125,0.36798095703125
1726226034347927000,9.965927001953125,0.184112548828125,0.81072998046875,0.3696441650390625
1726226034357922000,9.975922119140625,0.200164794921875,0.8177947998046875,0.3834228515625
1726226034367917000,9.9859169921875,0.2208709716796875,0.8409881591796875,0.39642333984375
1726226034377912000,9.995912109375,0.23590087890625,0.860198974609375,0.41571044921875
1726226034387906000,10.005906005859375,0.2435455322265625,0.8881378173828125,0.435455322265625
1726226034397901000,10.015901123046875,0.25286865234375,0.9217529296875,0.45263671875
1726226034407896000,10.02589599609375,0.2637176513671875,0.951171875,0.46630859375
1726226034417891000,10.03589111328125,0.264862060546875,0.97930908203125,0.4864501953125
1726226034427885600,10.045885498046875,0.265838623046875,1.0178985595703125,0.508880615234375
1726226034437880600,10.055880615234376,0.2753753662109375,1.06640625,0.53021240234375
1726226034447874600,10.06587451171875,0.2841339111328125,1.106689453125,0.5531463623046875
1726226034457869600,10.07586962890625,0.266082763671875,1.1092529296875,0.56024169921875
1726226034467864600,10.085864501953125,0.2489013671875,1.0972137451171875,0.5540313720703125
1726226034477859600,10.095859619140626,0.254150390625,1.11279296875,0.5629730224609375
1726226034487854600,10.1058544921875,0.268768310546875,1.13873291015625,0.5858612060546875
1726226034497849300,10.115849365234375,0.2794647216796875,1.1364288330078125,0.5975341796875
1726226034507843600,10.125843505859375,0.2617950439453125,1.0950927734375,0.595367431640625
1726226034517838600,10.135838623046874,0.228057861328125,1.0331878662109375,0.5792388916015625
1726226034527833300,10.145833251953125,0.2084503173828125,0.974395751953125,0.567352294921875
1726226034537828400,10.155828369140625,0.199951171875,0.9214630126953125,0.5578155517578125
1726226034547823400,10.1658232421875,0.1927642822265625,0.8643341064453125,0.5480194091796875
1726226034557818400,10.175818359375,0.1865234375,0.8040618896484375,0.533538818359375
1726226034567812400,10.185812255859375,0.1843414306640625,0.746673583984375,0.511871337890625
1726226034577807400,10.195807373046875,0.1924285888671875,0.7060089111328125,0.4890899658203125
1726226034587802400,10.20580224609375,0.1959991455078125,0.6829071044921875,0.4841461181640625
1726226034597797600,10.215797607421875,0.2087860107421875,0.6531982421875,0.476104736328125
1726226034607792600,10.225792724609375,0.2144775390625,0.6216278076171875,0.4631195068359375
1726226034617787600,10.23578759765625,0.2215423583984375,0.6040496826171875,0.4517974853515625
1726226034627781600,10.24578173828125,0.23291015625,0.60650634765625,0.4489898681640625
1726226034637776600,10.255776611328125,0.24560546875,0.625396728515625,0.4516143798828125
1726226034647771600,10.265771728515626,0.2496337890625,0.6653594970703125,0.4711456298828125
1726226034657766700,10.2757666015625,0.2487945556640625,0.69451904296875,0.488525390625
1726226034667761700,10.28576171875,0.2271881103515625,0.7099609375,0.51025390625
1726226034677756700,10.295756591796875,0.1981048583984375,0.71795654296875,0.528076171875
1726226034687750700,10.305750732421876,0.1676788330078125,0.7220611572265625,0.539031982421875
1726226034697745700,10.31574560546875,0.1501007080078125,0.7264404296875,0.552703857421875
1726226034707740700,10.32574072265625,0.134765625,0.7434539794921875,0.56976318359375
1726226034717735400,10.3357353515625,0.1329803466796875,0.7794189453125,0.59149169921875
1726226034727730400,10.34573046875,0.1255645751953125,0.8052520751953125,0.6151580810546875
1726226034737725400,10.355725341796875,0.1173095703125,0.8112030029296875,0.6269683837890625
1726226034747719400,10.365719482421875,0.1065216064453125,0.81298828125,0.6269378662109375
1726226034757714400,10.37571435546875,0.109100341796875,0.8314208984375,0.6138916015625
1726226034767709400,10.38570947265625,0.12896728515625,0.8582000732421875,0.613006591796875
1726226034777704400,10.395704345703125,0.1513519287109375,0.8859405517578125,0.609222412109375
1726226034787699500,10.405699462890626,0.173492431640625,0.925323486328125,0.5926971435546875
1726226034797694500,10.415694580078124,0.1931610107421875,0.95953369140625,0.5755157470703125
1726226034807688400,10.4256884765625,0.2100372314453125,0.9724884033203125,0.5560302734375
1726226034817683500,10.435683349609375,0.206207275390625,0.9515380859375,0.54266357421875
1726226034827678500,10.445678466796876,0.19219970703125,0.9112548828125,0.5267791748046875
1726226034837673500,10.455673583984375,0.1733551025390625,0.8675689697265625,0.4974517822265625
1726226034847668500,10.46566845703125,0.153411865234375,0.824310302734375,0.4604949951171875
1726226034857663700,10.475663818359376,0.1373748779296875,0.7781982421875,0.4334869384765625
1726226034867657500,10.485657470703124,0.141632080078125,0.7535247802734375,0.4130859375
1726226034877652500,10.495652587890625,0.1598358154296875,0.76263427734375,0.4003448486328125
1726226034887647700,10.505647705078125,0.180816650390625,0.782012939453125,0.3908538818359375
1726226034897642500,10.515642578125,0.1930084228515625,0.79656982421875,0.377593994140625
1726226034907637500,10.525637451171875,0.1923065185546875,0.8097381591796875,0.363372802734375
1726226034917632500,10.535632568359375,0.1932830810546875,0.8209228515625,0.3465576171875
1726226034927626500,10.54562646484375,0.1970977783203125,0.8373565673828125,0.340362548828125
1726226034937621500,10.55562158203125,0.203033447265625,0.8689422607421875,0.351531982421875
1726226034947616500,10.565616455078125,0.19183349609375,0.8790283203125,0.324920654296875
1726226034957611500,10.575611572265625,0.192413330078125,0.878753662109375,0.3037567138671875
1726226034967606500,10.5856064453125,0.1882781982421875,0.871307373046875,0.3128814697265625
1726226034977601500,10.5956015625,0.1888275146484375,0.8608551025390625,0.32666015625
1726226034987595500,10.605595458984375,0.18792724609375,0.8477325439453125,0.3360748291015625
1726226034997590500,10.615590576171876,0.1896514892578125,0.84185791015625,0.349578857421875
1726226035007585500,10.62558544921875,0.196563720703125,0.8621368408203125,0.3745574951171875
1726226035017580500,10.63558056640625,0.2061614990234375,0.891693115234375,0.4075927734375
1726226035027575600,10.645575439453125,0.2126312255859375,0.9223175048828125,0.444976806640625
1726226035037570600,10.655570556640624,0.2062225341796875,0.939208984375,0.479095458984375
1726226035047564500,10.665564453125,0.2056732177734375,0.951507568359375,0.511749267578125
1726226035057559600,10.6755595703125,0.207763671875,0.975830078125,0.5565948486328125
1726226035067554600,10.685554443359376,0.2281036376953125,0.983856201171875,0.5690155029296875
1726226035077549600,10.695549560546874,0.241485595703125,0.9553070068359375,0.5675201416015625
1726226035087544300,10.70554443359375,0.2406005859375,0.87921142578125,0.5495452880859375
1726226035097539300,10.715539306640625,0.2462005615234375,0.79833984375,0.5009613037109375
1726226035107533600,10.725533447265626,0.275238037109375,0.74169921875,0.454742431640625
1726226035117528300,10.7355283203125,0.33062744140625,0.737213134765625,0.446563720703125
1726226035127523300,10.7455234375,0.3861846923828125,0.7562713623046875,0.4390411376953125
1726226035137518300,10.755518310546876,0.3976287841796875,0.7750396728515625,0.4332733154296875
1726226035147513600,10.765513671875,0.3868408203125,0.7964019775390625,0.4185333251953125
1726226035157508600,10.775508544921875,0.3637542724609375,0.8067169189453125,0.4059295654296875
1726226035167502300,10.78550244140625,0.337310791015625,0.8177490234375,0.4114227294921875
1726226035177497600,10.79549755859375,0.326171875,0.820648193359375,0.415374755859375
1726226035187492600,10.80549267578125,0.321380615234375,0.8416748046875,0.45068359375
1726226035197487600,10.815487548828125,0.3155670166015625,0.8734588623046875,0.5145416259765625
1726226035207482600,10.825482666015626,0.29351806640625,0.8686065673828125,0.5649871826171875
1726226035217477600,10.8354775390625,0.2643280029296875,0.812835693359375,0.591033935546875
1726226035227471600,10.8454716796875,0.2429656982421875,0.74053955078125,0.6013336181640625
1726226035237466600,10.855466552734375,0.2319793701171875,0.7056732177734375,0.61370849609375
1726226035247461600,10.865461669921874,0.242401123046875,0.7110595703125,0.6275177001953125
1726226035257456600,10.87545654296875,0.268096923828125,0.7448272705078125,0.6436920166015625
1726226035267451600,10.88545166015625,0.2872161865234375,0.7885894775390625,0.691131591796875
1726226035277446400,10.8954462890625,0.2815093994140625,0.78887939453125,0.7115631103515625
1726226035287440600,10.905440673828124,0.266998291015625,0.75909423828125,0.691864013671875
1726226035297435600,10.915435546875,0.2602996826171875,0.733795166015625,0.6692657470703125
1726226035307430400,10.925430419921875,0.2679901123046875,0.7229156494140625,0.6327667236328125
1726226035317425400,10.93542529296875,0.2980804443359375,0.7350616455078125,0.5926361083984375
1726226035327420400,10.94542041015625,0.3300933837890625,0.7715606689453125,0.5883636474609375
1726226035337415400,10.95541552734375,0.3350830078125,0.7913970947265625,0.55950927734375
1726226035347409400,10.965409423828126,0.3317413330078125,0.7873382568359375,0.511962890625
1726226035357404400,10.975404296875,0.3182220458984375,0.7799224853515625,0.47259521484375
1726226035367399400,10.9853994140625,0.3071746826171875,0.79638671875,0.4572296142578125
1726226035377394400,10.99539453125,0.3081512451171875,0.8300018310546875,0.430999755859375
1726226035387389400,11.005389404296874,0.3184051513671875,0.8733062744140625,0.4369964599609375
1726226035397384400,11.015384521484375,0.3202362060546875,0.892181396484375,0.4363555908203125
1726226035407378400,11.02537841796875,0.2926788330078125,0.87481689453125,0.4192047119140625
1726226035417373400,11.03537353515625,0.2611541748046875,0.8533172607421875,0.376953125
1726226035427368400,11.045368408203124,0.2569732666015625,0.8631134033203125,0.35809326171875
1726226035437363500,11.055363525390625,0.26776123046875,0.910491943359375,0.3819122314453125
1726226035447358500,11.0653583984375,0.2912750244140625,0.9680938720703125,0.414459228515625
1726226035457353500,11.075353515625,0.3034210205078125,0.9983978271484375,0.4372406005859375
1726226035467347500,11.085347412109375,0.278045654296875,0.979888916015625,0.452728271484375
1726226035477342500,11.095342529296875,0.239166259765625,0.9346771240234375,0.4649658203125
1726226035487337500,11.10533740234375,0.2160797119140625,0.8930511474609375,0.4768829345703125
1726226035497332200,11.115332275390625,0.216217041015625,0.8758392333984375,0.491302490234375
1726226035507327200,11.1253271484375,0.239837646484375,0.868072509765625,0.515045166015625
1726226035517322200,11.135322265625,0.26171875,0.8536224365234375,0.5465545654296875
1726226035527316200,11.145316162109374,0.2737884521484375,0.8313140869140625,0.5573577880859375
1726226035537311200,11.155311279296875,0.2783203125,0.7999114990234375,0.5437469482421875
1726226035547306200,11.16530615234375,0.280029296875,0.763153076171875,0.5460662841796875
1726226035557301200,11.17530126953125,0.2939453125,0.7338714599609375,0.5180816650390625
1726226035567296500,11.185296630859375,0.3245086669921875,0.725067138671875,0.5070343017578125
1726226035577291500,11.19529150390625,0.362579345703125,0.7242279052734375,0.509033203125
1726226035587285200,11.20528515625,0.392303466796875,0.7359771728515625,0.5163116455078125
1726226035597280500,11.215280517578124,0.4085235595703125,0.762939453125,0.5259246826171875
1726226035607275500,11.225275634765625,0.4139404296875,0.783294677734375,0.528564453125
1726226035617270500,11.2352705078125,0.403778076171875,0.7855377197265625,0.519744873046875
1726226035627265500,11.245265625,0.3928680419921875,0.7890167236328125,0.5096282958984375
1726226035637260500,11.255260498046875,0.394073486328125,0.813720703125,0.506683349609375
1726226035647254500,11.265254638671875,0.4040985107421875,0.8382415771484375,0.494415283203125
1726226035657249500,11.27524951171875,0.4293670654296875,0.859710693359375,0.469696044921875
1726226035667244500,11.28524462890625,0.4549407958984375,0.8629913330078125,0.445556640625
1726226035677239300,11.2952392578125,0.4670562744140625,0.855987548828125,0.4234619140625
1726226035687234300,11.305234375,0.4668426513671875,0.8581390380859375,0.408355712890625
1726226035697229300,11.315229248046874,0.4642181396484375,0.877349853515625,0.409332275390625
1726226035707223300,11.325223388671875,0.450103759765625,0.881072998046875,0.403656005859375
1726226035717218300,11.33521826171875,0.426971435546875,0.8552703857421875,0.397857666015625
1726226035727213300,11.34521337890625,0.3890228271484375,0.796783447265625,0.39764404296875
1726226035737208300,11.355208251953124,0.3602142333984375,0.7638702392578125,0.4004058837890625
1726226035747203300,11.365203369140625,0.3533782958984375,0.7561492919921875,0.4020233154296875
1726226035757198300,11.3751982421875,0.3506622314453125,0.7618560791015625,0.40496826171875
1726226035767192300,11.3851923828125,0.3458099365234375,0.7652587890625,0.40631103515625
1726226035777187300,11.395187255859375,0.32904052734375,0.7613983154296875,0.41070556640625
1726226035787182300,11.405182373046875,0.3057861328125,0.7497711181640625,0.4146728515625
1726226035797177300,11.41517724609375,0.286102294921875,0.742645263671875,0.435546875
1726226035807172400,11.42517236328125,0.2758331298828125,0.7470550537109375,0.456298828125
1726226035817166300,11.435166259765625,0.2771148681640625,0.7625274658203125,0.466552734375
1726226035827161300,11.445161376953125,0.2731475830078125,0.758056640625,0.482330322265625
1726226035837156400,11.45515625,0.262664794921875,0.7447662353515625,0.49896240234375
1726226035847151400,11.4651513671875,0.263214111328125,0.7342071533203125,0.5317535400390625
1726226035857146600,11.475146728515625,0.2772979736328125,0.746246337890625,0.5672454833984375
1726226035867141400,11.485141357421876,0.302825927734375,0.7741851806640625,0.6032867431640625
1726226035877136400,11.495136474609374,0.3325653076171875,0.81561279296875,0.63916015625
1726226035887130600,11.505130615234375,0.3704681396484375,0.8620758056640625,0.6649932861328125
1726226035897125400,11.51512548828125,0.4065704345703125,0.8896026611328125,0.6798095703125
1726226035907120400,11.525120361328124,0.4229736328125,0.8730926513671875,0.6649322509765625
1726226035917115400,11.535115478515625,0.4320220947265625,0.846038818359375,0.63067626953125
1726226035927110400,11.5451103515625,0.441436767578125,0.819244384765625,0.58929443359375
1726226035937105400,11.55510546875,0.4406890869140625,0.7854766845703125,0.5364227294921875
1726226035947099400,11.565099365234374,0.4249420166015625,0.739227294921875,0.481292724609375
1726226035957094400,11.575094482421875,0.4029083251953125,0.6930389404296875,0.4406890869140625
1726226035967089400,11.58508935546875,0.3830413818359375,0.647979736328125,0.3934783935546875
1726226035977084400,11.59508447265625,0.3724212646484375,0.63348388671875,0.3681640625
1726226035987079400,11.605079345703125,0.3607025146484375,0.6267852783203125,0.3545074462890625
1726226035997074400,11.615074462890625,0.3510894775390625,0.638275146484375,0.336639404296875
1726226036007068400,11.625068359375,0.332550048828125,0.64593505859375,0.3088226318359375
1726226036017063400,11.6350634765625,0.3167724609375,0.6666412353515625,0.3119354248046875
1726226036027058400,11.645058349609375,0.311370849609375,0.7024383544921875,0.3213043212890625
1726226036037053400,11.655053466796875,0.30938720703125,0.7280120849609375,0.3348236083984375
1726226036047048400,11.66504833984375,0.3106536865234375,0.760009765625,0.3481903076171875
1726226036057043200,11.675043212890625,0.303253173828125,0.77825927734375,0.3568572998046875
1726226036067037400,11.685037353515625,0.301849365234375,0.7959747314453125,0.38299560546875
1726226036077032400,11.695032470703126,0.3083343505859375,0.8185272216796875,0.42022705078125
1726226036087027200,11.705027099609374,0.3059539794921875,0.857391357421875,0.4659881591796875
1726226036097022200,11.715022216796875,0.300933837890625,0.894317626953125,0.5076446533203125
1726226036107017200,11.725017333984376,0.269805908203125,0.9027557373046875,0.5323333740234375
1726226036117012500,11.735012451171874,0.2317962646484375,0.894256591796875,0.548492431640625
1726226036127006200,11.745006103515625,0.20111083984375,0.8904266357421875,0.5648193359375
1726226036137001200,11.755001220703125,0.1893310546875,0.8766326904296875,0.5751800537109375
1726226036146996500,11.76499658203125,0.1957855224609375,0.8601837158203125,0.5837554931640625
1726226036156991500,11.774991455078125,0.1967010498046875,0.8356170654296875,0.575225830078125
1726226036166986500,11.784986572265625,0.1997222900390625,0.7972869873046875,0.5650177001953125
1726226036176981500,11.7949814453125,0.213653564453125,0.7684478759765625,0.55950927734375
1726226036186975500,11.8049755859375,0.2361907958984375,0.7522735595703125,0.53961181640625
1726226036196970500,11.814970458984375,0.2510528564453125,0.7501373291015625,0.51123046875
1726226036206965500,11.824965576171875,0.2709808349609375,0.7729339599609375,0.5005035400390625
1726226036216960500,11.83496044921875,0.3068695068359375,0.8127593994140625,0.499359130859375
1726226036226955500,11.84495556640625,0.353546142578125,0.855010986328125,0.493682861328125
1726226036236950300,11.8549501953125,0.3803863525390625,0.8712921142578125,0.460784912109375
1726226036246944500,11.864944580078125,0.3892974853515625,0.8656463623046875,0.4339141845703125
1726226036256939500,11.874939453125,0.386199951171875,0.8716888427734375,0.41180419921875
1726226036266934300,11.884934326171875,0.375396728515625,0.8641204833984375,0.40289306640625
1726226036276929300,11.89492919921875,0.3624114990234375,0.850799560546875,0.395599365234375
1726226036286924300,11.90492431640625,0.3621978759765625,0.854339599609375,0.3846435546875
1726226036296919300,11.914919189453125,0.3714599609375,0.8815460205078125,0.3770294189453125
1726226036306913300,11.924913330078125,0.3880157470703125,0.929534912109375,0.3868255615234375
1726226036316908300,11.934908203125,0.4029693603515625,0.9777069091796875,0.4039459228515625
1726226036326903300,11.9449033203125,0.3912811279296875,0.99267578125,0.393463134765625
1726226036336898300,11.954898193359375,0.3518218994140625,0.974334716796875,0.3770751953125
1726226036346893300,11.964893310546875,0.3052215576171875,0.9473114013671875,0.3696441650390625
1726226036356888300,11.974888427734374,0.2762603759765625,0.940399169921875,0.3699798583984375
1726226036366882300,11.98488232421875,0.2592620849609375,0.9381561279296875,0.36346435546875
1726226036376877300,11.994877197265625,0.2467803955078125,0.92156982421875,0.3617706298828125
1726226036386872300,12.004872314453126,0.2391815185546875,0.892547607421875,0.3451080322265625
1726226036396867300,12.014867431640624,0.2273712158203125,0.8730621337890625,0.337890625
1726226036406862600,12.024862548828125,0.2300567626953125,0.85888671875,0.3290252685546875
1726226036416857600,12.034857666015625,0.2545623779296875,0.8501434326171875,0.31341552734375
1726226036426851600,12.0448515625,0.2662200927734375,0.8518829345703125,0.31536865234375
1726226036436846300,12.054846435546875,0.2786407470703125,0.8604278564453125,0.3223419189453125
1726226036446841300,12.06484130859375,0.2828216552734375,0.860565185546875,0.3148651123046875
1726226036456836000,12.074836181640626,0.2987823486328125,0.852874755859375,0.3444976806640625
1726226036466831000,12.0848310546875,0.3346099853515625,0.8263397216796875,0.394195556640625
1726226036476826000,12.094826171875,0.3715057373046875,0.818756103515625,0.45050048828125
1726226036486820000,12.104820068359375,0.3811492919921875,0.838165283203125,0.5063323974609375
1726226036496815000,12.114815185546876,0.3841552734375,0.848388671875,0.546783447265625
1726226036506810400,12.124810302734375,0.3574066162109375,0.8225555419921875,0.5543975830078125
1726226036516805400,12.134805419921875,0.3058013916015625,0.77117919921875,0.53021240234375
1726226036526800400,12.14480029296875,0.270721435546875,0.7498626708984375,0.5040435791015625
1726226036536795400,12.15479541015625,0.2715301513671875,0.763885498046875,0.50885009765625
1726226036546789400,12.164789306640625,0.294281005859375,0.79779052734375,0.529632568359375
1726226036556784400,12.174784423828125,0.3131256103515625,0.8311614990234375,0.55023193359375
1726226036566779400,12.184779296875,0.323272705078125,0.8667144775390625,0.5794219970703125
1726226036576774400,12.1947744140625,0.325836181640625,0.901519775390625,0.608856201171875
1726226036586769400,12.204769287109375,0.3241424560546875,0.9234161376953125,0.631622314453125
1726226036596764400,12.214764404296876,0.3234710693359375,0.9331817626953125,0.627044677734375
1726226036606758400,12.22475830078125,0.3262786865234375,0.9308929443359375,0.600616455078125
1726226036616753400,12.23475341796875,0.327667236328125,0.9138946533203125,0.5572357177734375
1726226036626748400,12.24474853515625,0.3250732421875,0.893310546875,0.5100860595703125
1726226036636743400,12.254743408203124,0.33782958984375,0.8899993896484375,0.4733123779296875
1726226036646738200,12.26473828125,0.361541748046875,0.907989501953125,0.4454498291015625
1726226036656733200,12.274733154296875,0.376678466796875,0.9290008544921875,0.418121337890625
1726226036666727400,12.2847275390625,0.373199462890625,0.931671142578125,0.3922271728515625
1726226036676722200,12.29472216796875,0.34832763671875,0.9099884033203125,0.3614959716796875
1726226036686717200,12.30471728515625,0.333343505859375,0.881378173828125,0.3390655517578125
1726226036696712200,12.314712158203125,0.308349609375,0.8507843017578125,0.3188629150390625
1726226036706707200,12.324707275390624,0.2890625,0.8235321044921875,0.30218505859375
1726226036716702200,12.3347021484375,0.2871551513671875,0.8096923828125,0.2979736328125
1726226036726696200,12.3446962890625,0.2986907958984375,0.8170928955078125,0.2942962646484375
1726226036736691200,12.354691162109376,0.3084564208984375,0.8258514404296875,0.2981109619140625
1726226036746686200,12.364686279296874,0.30108642578125,0.829345703125,0.303802490234375
1726226036756681200,12.37468115234375,0.2819366455078125,0.829010009765625,0.310882568359375
1726226036766676500,12.384676513671875,0.270111083984375,0.8281402587890625,0.304656982421875
1726226036776671500,12.39467138671875,0.2751617431640625,0.83905029296875,0.2895355224609375
1726226036786665200,12.404665283203125,0.302825927734375,0.860931396484375,0.2938690185546875
1726226036796660500,12.414660400390625,0.32525634765625,0.8717498779296875,0.297271728515625
1726226036806655500,12.424655517578126,0.3333740234375,0.871856689453125,0.29583740234375
1726226036816650500,12.434650390625,0.3450469970703125,0.8549041748046875,0.2857208251953125
1726226036826645200,12.444645263671875,0.353759765625,0.861846923828125,0.2886505126953125
1726226036836640300,12.45464013671875,0.3625640869140625,0.9029693603515625,0.3193359375
1726226036846634500,12.464634521484374,0.3672943115234375,0.94049072265625,0.347686767578125
1726226036856629200,12.474629150390625,0.3681182861328125,0.96612548828125,0.385284423828125
1726226036866624300,12.484624267578125,0.3563232421875,0.9869842529296875,0.4174652099609375
1726226036876619300,12.494619384765626,0.3529205322265625,1.034576416015625,0.457122802734375
1726226036886614300,12.5046142578125,0.3614044189453125,1.078643798828125,0.499481201171875
1726226036896609300,12.514609375,0.3646240234375,1.1004638671875,0.54718017578125
1726226036906603300,12.524603271484375,0.36358642578125,1.0865478515625,0.5843353271484375
1726226036916598300,12.534598388671874,0.3455657958984375,1.04510498046875,0.603057861328125
1726226036926593300,12.54459326171875,0.31146240234375,0.9756927490234375,0.6041717529296875
1726226036936588300,12.55458837890625,0.3116455078125,0.923583984375,0.603668212890625
1726226036946583300,12.564583251953126,0.3229522705078125,0.8754425048828125,0.6053466796875
1726226036956578300,12.574578369140625,0.339141845703125,0.8286895751953125,0.5999603271484375
1726226036966572300,12.584572265625,0.359100341796875,0.7738494873046875,0.583984375
1726226036976567300,12.5945673828125,0.3765716552734375,0.71551513671875,0.5594940185546875
1726226036986562300,12.604562255859374,0.390625,0.65655517578125,0.5317840576171875
1726226036996557300,12.614557373046875,0.4087371826171875,0.612457275390625,0.4982147216796875
1726226037006552300,12.62455224609375,0.435943603515625,0.58929443359375,0.466522216796875
1726226037016546300,12.63454638671875,0.457427978515625,0.581024169921875,0.4408111572265625
1726226037026541300,12.644541259765624,0.4577178955078125,0.573699951171875,0.4247283935546875
1726226037036536300,12.654536376953125,0.4550323486328125,0.567535400390625,0.410675048828125
1726226037046531300,12.66453125,0.451812744140625,0.583892822265625,0.405059814453125
1726226037056526300,12.6745263671875,0.437957763671875,0.615875244140625,0.4139404296875
1726226037066521300,12.684521240234375,0.423004150390625,0.640777587890625,0.4186859130859375
1726226037076516400,12.694516357421875,0.4033050537109375,0.6509246826171875,0.409423828125
1726226037086510300,12.70451025390625,0.3939361572265625,0.6522369384765625,0.3968658447265625
1726226037096505300,12.71450537109375,0.402252197265625,0.673980712890625,0.3944854736328125
1726226037106500400,12.724500244140625,0.41497802734375,0.715606689453125,0.396484375
1726226037116495400,12.734495361328126,0.417205810546875,0.7582855224609375,0.409637451171875
1726226037126490400,12.744490478515624,0.395843505859375,0.776702880859375,0.423309326171875
1726226037136485400,12.7544853515625,0.355499267578125,0.7646484375,0.4248809814453125
1726226037146479400,12.764479248046875,0.3183746337890625,0.7409515380859375,0.422698974609375
1726226037156474400,12.774474365234376,0.2851409912109375,0.72442626953125,0.423065185546875
1726226037166469400,12.784469482421875,0.2586517333984375,0.704681396484375,0.4167327880859375
1726226037176464400,12.79446435546875,0.2559051513671875,0.708526611328125,0.395538330078125
1726226037186459400,12.80445947265625,0.2814788818359375,0.76971435546875,0.3818206787109375
1726226037196454400,12.814454345703124,0.328826904296875,0.8800048828125,0.4032440185546875
1726226037206448400,12.824448486328125,0.3680419921875,0.99212646484375,0.4369964599609375
1726226037216443400,12.834443359375,0.3997802734375,1.0875396728515625,0.4431304931640625
1726226037226438400,12.8444384765625,0.4069061279296875,1.1360931396484375,0.43634033203125
1726226037236433200,12.85443310546875,0.394317626953125,1.14404296875,0.429107666015625
1726226037246428200,12.86442822265625,0.3906402587890625,1.1327972412109375,0.410980224609375
1726226037256423200,12.874423095703126,0.392669677734375,1.12213134765625,0.3896331787109375
1726226037266417200,12.884417236328124,0.3951263427734375,1.0969696044921875,0.3476104736328125
1726226037276412200,12.894412109375,0.4015655517578125,1.0639190673828125,0.3093414306640625
1726226037286407200,12.9044072265625,0.4032135009765625,1.0483551025390625,0.2890167236328125
1726226037296402200,12.914402099609376,0.4055938720703125,1.03662109375,0.279937744140625
1726226037306397200,12.924397216796875,0.39349365234375,0.9812469482421875,0.2670745849609375
1726226037316392400,12.934392333984375,0.3641510009765625,0.9041595458984375,0.2588653564453125
1726226037326387500,12.944387451171876,0.3285064697265625,0.8334808349609375,0.2410888671875
1726226037336381200,12.954381103515624,0.297149658203125,0.785614013671875,0.2470550537109375
1726226037346376400,12.96437646484375,0.2886962890625,0.753936767578125,0.26739501953125
1726226037356371500,12.974371337890625,0.2897186279296875,0.73321533203125,0.272186279296875
1726226037366366500,12.984366455078124,0.286651611328125,0.7136077880859375,0.263824462890625
1726226037376361500,12.994361572265625,0.2775421142578125,0.6849212646484375,0.26397705078125
1726226037386356500,13.0043564453125,0.2642822265625,0.664703369140625,0.27447509765625
1726226037396350500,13.0143505859375,0.265594482421875,0.6719970703125,0.2935638427734375
1726226037406345500,13.024345458984374,0.2755279541015625,0.70361328125,0.328948974609375
1726226037416340200,13.03434033203125,0.2803497314453125,0.724609375,0.3729095458984375
1726226037426335200,13.044335205078125,0.286224365234375,0.7275848388671875,0.4085693359375
1726226037436331000,13.0543310546875,0.283843994140625,0.7225494384765625,0.4319610595703125
