time,seconds_elapsed,z,y,x
1726226024403051300,0.02105126953125,-0.1524486541748047,0.5751900672912598,-0.6904261112213135
1726226024413046300,0.03104638671875,-0.12222284823656082,0.6727365851402283,-0.6686957478523254
1726226024423041300,0.041041259765625,-0.09533210843801498,0.7488798499107361,-0.633225679397583
1726226024433036300,0.051036376953125,-0.0944008007645607,0.7577491998672485,-0.5879921317100525
1726226024443031300,0.06103125,-0.12268144637346268,0.7129274010658264,-0.5290592908859253
1726226024453025300,0.071025390625,-0.1611713171005249,0.6657053232192993,-0.4271097779273987
1726226024463020300,0.081020263671875,-0.19411887228488922,0.6552342772483826,-0.2840586304664612
1726226024473015300,0.091015380859375,-0.18584071099758148,0.7317447662353516,-0.12964987754821777
1726226024483010300,0.10101025390625,-0.15943387150764465,0.859248697757721,0.023207318037748337
1726226024493005300,0.11100537109375,-0.13253460824489594,1.021256446838379,0.17761074006557465
1726226024503000300,0.121000244140625,-0.12183243036270142,1.18681001663208,0.30828380584716797
1726226024512995300,0.130995361328125,0.07993211597204208,1.324519395828247,0.4617204964160919
1726226024522990300,0.140990234375,0.3550044298171997,1.5519251823425293,0.6075512170791626
1726226024532984300,0.150984375,0.5159687995910645,1.7660998106002808,0.7364071607589722
1726226024542979300,0.160979248046875,0.5639938712120056,1.9344102144241333,0.8892409205436707
1726226024552974300,0.170974365234375,0.5733093619346619,2.1631672382354736,1.0695006847381592
1726226024562969000,0.180968994140625,0.5178194642066956,2.3032586574554443,1.2213813066482544
1726226024572964000,0.190964111328125,0.38748621940612793,2.330911159515381,1.3309134244918823
1726226024582959000,0.200958984375,0.312132328748703,1.6254603862762451,1.163798213005066
1726226024592954000,0.2109541015625,0.16031590104103088,0.6571959853172302,0.6010171175003052
1726226024602949400,0.220949462890625,-0.05736049637198448,0.35729900002479553,0.23768818378448486
1726226024612944400,0.2309443359375,-0.23427242040634155,-0.004230697639286518,0.031687088310718536
1726226024622938000,0.240938232421875,-0.4264756739139557,-0.425592839717865,-0.060088105499744415
1726226024632933400,0.250933349609375,-0.6627667546272278,-0.8459919691085815,-0.10113140940666199
1726226024642928400,0.260928466796875,-0.9272269010543823,-1.1119115352630615,-0.19285334646701813
1726226024652923400,0.27092333984375,-1.1302149295806885,-1.0341424942016602,-0.2851068377494812
1726226024662918400,0.28091845703125,-1.2052202224731445,-0.7343882322311401,-0.2801320552825928
1726226024672913400,0.290913330078125,-1.1988131999969482,-0.45351049304008484,-0.19020402431488037
1726226024682908400,0.300908447265625,-1.1568756103515625,-0.5302438735961914,-0.044627655297517776
1726226024692903200,0.310903076171875,-1.1452149152755737,-0.8280553221702576,0.08798365294933319
1726226024702897400,0.3208974609375,-1.0943642854690552,-1.3261148929595947,0.23628230392932892
1726226024712892400,0.330892333984375,-1.022873878479004,-1.989197015762329,0.36353108286857605
1726226024722887200,0.34088720703125,-0.9675365090370178,-2.671086311340332,0.47522538900375366
1726226024732882200,0.350882080078125,-0.9231773018836975,-3.1949970722198486,0.5950652360916138
1726226024742877200,0.360877197265625,-0.8979478478431702,-2.8029518127441406,0.5658559203147888
1726226024752872200,0.3708720703125,-0.755698025226593,-2.1088011264801025,0.6056709885597229
1726226024762867200,0.3808671875,-0.5026519298553467,-1.2881414890289307,0.6204904317855835
1726226024772862200,0.3908623046875,-0.2426866739988327,-0.6032123565673828,0.5263404846191406
1726226024782856200,0.400856201171875,-0.010853978805243969,-0.4233640432357788,0.3751440644264221
1726226024792851200,0.410851318359375,0.25342079997062683,-0.6098090410232544,0.23875504732131958
1726226024802846200,0.42084619140625,0.7505996823310852,-0.8124436140060425,0.2140078991651535
1726226024812841200,0.43084130859375,1.5861198902130127,-0.6654813289642334,0.3159491717815399
1726226024822836200,0.440836181640625,2.5432488918304443,-0.2140779346227646,0.4491865932941437
1726226024832831500,0.45083154296875,3.169834613800049,-0.08462993055582047,0.46213167905807495
1726226024842826200,0.460826171875,3.257073402404785,-0.4260258674621582,0.2904973328113556
1726226024852821200,0.4708212890625,2.958730459213257,-0.5123850107192993,0.1733883023262024
1726226024862815500,0.4808154296875,2.6329493522644043,-0.1348009556531906,0.2569361925125122
1726226024872810200,0.490810302734375,2.486337900161743,0.23783226311206818,0.33274760842323303
1726226024882805200,0.50080517578125,2.4149389266967773,0.35132765769958496,0.35908493399620056
1726226024892800300,0.51080029296875,2.510953187942505,0.16085253655910492,0.4779535233974457
1726226024902795300,0.520795166015625,2.6485495567321777,-0.3245466649532318,0.6731739044189453
1726226024912790300,0.530790283203125,2.793271064758301,-1.119846224784851,0.8886955380439758
1726226024922785300,0.540785400390625,2.8927369117736816,-2.022213935852051,1.1239384412765503
1726226024932780300,0.5507802734375,2.8930342197418213,-2.92693829536438,1.3333818912506104
1726226024942774300,0.560774169921875,2.9227516651153564,-3.686173677444458,1.487627387046814
1726226024952769300,0.570769287109375,3.1205949783325195,-4.079182147979736,1.532447338104248
1726226024962764300,0.580764404296875,3.412816047668457,-4.117793560028076,1.4360158443450928
1726226024972759300,0.59075927734375,3.7011568546295166,-3.9080657958984375,1.25264573097229
1726226024982754300,0.60075439453125,3.988294839859009,-3.7028167247772217,1.033484697341919
1726226024992749300,0.610749267578125,4.376471996307373,-3.69374418258667,0.7504953145980835
1726226025002744300,0.620744384765625,4.837264537811279,-3.958055019378662,0.44940122961997986
1726226025012739000,0.630739013671875,5.284608364105225,-4.449067115783691,0.22691117227077484
1726226025022733300,0.6407333984375,5.884620666503906,-4.829197406768799,0.06303249299526215
1726226025032728300,0.650728271484375,6.6730427742004395,-4.708657264709473,-0.1251392811536789
1726226025042723000,0.66072314453125,7.414113521575928,-4.166116714477539,-0.42287322878837585
1726226025052718000,0.670718017578125,7.955022811889648,-3.632822036743164,-0.7740592360496521
1726226025062713300,0.68071337890625,8.277379035949707,-3.3391551971435547,-1.0761895179748535
1726226025072708400,0.690708251953125,8.452001571655273,-3.173532009124756,-1.2704780101776123
1726226025082703400,0.700703369140625,8.601152420043945,-3.0059311389923096,-1.3841774463653564
1726226025092698400,0.710698486328125,8.773279190063477,-2.905945062637329,-1.3834013938903809
1726226025102692400,0.7206923828125,9.143760681152344,-3.089528799057007,-1.351166009902954
1726226025112687400,0.730687255859375,9.70444393157959,-3.357290267944336,-1.356117606163025
1726226025122682400,0.740682373046875,10.34903335571289,-3.393754005432129,-1.4079080820083618
1726226025132677400,0.750677490234375,10.888474464416504,-3.03757381439209,-1.4461973905563354
1726226025142672400,0.76067236328125,11.196154594421387,-2.539537191390991,-1.3494240045547485
1726226025152667400,0.77066748046875,11.240023612976074,-2.212908983230591,-1.0829331874847412
1726226025162662100,0.780662109375,11.22189998626709,-2.0990092754364014,-0.5552254319190979
1726226025172657200,0.7906572265625,11.040074348449707,-2.269780397415161,0.11325172334909439
1726226025182651400,0.8006513671875,10.725378036499023,-2.406276226043701,0.7579162120819092
1726226025192646100,0.810646240234375,10.37862777709961,-2.1101930141448975,1.3185325860977173
1726226025202641200,0.82064111328125,9.962350845336914,-1.4637601375579834,1.7673149108886719
1726226025212636200,0.83063623046875,9.378251075744629,-0.6150948405265808,2.126007556915283
1726226025222631200,0.840631103515625,8.621464729309082,0.10883566737174988,2.5508968830108643
1726226025232626200,0.850626220703125,7.5239973068237305,0.472396582365036,3.1453611850738525
1726226025242621200,0.86062109375,6.1759514808654785,0.4408908486366272,3.7877726554870605
1726226025252616200,0.8706162109375,4.504311561584473,0.39396247267723083,4.314046382904053
1726226025262610200,0.880610107421875,2.7131166458129883,0.5851577520370483,4.521825790405273
1726226025272605200,0.890605224609375,0.9972081184387207,1.2340856790542603,4.063094615936279
1726226025282600200,0.90060009765625,-0.5750550627708435,2.0652272701263428,3.251875638961792
1726226025292595200,0.91059521484375,-1.8372008800506592,2.4997401237487793,2.752925395965576
1726226025302590500,0.920590576171875,-2.823162794113159,2.565518856048584,2.359342098236084
1726226025312585500,0.93058544921875,-3.536489248275757,2.3466715812683105,1.877267599105835
1726226025322580200,0.940580322265625,-4.04341983795166,1.9880534410476685,1.6981124877929688
1726226025332574500,0.950574462890625,-4.426724910736084,1.4128223657608032,1.5397238731384277
1726226025342569500,0.960569580078125,-4.714659690856934,0.9274977445602417,1.2016406059265137
1726226025352564200,0.970564208984375,-4.9436516761779785,0.44395214319229126,0.7923639416694641
1726226025362559200,0.980559326171875,-5.255486965179443,-0.13316205143928528,0.38509896397590637
1726226025372554200,0.99055419921875,-5.518970489501953,-0.7939469218254089,-0.007992412894964218
1726226025382549200,1.00054931640625,-5.717846393585205,-1.254883050918579,-0.3807705044746399
1726226025392544300,1.010544189453125,-5.732558727264404,-1.4127265214920044,-0.768613874912262
1726226025402539300,1.020539306640625,-5.685070037841797,-1.3610856533050537,-1.2931175231933594
1726226025412533200,1.030533203125,-5.626608371734619,-1.259520411491394,-1.702454686164856
1726226025422528300,1.0405283203125,-5.565579414367676,-1.1239255666732788,-2.0846574306488037
1726226025432523300,1.050523193359375,-5.545769214630127,-0.964525580406189,-2.388533353805542
1726226025442518300,1.060518310546875,-5.513463497161865,-0.8842474818229675,-2.823544502258301
1726226025452513300,1.07051318359375,-5.409767150878906,-0.9294333457946777,-3.485506057739258
1726226025462508300,1.08050830078125,-5.1315436363220215,-0.9121931195259094,-3.8163747787475586
1726226025472503300,1.09050341796875,-4.447411060333252,-0.9334222674369812,-3.704258441925049
1726226025482497300,1.100497314453125,-3.694401741027832,-1.4393447637557983,-3.205150604248047
1726226025492492300,1.1104921875,-3.2176601886749268,-2.469291925430298,-2.7979116439819336
1726226025502487300,1.1204873046875,-3.043009042739868,-3.556638717651367,-2.6259348392486572
1726226025512482300,1.130482421875,-3.117297887802124,-4.247944355010986,-2.4956133365631104
1726226025522477300,1.140477294921875,-3.1221444606781006,-4.639970302581787,-2.778456211090088
1726226025532472300,1.150472412109375,-3.016238212585449,-4.257973670959473,-3.2096035480499268
1726226025542467300,1.16046728515625,-2.6975479125976562,-3.197718858718872,-3.638251304626465
1726226025552462300,1.17046240234375,-2.3844101428985596,-1.94615638256073,-4.059009552001953
1726226025562456300,1.180456298828125,-2.0352816581726074,-0.7551217675209045,-4.296294212341309
1726226025572451300,1.190451416015625,-2.0042803287506104,0.015372032299637794,-4.174122333526611
1726226025582446300,1.2004462890625,-1.938614845275879,0.36763259768486023,-4.171469211578369
1726226025592441300,1.21044140625,-1.8424651622772217,0.007434213999658823,-4.292386531829834
1726226025602436400,1.220436279296875,-1.856971025466919,-0.2031797468662262,-4.322469711303711
1726226025612431400,1.230431396484375,-1.8106043338775635,-0.4410673975944519,-4.333334922790527
1726226025622426400,1.24042626953125,-1.7724658250808716,-0.6594988107681274,-4.243762016296387
1726226025632420400,1.25042041015625,-1.657435655593872,-0.6564342975616455,-3.976083517074585
1726226025642415400,1.260415283203125,-1.5335205793380737,-0.47462165355682373,-3.4918692111968994
1726226025652410400,1.270410400390625,-1.3292752504348755,-0.19961030781269073,-3.024989366531372
1726226025662405400,1.2804052734375,-1.2435662746429443,0.14911331236362457,-2.72847056388855
1726226025672400100,1.290400146484375,-1.2141356468200684,0.453008234500885,-2.553583860397339
1726226025682395100,1.30039501953125,-1.1273528337478638,0.4646129608154297,-2.521775484085083
1726226025692390100,1.31039013671875,-1.0640449523925781,0.311270534992218,-2.5214693546295166
1726226025702385400,1.320385498046875,-0.9523221850395203,0.19866329431533813,-2.5671844482421875
1726226025712379100,1.330379150390625,-0.8337262868881226,0.07520873099565506,-2.7081053256988525
1726226025722374100,1.3403740234375,-0.7583023309707642,-0.08695780485868454,-2.7003233432769775
1726226025732369400,1.350369384765625,-0.5109812617301941,0.11046312749385834,-2.4049668312072754
1726226025742364400,1.360364501953125,-0.17112088203430176,0.33895301818847656,-1.882187008857727
1726226025752359400,1.370359375,0.0831790417432785,0.402988463640213,-1.3227628469467163
1726226025762354400,1.3803544921875,0.3288862705230713,0.014182930812239647,-0.7300741672515869
1726226025772349400,1.390349365234375,0.5584291815757751,-0.5312865376472473,-0.20845679938793182
1726226025782343400,1.400343505859375,0.8168764710426331,-0.8799387812614441,0.21953928470611572
1726226025792338400,1.41033837890625,0.9834164381027222,-1.013466477394104,0.5145714282989502
1726226025802333400,1.42033349609375,0.9579768776893616,-1.1226449012756348,0.628301203250885
1726226025812328400,1.430328369140625,0.672313928604126,-1.2032026052474976,0.5003728270530701
1726226025822323200,1.4403232421875,0.2646583020687103,-1.006235957145691,0.3972850441932678
1726226025832318200,1.450318115234375,-0.11617161333560944,-0.6461774110794067,0.46850648522377014
1726226025842313200,1.460313232421875,-0.40056100487709045,-0.3486003279685974,0.7145426273345947
1726226025852307200,1.47030712890625,-0.5045651793479919,-0.2166212499141693,0.9869797229766846
1726226025862302200,1.48030224609375,-0.4389909505844116,-0.02118225023150444,1.2529267072677612
1726226025872297200,1.490297119140625,-0.3091956675052643,0.17309561371803284,1.4608620405197144
1726226025882292200,1.500292236328125,-0.18087737262248993,0.18030746281147003,1.6170170307159424
1726226025892287200,1.510287353515625,-0.1645045280456543,0.06897401064634323,1.5734511613845825
1726226025902282200,1.5202822265625,-0.2080317586660385,-0.1062404215335846,1.3937627077102661
1726226025912277200,1.53027734375,-0.320759654045105,-0.2178516387939453,1.325093388557434
1726226025922272300,1.540272216796875,-0.33639904856681824,-0.11607068032026291,1.4018810987472534
1726226025932266200,1.550266357421875,-0.2512495517730713,0.2586557865142822,1.5500737428665161
1726226025942261200,1.56026123046875,-0.13066187500953674,0.8186237812042236,1.6890689134597778
1726226025952256300,1.57025634765625,0.034081004559993744,1.5933774709701538,1.846564531326294
1726226025962251500,1.58025146484375,0.25416383147239685,1.9078044891357422,2.0647428035736084
1726226025972246500,1.59024658203125,0.5095838904380798,1.74271559715271,2.240180730819702
1726226025982241300,1.6002412109375,0.8309709429740906,1.6605219841003418,2.378619909286499
1726226025992236300,1.610236328125,1.4194691181182861,1.5630054473876953,2.538742780685425
1726226026002230500,1.62023046875,2.1415109634399414,1.8497788906097412,2.811117172241211
1726226026012225300,1.630225341796875,2.960980176925659,2.0720572471618652,3.070545196533203
1726226026022220300,1.64022021484375,3.8264551162719727,1.9300143718719482,3.399822473526001
1726226026032215300,1.65021533203125,4.631324291229248,1.007429599761963,3.7818922996520996
1726226026042210300,1.660210205078125,5.747792720794678,-0.4908868968486786,4.434484004974365
1726226026052205300,1.670205322265625,7.087403774261475,-1.7627063989639282,5.2122344970703125
1726226026062200300,1.680200439453125,8.488341331481934,-2.374738931655884,5.707463264465332
1726226026072194300,1.6901943359375,9.665376663208008,-2.230898857116699,5.364719390869141
1726226026082189300,1.700189208984375,10.70114803314209,-1.609570026397705,4.823371410369873
1726226026092184300,1.710184326171875,11.315033912658691,-1.4550491571426392,4.520664215087891
1726226026102179300,1.720179443359375,11.472674369812012,-1.2790640592575073,4.218627452850342
1726226026112174300,1.73017431640625,11.93063735961914,-0.5200392007827759,4.431207180023193
1726226026122169300,1.74016943359375,12.125839233398438,-0.14961665868759155,4.622288703918457
1726226026132164400,1.750164306640625,11.43381118774414,-0.28382426500320435,4.47440767288208
1726226026142158300,1.760158447265625,9.946983337402344,-0.4415813982486725,4.37835168838501
1726226026152153300,1.7701533203125,8.144895553588867,-0.13033030927181244,4.344247817993164
1726226026162148400,1.7801484375,6.3711137771606445,0.40486547350883484,4.406516075134277
1726226026172143000,1.79014306640625,4.5732221603393555,0.9240380525588989,4.0996623039245605
1726226026182138000,1.80013818359375,2.6551976203918457,1.3887450695037842,3.4353818893432617
1726226026192133400,1.81013330078125,0.7319868803024292,1.617631435394287,3.0362777709960938
1726226026202128400,1.82012841796875,-1.0173780918121338,1.5846357345581055,2.6453607082366943
1726226026212122000,1.8301220703125,-2.4641730785369873,1.3077095746994019,2.320222854614258
1726226026222117400,1.840117431640625,-3.6820127964019775,0.8256835341453552,2.0652213096618652
1726226026232112400,1.8501123046875,-4.714829444885254,0.47522643208503723,1.707292914390564
1726226026242107400,1.860107421875,-5.39216947555542,0.5584640502929688,1.1699343919754028
1726226026252102400,1.870102294921875,-5.672395706176758,0.8068496584892273,0.5991326570510864
1726226026262097400,1.880097412109375,-5.804263591766357,0.8691676259040833,0.1857735961675644
1726226026272092400,1.890092529296875,-5.729747295379639,0.5219462513923645,0.019516710191965103
1726226026282086400,1.90008642578125,-5.696430206298828,0.013464409857988358,0.08524245768785477
1726226026292081400,1.910081298828125,-5.794683933258057,-0.5399090647697449,0.10594400763511658
1726226026302076400,1.920076416015625,-5.890838623046875,-1.0127218961715698,0.034514833241701126
1726226026312071400,1.930071533203125,-5.728628635406494,-1.0542197227478027,-0.30553674697875977
1726226026322066400,1.94006640625,-5.086627960205078,-0.749340295791626,-0.7914882898330688
1726226026332061200,1.950061279296875,-4.245160102844238,-0.4750751852989197,-0.8792117238044739
1726226026342056200,1.96005615234375,-3.439189910888672,-0.8879868388175964,-0.40792304277420044
1726226026352050400,1.970050537109375,-2.7179195880889893,-1.602391242980957,0.14738811552524567
1726226026362045200,1.980045166015625,-1.9955319166183472,-2.233325242996216,0.542297899723053
1726226026372040200,1.990040283203125,-1.2097257375717163,-2.911818742752075,1.033858299255371
1726226026382035200,2.00003515625,-0.959968626499176,-3.0696427822113037,1.0875478982925415
1726226026392030200,2.0100302734375,-0.6366488933563232,-2.843441963195801,0.5527598261833191
1726226026402025200,2.020025146484375,-0.7582216858863831,-2.7098164558410645,0.317105770111084
1726226026412019200,2.030019287109375,-1.0484939813613892,-2.2054758071899414,0.3311323821544647
1726226026422013700,2.040013671875,-1.2896301746368408,-1.6411916017532349,0.2651160955429077
1726226026432008700,2.0500087890625,-1.3875497579574585,-1.1625752449035645,0.021893847733736038
1726226026442003700,2.060003662109375,-1.3468260765075684,-0.33940550684928894,-0.20993672311306
1726226026451998700,2.069998779296875,-1.1121482849121094,0.4419204294681549,-0.3863532841205597
1726226026461993700,2.07999365234375,-0.6243959665298462,1.176805853843689,-0.6672776341438293
1726226026471988700,2.08998876953125,-0.2559204697608948,1.808610200881958,-0.8858656287193298
1726226026481982700,2.099982666015625,0.12087395787239075,2.088247537612915,-0.8650543689727783
1726226026491977700,2.109977783203125,0.40286755561828613,2.050506114959717,-0.7361568212509155
1726226026501972700,2.11997265625,0.6836901903152466,2.0075056552886963,-0.6230758428573608
1726226026511967700,2.1299677734375,0.6466363072395325,1.874269962310791,-0.5693598389625549
1726226026521962800,2.139962646484375,0.3812924921512604,1.4540635347366333,-0.4991288483142853
1726226026531957500,2.14995751953125,0.1661980301141739,0.9447821974754333,-0.36005911231040955
1726226026541952500,2.159952392578125,-0.014859107322990894,0.5116097331047058,-0.208050936460495
1726226026551946800,2.16994677734375,-0.042323220521211624,0.27093350887298584,-0.14447195827960968
1726226026561941500,2.17994140625,0.02189571224153042,-0.058880094438791275,-0.2109370082616806
1726226026571936500,2.1899365234375,0.10620659589767456,-0.5312252640724182,-0.34671905636787415
1726226026581931500,2.199931640625,0.19784916937351227,-1.0468931198120117,-0.5477824211120605
1726226026591926500,2.209926513671875,0.22104476392269135,-1.5306923389434814,-0.7059374451637268
1726226026601921500,2.219921630859375,0.06064204126596451,-1.8236017227172852,-0.7646254897117615
1726226026611916500,2.22991650390625,-0.27092045545578003,-1.895281434059143,-0.9401272535324097
1726226026621910500,2.23991064453125,-0.6324900984764099,-1.7892543077468872,-1.117451786994934
1726226026631905500,2.249905517578125,-1.0468369722366333,-1.5948635339736938,-1.2849149703979492
1726226026641900500,2.259900634765625,-1.2983994483947754,-1.4270907640457153,-1.2906863689422607
1726226026651895600,2.2698955078125,-2.1081106662750244,0.1467321813106537,-2.567023277282715
1726226026661890800,2.279890869140625,-2.4858789443969727,1.2900618314743042,-3.4790782928466797
1726226026671885800,2.2898857421875,-2.7255780696868896,2.0378925800323486,-2.8835606575012207
1726226026681880800,2.299880859375,-3.1605892181396484,1.2938743829727173,-1.8218083381652832
1726226026691874800,2.309874755859375,-3.4439198970794678,0.5714336633682251,-0.8930116891860962
1726226026701869800,2.319869873046875,-3.6278648376464844,0.40434935688972473,-0.3616330325603485
1726226026711864800,2.32986474609375,-4.021640777587891,0.47402268648147583,-0.322666198015213
1726226026721859600,2.339859619140625,-4.408005714416504,0.7047173976898193,-0.6570844054222107
1726226026731854600,2.3498544921875,-4.81567907333374,0.36661502718925476,-1.0691564083099365
1726226026741849600,2.359849609375,-5.355914115905762,-0.12187104672193527,-1.5165051221847534
1726226026751843600,2.369843505859375,-5.031710624694824,0.8623291850090027,-1.0677963495254517
1726226026761838600,2.379838623046875,-3.821436882019043,1.6845918893814087,-0.536469042301178
1726226026771833600,2.38983349609375,-2.4202280044555664,1.9820773601531982,0.09543464332818985
1726226026781828600,2.39982861328125,-1.034832239151001,1.718273639678955,0.7361366152763367
1726226026791823600,2.40982373046875,-0.034448254853487015,1.0842947959899902,1.2292304039001465
1726226026801818600,2.419818603515625,0.6473079323768616,0.07658478617668152,1.5586397647857666
1726226026811813600,2.429813720703125,1.1783829927444458,-0.8683228492736816,1.7277613878250122
1726226026821807600,2.4398076171875,1.7170994281768799,-1.7395230531692505,1.6921429634094238
1726226026831802600,2.449802734375,2.155287981033325,-2.1982946395874023,1.4270846843719482
1726226026841797600,2.459797607421875,2.6841845512390137,-2.18528413772583,1.162310004234314
1726226026851792600,2.469792724609375,3.0688390731811523,-2.0095372200012207,0.9471340775489807
1726226026861787600,2.47978759765625,3.1716361045837402,-1.9650105237960815,0.7419193983078003
1726226026871782700,2.48978271484375,2.994208574295044,-2.021066188812256,0.6578980088233948
1726226026881777400,2.49977734375,2.6442925930023193,-1.855392575263977,0.5913519859313965
1726226026891771600,2.509771728515625,1.8437734842300415,-1.6164122819900513,0.22740119695663452
1726226026901766700,2.5197666015625,0.9714646935462952,-1.3604090213775635,-0.44906488060951233
1726226026911761700,2.52976171875,1.01234769821167,-2.799687385559082,-1.4773539304733276
1726226026921756700,2.539756591796875,0.6301433444023132,-2.3270645141601562,-1.769309401512146
1726226026931751700,2.549751708984375,-0.4418213367462158,-0.5230456590652466,-1.781268835067749
1726226026941746700,2.55974658203125,-1.2449442148208618,0.9141142964363098,-1.7564561367034912
1726226026951740700,2.56974072265625,-1.6831988096237183,1.2736884355545044,-1.5565483570098877
1726226026961735700,2.579735595703125,-1.9554771184921265,0.8840416669845581,-1.3664966821670532
1726226026971730700,2.589730712890625,-2.0701777935028076,0.09905547648668289,-1.3800641298294067
1726226026981725700,2.5997255859375,-2.183717727661133,-0.396975040435791,-1.5111247301101685
1726226026991720700,2.609720703125,-2.426988124847412,-0.7686101198196411,-1.8309730291366577
1726226027001715700,2.6197158203125,-2.6576457023620605,-1.0547252893447876,-2.315403461456299
1726226027011710700,2.629710693359375,-2.765991687774658,-1.0670218467712402,-2.946126699447632
1726226027021704700,2.63970458984375,-2.7319271564483643,-0.3951396048069,-3.5349538326263428
1726226027031699700,2.64969970703125,-2.2261486053466797,0.3921664357185364,-3.746699810028076
1726226027041694700,2.65969482421875,-1.74479079246521,0.14860571920871735,-3.8325629234313965
1726226027051689700,2.669689697265625,-1.4905771017074585,-0.7386357188224792,-3.731511116027832
1726226027061684700,2.679684814453125,-1.2755457162857056,-1.277828335762024,-3.666127920150757
1726226027071679500,2.689679443359375,-1.0926369428634644,-1.5307695865631104,-3.575193405151367
1726226027081674500,2.699674560546875,-0.9178877472877502,-1.5420994758605957,-3.3815243244171143
1726226027091668500,2.70966845703125,-0.8489091992378235,-1.7437965869903564,-3.148209810256958
1726226027101663500,2.71966357421875,-0.8859447240829468,-1.9801547527313232,-2.8334298133850098
1726226027111658500,2.729658447265625,-0.8406342267990112,-1.2384364604949951,-2.171062707901001
1726226027121653500,2.739653564453125,-0.8512237668037415,-0.9478871822357178,-1.6803699731826782
1726226027131648500,2.7496484375,-0.849097490310669,-0.5173251628875732,-1.552478313446045
1726226027141643500,2.7596435546875,-0.8837657570838928,-0.06208254396915436,-1.359710693359375
1726226027151638800,2.769638671875,-0.8904087543487549,0.14071796834468842,-1.0959038734436035
1726226027161632500,2.779632568359375,-0.9030840396881104,0.1415797621011734,-0.7188268303871155
1726226027171627800,2.789627685546875,-0.9988766312599182,-0.08091482520103455,-0.287621408700943
1726226027181622800,2.799622802734375,-1.2001093626022339,-0.17142342031002045,0.03369564563035965
1726226027191617800,2.80961767578125,-1.4860020875930786,-0.528695821762085,0.12154853343963623
1726226027201612800,2.81961279296875,-1.8446470499038696,-0.6635364294052124,0.22108817100524902
1726226027211607800,2.82960791015625,-2.2140862941741943,-0.5156548023223877,0.33311909437179565
1726226027221601800,2.839601806640625,-2.4422359466552734,0.2500511109828949,0.30506962537765503
1726226027231596800,2.8495966796875,-2.4666640758514404,0.6375653147697449,0.35279133915901184
1726226027241591800,2.859591796875,-2.0638175010681152,0.8888236284255981,0.46954724192619324
1726226027251586600,2.869586669921875,-1.403128981590271,0.918350875377655,0.6080138087272644
1726226027261581600,2.87958154296875,-0.8356618881225586,0.8333901762962341,0.7118906378746033
1726226027271576600,2.88957666015625,-0.4290485680103302,0.8376775979995728,0.5704091787338257
1726226027281571600,2.899571533203125,-0.019839484244585037,0.7711063027381897,0.307423859834671
1726226027291565600,2.909565673828125,0.3069671392440796,0.7753815054893494,0.053214751183986664
1726226027301560600,2.919560546875,0.5288800597190857,1.077040433883667,-0.13525636494159698
1726226027311555600,2.9295556640625,0.7216644287109375,1.265787124633789,-0.22801105678081512
1726226027321550600,2.939550537109375,1.2299764156341553,1.2937074899673462,-0.1675165593624115
1726226027331545600,2.949545654296875,2.055320978164673,1.5870988368988037,-0.10083340108394623
1726226027341540600,2.95954052734375,2.825080633163452,1.5612478256225586,0.08675087243318558
1726226027351534600,2.96953466796875,3.538898229598999,1.2151201963424683,0.4182228147983551
1726226027361529600,2.979529541015625,3.984816312789917,0.19938501715660095,0.7895500063896179
1726226027371524600,2.989524658203125,3.9388229846954346,-0.2733481824398041,1.1041688919067383
1726226027381519600,2.99951953125,3.442445755004883,-0.254938542842865,1.3267951011657715
1726226027391514600,3.0095146484375,2.9938910007476807,0.07986127585172653,1.5047080516815186
1726226027401509600,3.019509521484375,2.7781524658203125,-0.0017715347930788994,1.646169662475586
1726226027411504600,3.029504638671875,2.6632895469665527,-0.13563159108161926,1.7907207012176514
1726226027421499000,3.039498779296875,2.4700169563293457,0.2308494597673416,1.958574891090393
1726226027431494000,3.049493896484375,2.205697536468506,0.8008178472518921,2.069223642349243
1726226027441489000,3.059489013671875,2.119797706604004,0.6560215353965759,2.179719924926758
1726226027451484000,3.06948388671875,2.197319269180298,0.5275423526763916,2.4742259979248047
1726226027461479000,3.07947900390625,2.344543218612671,0.3351995646953583,2.8096117973327637
1726226027471474000,3.089473876953125,2.6184799671173096,0.10914992541074753,3.163320302963257
1726226027481468000,3.099468017578125,3.059884548187256,0.06710632890462875,3.5131208896636963
1726226027491463000,3.109462890625,3.3616695404052734,-0.26229846477508545,3.8881430625915527
1726226027501458000,3.1194580078125,3.4574356079101562,-0.7409457564353943,3.9156978130340576
1726226027511453000,3.129452880859375,3.403686761856079,-1.002615213394165,3.8571200370788574
1726226027521448000,3.139447998046875,3.22088360786438,-1.00912606716156,4.056551456451416
1726226027531443000,3.14944287109375,2.8808717727661133,-1.0104376077651978,4.338101387023926
1726226027541437000,3.15943701171875,2.3775572776794434,-1.1477837562561035,4.149012565612793
1726226027551432000,3.169431884765625,1.9709104299545288,-0.5312921404838562,4.079156398773193
1726226027561427000,3.179427001953125,1.5416245460510254,-0.22833862900733948,3.4547035694122314
1726226027571422000,3.189421875,1.124276876449585,0.12185746431350708,2.770045757293701
1726226027581417000,3.1994169921875,0.737839937210083,0.5404152870178223,2.063034772872925
1726226027591411700,3.20941162109375,0.29267555475234985,0.7507046461105347,1.3112789392471313
1726226027601406700,3.21940673828125,-0.0070643010549247265,0.6677359938621521,0.8045129776000977
1726226027611401000,3.22940087890625,-0.13685904443264008,0.667070209980011,0.5817520618438721
1726226027621395700,3.239395751953125,-0.3058414161205292,0.7017315030097961,0.39462560415267944
1726226027631390700,3.249390625,-0.44228020310401917,0.9753236174583435,0.10988016426563263
1726226027641385700,3.2593857421875,-0.5596801042556763,1.1074845790863037,-0.19406667351722717
1726226027651380700,3.269380615234375,-0.5713207721710205,1.1246212720870972,-0.5209230780601501
1726226027661376000,3.2793759765625,-0.43969616293907166,1.0599708557128906,-0.7869877815246582
1726226027671369700,3.28936962890625,-0.23433446884155273,0.9426908493041992,-1.0071145296096802
1726226027681364700,3.29936474609375,-0.045530468225479126,0.7336699962615967,-1.1548478603363037
1726226027691360000,3.309360107421875,0.018634138628840446,0.31258612871170044,-1.1260305643081665
1726226027701355000,3.31935498046875,0.17181037366390228,-0.33680546283721924,-0.9299233555793762
1726226027711350000,3.32935009765625,0.40314239263534546,-1.0105993747711182,-0.42337363958358765
1726226027721345000,3.339344970703125,0.6904828548431396,-1.5852125883102417,-0.08864811062812805
1726226027731340000,3.349340087890625,0.7609401941299438,-2.0482983589172363,-0.05972724407911301
1726226027741334000,3.359333984375,0.5431748628616333,-2.2570431232452393,-0.24466167390346527
1726226027751329000,3.3693291015625,0.13360252976417542,-2.2627549171447754,-0.4556881785392761
1726226027761324000,3.379323974609375,-0.31790101528167725,-2.1810522079467773,-0.5761064291000366
1726226027771319000,3.389319091796875,-0.6230814456939697,-2.0967180728912354,-0.6367969512939453
1726226027781313800,3.399313720703125,-0.6780874133110046,-1.8351032733917236,-0.5002167224884033
1726226027791308800,3.409308837890625,-0.45415231585502625,-1.4035903215408325,-0.3168970048427582
1726226027801302800,3.419302734375,-0.11013688892126083,-0.9815503358840942,-0.3570862114429474
1726226027811297800,3.4292978515625,0.3820174038410187,-0.9034299850463867,-0.5657954812049866
1726226027821292800,3.439292724609375,1.0010420083999634,-1.028862476348877,-0.7607894539833069
1726226027831287800,3.449287841796875,1.651167631149292,-1.151560664176941,-0.8875711560249329
1726226027841282800,3.45928271484375,2.088956594467163,-1.3283205032348633,-0.9603028297424316
1726226027851277800,3.46927783203125,2.3867268562316895,-1.4717509746551514,-1.0520436763763428
1726226027861272800,3.47927294921875,2.4708244800567627,-1.4112497568130493,-0.9938355088233948
1726226027871266800,3.489266845703125,2.181968927383423,-1.1053242683410645,-0.9202814102172852
1726226027881261800,3.49926171875,1.6303619146347046,-0.6485657691955566,-0.8928966522216797
1726226027891256800,3.5092568359375,0.9354193210601807,-0.16474607586860657,-0.8533652424812317
1726226027901251800,3.519251953125,0.21959280967712402,0.27679750323295593,-0.8249415755271912
1726226027911246800,3.529246826171875,0.14303864538669586,0.5898438096046448,-0.84108966588974
1726226027921242000,3.5392421875,0.03533109277486801,0.8324266672134399,-0.860361635684967
1726226027931236900,3.54923681640625,-0.20316776633262634,1.0407230854034424,-0.9391086101531982
1726226027941230800,3.55923095703125,-0.42747995257377625,0.9591680765151978,-0.9580634236335754
1726226027951226000,3.56922607421875,-0.5763717293739319,0.7828742861747742,-0.9577912092208862
1726226027961220900,3.579220947265625,-0.6717637181282043,0.6597422361373901,-0.9642994403839111
1726226027971216000,3.5892158203125,-0.7372466325759888,0.4850335419178009,-0.8929510116577148
1726226027981211000,3.5992109375,-0.8062557578086853,0.2138398438692093,-0.7560890316963196
1726226027991206000,3.609205810546875,-0.8390227556228638,-0.13084882497787476,-0.5841225981712341
1726226028001201000,3.619200927734375,-0.9421424865722656,-0.5114132165908813,-0.40940988063812256
1726226028011195000,3.62919482421875,-1.1848832368850708,-0.8976197838783264,-0.2351648509502411
1726226028021190000,3.63918994140625,-1.519222617149353,-1.1195961236953735,-0.10753072053194046
1726226028031185000,3.649184814453125,-1.8679760694503784,-1.297322154045105,-0.09215256571769714
1726226028041180000,3.659179931640625,-2.1510026454925537,-1.4277920722961426,-0.21772247552871704
1726226028051175000,3.6691748046875,-2.197880268096924,-1.4682451486587524,-0.38704386353492737
1726226028061170000,3.679169921875,-1.9324746131896973,-1.3607195615768433,-0.49570563435554504
1726226028071165000,3.6891650390625,-1.504288911819458,-1.207947850227356,-0.44717562198638916
1726226028081159000,3.699158935546875,-1.178138017654419,-0.9698018431663513,-0.32417115569114685
1726226028091154000,3.70915380859375,-0.9232162237167358,-0.6427083611488342,-0.2898927927017212
1726226028101149000,3.71914892578125,-0.7611088156700134,-0.3522440493106842,-0.3993780314922333
1726226028111144000,3.72914404296875,-0.790732204914093,-0.16210049390792847,-0.5573641657829285
1726226028121138700,3.739138671875,-0.9397328495979309,0.0015664712991565466,-0.6940783858299255
1726226028131133700,3.7491337890625,-1.1474405527114868,0.17582854628562927,-1.0028380155563354
1726226028141128700,3.759128662109375,-1.4485974311828613,0.27523529529571533,-1.754733681678772
1726226028151122700,3.769122802734375,-1.845166563987732,0.5528016686439514,-2.531275510787964
1726226028161117700,3.77911767578125,-2.070937395095825,0.8132274150848389,-3.0090444087982178
1726226028171112700,3.78911279296875,-1.9708441495895386,1.0617027282714844,-3.092691659927368
1726226028181108000,3.79910791015625,-1.9191974401474,1.2353339195251465,-3.0253076553344727
1726226028191103000,3.80910302734375,-1.9370917081832886,1.1245969533920288,-3.0375747680664062
1726226028201098000,3.819097900390625,-2.072056293487549,0.9634259343147278,-3.109128952026367
1726226028211093000,3.829093017578125,-2.2585551738739014,0.6611193418502808,-3.2234983444213867
1726226028221087000,3.8390869140625,-2.389983654022217,0.24292369186878204,-3.480888843536377
1726226028231082000,3.84908203125,-2.881110906600952,0.23892736434936523,-3.423905372619629
1726226028241077000,3.859076904296875,-2.8117802143096924,0.08155983686447144,-3.3433966636657715
1726226028251072000,3.869072021484375,-2.610366106033325,-0.027149328961968422,-3.060678243637085
1726226028261067000,3.87906689453125,-2.479623317718506,-0.34784239530563354,-2.5967588424682617
1726226028271062000,3.88906201171875,-2.1867730617523193,-0.4329226613044739,-2.0704357624053955
1726226028281056800,3.899056884765625,-1.927316665649414,-0.1989288181066513,-1.6843007802963257
1726226028291051000,3.909051025390625,-1.7345775365829468,0.07010558247566223,-1.396761178970337
1726226028301046000,3.9190458984375,-1.4745960235595703,0.3154168128967285,-1.0391247272491455
1726226028311040800,3.929040771484375,-1.180237054824829,0.6798690557479858,-0.6337004899978638
1726226028321035800,3.939035888671875,-0.9210662245750427,0.918339192867279,-0.2587279677391052
1726226028331030800,3.94903076171875,-0.7625862956047058,0.812919020652771,0.029872145503759384
1726226028341025800,3.95902587890625,-0.6295638084411621,0.6278407573699951,0.24904178082942963
1726226028351020800,3.969020751953125,-0.5332796573638916,0.5989952683448792,0.39656758308410645
1726226028361014800,3.979014892578125,-0.534684419631958,0.8688206076622009,0.5864962339401245
1726226028371009800,3.989009765625,-0.4990801215171814,1.03260338306427,0.5791773200035095
1726226028381004800,3.9990048828125,-0.5274808406829834,1.2417577505111694,0.42684587836265564
1726226028390999800,4.008999755859375,-0.5408129096031189,1.3091052770614624,0.2110895961523056
1726226028400994800,4.018994873046875,-0.5725969672203064,1.1981455087661743,0.0012708604335784912
1726226028410990000,4.028989990234375,-0.6389530897140503,0.962952196598053,-0.07106459140777588
1726226028420986000,4.038986083984375,-0.6578167676925659,0.7620880603790283,0.0696089044213295
1726226028430980000,4.04897998046875,-0.6623255014419556,0.621202826499939,0.30862361192703247
1726226028440975000,4.05897509765625,-0.6435954570770264,0.6012371182441711,0.5699918270111084
1726226028450970000,4.06897021484375,-0.5370098948478699,0.6089078187942505,0.8574030995368958
1726226028460965000,4.078965087890625,-0.3775225281715393,0.6819630861282349,1.0701465606689453
1726226028470960000,4.088960205078125,-0.2819336950778961,0.9105193018913269,1.2004725933074951
1726226028480955100,4.098955078125,-0.3042328655719757,1.159847617149353,1.246726632118225
1726226028490950100,4.1089501953125,-0.39413878321647644,1.1805577278137207,1.111507534980774
1726226028500945200,4.118945068359375,-0.4022800624370575,1.0361998081207275,0.865898072719574
1726226028510939100,4.128939208984375,-0.39199069142341614,1.0025317668914795,0.734030544757843
1726226028520934100,4.13893408203125,-0.3508658707141876,0.9223373532295227,0.6184842586517334
1726226028530929200,4.14892919921875,-0.35907426476478577,0.9497820138931274,0.5452470779418945
1726226028540924200,4.158924072265625,-0.36977672576904297,1.0539697408676147,0.4292546808719635
1726226028550919200,4.168919189453125,-0.4173157513141632,0.9833253622055054,0.21783778071403503
1726226028560914000,4.178913818359375,-0.4396972060203552,0.7167471647262573,0.11144956201314926
1726226028570909000,4.188908935546875,-0.46029889583587646,0.5142121911048889,0.26343563199043274
1726226028580903200,4.198903076171875,-0.5598912835121155,0.17351213097572327,0.4968201518058777
1726226028590898000,4.20889794921875,-0.7206301093101501,-0.10669821500778198,0.7546676993370056
1726226028600893200,4.21889306640625,-0.9985501170158386,-0.1901710033416748,0.8653110861778259
1726226028610888200,4.22888818359375,-1.3500572443008423,0.010232930071651936,0.8545921444892883
1726226028620883200,4.23888330078125,-1.583038091659546,0.26028671860694885,0.5356889963150024
1726226028630878200,4.248878173828125,-1.6305800676345825,0.15001346170902252,-0.19052547216415405
1726226028640873200,4.258873291015625,-1.5765771865844727,-0.1350632756948471,-1.4482430219650269
1726226028650867200,4.2688671875,-1.4952027797698975,-0.4267433285713196,-2.578486919403076
1726226028660862200,4.2788623046875,-1.4315409660339355,0.04681916907429695,-2.8339409828186035
1726226028670857200,4.288857177734375,-0.9957860112190247,0.11713141947984695,-2.8934988975524902
1726226028680852200,4.298852294921875,-0.7667733430862427,0.08210472017526627,-2.9666404724121094
1726226028690847200,4.30884716796875,-0.7206817269325256,0.6032842993736267,-2.8316824436187744
1726226028700842200,4.31884228515625,-0.70509934425354,1.0266193151474,-2.768162965774536
1726226028710837200,4.328837158203125,-0.8030107021331787,0.9847400188446045,-3.0083425045013428
1726226028720831200,4.338831298828125,-0.7327147126197815,1.0990862846374512,-2.9913837909698486
1726226028730826200,4.348826171875,-0.7044351100921631,1.7097227573394775,-2.8283891677856445
1726226028740821200,4.3588212890625,-0.8041974306106567,2.2028441429138184,-2.298121213912964
1726226028750816000,4.36881591796875,-0.7024156451225281,2.094172239303589,-1.4107389450073242
1726226028760811000,4.37881103515625,-0.5221982002258301,1.6869356632232666,-0.44093266129493713
1726226028770806000,4.388805908203125,-0.5841774344444275,1.116200566291809,-0.004013916477560997
1726226028780801000,4.398801025390625,-0.7966822385787964,0.8353638648986816,0.15576696395874023
1726226028790795000,4.408794921875,-0.7953056693077087,0.45762109756469727,0.25619930028915405
1726226028800790000,4.4187900390625,-0.7607607245445251,0.3786034882068634,0.26665112376213074
1726226028810785000,4.428784912109375,-0.7147303819656372,0.3533455431461334,0.24168026447296143
1726226028820780000,4.438780029296875,-0.6611198782920837,0.019934559240937233,0.2053837776184082
1726226028830775300,4.448775390625,-0.6972150206565857,-0.4367847740650177,0.17430947721004486
1726226028840770300,4.458770263671875,-0.7095811367034912,-0.7605530023574829,0.12965093553066254
1726226028850765300,4.468765380859375,-0.547304093837738,-1.34095299243927,0.03560752794146538
1726226028860759300,4.47875927734375,-0.6889568567276001,-2.132436990737915,0.06281144917011261
1726226028870754300,4.48875439453125,-0.8570342659950256,-2.2308645248413086,0.271070659160614
1726226028880749300,4.498749267578125,-0.9895036220550537,-2.681466579437256,0.6383037567138672
1726226028890744300,4.508744384765625,-1.1335904598236084,-3.0495810508728027,0.9239001274108887
1726226028900739000,4.518739013671875,-1.298819661140442,-3.889880895614624,1.2914341688156128
1726226028910734000,4.528734130859375,-1.2214457988739014,-4.74519681930542,2.2041380405426025
1726226028920729000,4.53872900390625,-1.3133485317230225,-5.543978214263916,3.25602650642395
1726226028930723000,4.54872314453125,-1.8411058187484741,-5.703880786895752,4.097491264343262
1726226028940718000,4.558718017578125,-2.1745340824127197,-5.3390607833862305,4.244957447052002
1726226028950713000,4.568713134765625,-2.0458593368530273,-5.040400981903076,3.64847731590271
1726226028960708000,4.5787080078125,-1.869150996208191,-4.847219467163086,2.4686474800109863
1726226028970703000,4.588703125,-1.6624170541763306,-4.184563636779785,1.4426213502883911
1726226028980698000,4.598697998046875,-1.3941932916641235,-3.69079852104187,1.1294559240341187
1726226028990693000,4.608693115234375,-1.2460272312164307,-3.333071231842041,1.2954845428466797
1726226029000687000,4.61868701171875,-1.2913721799850464,-3.1001176834106445,1.680403709411621
1726226029010682000,4.62868212890625,-1.4901955127716064,-3.3948163986206055,2.1511144638061523
1726226029020677000,4.638677001953125,-1.7404370307922363,-3.1741812229156494,2.5731587409973145
1726226029030672100,4.648672119140625,-1.738764762878418,-3.0447964668273926,2.699981689453125
1726226029040667100,4.658667236328125,-1.9706273078918457,-2.6589441299438477,1.2532292604446411
1726226029050662100,4.668662109375,-1.8835656642913818,-1.8000459671020508,1.22715163230896
1726226029060657200,4.6786572265625,-1.8859902620315552,-1.9580920934677124,0.9378249645233154
1726226029070651100,4.688651123046875,-1.4880039691925049,-1.6728821992874146,0.9955407381057739
1726226029080646100,4.698646240234375,-1.4553020000457764,-1.1367119550704956,1.196079134941101
1726226029090641200,4.70864111328125,-1.4909483194351196,-1.0515707731246948,1.205193281173706
1726226029100636200,4.71863623046875,-1.4527442455291748,-1.167098879814148,1.1229830980300903
1726226029110631200,4.728631103515625,-1.2383784055709839,-1.0381726026535034,1.0587303638458252
1726226029120626200,4.738626220703125,-0.8004586100578308,-0.9280114769935608,0.9779713153839111
1726226029130621200,4.74862109375,-0.29419752955436707,-0.8099554181098938,0.9263930916786194
1726226029140615200,4.758615234375,0.2269814908504486,-0.5009222030639648,0.9137459993362427
1726226029150610200,4.768610107421875,0.8204967379570007,-0.07185821235179901,0.894811749458313
1726226029160605200,4.778605224609375,1.411550521850586,0.2871886193752289,0.7564573287963867
1726226029170600200,4.78860009765625,2.218151569366455,1.019439935684204,0.7774030566215515
1726226029180595200,4.79859521484375,3.6130614280700684,1.4406614303588867,1.3143844604492188
1726226029190590200,4.808590087890625,4.237654209136963,1.560093641281128,1.0258266925811768
1726226029200585200,4.818585205078125,4.259564399719238,1.5886863470077515,0.15539784729480743
1726226029210579200,4.8285791015625,3.833766222000122,1.0569090843200684,-0.7637192010879517
1726226029220574200,4.83857421875,2.8243186473846436,0.4669259190559387,-1.114415168762207
1726226029230569200,4.8485693359375,1.583331823348999,0.2309647798538208,-0.9311585426330566
1726226029240564200,4.858564208984375,0.8015648722648621,0.3949529230594635,-0.6047897934913635
1726226029250559000,4.86855908203125,0.42699286341667175,0.5087098479270935,-0.23619017004966736
1726226029260554000,4.878553955078125,0.12569880485534668,0.9955745339393616,0.01956011913716793
1726226029270549000,4.888549072265625,0.04085475578904152,1.3615357875823975,0.022836074233055115
1726226029280543000,4.89854296875,-0.41780123114585876,1.1455472707748413,-0.044013265520334244
1726226029290538000,4.9085380859375,-1.146159291267395,0.9302863478660583,0.049796316772699356
1726226029300533000,4.918532958984375,-1.741882085800171,1.0028990507125854,0.16678845882415771
1726226029310528000,4.928528076171875,-2.0098888874053955,1.0702919960021973,0.1540934294462204
1726226029320523000,4.93852294921875,-2.18930983543396,0.8333824872970581,0.16377215087413788
1726226029330518300,4.948518310546875,-2.3976569175720215,0.4503863453865051,0.4025573134422302
1726226029340513300,4.95851318359375,-2.6186561584472656,-0.13808463513851166,0.8563585877418518
1726226029350507300,4.96850732421875,-2.635078191757202,-0.8759347200393677,1.372494101524353
1726226029360502300,4.978502197265625,-2.519629716873169,-1.4879746437072754,1.6048530340194702
1726226029370497300,4.988497314453125,-2.333876609802246,-1.9474858045578003,1.4728024005889893
1726226029380492300,4.9984921875,-2.0774343013763428,-2.206756353378296,1.1837502717971802
1726226029390487300,5.0084873046875,-1.6576886177062988,-2.3494577407836914,0.969460666179657
1726226029400482300,5.018482421875,-0.9638888239860535,-2.285259485244751,0.8377388715744019
1726226029410477000,5.02847705078125,-0.11059575527906418,-2.05551815032959,0.7824854850769043
1726226029420471300,5.03847119140625,0.8322386145591736,-1.6459773778915405,0.6738157272338867
1726226029430465000,5.048465087890625,1.977399230003357,-1.0245145559310913,0.35978612303733826
1726226029440460000,5.0584599609375,3.003546953201294,-0.33910349011421204,-0.0004546015989035368
1726226029450455000,5.068455078125,3.6811459064483643,0.5506463646888733,-0.2852517068386078
1726226029460450000,5.078449951171875,4.2433624267578125,1.1190698146820068,-0.6995381116867065
1726226029470444800,5.08844482421875,5.022276401519775,1.5750515460968018,-1.0960772037506104
1726226029480439800,5.098439697265625,6.38795280456543,2.0036070346832275,-1.387129545211792
1726226029490434000,5.10843408203125,8.13175106048584,2.161888837814331,-1.4722883701324463
1726226029500428800,5.1184287109375,9.593512535095215,2.5519442558288574,-1.0477325916290283
1726226029510423800,5.128423828125,10.337698936462402,4.263169288635254,-1.0072120428085327
1726226029520418800,5.138418701171875,10.521017074584961,4.734351634979248,-1.5928046703338623
1726226029530413800,5.148413818359375,10.401097297668457,5.002362251281738,-2.026414155960083
1726226029540408800,5.158408935546875,9.828031539916992,5.4836297035217285,-1.9614529609680176
1726226029550403800,5.16840380859375,9.179036140441895,5.482288360595703,-1.570695161819458
1726226029560397800,5.178397705078125,8.47578239440918,4.6906585693359375,-0.8228992223739624
1726226029570392800,5.188392822265625,7.539765357971191,3.4751830101013184,0.23481197655200958
1726226029580387800,5.198387939453125,6.196259021759033,2.5296878814697266,1.244705319404602
1726226029590382800,5.2083828125,4.577361583709717,1.8627245426177979,1.9900721311569214
1726226029600377900,5.2183779296875,3.3615639209747314,1.1558030843734741,2.386828899383545
1726226029610372900,5.228372802734375,2.427285671234131,0.6150466799736023,2.383044958114624
1726226029620366800,5.238366943359375,1.7221498489379883,0.25616654753685,1.96378493309021
1726226029630361900,5.24836181640625,1.1098212003707886,-0.3775635361671448,1.1578619480133057
1726226029640356900,5.25835693359375,0.6414327025413513,-0.5650884509086609,0.14578436315059662
1726226029650352000,5.26835205078125,0.38737887144088745,-0.6724580526351929,-0.8662235140800476
1726226029660347000,5.278346923828125,0.2663339376449585,-0.9807442426681519,-1.7473050355911255
1726226029670342000,5.288341796875,0.4452648162841797,-1.805832028388977,-2.4970908164978027
1726226029680337000,5.2983369140625,1.1911264657974243,-2.5785841941833496,-2.983314275741577
1726226029690331000,5.308330810546875,1.9112548828125,-2.904247760772705,-3.183142900466919
1726226029700326000,5.318325927734375,2.4130566120147705,-3.6850273609161377,-3.2813096046447754
1726226029710321000,5.32832080078125,3.053121328353882,-4.667001247406006,-3.2510838508605957
1726226029720316000,5.33831591796875,3.7335634231567383,-4.426033973693848,-3.0450754165649414
1726226029730311000,5.348310791015625,3.917897939682007,-2.597107410430908,-2.2910211086273193
1726226029740306000,5.358305908203125,3.5495548248291016,-0.9624661207199097,-1.0061590671539307
1726226029750301000,5.368301025390625,2.542604923248291,0.2870674431324005,0.5567641854286194
1726226029760295000,5.378294921875,1.3663076162338257,1.2659927606582642,1.8489291667938232
1726226029770290000,5.3882900390625,0.810308575630188,1.8193845748901367,2.4901483058929443
1726226029780285000,5.398284912109375,0.9421811103820801,2.0504283905029297,2.7436745166778564
1726226029790280000,5.408280029296875,1.3469823598861694,2.1374399662017822,2.723641872406006
1726226029800275000,5.41827490234375,1.806282877922058,2.3679916858673096,2.4952690601348877
1726226029810270000,5.42827001953125,1.5706242322921753,0.3372310400009155,1.024066686630249
1726226029820264000,5.438263916015625,1.3473901748657227,0.2076064497232437,0.5378493666648865
1726226029830259000,5.448259033203125,1.3777093887329102,0.6985354423522949,0.8048879504203796
1726226029840254000,5.45825390625,1.1163196563720703,0.8966980576515198,1.1012682914733887
1726226029850248700,5.468248779296875,1.1631853580474854,0.8135424256324768,1.1756585836410522
1726226029860243700,5.47824365234375,1.2380236387252808,0.6663178205490112,1.022800087928772
1726226029870238700,5.48823876953125,1.4815998077392578,0.7301551699638367,0.31895989179611206
1726226029880234000,5.49823388671875,1.5670335292816162,0.7526655197143555,0.04668920859694481
1726226029890227700,5.508227783203125,1.2858061790466309,-2.1221611499786377,1.4902971982955933
1726226029900222700,5.51822265625,1.4261512756347656,-2.5293428897857666,1.3020069599151611
1726226029910218000,5.528218017578125,1.1203404664993286,-1.9536243677139282,1.0931378602981567
1726226029920213000,5.538212890625,0.27665823698043823,-1.484573245048523,0.9795327186584473
1726226029930208000,5.5482080078125,-0.43200066685676575,-1.562023639678955,0.8448154330253601
1726226029940203000,5.558203125,-0.7661845088005066,-2.017573833465576,0.4830976724624634
1726226029950198000,5.568197998046875,-0.7624598145484924,-2.6065804958343506,0.12055864185094833
1726226029960192000,5.57819189453125,-0.5206157565116882,-2.9077539443969727,-0.18683619797229767
1726226029970187000,5.58818701171875,-0.19782014191150665,-2.88033127784729,-0.38031885027885437
1726226029980182000,5.59818212890625,0.05973789840936661,-2.566126585006714,-0.4560335874557495
1726226029990177000,5.608177001953125,0.24773868918418884,-2.2305965423583984,-0.421662300825119
1726226030000171800,5.618171875,0.3871921896934509,-2.409644603729248,-0.2931320071220398
1726226030010166800,5.628166748046875,-0.15454962849617004,-3.4868624210357666,0.16911259293556213
1726226030020161800,5.638161865234375,-0.5933600068092346,-4.502926826477051,0.5718390345573425
1726226030030155800,5.64815576171875,-0.6909496784210205,-5.1106038093566895,1.0258831977844238
1726226030040150800,5.65815087890625,-0.4784030616283417,-5.583531856536865,1.5964875221252441
1726226030050145800,5.668145751953125,-0.09332755208015442,-6.028642654418945,2.3681161403656006
1726226030060140800,5.678140869140625,0.3783009648323059,-6.284217357635498,3.126676082611084
1726226030070135800,5.6881357421875,0.8173568844795227,-6.222246170043945,3.867968797683716
1726226030080130800,5.698130859375,1.1683268547058105,-6.051208972930908,4.564321994781494
1726226030090124800,5.708124755859375,1.1859378814697266,-6.342374324798584,5.204239845275879
1726226030100119800,5.718119873046875,0.9208803772926331,-6.4900617599487305,5.55947208404541
1726226030110114800,5.72811474609375,0.5869185924530029,-4.993321418762207,4.718836784362793
1726226030120109800,5.73810986328125,0.3216291666030884,-3.1356441974639893,3.497434377670288
1726226030130104800,5.748104736328125,0.2462792843580246,-0.8895607590675354,2.139023542404175
1726226030140100000,5.75810009765625,0.30216971039772034,1.5382721424102783,0.9173452854156494
1726226030150095000,5.76809521484375,0.43822181224823,2.9025094509124756,0.1098889485001564
1726226030160088800,5.7780888671875,0.544251561164856,3.430036783218384,-0.5671944618225098
1726226030170084000,5.788083984375,0.6543266773223877,3.6838390827178955,-1.0308971405029297
1726226030180079000,5.7980791015625,0.7254565358161926,3.996994972229004,-1.3636572360992432
1726226030190073900,5.808073974609375,0.7532522082328796,4.462124824523926,-1.6661734580993652
1726226030200068900,5.81806884765625,0.7922736406326294,4.808615207672119,-2.04813289642334
1726226030210064000,5.82806396484375,0.9606362581253052,4.7839555740356445,-2.4654457569122314
1726226030220057900,5.838057861328125,1.283200740814209,4.805624961853027,-2.6530380249023438
1726226030230052900,5.848052978515625,1.5155370235443115,5.254817485809326,-2.716214179992676
1726226030240047900,5.8580478515625,1.6254297494888306,5.877819061279297,-2.6620144844055176
1726226030250043000,5.86804296875,1.819891333580017,6.509127616882324,-2.5231614112854004
1726226030260038000,5.878037841796875,2.0706729888916016,7.153137683868408,-2.2603325843811035
1726226030270033000,5.888032958984375,2.276472330093384,7.56555700302124,-1.8274285793304443
1726226030280028000,5.89802783203125,2.444108247756958,7.176510810852051,-1.1870936155319214
1726226030290022000,5.90802197265625,2.565031051635742,5.3623270988464355,-0.2869228422641754
1726226030300017000,5.918016845703125,2.7480616569519043,2.8463361263275146,0.552754282951355
1726226030310012000,5.928011962890625,2.764998435974121,0.44368821382522583,1.2326067686080933
1726226030320007000,5.9380068359375,2.784630298614502,-1.4273483753204346,1.578865647315979
1726226030330002000,5.948001953125,2.752629518508911,-2.321998119354248,1.4985029697418213
1726226030339997000,5.957996826171875,2.585806369781494,-2.1335973739624023,0.9923031330108643
1726226030349991700,5.96799169921875,2.2976577281951904,-1.4255051612854004,0.2987092137336731
1726226030359986000,5.97798583984375,2.0129313468933105,-0.6260130405426025,-0.43402335047721863
1726226030369981000,5.98798095703125,1.826764702796936,-0.18004299700260162,-0.9687767624855042
1726226030379975700,5.9979755859375,1.8808252811431885,-0.3776412904262543,-1.1554044485092163
1726226030389970700,6.007970703125,1.9999042749404907,-0.9950717687606812,-1.0328329801559448
1726226030399966000,6.017966064453125,2.0783655643463135,-1.698994755744934,-0.7442144751548767
1726226030409961000,6.0279609375,2.101771593093872,-2.25837779045105,-0.4015066921710968
1726226030419954700,6.03795458984375,1.9977144002914429,-2.578862428665161,-0.07692993432283401
1726226030429950200,6.0479501953125,1.7892181873321533,-2.4680697917938232,0.21537703275680542
1726226030439945200,6.0579453125,1.5140150785446167,-1.9757001399993896,0.44730931520462036
1726226030449940200,6.067940185546875,1.19877290725708,-1.2502936124801636,0.669101357460022
1726226030459935200,6.077935302734375,0.8682847619056702,-0.5617994070053101,0.8436079621315002
1726226030469930200,6.08793017578125,0.5469017028808594,-0.08288928866386414,1.0256541967391968
1726226030479925200,6.09792529296875,0.2712506651878357,0.12632225453853607,1.1786376237869263
1726226030489919200,6.107919189453125,0.054369233548641205,0.20833829045295715,1.2317993640899658
1726226030499914200,6.117914306640625,-0.045762427151203156,0.24285472929477692,1.201215386390686
1726226030509909200,6.1279091796875,-0.009339706040918827,0.2177933156490326,1.1349966526031494
1726226030519904300,6.137904296875,0.08827340602874756,0.11372443288564682,1.0480934381484985
1726226030529899000,6.14789892578125,0.1692979484796524,-0.05706221982836723,0.9668318629264832
1726226030539894000,6.15789404296875,0.21070344746112823,-0.2578059732913971,0.8723658323287964
1726226030549888300,6.16788818359375,0.19582302868366241,-0.45003214478492737,0.7816236615180969
1726226030559883000,6.177883056640625,0.15449769794940948,-0.6136269569396973,0.6729150414466858
1726226030569878000,6.1878779296875,0.10583028942346573,-0.7462030649185181,0.5403732061386108
1726226030579873000,6.197873046875,0.06611031293869019,-0.8554808497428894,0.4034574627876282
1726226030589868000,6.207867919921875,0.040103211998939514,-0.9653109312057495,0.27635088562965393
1726226030599863000,6.217863037109375,-0.006854443810880184,-1.0511603355407715,0.186830073595047
1726226030609858000,6.227858154296875,-0.0735357329249382,-1.1530743837356567,0.10220759361982346
1726226030619852000,6.23785205078125,-0.09866452217102051,-1.212206482887268,0.015193600207567215
1726226030629847000,6.247846923828125,-0.047325968742370605,-1.02385675907135,-0.07323959469795227
1726226030639842000,6.257842041015625,0.13993819057941437,-0.2615719437599182,-0.1129305437207222
1726226030649837300,6.26783740234375,0.3324272036552429,1.0391279458999634,-0.14142636954784393
1726226030659832300,6.277832275390625,0.4154517948627472,1.9705266952514648,-0.1685493290424347
1726226030669827300,6.287827392578125,0.35819676518440247,1.7664268016815186,-0.18069760501384735
1726226030679821300,6.2978212890625,0.21816349029541016,0.7603309154510498,-0.20581121742725372
1726226030689816300,6.30781640625,0.09530813992023468,-0.2810218036174774,-0.27109968662261963
1726226030699811300,6.317811279296875,0.05174868181347847,-0.7354044914245605,-0.4254823327064514
1726226030709806000,6.32780615234375,0.048659149557352066,-0.8759269714355469,-0.5534112453460693
1726226030719801000,6.337801025390625,-0.007019826211035252,-0.9179309010505676,-0.6419352889060974
1726226030729796000,6.347796142578125,-0.059794358909130096,-0.9018642902374268,-0.7129761576652527
1726226030739791000,6.357791015625,-0.0816250890493393,-0.8949244022369385,-0.7804414629936218
1726226030749785000,6.36778515625,-0.07986793667078018,-0.9133135080337524,-0.8466079831123352
1726226030759780000,6.377780029296875,-0.061582937836647034,-0.9390226006507874,-0.8993740081787109
1726226030769775000,6.387775146484375,-0.05783427134156227,-0.9597273468971252,-0.9278517365455627
1726226030779770000,6.39777001953125,-0.06786000728607178,-0.9346664547920227,-0.9298349618911743
1726226030789765000,6.40776513671875,-0.09136506915092468,-0.8627914786338806,-0.8979185819625854
1726226030799760100,6.417760009765625,-0.1362539827823639,-0.7676718831062317,-0.8175390362739563
1726226030809754000,6.427754150390625,-0.19222989678382874,-0.6385509371757507,-0.6869128346443176
1726226030819749000,6.4377490234375,-0.2407124787569046,-0.4750509560108185,-0.5227793455123901
1726226030829744000,6.447744140625,-0.264875590801239,-0.3301781713962555,-0.3717450499534607
1726226030839739100,6.4577392578125,-0.2664862871170044,-0.265025794506073,-0.2673267722129822
1726226030849734100,6.467734130859375,-0.269466370344162,-0.253521203994751,-0.20213712751865387
1726226030859729200,6.477729248046875,-0.2741319537162781,-0.27369147539138794,-0.15226517617702484
1726226030869724200,6.48772412109375,-0.294271320104599,-0.27533969283103943,-0.11534523218870163
1726226030879718100,6.49771826171875,-0.32576611638069153,-0.22567041218280792,-0.09920674562454224
1726226030889713200,6.507713134765625,-0.37470781803131104,-0.13083285093307495,-0.11365945637226105
1726226030899708200,6.517708251953125,-0.42874282598495483,-0.057196445763111115,-0.1378082036972046
1726226030909703200,6.527703125,-0.4630312919616699,-0.02605503611266613,-0.1628730744123459
1726226030919698200,6.5376982421875,-0.4529256820678711,-0.060088638216257095,-0.1556686908006668
1726226030929693200,6.547693115234375,-0.4219733476638794,-0.1373642534017563,-0.09599576890468597
1726226030939688200,6.557688232421875,-0.4192292094230652,-0.2260800004005432,-0.021219801157712936
1726226030949682200,6.56768212890625,-0.4349903464317322,-0.28718435764312744,0.03821662813425064
1726226030959677200,6.57767724609375,-0.4616160988807678,-0.34157225489616394,0.05690322816371918
1726226030969672200,6.587672119140625,-0.47960174083709717,-0.4219091534614563,0.0618164949119091
1726226030979667200,6.597667236328125,-0.5131059288978577,-0.4988012909889221,0.04697283357381821
1726226030989662200,6.607662109375,-0.546256959438324,-0.5452321767807007,-0.00495161535218358
1726226030999657200,6.6176572265625,-0.553589940071106,-0.5634487271308899,-0.09467963874340057
1726226031009651200,6.627651123046875,-0.5408147573471069,-0.581750214099884,-0.19800442457199097
1726226031019646200,6.637646240234375,-0.5332298278808594,-0.6017388701438904,-0.2946161925792694
1726226031029641200,6.64764111328125,-0.5270267724990845,-0.6028587222099304,-0.36094167828559875
1726226031039636200,6.65763623046875,-0.5172324776649475,-0.5737157464027405,-0.39677077531814575
1726226031049631200,6.66763134765625,-0.4827038049697876,-0.5510386228561401,-0.405901163816452
1726226031059626000,6.6776259765625,-0.4425657093524933,-0.5617661476135254,-0.39128467440605164
1726226031069620200,6.6876201171875,-0.4311407506465912,-0.5714911818504333,-0.35083603858947754
1726226031079615200,6.697615234375,-0.4437665343284607,-0.5551436543464661,-0.2987360954284668
1726226031089610000,6.70760986328125,-0.4597793221473694,-0.5323818922042847,-0.25113874673843384
1726226031099605000,6.71760498046875,-0.4637404978275299,-0.5259553790092468,-0.21085791289806366
1726226031109600000,6.72760009765625,-0.4477636516094208,-0.5216323137283325,-0.18785032629966736
1726226031119595000,6.737594970703125,-0.43040013313293457,-0.4683704078197479,-0.16808781027793884
1726226031129590000,6.747590087890625,-0.4178318679332733,-0.3732795715332031,-0.14301307499408722
1726226031139584000,6.757583984375,-0.38242965936660767,-0.2647344470024109,-0.10646412521600723
1726226031149579000,6.7675791015625,-0.3251895308494568,-0.15949085354804993,-0.06933220475912094
1726226031159574000,6.777573974609375,-0.27818819880485535,-0.03351348638534546,-0.036186233162879944
1726226031169569300,6.7875693359375,-0.22772051393985748,0.10372959077358246,-0.005471197888255119
1726226031179564300,6.797564208984375,-0.1750543713569641,0.2391500025987625,0.033425066620111465
1726226031189559300,6.807559326171875,-0.13397298753261566,0.34881123900413513,0.07863941788673401
1726226031199553300,6.81755322265625,-0.1106301099061966,0.4092716574668884,0.1240077018737793
1726226031209548300,6.82754833984375,-0.09677580744028091,0.41171005368232727,0.15678668022155762
1726226031219543300,6.837543212890625,-0.08855969458818436,0.3499436378479004,0.15640345215797424
1726226031229538300,6.847538330078125,-0.08664647489786148,0.24862472712993622,0.12321354448795319
1726226031239533300,6.857533203125,-0.09643518924713135,0.13615970313549042,0.05991686135530472
1726226031249528000,6.867528076171875,-0.11135102808475494,0.022423550486564636,-0.0314660482108593
1726226031259523000,6.877523193359375,-0.1264418214559555,-0.08720148354768753,-0.13394182920455933
1726226031269517000,6.88751708984375,-0.14488501846790314,-0.16817782819271088,-0.23961205780506134
1726226031279512000,6.897511962890625,-0.1567011922597885,-0.22159656882286072,-0.3388473093509674
1726226031289507000,6.907507080078125,-0.1662081480026245,-0.25748878717422485,-0.41716527938842773
1726226031299502000,6.917502197265625,-0.17598247528076172,-0.27710190415382385,-0.4640651345252991
1726226031309497000,6.9274970703125,-0.18511979281902313,-0.2969597578048706,-0.4493652880191803
1726226031319492000,6.9374921875,-0.18873050808906555,-0.29935288429260254,-0.37830761075019836
1726226031329486000,6.947486083984375,-0.18392136693000793,-0.2501184940338135,-0.2831752598285675
1726226031339481000,6.957481201171875,-0.16953442990779877,-0.15551263093948364,-0.18105393648147583
1726226031349476000,6.96747607421875,-0.15122254192829132,-0.0566779263317585,-0.08810456097126007
1726226031359471000,6.97747119140625,-0.12321993708610535,0.09727142751216888,-0.010719222947955132
1726226031369466000,6.987466064453125,-0.0840887799859047,0.25318726897239685,0.05968170613050461
1726226031379461000,6.997461181640625,-0.038000911474227905,0.3692187964916229,0.12052508443593979
1726226031389455000,7.007455078125,0.006419549696147442,0.43418365716934204,0.1615857034921646
1726226031399450000,7.0174501953125,0.02822498045861721,0.4564674198627472,0.1811029464006424
1726226031409445000,7.027445068359375,0.02822498045861721,0.4359394907951355,0.17272862792015076
1726226031419440000,7.037440185546875,0.018808308988809586,0.40866100788116455,0.12565086781978607
1726226031429435100,7.04743505859375,0.012655873782932758,0.35797119140625,0.06531669199466705
1726226031439430100,7.05743017578125,0.006010488141328096,0.28600406646728516,-0.00008788431296125054
1726226031449425200,7.067425048828125,0.002417883835732937,0.2321602702140808,-0.05367015302181244
1726226031459419100,7.077419189453125,0.0006854976527392864,0.1834758222103119,-0.09088996052742004
1726226031469414100,7.0874140625,-0.019595805555582047,0.10507874935865402,-0.11799082159996033
1726226031479409200,7.0974091796875,-0.044326718896627426,0.0016173376934602857,-0.15146195888519287
1726226031489404200,7.107404052734375,-0.05955760180950165,-0.11352496594190598,-0.19197049736976624
1726226031499399200,7.117399169921875,-0.06491748243570328,-0.22561101615428925,-0.2394765019416809
1726226031509394200,7.127394287109375,-0.06569219380617142,-0.31129157543182373,-0.29681915044784546
1726226031519388200,7.13738818359375,-0.07400871068239212,-0.34800484776496887,-0.3493148386478424
1726226031529383200,7.147383056640625,-0.08265785872936249,-0.3529961407184601,-0.38397881388664246
1726226031539378200,7.157378173828125,-0.10386274755001068,-0.3238009810447693,-0.38983646035194397
1726226031549373200,7.167373291015625,-0.12919500470161438,-0.2657051682472229,-0.38791337609291077
1726226031559368200,7.1773681640625,-0.17590951919555664,-0.23605939745903015,-0.34731534123420715
1726226031569363200,7.18736328125,-0.22937273979187012,-0.22507040202617645,-0.2703169882297516
1726226031579357200,7.197357177734375,-0.2777743637561798,-0.21834245324134827,-0.19267171621322632
1726226031589352200,7.207352294921875,-0.321209192276001,-0.19585178792476654,-0.1340496838092804
1726226031599347200,7.21734716796875,-0.35332396626472473,-0.1416362226009369,-0.09251262247562408
1726226031609342200,7.22734228515625,-0.36525386571884155,-0.07074767351150513,-0.0732707530260086
1726226031619337000,7.2373369140625,-0.34576326608657837,0.014316887594759464,-0.05174228921532631
1726226031629332000,7.24733203125,-0.3075450360774994,0.11587147414684296,-0.014996792189776897
1726226031639326200,7.257326171875,-0.26270565390586853,0.2407263219356537,0.05433008447289467
1726226031649321000,7.267321044921875,-0.24240891635417938,0.37556004524230957,0.15449289977550507
1726226031659316000,7.27731591796875,-0.23062574863433838,0.4631154537200928,0.28065961599349976
1726226031669311000,7.28731103515625,-0.2225385308265686,0.48964694142341614,0.40094316005706787
1726226031679306000,7.297305908203125,-0.21992890536785126,0.4912336468696594,0.4983504116535187
1726226031689301200,7.30730126953125,-0.2273133099079132,0.5001280903816223,0.5557125210762024
1726226031699296300,7.317296142578125,-0.22796845436096191,0.532427966594696,0.5702038407325745
1726226031709290000,7.3272900390625,-0.20597153902053833,0.5675126910209656,0.5525212287902832
1726226031719285200,7.33728515625,-0.18748387694358826,0.595720112323761,0.5136116743087769
1726226031729280300,7.3472802734375,-0.08724568784236908,0.548272967338562,0.45833107829093933
1726226031739275300,7.357275146484375,0.020964404568076134,0.5189001560211182,0.3848544657230377
1726226031749270300,7.367270263671875,0.07581886649131775,0.5343489050865173,0.27129942178726196
1726226031759265300,7.377265380859375,0.09916333854198456,0.535650908946991,0.12405430525541306
1726226031769259300,7.38725927734375,0.02804761379957199,0.5096533894538879,-0.029708361253142357
1726226031779254300,7.397254150390625,-0.042449723929166794,0.374224454164505,-0.17054110765457153
1726226031789249300,7.407249267578125,-0.03952636942267418,0.1413954794406891,-0.2705012559890747
1726226031799244300,7.417244384765625,-0.011333081871271133,-0.10096336901187897,-0.33713966608047485
1726226031809239000,7.427239013671875,-0.006740993354469538,-0.29302921891212463,-0.3815326988697052
1726226031819234000,7.437234130859375,-0.005841644015163183,-0.4524122178554535,-0.44362059235572815
1726226031829228300,7.447228271484375,-0.02027198113501072,-0.5959318280220032,-0.5357571840286255
1726226031839223000,7.45722314453125,-0.03628210723400116,-0.7516838908195496,-0.639880895614624
1726226031849218000,7.467218017578125,-0.03645041957497597,-0.9134615659713745,-0.7347403168678284
1726226031859213000,7.477213134765625,-0.029677733778953552,-1.054399847984314,-0.794774055480957
1726226031869208000,7.4872080078125,-0.021878400817513466,-1.175460696220398,-0.8150742650032043
1726226031879203000,7.497203125,-0.0022234732750803232,-1.252416968345642,-0.8175883293151855
1726226031889197000,7.507197021484375,0.024413730949163437,-1.2672697305679321,-0.8328207731246948
1726226031899192000,7.517192138671875,0.04995930194854736,-1.2628326416015625,-0.8548656702041626
1726226031909187000,7.52718701171875,0.058998603373765945,-1.241491436958313,-0.8819212317466736
1726226031919182000,7.53718212890625,0.04417145624756813,-1.206155776977539,-0.9016741514205933
1726226031929177000,7.547177001953125,0.0033926009200513363,-1.172325849533081,-0.8959978818893433
1726226031939172000,7.557172119140625,-0.04405613988637924,-1.1476186513900757,-0.8447679877281189
1726226031949167400,7.56716748046875,-0.08706992119550705,-1.137350082397461,-0.7487645149230957
1726226031959161000,7.5771611328125,-0.11477984488010406,-1.1514397859573364,-0.6202483773231506
1726226031969156000,7.587156005859375,-0.09473023563623428,-1.1774284839630127,-0.5039861798286438
1726226031979151400,7.5971513671875,-0.07357382029294968,-1.1580768823623657,-0.3571075201034546
1726226031989146000,7.60714599609375,-0.04296717420220375,-1.037147879600525,-0.21557649970054626
1726226031999141000,7.61714111328125,-0.02552160434424877,-0.8641917705535889,-0.05266028270125389
1726226032009136000,7.62713623046875,-0.0015504923649132252,-0.6918527483940125,0.1168145015835762
1726226032019130000,7.637130126953125,0.05062083154916763,-0.5065162181854248,0.2824966609477997
1726226032029125000,7.647125,0.1052747592329979,-0.41344669461250305,0.38453409075737
1726226032039120100,7.6571201171875,0.1583195924758911,-0.3534510135650635,0.4499541223049164
1726226032049115100,7.667115234375,0.18392854928970337,-0.28235766291618347,0.4727292060852051
1726226032059110100,7.677110107421875,0.18411897122859955,-0.1838902086019516,0.4558095932006836
1726226032069105200,7.687105224609375,0.14471083879470825,-0.11490102112293243,0.3948511779308319
1726226032079099100,7.69709912109375,0.09924935549497604,-0.12309742718935013,0.31637313961982727
1726226032089094100,7.70709423828125,0.07103316485881805,-0.19292524456977844,0.2545739710330963
1726226032099089200,7.717089111328125,0.0648500993847847,-0.2869260311126709,0.21387819945812225
1726226032109084200,7.727084228515625,0.07933157682418823,-0.37409743666648865,0.19388797879219055
1726226032119079200,7.7370791015625,0.10842501372098923,-0.38471996784210205,0.18460100889205933
1726226032129074200,7.74707421875,0.15098685026168823,-0.3023023307323456,0.15484043955802917
1726226032139068200,7.757068115234375,0.21471630036830902,-0.2053299844264984,0.11772423982620239
1726226032149063200,7.767063232421875,0.28664854168891907,-0.10532082617282867,0.10940185934305191
1726226032159058200,7.77705810546875,0.349307656288147,0.02448164112865925,0.13942500948905945
1726226032169053200,7.78705322265625,0.4138674736022949,0.20393209159374237,0.19960898160934448
1726226032179048000,7.7970478515625,0.4761122167110443,0.44157740473747253,0.2811451256275177
1726226032189043000,7.80704296875,0.4813232123851776,0.7161807417869568,0.33046847581863403
1726226032199038000,7.817037841796875,0.4534183442592621,1.0268869400024414,0.3132271468639374
1726226032209032000,7.827031982421875,0.4414232075214386,1.268839955329895,0.2561047375202179
1726226032219027000,7.83702685546875,0.4604693353176117,1.3652268648147583,0.17968347668647766
1726226032229022000,7.84702197265625,0.4912501573562622,1.3416531085968018,0.1146104708313942
1726226032239017200,7.857017333984375,0.5084840059280396,1.2561010122299194,0.05735357105731964
1726226032249012200,7.86701220703125,0.4841642677783966,1.1294183731079102,-0.014088122174143791
1726226032259007200,7.87700732421875,0.3913664221763611,1.0071089267730713,-0.18393655121326447
1726226032269001200,7.887001220703125,0.28015363216400146,0.8550094366073608,-0.4397187829017639
1726226032278996200,7.896996337890625,0.18332241475582123,0.6287808418273926,-0.7096447944641113
1726226032288991200,7.9069912109375,0.15041959285736084,0.3582058250904083,-0.9086977243423462
1726226032298986200,7.916986328125,0.22359420359134674,0.06263647973537445,-0.9531463980674744
1726226032308981200,7.926981201171875,0.316319078207016,-0.11532898992300034,-0.8342714309692383
1726226032318976300,7.936976318359375,0.3592849373817444,-0.08405575156211853,-0.6472562551498413
1726226032328970200,7.94697021484375,0.3629414439201355,0.17535264790058136,-0.45529189705848694
1726226032338965200,7.95696533203125,0.37796515226364136,0.5438795685768127,-0.2910883128643036
1726226032348960300,7.966960205078125,0.4015713930130005,0.8532611131668091,-0.1437116265296936
1726226032358955300,7.976955322265625,0.4320043921470642,0.9891246557235718,0.025193503126502037
1726226032368950000,7.986949951171875,0.47179603576660156,0.9464746713638306,0.1959761679172516
1726226032378945000,7.996945068359375,0.49487125873565674,0.9035466313362122,0.3377636671066284
1726226032388939300,8.006939208984376,0.5074754357337952,0.9285068511962891,0.4167082607746124
1726226032398934000,8.01693408203125,0.531978964805603,0.9684563875198364,0.44329833984375
1726226032408929000,8.026928955078125,0.557015597820282,0.9948999881744385,0.4326675236225128
1726226032418924000,8.036924072265625,0.5804522037506104,1.0192103385925293,0.3888356387615204
1726226032428918800,8.046918701171874,0.600805401802063,1.0335203409194946,0.31735959649086
1726226032438913800,8.056913818359375,0.6118370294570923,0.9886319637298584,0.25405412912368774
1726226032448907800,8.06690771484375,0.5920228362083435,0.8496061563491821,0.21651659905910492
1726226032458902800,8.07690283203125,0.5728818774223328,0.6452288031578064,0.1979255974292755
1726226032468897800,8.086897705078124,0.5565276741981506,0.4288219213485718,0.18522311747074127
1726226032478892800,8.096892822265625,0.5375697016716003,0.26111307740211487,0.1434948444366455
1726226032488887800,8.1068876953125,0.5031654238700867,0.19269035756587982,0.04049549624323845
1726226032498882800,8.1168828125,0.4556242525577545,0.2087920904159546,-0.12252777814865112
1726226032508876800,8.126876708984375,0.43103262782096863,0.21087175607681274,-0.28349828720092773
1726226032518871800,8.136871826171875,0.43381908535957336,0.1706439107656479,-0.4076937437057495
1726226032528866800,8.14686669921875,0.4306944012641907,0.1292751580476761,-0.4607606828212738
1726226032538861800,8.15686181640625,0.418905109167099,0.07614776492118835,-0.44112494587898254
1726226032548856800,8.16685693359375,0.39047348499298096,0.005249623209238052,-0.3806767761707306
1726226032558851800,8.176851806640625,0.3515940010547638,-0.053653374314308167,-0.30897247791290283
1726226032568845800,8.186845703125,0.3044179379940033,-0.07398101687431335,-0.2399156540632248
1726226032578840800,8.1968408203125,0.2718528211116791,-0.04409315809607506,-0.18297621607780457
1726226032588835800,8.2068359375,0.26352617144584656,0.0314500667154789,-0.12746047973632812
1726226032598830600,8.21683056640625,0.2525009512901306,0.0962303951382637,-0.051919125020504
1726226032608825900,8.226825927734374,0.22772397100925446,0.12904374301433563,0.06595158576965332
1726226032618820900,8.23682080078125,0.22114090621471405,0.15015274286270142,0.19325201213359833
1726226032628816000,8.24681591796875,0.2488875836133957,0.1823974996805191,0.30843478441238403
1726226032638809900,8.256809814453124,0.2954212725162506,0.2627352178096771,0.39820730686187744
1726226032648804900,8.266804931640625,0.3260534703731537,0.3956410586833954,0.46335089206695557
1726226032658799900,8.2767998046875,0.33206743001937866,0.5571743249893188,0.5154268741607666
1726226032668795000,8.286794921875,0.333385169506073,0.6855725049972534,0.5443029999732971
1726226032678790000,8.296789794921875,0.37397679686546326,0.7555009722709656,0.5707417726516724
1726226032688785000,8.306784912109375,0.38475674390792847,0.7693139910697937,0.5984671711921692
1726226032698779000,8.31677880859375,0.4211088716983795,0.7449854612350464,0.6099291443824768
1726226032708774000,8.32677392578125,0.4602357745170593,0.6566036939620972,0.572939932346344
1726226032718769000,8.336768798828125,0.42930927872657776,0.6089376211166382,0.47490713000297546
1726226032728764000,8.346763916015625,0.3243445158004761,0.5957848429679871,0.32811155915260315
1726226032738759000,8.356759033203126,0.21876776218414307,0.5931270122528076,0.1764962077140808
1726226032748753700,8.366753662109375,0.17430922389030457,0.5551777482032776,0.06924618035554886
1726226032758748000,8.376747802734375,0.17568421363830566,0.426374226808548,-0.0026546388398855925
1726226032768743000,8.386742919921875,0.14441204071044922,0.303955614566803,-0.07401110976934433
1726226032778737700,8.396737548828124,0.12957477569580078,0.25987523794174194,-0.15305612981319427
1726226032788732700,8.406732666015625,0.1340922862291336,0.2729068994522095,-0.2267761528491974
1726226032798727700,8.416727783203125,0.14913488924503326,0.30596843361854553,-0.2716304361820221
1726226032808722700,8.42672265625,0.14956951141357422,0.315569132566452,-0.2585410177707672
1726226032818716700,8.436716552734374,0.16357028484344482,0.3025207221508026,-0.1553400605916977
1726226032828711700,8.446711669921875,0.16826704144477844,0.28566211462020874,0.024480042979121208
1726226032838706700,8.456706787109376,0.15316984057426453,0.2872392237186432,0.21222783625125885
1726226032848701700,8.46670166015625,0.1733992099761963,0.3618625998497009,0.34701067209243774
1726226032858696700,8.47669677734375,0.20596595108509064,0.466645747423172,0.4408956468105316
1726226032868692000,8.48669189453125,0.25047534704208374,0.550672709941864,0.5126582384109497
1726226032878685700,8.496685791015626,0.27576208114624023,0.5983931422233582,0.560225784778595
1726226032888680700,8.5066806640625,0.30121657252311707,0.6288407444953918,0.5873119831085205
1726226032898676000,8.516676025390625,0.32267338037490845,0.654008686542511,0.5901343822479248
1726226032908671000,8.5266708984375,0.3117493689060211,0.6774501204490662,0.5807174444198608
1726226032918666000,8.536666015625,0.31036800146102905,0.7090003490447998,0.5670173764228821
1726226032928661000,8.546660888671875,0.3125278055667877,0.702039361000061,0.5336865782737732
1726226032938655000,8.556655029296875,0.3635478615760803,0.6632913947105408,0.4822358787059784
1726226032948650000,8.56664990234375,0.3758133053779602,0.6362483501434326,0.40764421224594116
1726226032958645000,8.57664501953125,0.3382651209831238,0.6114748120307922,0.31683972477912903
1726226032968639700,8.5866396484375,0.24892592430114746,0.649443507194519,0.20185215771198273
1726226032978634800,8.596634765625,0.19855996966362,0.7106884717941284,0.07248058915138245
1726226032988629800,8.606629638671874,0.19210632145404816,0.7068197131156921,-0.025317341089248657
1726226032998623700,8.616623779296875,0.18334399163722992,0.6644757390022278,-0.07574429363012314
1726226033008618800,8.62661865234375,0.16714026033878326,0.6260641813278198,-0.08182722330093384
1726226033018613800,8.63661376953125,0.14566318690776825,0.6272000074386597,-0.06357178837060928
1726226033028608800,8.64660888671875,0.12974761426448822,0.6672723293304443,-0.03134780377149582
1726226033038603800,8.656603759765625,0.1281028389930725,0.6917853951454163,0.034084733575582504
1726226033048598800,8.666598876953126,0.16293911635875702,0.7051469683647156,0.12312379479408264
1726226033058592800,8.6765927734375,0.2026289999485016,0.7493882179260254,0.2127535492181778
1726226033068587800,8.686587890625,0.2227340042591095,0.84639573097229,0.27195295691490173
1726226033078582800,8.696582763671875,0.23882801830768585,0.95660400390625,0.29061904549598694
1726226033088577800,8.706577880859374,0.2550085783004761,1.0284496545791626,0.27445846796035767
1726226033098572800,8.71657275390625,0.2715500295162201,1.022446632385254,0.2570139467716217
1726226033108567800,8.72656787109375,0.2989289164543152,0.9403680562973022,0.23318079113960266
1726226033118561800,8.736561767578126,0.31564292311668396,0.8085229396820068,0.2100086212158203
1726226033128556800,8.746556884765624,0.2909919023513794,0.7242698073387146,0.2050684690475464
1726226033138551800,8.7565517578125,0.24570271372795105,0.7596712112426758,0.1687735766172409
1726226033148546800,8.766546875,0.16956453025341034,0.8309749364852905,0.12600693106651306
1726226033158541800,8.776541748046874,0.077361099421978,0.8952271938323975,0.07634910196065903
1726226033168536800,8.786536865234375,0.00621049152687192,0.8840221762657166,0.02088131383061409
1726226033178530800,8.79653076171875,-0.015663914382457733,0.760779619216919,-0.025983663275837898
1726226033188525800,8.80652587890625,0.0027869981713593006,0.5957339406013489,-0.0571620874106884
1726226033198520800,8.816520751953124,0.04591582715511322,0.4343416094779968,-0.07531845569610596
1726226033208515800,8.826515869140625,0.09081512689590454,0.36102691292762756,-0.10083793103694916
1726226033218510800,8.8365107421875,0.10146963596343994,0.35787904262542725,-0.11965130269527435
1726226033228505900,8.846505859375,0.07884501665830612,0.40201321244239807,-0.1179058626294136
1726226033238499800,8.856499755859375,0.04990604147315025,0.4609591066837311,-0.10124752670526505
1726226033248494800,8.866494873046875,0.03263464197516441,0.503069281578064,-0.07575095444917679
1726226033258489900,8.87648974609375,0.0460420586168766,0.5227939486503601,-0.04687003791332245
1726226033268484900,8.88648486328125,0.0657326728105545,0.5338034629821777,-0.0031878037843853235
1726226033278480000,8.89647998046875,0.06461521238088608,0.5714525580406189,0.059548281133174896
1726226033288475000,8.906474853515626,0.034561704844236374,0.6288617849349976,0.1183231845498085
1726226033298470000,8.916469970703124,-0.0005004079430364072,0.6658334136009216,0.15744581818580627
1726226033308463900,8.9264638671875,-0.008107461035251617,0.6657521724700928,0.1706274002790451
1726226033318459000,8.936458984375,0.00028762139845639467,0.6500637531280518,0.17298217117786407
1726226033328454000,8.946453857421876,0.03453720360994339,0.6683098673820496,0.22087165713310242
1726226033338448600,8.95644873046875,0.06773164123296738,0.7510231137275696,0.31994950771331787
1726226033348443600,8.966443603515625,0.11157899349927902,0.8340016603469849,0.4438019394874573
1726226033358438700,8.976438720703126,0.1252298206090927,0.8147014379501343,0.5450108647346497
1726226033368432600,8.9864326171875,0.11119629442691803,0.6677042841911316,0.5937701463699341
1726226033378427600,8.996427734375,0.07382947951555252,0.4740581214427948,0.5941195487976074
1726226033388422700,9.006422607421875,0.042151715606451035,0.31738486886024475,0.5475395321846008
1726226033398417700,9.016417724609376,0.009088835678994656,0.2197323590517044,0.4654710292816162
1726226033408412700,9.02641259765625,0.0035001926589757204,0.22169403731822968,0.3810858428478241
1726226033418408000,9.036407958984375,-0.018746523186564445,0.29015007615089417,0.30437320470809937
1726226033428402000,9.04640185546875,-0.06793084740638733,0.37786874175071716,0.262744277715683
1726226033438397000,9.05639697265625,-0.10182196646928787,0.3962477445602417,0.25588369369506836
1726226033448392000,9.066391845703125,-0.10002779960632324,0.3064185082912445,0.29626548290252686
1726226033458387000,9.076386962890625,-0.08163867145776749,0.16649124026298523,0.36139893531799316
1726226033468382200,9.08638232421875,-0.07081425189971924,0.09593931585550308,0.4175248146057129
1726226033478377200,9.096377197265625,-0.06636038422584534,0.12141138315200806,0.4506497383117676
1726226033488371200,9.10637109375,-0.03909200802445412,0.13199585676193237,0.4495072364807129
1726226033498366200,9.1163662109375,0.009396963752806187,0.14242824912071228,0.433470219373703
1726226033508361200,9.126361328125,0.03942969813942909,0.16749845445156097,0.41834157705307007
1726226033518356000,9.13635595703125,0.05366189777851105,0.26459383964538574,0.4353567957878113
1726226033528351000,9.14635107421875,0.06120023876428604,0.35995709896087646,0.5095894932746887
1726226033538346000,9.156345947265624,0.0745629146695137,0.37224361300468445,0.5862382054328918
1726226033548340000,9.166340087890624,0.08393032103776932,0.31093737483024597,0.6460932493209839
1726226033558335000,9.1763349609375,0.0641733929514885,0.20099009573459625,0.6796650886535645
1726226033568330000,9.186330078125,0.03681740164756775,0.0978298932313919,0.6872708201408386
1726226033578325000,9.196324951171874,-0.027818314731121063,0.04760853201150894,0.6703938245773315
1726226033588320000,9.206320068359375,-0.05907317250967026,0.07741622626781464,0.6525554060935974
1726226033598315000,9.21631494140625,-0.053170811384916306,0.20177173614501953,0.6580532789230347
1726226033608309000,9.22630908203125,-0.027244137600064278,0.3428438901901245,0.6981668472290039
1726226033618304000,9.236303955078125,-0.0019020296167582273,0.3973798453807831,0.7428647875785828
1726226033628299000,9.246299072265625,-0.006614226847887039,0.32069653272628784,0.7545358538627625
1726226033638294000,9.2562939453125,-0.04403430223464966,0.19807526469230652,0.7518585920333862
1726226033648289000,9.2662890625,-0.08963081985712051,0.13617435097694397,0.7161394357681274
1726226033658284000,9.276283935546875,-0.11612580716609955,0.07196234166622162,0.6358196139335632
1726226033668278000,9.286278076171875,-0.12348731607198715,0.004880775231868029,0.5374067425727844
1726226033678273000,9.29627294921875,-0.1016821563243866,-0.05459373816847801,0.47164130210876465
1726226033688268000,9.30626806640625,-0.0647217407822609,-0.09183324873447418,0.47182080149650574
1726226033698263000,9.316262939453125,-0.013342970050871372,-0.0999460369348526,0.49295830726623535
1726226033708257800,9.3262578125,0.036069054156541824,-0.07919389009475708,0.5048500895500183
1726226033718253000,9.336253173828124,0.08509625494480133,-0.026995131745934486,0.4935942590236664
1726226033728247000,9.3462470703125,0.13506567478179932,0.013166667893528938,0.4580429196357727
1726226033738241800,9.35624169921875,0.16055399179458618,0.016450878232717514,0.3949422538280487
1726226033748237000,9.366237060546876,0.18433095514774323,0.007524495478719473,0.29694005846977234
1726226033758232000,9.376232177734375,0.19282084703445435,-0.04033437371253967,0.18047817051410675
1726226033768227000,9.38622705078125,0.190229594707489,-0.12652331590652466,0.07641381770372391
1726226033778222000,9.39622216796875,0.17258454859256744,-0.24409762024879456,-0.010852381587028503
1726226033788216000,9.406216064453124,0.15755952894687653,-0.36488768458366394,-0.09132751822471619
1726226033798211000,9.416211181640625,0.13381372392177582,-0.46326911449432373,-0.1795324832201004
1726226033808206000,9.4262060546875,0.11425413936376572,-0.5277266502380371,-0.28156590461730957
1726226033818201000,9.436201171875,0.09614916890859604,-0.5986413359642029,-0.3849292993545532
1726226033828196000,9.446196044921875,0.06763444095849991,-0.667144775390625,-0.4733758270740509
1726226033838191000,9.456191162109375,0.03260960802435875,-0.7516886591911316,-0.5431972146034241
1726226033848185000,9.46618505859375,0.011531753465533257,-0.8571921586990356,-0.587653636932373
1726226033858180000,9.47618017578125,-0.03568316251039505,-0.9807796478271484,-0.6235698461532593
1726226033868175000,9.486175048828125,-0.0881064236164093,-1.1079570055007935,-0.6546092629432678
1726226033878170000,9.496170166015625,-0.13152606785297394,-1.194570541381836,-0.6465175151824951
1726226033888165000,9.5061650390625,-0.17258642613887787,-1.2513298988342285,-0.5754625201225281
1726226033898159900,9.516159912109375,-0.19498546421527863,-1.2532657384872437,-0.45797714591026306
1726226033908154000,9.526154052734375,-0.19458545744419098,-1.2174004316329956,-0.3310146629810333
1726226033918149000,9.536149169921876,-0.1848052740097046,-1.1687242984771729,-0.21902422606945038
1726226033928144000,9.546143798828124,-0.1719813495874405,-1.101341962814331,-0.10750462114810944
1726226033938139000,9.556138916015625,-0.1655610054731369,-1.0291005373001099,-0.015509983524680138
1726226033948134000,9.5661337890625,-0.16879035532474518,-0.9815197587013245,0.04996036738157272
1726226033958129000,9.57612890625,-0.14629702270030975,-0.9122362732887268,0.0692610964179039
1726226033968123000,9.586122802734375,-0.12017860263586044,-0.7858604788780212,0.04893478751182556
1726226033978118000,9.596117919921875,-0.0836578756570816,-0.6556265950202942,0.010765562765300274
1726226033988113000,9.60611279296875,-0.06569618731737137,-0.5781664252281189,0.017350494861602783
1726226033998108000,9.61610791015625,-0.07392003387212753,-0.5388001203536987,0.053948719054460526
1726226034008103200,9.626103271484375,-0.10140305012464523,-0.5174044966697693,0.09796863794326782
1726226034018098200,9.63609814453125,-0.07158949971199036,-0.5350357294082642,0.12358532100915909
1726226034028092000,9.646091796875,-0.028499817475676537,-0.5591660737991333,0.13353675603866577
1726226034038087200,9.656087158203125,-0.018220283091068268,-0.55745929479599,0.1360427886247635
1726226034048082200,9.666082275390625,-0.03321494534611702,-0.5337275862693787,0.13539937138557434
1726226034058077200,9.6760771484375,-0.03567463904619217,-0.48006248474121094,0.12015090882778168
1726226034068072200,9.686072265625,-0.006525010801851749,-0.4260876476764679,0.10655626654624939
1726226034078067000,9.69606689453125,0.028437234461307526,-0.3322301506996155,0.07444200664758682
1726226034088061200,9.706061279296875,0.05041736736893654,-0.21748492121696472,0.03554707393050194
1726226034098056200,9.71605615234375,0.07198098301887512,-0.11985369771718979,-0.018372882157564163
1726226034108051000,9.726051025390625,0.0926886573433876,-0.06149185821413994,-0.08244746923446655
1726226034118046000,9.7360458984375,0.10213249176740646,-0.07633604854345322,-0.13243047893047333
1726226034128041000,9.746041015625,0.13405127823352814,-0.11732156574726105,-0.17761527001857758
1726226034138036000,9.756035888671875,0.15216024219989777,-0.16864120960235596,-0.21952995657920837
1726226034148030000,9.766030029296875,0.13981541991233826,-0.21821436285972595,-0.2579047679901123
1726226034158025000,9.77602490234375,0.11486799269914627,-0.26423725485801697,-0.3003675639629364
1726226034168020000,9.78602001953125,0.09957319498062134,-0.32067176699638367,-0.33089083433151245
1726226034178015000,9.796014892578125,0.07825113087892532,-0.4017602205276489,-0.3294985294342041
1726226034188010000,9.806010009765625,0.0638388991355896,-0.4745025932788849,-0.30781933665275574
1726226034198005000,9.8160048828125,0.05403846874833107,-0.5254611372947693,-0.2838658094406128
1726226034207999000,9.8259990234375,0.042634811252355576,-0.5511483550071716,-0.26332059502601624
1726226034217994000,9.835993896484375,0.029796510934829712,-0.5624330043792725,-0.24307070672512054
1726226034227989000,9.845989013671876,0.008642756380140781,-0.5749980211257935,-0.20442503690719604
1726226034237984000,9.85598388671875,-0.022170549258589745,-0.5719847083091736,-0.17391347885131836
1726226034247979000,9.86597900390625,-0.05777381733059883,-0.5113764405250549,-0.1828284114599228
1726226034257974000,9.87597412109375,-0.09924695640802383,-0.43086057901382446,-0.22800253331661224
1726226034267969000,9.885968994140624,-0.14636093378067017,-0.3985021114349365,-0.26113706827163696
1726226034277963000,9.895962890625,-0.18304412066936493,-0.42221835255622864,-0.2514687180519104
1726226034287958000,9.9059580078125,-0.21073514223098755,-0.4460155665874481,-0.20551933348178864
1726226034297953000,9.915953125,-0.22962121665477753,-0.44348421692848206,-0.16144615411758423
1726226034307948000,9.925947998046874,-0.25328418612480164,-0.41016116738319397,-0.12302712351083755
1726226034317943000,9.935943115234375,-0.28577208518981934,-0.3651542663574219,-0.08848938345909119
1726226034327937000,9.94593701171875,-0.3160136342048645,-0.33310365676879883,-0.05143309757113457
1726226034337932000,9.95593212890625,-0.3445565700531006,-0.3068065345287323,-0.010147709399461746
1726226034347927000,9.965927001953125,-0.3599448502063751,-0.27898716926574707,0.009647301398217678
1726226034357922000,9.975922119140625,-0.38835573196411133,-0.2316340208053589,0.002142513170838356
1726226034367917000,9.9859169921875,-0.4228689670562744,-0.18212638795375824,-0.03831196948885918
1726226034377912000,9.995912109375,-0.4494033753871918,-0.14788693189620972,-0.08575298637151718
1726226034387906000,10.005906005859375,-0.4701661765575409,-0.11133318394422531,-0.13097026944160461
1726226034397901000,10.015901123046875,-0.47673138976097107,-0.08970937877893448,-0.1728559285402298
1726226034407896000,10.02589599609375,-0.48073652386665344,-0.07742128521203995,-0.20673933625221252
1726226034417891000,10.03589111328125,-0.47788479924201965,-0.07244597375392914,-0.22225970029830933
1726226034427885600,10.045885498046875,-0.46869930624961853,-0.07798294723033905,-0.2389446645975113
1726226034437880600,10.055880615234376,-0.4570746123790741,-0.06109211593866348,-0.25436118245124817
1726226034447874600,10.06587451171875,-0.4445606768131256,-0.04940190538764,-0.24541296064853668
1726226034457869600,10.07586962890625,-0.4535568356513977,-0.040595363825559616,-0.17987549304962158
1726226034467864600,10.085864501953125,-0.4769231379032135,-0.00016005597717594355,-0.09568578004837036
1726226034477859600,10.095859619140626,-0.4905153810977936,0.07166566699743271,-0.030101176351308823
1726226034487854600,10.1058544921875,-0.4769066274166107,0.10994461178779602,0.004063983913511038
1726226034497849300,10.115849365234375,-0.43848785758018494,0.1169966608285904,0.023186279460787773
1726226034507843600,10.125843505859375,-0.39502426981925964,0.1278786063194275,0.06813670694828033
1726226034517838600,10.135838623046874,-0.3599959909915924,0.16134868562221527,0.13380946218967438
1726226034527833300,10.145833251953125,-0.3347199261188507,0.20298559963703156,0.2005663812160492
1726226034537828400,10.155828369140625,-0.31646928191185,0.2394794374704361,0.2577655017375946
1726226034547823400,10.1658232421875,-0.3006855249404907,0.2632502615451813,0.30336281657218933
1726226034557818400,10.175818359375,-0.2972759008407593,0.2810510993003845,0.3348182141780853
1726226034567812400,10.185812255859375,-0.313964307308197,0.3236513137817383,0.3363388776779175
1726226034577807400,10.195807373046875,-0.33415454626083374,0.3899933099746704,0.31038424372673035
1726226034587802400,10.20580224609375,-0.34367960691452026,0.43026456236839294,0.2635543942451477
1726226034597797600,10.215797607421875,-0.3478836715221405,0.40138497948646545,0.18637174367904663
1726226034607792600,10.225792724609375,-0.3487507998943329,0.3185998201370239,0.09674385190010071
1726226034617787600,10.23578759765625,-0.33963799476623535,0.22025807201862335,-0.020785439759492874
1726226034627781600,10.24578173828125,-0.3311036229133606,0.12474645674228668,-0.1744418442249298
1726226034637776600,10.255776611328125,-0.32526010274887085,0.07654484361410141,-0.3442106246948242
1726226034647771600,10.265771728515626,-0.32096365094184875,0.024863537400960922,-0.5153363347053528
1726226034657766700,10.2757666015625,-0.3003891110420227,-0.06267189979553223,-0.6483095288276672
1726226034667761700,10.28576171875,-0.2574211359024048,-0.14634282886981964,-0.7325075268745422
1726226034677756700,10.295756591796875,-0.2132750004529953,-0.19202803075313568,-0.7579864859580994
1726226034687750700,10.305750732421876,-0.15575018525123596,-0.23344071209430695,-0.7461397051811218
1726226034697745700,10.31574560546875,-0.10562735795974731,-0.25561872124671936,-0.7075225114822388
1726226034707740700,10.32574072265625,-0.07338819652795792,-0.27450212836265564,-0.6561093926429749
1726226034717735400,10.3357353515625,-0.055623579770326614,-0.27402037382125854,-0.6000759601593018
1726226034727730400,10.34573046875,-0.06335952877998352,-0.2524205446243286,-0.5353209376335144
1726226034737725400,10.355725341796875,-0.06276218593120575,-0.1939324587583542,-0.46278122067451477
1726226034747719400,10.365719482421875,-0.04291311278939247,-0.08128819614648819,-0.39248761534690857
1726226034757714400,10.37571435546875,-0.013627927750349045,0.03748665377497673,-0.3591341972351074
1726226034767709400,10.38570947265625,0.040886446833610535,0.11307089775800705,-0.357820987701416
1726226034777704400,10.395704345703125,0.08603181689977646,0.14884833991527557,-0.3815186023712158
1726226034787699500,10.405699462890626,0.10822793841362,0.1822129487991333,-0.4153825640678406
1726226034797694500,10.415694580078124,0.11313986778259277,0.2123602032661438,-0.4560663402080536
1726226034807688400,10.4256884765625,0.11271163076162338,0.1715531200170517,-0.48675981163978577
1726226034817683500,10.435683349609375,0.13158732652664185,0.017475929111242294,-0.4642142653465271
1726226034827678500,10.445678466796876,0.15416745841503143,-0.18925194442272186,-0.39554786682128906
1726226034837673500,10.455673583984375,0.15341033041477203,-0.3327223062515259,-0.30927157402038574
1726226034847668500,10.46566845703125,0.12505139410495758,-0.39634788036346436,-0.22061066329479218
1726226034857663700,10.475663818359376,0.08625739067792892,-0.47024020552635193,-0.1481388658285141
1726226034867657500,10.485657470703124,0.042093656957149506,-0.5053145885467529,-0.12824106216430664
1726226034877652500,10.495652587890625,0.0018495653057470918,-0.46892327070236206,-0.16683772206306458
1726226034887647700,10.505647705078125,-0.03238696977496147,-0.40106168389320374,-0.25210919976234436
1726226034897642500,10.515642578125,-0.053407564759254456,-0.35750141739845276,-0.3388691246509552
1726226034907637500,10.525637451171875,-0.06430042535066605,-0.36296993494033813,-0.40399062633514404
1726226034917632500,10.535632568359375,-0.07584549486637115,-0.42448949813842773,-0.44057658314704895
1726226034927626500,10.54562646484375,-0.07150108367204666,-0.5213800668716431,-0.4566466212272644
1726226034937621500,10.55562158203125,-0.07860586047172546,-0.6384867429733276,-0.4344230890274048
1726226034947616500,10.565616455078125,-0.12645727396011353,-0.7546913623809814,-0.3824882507324219
1726226034957611500,10.575611572265625,-0.166152223944664,-0.8728265166282654,-0.3209223747253418
1726226034967606500,10.5856064453125,-0.1844625174999237,-1.004722237586975,-0.24964098632335663
1726226034977601500,10.5956015625,-0.18143610656261444,-1.1020938158035278,-0.1847165822982788
1726226034987595500,10.605595458984375,-0.17114032804965973,-1.1313360929489136,-0.13313861191272736
1726226034997590500,10.615590576171876,-0.1674278825521469,-1.0892925262451172,-0.09663466364145279
1726226035007585500,10.62558544921875,-0.15929298102855682,-0.996949315071106,-0.06475742161273956
1726226035017580500,10.63558056640625,-0.13781139254570007,-0.8509252071380615,-0.035045869648456573
1726226035027575600,10.645575439453125,-0.09362928569316864,-0.677457869052887,0.014260162599384785
1726226035037570600,10.655570556640624,-0.029798908159136772,-0.520488440990448,0.0807928517460823
1726226035047564500,10.665564453125,0.056343432515859604,-0.3762167692184448,0.15288995206356049
1726226035057559600,10.6755595703125,0.14288951456546783,-0.22782810032367706,0.21221691370010376
1726226035067554600,10.685554443359376,0.19354122877120972,-0.11227007955312729,0.24782311916351318
1726226035077549600,10.695549560546874,0.22407810389995575,-0.09409800171852112,0.28297364711761475
1726226035087544300,10.70554443359375,0.21857096254825592,-0.19843479990959167,0.338842511177063
1726226035097539300,10.715539306640625,0.15704287588596344,-0.37453553080558777,0.39243781566619873
1726226035107533600,10.725533447265626,0.06493745744228363,-0.5110270380973816,0.38680151104927063
1726226035117528300,10.7355283203125,-0.05066637322306633,-0.596762478351593,0.2886248826980591
1726226035127523300,10.7455234375,-0.1470155417919159,-0.6890271306037903,0.13047678768634796
1726226035137518300,10.755518310546876,-0.17368444800376892,-0.7680327296257019,-0.04119563847780228
1726226035147513600,10.765513671875,-0.17700833082199097,-0.7915610074996948,-0.1893206536769867
1726226035157508600,10.775508544921875,-0.16093535721302032,-0.7400085926055908,-0.2841438353061676
1726226035167502300,10.78550244140625,-0.13908864557743073,-0.6474908590316772,-0.33676496148109436
1726226035177497600,10.79549755859375,-0.11311696469783783,-0.5470114350318909,-0.35378363728523254
1726226035187492600,10.80549267578125,-0.059370383620262146,-0.414490669965744,-0.3319593071937561
1726226035197487600,10.815487548828125,0.01008192915469408,-0.24134418368339539,-0.27725476026535034
1726226035207482600,10.825482666015626,0.07270988821983337,-0.0823577269911766,-0.17351213097572327
1726226035217477600,10.8354775390625,0.14580833911895752,0.02424009144306183,-0.060316868126392365
1726226035227471600,10.8454716796875,0.23149527609348297,0.13034576177597046,0.0517558716237545
1726226035237466600,10.855466552734375,0.31367430090904236,0.2851342558860779,0.14618463814258575
1726226035247461600,10.865461669921874,0.36864566802978516,0.495265930891037,0.19762200117111206
1726226035257456600,10.87545654296875,0.4182787537574768,0.6986997723579407,0.20776277780532837
1726226035267451600,10.88545166015625,0.47384825348854065,0.8915411233901978,0.20003534853458405
1726226035277446400,10.8954462890625,0.5206460952758789,1.0282081365585327,0.20915454626083374
1726226035287440600,10.905440673828124,0.5554762482643127,1.0910395383834839,0.23518721759319305
1726226035297435600,10.915435546875,0.5656285285949707,1.1033918857574463,0.2840607464313507
1726226035307430400,10.925430419921875,0.5071526765823364,1.0909383296966553,0.31410840153694153
1726226035317425400,10.93542529296875,0.46866628527641296,1.0418387651443481,0.27405285835266113
1726226035327420400,10.94542041015625,0.47875460982322693,0.9503428936004639,0.18201135098934174
1726226035337415400,10.95541552734375,0.47748294472694397,0.8246811032295227,0.06702563911676407
1726226035347409400,10.965409423828126,0.44853758811950684,0.6770359873771667,-0.041734661906957626
1726226035357404400,10.975404296875,0.4166227877140045,0.5545526742935181,-0.12003985792398453
1726226035367399400,10.9853994140625,0.3713538348674774,0.5020138621330261,-0.17884618043899536
1726226035377394400,10.99539453125,0.3364672362804413,0.4942789673805237,-0.2448158711194992
1726226035387389400,11.005389404296874,0.31427085399627686,0.49070021510124207,-0.3176458775997162
1726226035397384400,11.015384521484375,0.31037330627441406,0.43457940220832825,-0.34603092074394226
1726226035407378400,11.02537841796875,0.3051769435405731,0.33104345202445984,-0.30902308225631714
1726226035417373400,11.03537353515625,0.27401238679885864,0.25764724612236023,-0.2520815134048462
1726226035427368400,11.045368408203124,0.24114736914634705,0.233789324760437,-0.19664329290390015
1726226035437363500,11.055363525390625,0.23010510206222534,0.27012497186660767,-0.16754105687141418
1726226035447358500,11.0653583984375,0.22119656205177307,0.33874770998954773,-0.16650934517383575
1726226035457353500,11.075353515625,0.2374194711446762,0.3961867690086365,-0.14403626322746277
1726226035467347500,11.085347412109375,0.27217933535575867,0.4265694320201874,-0.0535106286406517
1726226035477342500,11.095342529296875,0.3042171597480774,0.4805873930454254,0.08969633281230927
1726226035487337500,11.10533740234375,0.32002222537994385,0.5806074738502502,0.24946922063827515
1726226035497332200,11.115332275390625,0.3185412287712097,0.7116014361381531,0.37583062052726746
1726226035507327200,11.1253271484375,0.33074331283569336,0.8460825681686401,0.4490305185317993
1726226035517322200,11.135322265625,0.3671300709247589,0.9777319431304932,0.49699246883392334
1726226035527316200,11.145316162109374,0.38564223051071167,1.112915277481079,0.5340122580528259
1726226035537311200,11.155311279296875,0.40537625551223755,1.1951560974121094,0.5744499564170837
1726226035547306200,11.16530615234375,0.40572646260261536,1.208998203277588,0.6086108684539795
1726226035557301200,11.17530126953125,0.3782136142253876,1.1559288501739502,0.6072790026664734
1726226035567296500,11.185296630859375,0.32893526554107666,1.0773054361343384,0.5529742240905762
1726226035577291500,11.19529150390625,0.2788896858692169,1.0054399967193604,0.45800378918647766
1726226035587285200,11.20528515625,0.2330913096666336,0.9211472272872925,0.35178014636039734
1726226035597280500,11.215280517578124,0.21688570082187653,0.8713969588279724,0.24140116572380066
1726226035607275500,11.225275634765625,0.22643154859542847,0.8489728569984436,0.14274410903453827
1726226035617270500,11.2352705078125,0.22871999442577362,0.8371308445930481,0.08557295799255371
1726226035627265500,11.245265625,0.22680838406085968,0.8461546897888184,0.07423614710569382
1726226035637260500,11.255260498046875,0.2142619639635086,0.881148636341095,0.09529189765453339
1726226035647254500,11.265254638671875,0.19762173295021057,0.8976303935050964,0.11613033711910248
1726226035657249500,11.27524951171875,0.18125741183757782,0.9270802140235901,0.11760599166154861
1726226035667244500,11.28524462890625,0.17599312961101532,0.9251714944839478,0.09964882582426071
1726226035677239300,11.2952392578125,0.18140627443790436,0.8840696215629578,0.08337558060884476
1726226035687234300,11.305234375,0.19487707316875458,0.8228592276573181,0.062370434403419495
1726226035697229300,11.315229248046874,0.1956786960363388,0.7804263234138489,0.038115162402391434
1726226035707223300,11.325223388671875,0.1618349701166153,0.7329895496368408,0.013708354905247688
1726226035717218300,11.33521826171875,0.11701876670122147,0.6358065605163574,0.0014455638593062758
1726226035727213300,11.34521337890625,0.06852500140666962,0.47382616996765137,0.023153256624937057
1726226035737208300,11.355208251953124,0.019590744748711586,0.3506333827972412,0.03283970430493355
1726226035747203300,11.365203369140625,-0.02594398334622383,0.2737191617488861,0.012222045101225376
1726226035757198300,11.3751982421875,-0.07239110767841339,0.21697412431240082,-0.03599528595805168
1726226035767192300,11.3851923828125,-0.10267364978790283,0.19366906583309174,-0.09140688180923462
1726226035777187300,11.395187255859375,-0.11822198331356049,0.17616784572601318,-0.12580826878547668
1726226035787182300,11.405182373046875,-0.107807956635952,0.20301276445388794,-0.12331288307905197
1726226035797177300,11.41517724609375,-0.06842752546072006,0.2960231304168701,-0.08907768130302429
1726226035807172400,11.42517236328125,-0.0473795011639595,0.4284384250640869,-0.030774956569075584
1726226035817166300,11.435166259765625,-0.04758349806070328,0.5887801647186279,0.035959064960479736
1726226035827161300,11.445161376953125,-0.05438094958662987,0.7376471757888794,0.1310323178768158
1726226035837156400,11.45515625,-0.03796203061938286,0.8428305387496948,0.2522737979888916
1726226035847151400,11.4651513671875,0.0027300063520669937,0.8987135291099548,0.3978230059146881
1726226035857146600,11.475146728515625,0.0557096004486084,0.9749829769134521,0.5295679569244385
1726226035867141400,11.485141357421876,0.10248962044715881,1.066809058189392,0.6362848281860352
1726226035877136400,11.495136474609374,0.14877483248710632,1.149763584136963,0.7127646803855896
1726226035887130600,11.505130615234375,0.17608261108398438,1.2181823253631592,0.7393169403076172
1726226035897125400,11.51512548828125,0.20257094502449036,1.23231041431427,0.7266629338264465
1726226035907120400,11.525120361328124,0.2198476791381836,1.184476613998413,0.7043142318725586
1726226035917115400,11.535115478515625,0.2218642234802246,1.0885188579559326,0.6618341207504272
1726226035927110400,11.5451103515625,0.19929127395153046,0.9826657176017761,0.5840352177619934
1726226035937105400,11.55510546875,0.16185414791107178,0.8365678787231445,0.48357731103897095
1726226035947099400,11.565099365234374,0.12610387802124023,0.664164125919342,0.37740135192871094
1726226035957094400,11.575094482421875,0.08670373260974884,0.4936818778514862,0.2832394242286682
1726226035967089400,11.58508935546875,0.03233317285776138,0.37124812602996826,0.19026288390159607
1726226035977084400,11.59508447265625,-0.030223682522773743,0.2901758849620819,0.09897451847791672
1726226035987079400,11.605079345703125,-0.08929871767759323,0.23750177025794983,0.0105354655534029
1726226035997074400,11.615074462890625,-0.14508315920829773,0.17397871613502502,-0.03951838240027428
1726226036007068400,11.625068359375,-0.18465134501457214,0.12250647693872452,-0.031647939234972
1726226036017063400,11.6350634765625,-0.1978829801082611,0.12097223103046417,0.003581685246899724
1726226036027058400,11.645058349609375,-0.20971034467220306,0.09554196894168854,0.036315396428108215
1726226036037053400,11.655053466796875,-0.2258634865283966,0.04548466205596924,0.04276290908455849
1726226036047048400,11.66504833984375,-0.2495027780532837,0.03201332688331604,0.03598649799823761
1726226036057043200,11.675043212890625,-0.26834702491760254,0.03827787935733795,0.02123178541660309
1726226036067037400,11.685037353515625,-0.2688937783241272,0.007032875902950764,-0.018279938027262688
1726226036077032400,11.695032470703126,-0.23307320475578308,-0.07404892891645432,-0.0767509713768959
1726226036087027200,11.705027099609374,-0.17211183905601501,-0.147397980093956,-0.12821149826049805
1726226036097022200,11.715022216796875,-0.10796455293893814,-0.19819004833698273,-0.14046896994113922
1726226036107017200,11.725017333984376,-0.06840009987354279,-0.1932022124528885,-0.07917684316635132
1726226036117012500,11.735012451171874,-0.03621526062488556,-0.101952463388443,0.05398840084671974
1726226036127006200,11.745006103515625,-0.014135260134935379,0.04429875314235687,0.2132534235715866
1726226036137001200,11.755001220703125,0.03549514338374138,0.16726382076740265,0.33697375655174255
1726226036146996500,11.76499658203125,0.10603642463684082,0.2524378299713135,0.4251773953437805
1726226036156991500,11.774991455078125,0.1640094369649887,0.32130664587020874,0.5107895135879517
1726226036166986500,11.784986572265625,0.21186858415603638,0.36140987277030945,0.5963848233222961
1726226036176981500,11.7949814453125,0.26327264308929443,0.4241379499435425,0.6648514866828918
1726226036186975500,11.8049755859375,0.30777859687805176,0.521974503993988,0.7167381644248962
1726226036196970500,11.814970458984375,0.34515711665153503,0.6125339865684509,0.7704713940620422
1726226036206965500,11.824965576171875,0.3803231120109558,0.6416889429092407,0.8181102871894836
1726226036216960500,11.83496044921875,0.4378766715526581,0.5507659316062927,0.8422363996505737
1726226036226955500,11.84495556640625,0.49428242444992065,0.38978931307792664,0.8153837323188782
1726226036236950300,11.8549501953125,0.49758341908454895,0.2459932565689087,0.7270869016647339
1726226036246944500,11.864944580078125,0.45389291644096375,0.13732562959194183,0.5810236930847168
1726226036256939500,11.874939453125,0.3653678596019745,0.06480269879102707,0.4153844118118286
1726226036266934300,11.884934326171875,0.26769083738327026,-0.05179262533783913,0.263112336397171
1726226036276929300,11.89492919921875,0.16734158992767334,-0.23360316455364227,0.14817588031291962
1726226036286924300,11.90492431640625,0.06748823076486588,-0.45523756742477417,0.04017751291394234
1726226036296919300,11.914919189453125,-0.028618328273296356,-0.682687520980835,-0.08762705326080322
1726226036306913300,11.924913330078125,-0.10664868354797363,-0.9243723154067993,-0.23910686373710632
1726226036316908300,11.934908203125,-0.17647889256477356,-1.2137713432312012,-0.38402703404426575
1726226036326903300,11.9449033203125,-0.24826866388320923,-1.5191570520401,-0.4912528097629547
1726226036336898300,11.954898193359375,-0.2989528775215149,-1.7755457162857056,-0.5414595007896423
1726226036346893300,11.964893310546875,-0.33805420994758606,-1.935255765914917,-0.5409165024757385
1726226036356888300,11.974888427734374,-0.38015666604042053,-1.9459142684936523,-0.5053449273109436
1726226036366882300,11.98488232421875,-0.4243994951248169,-1.9167673587799072,-0.45288971066474915
1726226036376877300,11.994877197265625,-0.47587305307388306,-1.9090853929519653,-0.3959164321422577
1726226036386872300,12.004872314453126,-0.5205324292182922,-1.8967269659042358,-0.33762064576148987
1726226036396867300,12.014867431640624,-0.5454822182655334,-1.857848882675171,-0.272378534078598
1726226036406862600,12.024862548828125,-0.529586911201477,-1.829314112663269,-0.23416243493556976
1726226036416857600,12.034857666015625,-0.46509283781051636,-1.8306270837783813,-0.1966230422258377
1726226036426851600,12.0448515625,-0.3690459430217743,-1.7260063886642456,-0.133538618683815
1726226036436846300,12.054846435546875,-0.3146066665649414,-1.4813988208770752,-0.043894220143556595
1726226036446841300,12.06484130859375,-0.31717103719711304,-1.1529377698898315,0.0653316006064415
1726226036456836000,12.074836181640626,-0.3359103500843048,-0.7927165031433105,0.1854148656129837
1726226036466831000,12.0848310546875,-0.3394361138343811,-0.39488446712493896,0.2940995395183563
1726226036476826000,12.094826171875,-0.3237530291080475,0.09687221795320511,0.38430798053741455
1726226036486820000,12.104820068359375,-0.22910456359386444,0.47224876284599304,0.37843838334083557
1726226036496815000,12.114815185546876,-0.04511900991201401,0.6199213266372681,0.2850591540336609
1726226036506810400,12.124810302734375,0.1439901888370514,0.6117235422134399,0.21060623228549957
1726226036516805400,12.134805419921875,0.2742014527320862,0.6104620099067688,0.20627593994140625
1726226036526800400,12.14480029296875,0.33625471591949463,0.6285979151725769,0.24008503556251526
1726226036536795400,12.15479541015625,0.3293728232383728,0.6607859134674072,0.24062618613243103
1726226036546789400,12.164789306640625,0.2541888654232025,0.7195488214492798,0.20203565061092377
1726226036556784400,12.174784423828125,0.15419383347034454,0.7792462706565857,0.13197427988052368
1726226036566779400,12.184779296875,0.06984539330005646,0.7857505083084106,0.06629113852977753
1726226036576774400,12.1947744140625,0.029317408800125122,0.7319799661636353,0.01136903464794159
1726226036586769400,12.204769287109375,0.03289829567074776,0.6228020787239075,-0.024535436183214188
1726226036596764400,12.214764404296876,0.053821951150894165,0.48666179180145264,-0.04536668211221695
1726226036606758400,12.22475830078125,0.06394942104816437,0.3281722962856293,-0.07016444206237793
1726226036616753400,12.23475341796875,0.052563343197107315,0.1977176070213318,-0.10793258994817734
1726226036626748400,12.24474853515625,0.003997404593974352,0.10940558463335037,-0.17594999074935913
1726226036636743400,12.254743408203124,-0.06312943249940872,0.051950015127658844,-0.2876829206943512
1726226036646738200,12.26473828125,-0.13839302957057953,0.0013496900210157037,-0.4342457354068756
1726226036656733200,12.274733154296875,-0.1943977028131485,-0.060688912868499756,-0.5852069854736328
1726226036666727400,12.2847275390625,-0.23227451741695404,-0.14880359172821045,-0.6946051120758057
1726226036676722200,12.29472216796875,-0.243896022439003,-0.31763601303100586,-0.7680857181549072
1726226036686717200,12.30471728515625,-0.2414799928665161,-0.48386308550834656,-0.8014439940452576
1726226036696712200,12.314712158203125,-0.23990261554718018,-0.5883697867393494,-0.7940512895584106
1726226036706707200,12.324707275390624,-0.2475125938653946,-0.6246247291564941,-0.7712503671646118
1726226036716702200,12.3347021484375,-0.2666229009628296,-0.6062036156654358,-0.7513940930366516
1726226036726696200,12.3446962890625,-0.28869783878326416,-0.5477344393730164,-0.7450363636016846
1726226036736691200,12.354691162109376,-0.3048211634159088,-0.45794200897216797,-0.736859142780304
1726226036746686200,12.364686279296874,-0.3022208511829376,-0.3231831192970276,-0.6929039359092712
1726226036756681200,12.37468115234375,-0.29201000928878784,-0.18591740727424622,-0.6112114191055298
1726226036766676500,12.384676513671875,-0.2996005713939667,-0.0364253856241703,-0.5275101661682129
1726226036776671500,12.39467138671875,-0.3169121742248535,0.09417230635881424,-0.46887826919555664
1726226036786665200,12.404665283203125,-0.32090744376182556,0.1697339117527008,-0.45090165734291077
1726226036796660500,12.414660400390625,-0.30460330843925476,0.21489526331424713,-0.44791412353515625
1726226036806655500,12.424655517578126,-0.2823227643966675,0.2277466058731079,-0.4533722698688507
1726226036816650500,12.434650390625,-0.28487807512283325,0.21779410541057587,-0.4755191206932068
1726226036826645200,12.444645263671875,-0.29489609599113464,0.2751426100730896,-0.47919854521751404
1726226036836640300,12.45464013671875,-0.2842234671115875,0.43924155831336975,-0.4592972695827484
