time,seconds_elapsed,z,y,x
1726940887641988000,0.011988037109375,-1.0864410400390625,-0.34588623046875,-0.2765045166015625
1726940887651974000,0.021973876953125,-1.022705078125,-0.3503875732421875,-0.252716064453125
1726940887661960000,0.0319599609375,-0.9901580810546875,-0.34564208984375,-0.2232513427734375
1726940887671946000,0.041946044921875,-0.99066162109375,-0.351226806640625,-0.20050048828125
1726940887681931000,0.051930908203125,-1.007537841796875,-0.361480712890625,-0.19537353515625
1726940887691917000,0.0619169921875,-1.0383758544921875,-0.3703765869140625,-0.1931915283203125
1726940887701903000,0.071903076171875,-1.0459136962890625,-0.37890625,-0.209869384765625
1726940887711889200,0.08188916015625,-1.00469970703125,-0.3737640380859375,-0.2193603515625
1726940887721875000,0.091875,-0.9372100830078125,-0.3641357421875,-0.2064056396484375
1726940887731861000,0.101861083984375,-0.8831024169921875,-0.3512115478515625,-0.18438720703125
1726940887741847000,0.111846923828125,-0.835113525390625,-0.3256378173828125,-0.166656494140625
1726940887751833000,0.1218330078125,-0.7887115478515625,-0.3035430908203125,-0.1324615478515625
1726940887761817900,0.13181787109375,-0.7417449951171875,-0.3124542236328125,-0.1143035888671875
1726940887771804200,0.14180419921875,-0.7928466796875,-0.360260009765625,-0.1493072509765625
1726940887781790000,0.1517900390625,-0.868988037109375,-0.452667236328125,-0.2158966064453125
1726940887791776000,0.16177587890625,-0.896148681640625,-0.4897613525390625,-0.268463134765625
1726940887801762000,0.171761962890625,-0.848297119140625,-0.50872802734375,-0.2807464599609375
1726940887811748000,0.181748046875,-0.7682037353515625,-0.50457763671875,-0.2901763916015625
1726940887821733000,0.191733154296875,-0.67498779296875,-0.5245513916015625,-0.269256591796875
1726940887831719000,0.201718994140625,-0.614410400390625,-0.5789642333984375,-0.2309722900390625
1726940887841705000,0.211705078125,-0.5751800537109375,-0.6439208984375,-0.21484375
1726940887851691000,0.22169091796875,-0.547149658203125,-0.6616058349609375,-0.1855010986328125
1726940887861677000,0.231677001953125,-0.519012451171875,-0.588714599609375,-0.1497039794921875
1726940887871663000,0.2416630859375,-0.520721435546875,-0.5771942138671875,-0.1767730712890625
1726940887881649000,0.25164892578125,-0.6039581298828125,-0.618377685546875,-0.2005157470703125
1726940887891634000,0.261634033203125,-0.64093017578125,-0.60931396484375,-0.2797698974609375
1726940887901620000,0.271619873046875,-0.613006591796875,-0.5567169189453125,-0.3641510009765625
1726940887911606000,0.28160595703125,-0.564361572265625,-0.553924560546875,-0.352569580078125
1726940887921592000,0.291592041015625,-0.5034942626953125,-0.573272705078125,-0.4261932373046875
1726940887931577900,0.301577880859375,-0.420318603515625,-0.646453857421875,-0.4735260009765625
1726940887941564200,0.311564208984375,-0.359771728515625,-0.6527862548828125,-0.43353271484375
1726940887951550000,0.321550048828125,-0.3011016845703125,-0.5675811767578125,-0.4278717041015625
1726940887961536000,0.331535888671875,-0.38006591796875,-0.55841064453125,-0.3639373779296875
1726940887971521000,0.34152099609375,-0.471282958984375,-0.603179931640625,-0.319305419921875
1726940887981507000,0.351507080078125,-0.3983154296875,-0.609649658203125,-0.3882598876953125
1726940887991492900,0.361492919921875,-0.2244873046875,-0.729034423828125,-0.540191650390625
1726940888001479000,0.37147900390625,-0.0527496337890625,-0.78424072265625,-0.610382080078125
1726940888011465000,0.38146484375,0.095062255859375,-0.803466796875,-0.5718841552734375
1726940888021451000,0.391450927734375,0.258941650390625,-0.833526611328125,-0.4190521240234375
1726940888031436800,0.401436767578125,0.260650634765625,-0.810516357421875,-0.415924072265625
1726940888041421800,0.411421875,0.267333984375,-0.8068084716796875,-0.408416748046875
1726940888051408100,0.421408203125,0.3462066650390625,-0.6806488037109375,-0.476715087890625
1726940888061394000,0.431393798828125,0.498077392578125,-0.60894775390625,-0.992218017578125
1726940888071380000,0.4413798828125,0.6697998046875,-1.0660858154296875,-2.0299530029296875
1726940888081366000,0.451365966796875,0.5106964111328125,-0.896392822265625,-0.3343963623046875
1726940888091352000,0.46135205078125,0.3594207763671875,-0.6653900146484375,-0.799346923828125
1726940888101337900,0.471337890625,0.0890960693359375,-0.5881195068359375,-0.9406280517578125
1726940888111323000,0.481322998046875,-0.134063720703125,-0.5761566162109375,-0.731597900390625
1726940888121309000,0.491308837890625,-0.32861328125,-0.4629669189453125,-0.7696380615234375
1726940888131295000,0.501294921875,-0.3950653076171875,-0.3756103515625,-0.6185302734375
1726940888141280800,0.51128076171875,-0.464874267578125,-0.4242706298828125,-0.3457489013671875
1726940888151267000,0.52126708984375,-0.3627777099609375,-0.32745361328125,-0.2356109619140625
1726940888161252900,0.5312529296875,-0.0536651611328125,-0.2180633544921875,-0.275787353515625
1726940888171239000,0.541239013671875,0.2169342041015625,-0.3348846435546875,-0.7132720947265625
1726940888181225000,0.551224853515625,0.2981414794921875,-0.510650634765625,-1.0844268798828125
1726940888191210000,0.5612099609375,0.236572265625,-0.5295562744140625,-1.0596160888671875
1726940888201196000,0.571196044921875,0.187347412109375,-0.33441162109375,-0.8214874267578125
1726940888211181800,0.581181884765625,0.2156219482421875,-0.208526611328125,-0.40374755859375
1726940888221168000,0.591168212890625,0.2712554931640625,-0.2318572998046875,-0.1107940673828125
1726940888231154000,0.60115380859375,0.3004913330078125,-0.3746337890625,-0.09893798828125
1726940888241140000,0.611139892578125,0.341278076171875,-0.572906494140625,-0.4956207275390625
1726940888251126000,0.6211259765625,0.47808837890625,-0.643402099609375,-1.0472564697265625
1726940888261111000,0.631111083984375,0.759796142578125,-0.7187652587890625,-1.4084320068359375
1726940888271096800,0.641096923828125,1.0893402099609375,-0.520538330078125,-1.3616790771484375
1726940888281083100,0.651083251953125,1.1049957275390625,-0.2994232177734375,-1.064727783203125
1726940888291069000,0.66106884765625,0.76153564453125,-0.3256988525390625,-0.80029296875
1726940888301055000,0.671054931640625,0.474395751953125,-0.2009124755859375,-0.68896484375
1726940888311040800,0.681040771484375,0.2362213134765625,-0.179931640625,-0.8055877685546875
1726940888321027000,0.691027099609375,0.0901336669921875,-0.277801513671875,-0.9379119873046875
1726940888331012900,0.701012939453125,0.0406646728515625,-0.48236083984375,-1.050811767578125
1726940888340998000,0.710997802734375,0.091033935546875,-0.5146331787109375,-1.168121337890625
1726940888350984200,0.720984130859375,0.1990814208984375,-0.4209442138671875,-1.191680908203125
1726940888360970000,0.730969970703125,0.27313232421875,-0.3143157958984375,-1.076690673828125
1726940888370956000,0.7409560546875,0.388031005859375,-0.05126953125,-0.8816986083984375
1726940888380942000,0.750942138671875,0.3099822998046875,0.2499542236328125,-0.251068115234375
1726940888390928100,0.76092822265625,0.2869720458984375,0.1779327392578125,0.3428497314453125
1726940888400914000,0.770913818359375,0.40802001953125,0.238189697265625,0.0139312744140625
1726940888410899000,0.78089892578125,0.3216705322265625,0.2352752685546875,-0.1990509033203125
1726940888420885000,0.790885009765625,0.2052154541015625,0.171356201171875,-0.38995361328125
1726940888430871000,0.80087109375,0.1966705322265625,0.2644805908203125,-0.634063720703125
1726940888440856800,0.81085693359375,0.29046630859375,0.26507568359375,-0.8051605224609375
1726940888450843100,0.820843017578125,0.4048614501953125,0.2552032470703125,-1.019287109375
1726940888460828400,0.830828369140625,0.4195556640625,0.2814788818359375,-1.25164794921875
1726940888470814500,0.840814453125,0.2714385986328125,0.3946685791015625,-1.4633331298828125
1726940888480800500,0.850800537109375,0.3213958740234375,0.553619384765625,-1.727874755859375
1726940888490785500,0.86078564453125,0.5137939453125,0.6009368896484375,-1.753448486328125
1726940888500771600,0.870771484375,0.4740753173828125,0.6093597412109375,-1.54425048828125
1726940888510757600,0.880757568359375,0.120880126953125,0.4923553466796875,-1.4582977294921875
1726940888520743700,0.89074365234375,-0.16424560546875,0.4325408935546875,-1.4044647216796875
1726940888530729500,0.9007294921875,-0.374176025390625,0.4738006591796875,-1.3347930908203125
1726940888540715800,0.9107158203125,-0.34820556640625,0.4580230712890625,-1.34515380859375
1726940888550701600,0.92070166015625,-0.1036376953125,0.4065093994140625,-1.16436767578125
1726940888560687600,0.9306875,0.1473236083984375,0.308013916015625,-0.984619140625
1726940888570672600,0.940672607421875,0.2301788330078125,0.238800048828125,-1.0652313232421875
1726940888580658700,0.95065869140625,0.3344573974609375,0.228759765625,-1.0372772216796875
1726940888590644500,0.96064453125,0.3931732177734375,0.2131805419921875,-0.93133544921875
1726940888600630500,0.970630615234375,0.538848876953125,0.2265472412109375,-0.9195098876953125
1726940888610616600,0.980616455078125,0.70233154296875,0.2359771728515625,-0.922637939453125
1726940888620602600,0.9906025390625,0.6475067138671875,0.13275146484375,-0.988983154296875
1726940888630588400,1.00058837890625,0.332672119140625,0.041015625,-1.0222320556640625
1726940888640573400,1.010573486328125,0.242340087890625,0.04827880859375,-1.083709716796875
1726940888650559700,1.020559814453125,0.2154388427734375,-0.0938262939453125,-1.1882476806640625
1726940888660545500,1.030545654296875,0.0839996337890625,-0.1431884765625,-1.4011688232421875
1726940888670531600,1.040531494140625,0.0769195556640625,-0.1336669921875,-1.3772125244140625
1726940888680517600,1.050517578125,0.0492095947265625,-0.122955322265625,-1.104766845703125
1726940888690503700,1.060503662109375,0.045196533203125,-0.096160888671875,-0.8764190673828125
1726940888700489500,1.070489501953125,0.0732879638671875,-0.09228515625,-0.777923583984375
1726940888710475800,1.080475830078125,0.073883056640625,-0.0787506103515625,-0.8646087646484375
1726940888720460500,1.09046044921875,0.095428466796875,-0.086578369140625,-0.9838714599609375
1726940888730446600,1.100446533203125,0.1029815673828125,-0.0885772705078125,-1.1641693115234375
1726940888740432400,1.110432373046875,0.0631103515625,-0.0912628173828125,-1.341766357421875
1726940888750418700,1.120418701171875,0.0357666015625,-0.138092041015625,-1.4662017822265625
1726940888760404500,1.130404541015625,0.1093597412109375,-0.20245361328125,-1.4889068603515625
1726940888770390500,1.140390625,0.260589599609375,-0.2701416015625,-1.398529052734375
1726940888780376600,1.15037646484375,0.1936492919921875,-0.297760009765625,-1.2859039306640625
1726940888790362600,1.160362548828125,-0.0093231201171875,-0.27581787109375,-1.133087158203125
1726940888800347600,1.17034765625,-0.0292205810546875,-0.2181854248046875,-1.032623291015625
1726940888810333400,1.18033349609375,-0.0369110107421875,-0.1764068603515625,-0.9682464599609375
1726940888820319700,1.19031982421875,-0.094818115234375,-0.1533660888671875,-0.9461212158203125
1726940888830305500,1.200305419921875,-0.111907958984375,-0.1243896484375,-0.9152679443359375
1726940888840291600,1.21029150390625,-0.15838623046875,-0.095550537109375,-0.9073333740234375
1726940888850277600,1.220277587890625,-0.2146148681640625,-0.067901611328125,-0.9363861083984375
1726940888860263700,1.230263671875,-0.2492218017578125,-0.0483551025390625,-0.9337158203125
1726940888870248400,1.24024853515625,-0.2689971923828125,-0.034210205078125,-0.9162750244140625
1726940888880234500,1.250234375,-0.2772369384765625,-0.032989501953125,-0.9376678466796875
1726940888890220500,1.260220458984375,-0.278778076171875,-0.036102294921875,-0.9704437255859375
1726940888900206600,1.27020654296875,-0.2680206298828125,-0.0419769287109375,-0.9807281494140625
1726940888910192400,1.2801923828125,-0.2416839599609375,-0.05474853515625,-0.98876953125
1726940888920178700,1.2901787109375,-0.2187652587890625,-0.0524139404296875,-0.99810791015625
1726940888930164500,1.30016455078125,-0.184722900390625,-0.041351318359375,-0.97979736328125
1726940888940150500,1.310150634765625,-0.1405181884765625,-0.03472900390625,-0.972808837890625
1726940888950135600,1.320135498046875,-0.0947113037109375,-0.02398681640625,-0.9686737060546875
1726940888960121600,1.33012158203125,-0.0868377685546875,-0.01800537109375,-0.9643096923828125
1726940888970107600,1.340107666015625,-0.091644287109375,-0.016357421875,-0.984466552734375
1726940888980093400,1.350093505859375,-0.0826416015625,-0.0157623291015625,-1.0072021484375
1726940888990079700,1.360079833984375,-0.0802764892578125,-0.02325439453125,-1.0227203369140625
1726940889000065500,1.3700654296875,-0.0802764892578125,-0.0256500244140625,-1.0231170654296875
1726940889010051600,1.380051513671875,-0.090789794921875,-0.024139404296875,-1.0272369384765625
1726940889020037600,1.39003759765625,-0.0978546142578125,-0.025970458984375,-1.0247955322265625
1726940889030022700,1.400022705078125,-0.0974884033203125,-0.0338287353515625,-1.006744384765625
1726940889040008400,1.410008544921875,-0.109039306640625,-0.0413055419921875,-0.990447998046875
1726940889049994500,1.419994384765625,-0.14227294921875,-0.038116455078125,-0.983428955078125
1726940889059980500,1.42998046875,-0.1763763427734375,-0.0255126953125,-0.975555419921875
1726940889069966600,1.439966552734375,-0.20343017578125,-0.0092926025390625,-0.9691925048828125
1726940889079952400,1.449952392578125,-0.22357177734375,0.0106658935546875,-0.96759033203125
1726940889089938700,1.459938720703125,-0.23321533203125,0.01983642578125,-0.966217041015625
1726940889099923700,1.469923828125,-0.2420806884765625,0.025054931640625,-0.96875
1726940889109909500,1.479909423828125,-0.246734619140625,0.025238037109375,-0.9777679443359375
1726940889119895800,1.489895751953125,-0.2620391845703125,0.0318145751953125,-0.989105224609375
1726940889129881600,1.499881591796875,-0.2826385498046875,0.04632568359375,-0.9931793212890625
1726940889139867600,1.50986767578125,-0.301361083984375,0.0567474365234375,-1.004150390625
1726940889149853400,1.519853515625,-0.306915283203125,0.065277099609375,-1.0128936767578125
1726940889159839700,1.52983984375,-0.3106842041015625,0.06658935546875,-1.0221099853515625
1726940889169825500,1.539825439453125,-0.3134613037109375,0.0590057373046875,-1.038360595703125
1726940889179810600,1.549810546875,-0.3071136474609375,0.0378875732421875,-1.05535888671875
1726940889189796600,1.559796630859375,-0.260986328125,0.01910400390625,-1.042999267578125
1726940889199782700,1.56978271484375,-0.2020111083984375,-0.000640869140625,-1.0482635498046875
1726940889209768400,1.5797685546875,-0.163970947265625,-0.0071868896484375,-1.0167694091796875
1726940889219754800,1.589754638671875,-0.1378326416015625,-0.014801025390625,-0.99530029296875
1726940889229740500,1.599740478515625,-0.13238525390625,-0.022491455078125,-0.992889404296875
1726940889239726600,1.6097265625,-0.1627044677734375,-0.014617919921875,-0.9805145263671875
1726940889249712400,1.61971240234375,-0.2222137451171875,-0.0085906982421875,-0.9853363037109375
1726940889259697700,1.62969775390625,-0.2731170654296875,-0.0199737548828125,-0.977081298828125
1726940889269683700,1.63968359375,-0.294586181640625,-0.03680419921875,-0.969635009765625
1726940889279669500,1.64966943359375,-0.30242919921875,-0.061065673828125,-0.9522857666015625
1726940889289655800,1.65965576171875,-0.308563232421875,-0.097442626953125,-0.942626953125
1726940889299641600,1.6696416015625,-0.3165435791015625,-0.1334381103515625,-0.9288177490234375
1726940889309627600,1.679627685546875,-0.3238525390625,-0.165924072265625,-0.924774169921875
1726940889319613700,1.68961376953125,-0.335205078125,-0.1860198974609375,-0.9309844970703125
1726940889329599700,1.699599853515625,-0.3479461669921875,-0.2054443359375,-0.9410400390625
1726940889339584500,1.70958447265625,-0.3569488525390625,-0.2167205810546875,-0.925384521484375
1726940889349570600,1.719570556640625,-0.3715972900390625,-0.22027587890625,-0.918914794921875
1726940889359556600,1.729556640625,-0.4018402099609375,-0.2246856689453125,-0.9348602294921875
1726940889369542700,1.739542724609375,-0.4145355224609375,-0.2323760986328125,-0.936553955078125
1726940889379528400,1.749528564453125,-0.4190673828125,-0.2337799072265625,-0.932403564453125
1726940889389514800,1.7595146484375,-0.430419921875,-0.2236175537109375,-0.909820556640625
1726940889399500500,1.76950048828125,-0.452239990234375,-0.20770263671875,-0.8916778564453125
1726940889409485600,1.779485595703125,-0.471923828125,-0.209625244140625,-0.8724822998046875
1726940889419471600,1.7894716796875,-0.487548828125,-0.1949462890625,-0.8508758544921875
1726940889429457700,1.799457763671875,-0.4975433349609375,-0.1878204345703125,-0.8310546875
1726940889439443700,1.809443603515625,-0.53045654296875,-0.168243408203125,-0.8133392333984375
1726940889449429500,1.819429443359375,-0.55352783203125,-0.1379547119140625,-0.8000640869140625
1726940889459416600,1.82941650390625,-0.5712738037109375,-0.1287078857421875,-0.787078857421875
1726940889469402600,1.839402587890625,-0.580413818359375,-0.1150970458984375,-0.7694091796875
1726940889479388700,1.849388671875,-0.5879364013671875,-0.12200927734375,-0.778167724609375
1726940889489373700,1.859373779296875,-0.660247802734375,-0.1231842041015625,-0.8072509765625
1726940889499359500,1.869359375,-0.687713623046875,-0.132781982421875,-0.7876129150390625
1726940889509345500,1.879345458984375,-0.6920623779296875,-0.13763427734375,-0.7440338134765625
1726940889519331600,1.88933154296875,-0.725433349609375,-0.124420166015625,-0.6954498291015625
1726940889529317600,1.899317626953125,-0.737060546875,-0.1131134033203125,-0.648773193359375
1726940889539303400,1.909303466796875,-0.710357666015625,-0.0974273681640625,-0.6121826171875
1726940889549289700,1.919289794921875,-0.6808319091796875,-0.077667236328125,-0.60174560546875
1726940889559275500,1.929275634765625,-0.653839111328125,-0.046234130859375,-0.614227294921875
1726940889569260500,1.939260498046875,-0.6275634765625,-0.006561279296875,-0.6476898193359375
1726940889579246600,1.94924658203125,-0.6057281494140625,0.0124053955078125,-0.699462890625
1726940889589232600,1.959232666015625,-0.604400634765625,0.029754638671875,-0.754669189453125
1726940889599218700,1.96921875,-0.6384124755859375,0.0361785888671875,-0.8173370361328125
1726940889609204500,1.97920458984375,-0.6801300048828125,0.03082275390625,-0.8756256103515625
1726940889619190800,1.989190673828125,-0.7325897216796875,0.0312957763671875,-0.898773193359375
1726940889629176600,1.999176513671875,-0.77825927734375,0.04132080078125,-0.8927001953125
1726940889639161600,2.00916162109375,-0.7719573974609375,0.068634033203125,-0.8665313720703125
1726940889649147400,2.0191474609375,-0.7607574462890625,0.1045989990234375,-0.827484130859375
1726940889659133700,2.0291337890625,-0.769012451171875,0.1257781982421875,-0.8115081787109375
1726940889669119500,2.039119384765625,-0.7507476806640625,0.1271514892578125,-0.8046875
1726940889679105500,2.04910546875,-0.706146240234375,0.111785888671875,-0.7916412353515625
1726940889689091600,2.059091552734375,-0.651123046875,0.0825958251953125,-0.7816925048828125
1726940889699077600,2.06907763671875,-0.6226959228515625,0.0363616943359375,-0.7780609130859375
1726940889709063400,2.0790634765625,-0.63031005859375,-0.011383056640625,-0.7621307373046875
1726940889719048700,2.089048583984375,-0.639617919921875,-0.0556182861328125,-0.757720947265625
1726940889729034800,2.09903466796875,-0.611846923828125,-0.0821685791015625,-0.769012451171875
1726940889739020500,2.1090205078125,-0.6182098388671875,-0.0499725341796875,-0.7729339599609375
1726940889749006600,2.119006591796875,-0.6729278564453125,0.0049285888671875,-0.7465667724609375
1726940889758992600,2.12899267578125,-0.735809326171875,0.070465087890625,-0.6901092529296875
1726940889768978700,2.138978759765625,-0.79730224609375,0.129730224609375,-0.6287994384765625
1726940889778964500,2.148964599609375,-0.851654052734375,0.1956024169921875,-0.545562744140625
1726940889788950800,2.15895068359375,-0.91326904296875,0.280853271484375,-0.4669647216796875
1726940889798935600,2.168935546875,-0.964599609375,0.3980560302734375,-0.3939666748046875
1726940889808921600,2.178921630859375,-0.9929046630859375,0.434234619140625,-0.40899658203125
1726940889818907600,2.18890771484375,-0.9991912841796875,0.4311370849609375,-0.436553955078125
1726940889828893700,2.198893798828125,-0.9722900390625,0.473114013671875,-0.354705810546875
1726940889838879500,2.20887939453125,-0.920440673828125,0.4713134765625,-0.312164306640625
1726940889848865500,2.218865478515625,-0.91009521484375,0.454254150390625,-0.327545166015625
1726940889858851600,2.2288515625,-0.8284759521484375,0.406707763671875,-0.3624114990234375
1726940889868836600,2.238836669921875,-0.735931396484375,0.359466552734375,-0.3970947265625
1726940889878822700,2.24882275390625,-0.638153076171875,0.3621673583984375,-0.4004974365234375
1726940889888808700,2.25880859375,-0.5994415283203125,0.438934326171875,-0.41168212890625
1726940889898794800,2.268794677734375,-0.550262451171875,0.5077667236328125,-0.45233154296875
1726940889908780500,2.278780517578125,-0.54949951171875,0.54962158203125,-0.510162353515625
1726940889918766800,2.288766845703125,-0.598541259765625,0.5820465087890625,-0.535430908203125
1726940889928752600,2.298752685546875,-0.659210205078125,0.594085693359375,-0.53253173828125
1726940889938738700,2.30873876953125,-0.7109222412109375,0.602447509765625,-0.53936767578125
1726940889948723500,2.318723388671875,-0.7494354248046875,0.595977783203125,-0.54266357421875
1726940889958709800,2.328709716796875,-0.76171875,0.5507049560546875,-0.536712646484375
1726940889968695600,2.338695556640625,-0.8045501708984375,0.4810943603515625,-0.539520263671875
1726940889978681600,2.348681640625,-0.8161163330078125,0.409210205078125,-0.515045166015625
1726940889988667600,2.358667724609375,-0.7910308837890625,0.3448944091796875,-0.4564361572265625
1726940889998653700,2.36865380859375,-0.7536468505859375,0.2941436767578125,-0.3993682861328125
1726940890008639500,2.378639404296875,-0.769256591796875,0.246734619140625,-0.39227294921875
1726940890018625800,2.388625732421875,-0.8336181640625,0.195953369140625,-0.4099273681640625
1726940890028610800,2.39861083984375,-0.9131317138671875,0.14495849609375,-0.424530029296875
1726940890038596600,2.4085966796875,-0.937164306640625,0.09185791015625,-0.422698974609375
1726940890048582700,2.418582763671875,-0.9111328125,0.067291259765625,-0.4149017333984375
1726940890058568700,2.428568603515625,-0.8876190185546875,0.1061553955078125,-0.395172119140625
1726940890068554800,2.4385546875,-0.8283538818359375,0.1508636474609375,-0.3956298828125
1726940890078540500,2.44854052734375,-0.768798828125,0.1517181396484375,-0.4457855224609375
1726940890088526800,2.45852685546875,-0.746124267578125,0.1189422607421875,-0.5331268310546875
1726940890098512600,2.4685126953125,-0.7890625,0.0635528564453125,-0.62908935546875
1726940890108497700,2.47849755859375,-0.8515472412109375,0.04217529296875,-0.6622161865234375
1726940890118483500,2.4884833984375,-0.9498748779296875,0.06170654296875,-0.6869659423828125
1726940890128469800,2.4984697265625,-1.0056610107421875,0.1514739990234375,-0.644256591796875
1726940890138455600,2.50845556640625,-0.9859619140625,0.2498779296875,-0.559051513671875
1726940890148441600,2.518441650390625,-0.901214599609375,0.314453125,-0.4833984375
1726940890158427600,2.528427734375,-0.7943878173828125,0.3516845703125,-0.4270172119140625
1726940890168413700,2.53841357421875,-0.7492218017578125,0.36346435546875,-0.4413909912109375
1726940890178399500,2.5483994140625,-0.7900238037109375,0.376220703125,-0.50830078125
1726940890188384500,2.558384521484375,-0.8410491943359375,0.3944549560546875,-0.575775146484375
1726940890198370800,2.568370849609375,-0.90545654296875,0.3910369873046875,-0.666259765625
1726940890208356600,2.578356689453125,-0.9432830810546875,0.387725830078125,-0.720458984375
1726940890218342700,2.5883427734375,-0.874542236328125,0.3756866455078125,-0.7154541015625
1726940890228328700,2.59832861328125,-0.783294677734375,0.34869384765625,-0.6734161376953125
1726940890238314800,2.608314697265625,-0.713104248046875,0.302490234375,-0.5992431640625
1726940890248300500,2.618300537109375,-0.6397552490234375,0.2340850830078125,-0.523284912109375
1726940890258286600,2.62828662109375,-0.591064453125,0.163726806640625,-0.4553070068359375
1726940890268272600,2.638272705078125,-0.6114044189453125,0.1060638427734375,-0.424713134765625
1726940890278257700,2.648257568359375,-0.669677734375,0.0483551025390625,-0.4047088623046875
1726940890288243500,2.658243408203125,-0.7476959228515625,-0.0210113525390625,-0.42523193359375
1726940890298229800,2.668229736328125,-0.818511962890625,-0.0885467529296875,-0.4537506103515625
1726940890308215600,2.678215576171875,-0.8605804443359375,-0.1193389892578125,-0.445098876953125
1726940890318201600,2.68820166015625,-0.8801727294921875,-0.1204833984375,-0.4232330322265625
1726940890328187600,2.698187744140625,-0.868560791015625,-0.1117706298828125,-0.4084625244140625
1726940890338173700,2.708173583984375,-0.839569091796875,-0.090423583984375,-0.415130615234375
1726940890348159500,2.718159423828125,-0.8331146240234375,-0.0889739990234375,-0.4391021728515625
1726940890358144500,2.72814453125,-0.8798065185546875,-0.098846435546875,-0.468231201171875
1726940890368130600,2.738130615234375,-0.9809722900390625,-0.092926025390625,-0.4936981201171875
1726940890378116600,2.74811669921875,-1.0547027587890625,-0.0272216796875,-0.5029754638671875
1726940890388102700,2.7581025390625,-1.02362060546875,0.0401763916015625,-0.48193359375
1726940890398088700,2.768088623046875,-0.9270782470703125,0.1057281494140625,-0.4689788818359375
1726940890408074500,2.778074462890625,-0.8554534912109375,0.153167724609375,-0.4761505126953125
1726940890418060500,2.788060546875,-0.8044281005859375,0.1649627685546875,-0.51849365234375
1726940890428046600,2.798046630859375,-0.753509521484375,0.1584014892578125,-0.5809478759765625
1726940890438031600,2.808031494140625,-0.7709808349609375,0.139404296875,-0.6376800537109375
1726940890448017700,2.818017578125,-0.84527587890625,0.12371826171875,-0.680419921875
1726940890458002700,2.828002685546875,-0.9532470703125,0.1298828125,-0.7389984130859375
1726940890467988700,2.83798876953125,-1.019317626953125,0.13922119140625,-0.75262451171875
1726940890477974500,2.847974609375,-0.9359893798828125,0.1616058349609375,-0.732635498046875
1726940890487960800,2.8579609375,-0.846435546875,0.225250244140625,-0.680145263671875
1726940890497946600,2.867946533203125,-0.8063507080078125,0.268035888671875,-0.59832763671875
1726940890507932700,2.8779326171875,-0.75146484375,0.28997802734375,-0.53546142578125
1726940890517918500,2.88791845703125,-0.7615509033203125,0.2969818115234375,-0.4900665283203125
1726940890527903700,2.89790380859375,-0.77471923828125,0.2757568359375,-0.46173095703125
1726940890537889800,2.907889892578125,-0.8050689697265625,0.221923828125,-0.450164794921875
1726940890547875600,2.91787548828125,-0.8209381103515625,0.1493682861328125,-0.4521026611328125
1726940890557862000,2.92786181640625,-0.8284912109375,0.0781097412109375,-0.4591827392578125
1726940890567847700,2.93784765625,-0.8303985595703125,0.01458740234375,-0.4610137939453125
1726940890577833700,2.947833740234375,-0.8303985595703125,-0.02496337890625,-0.463470458984375
1726940890587819800,2.95781982421875,-0.8532257080078125,-0.0599365234375,-0.4698944091796875
1726940890597805800,2.967805908203125,-0.8700714111328125,-0.107757568359375,-0.495269775390625
1726940890607790600,2.97779052734375,-0.929290771484375,-0.154327392578125,-0.5109405517578125
1726940890617776600,2.987776611328125,-0.9811248779296875,-0.193939208984375,-0.5275726318359375
1726940890627762700,2.9977626953125,-0.941741943359375,-0.2474822998046875,-0.538116455078125
1726940890637748700,3.007748779296875,-0.85308837890625,-0.288177490234375,-0.557342529296875
1726940890647734500,3.017734619140625,-0.7934417724609375,-0.30535888671875,-0.5983428955078125
1726940890657720800,3.027720947265625,-0.7382965087890625,-0.33380126953125,-0.6551513671875
1726940890667706600,3.03770654296875,-0.7304229736328125,-0.328460693359375,-0.70562744140625
1726940890677692700,3.047692626953125,-0.7728729248046875,-0.2870635986328125,-0.73138427734375
1726940890687678700,3.0576787109375,-0.844482421875,-0.2196044921875,-0.73272705078125
1726940890697663700,3.067663818359375,-0.938507080078125,-0.1434783935546875,-0.684417724609375
1726940890707649800,3.07764990234375,-1.012298583984375,-0.0550384521484375,-0.6065216064453125
1726940890717635600,3.087635498046875,-1.049224853515625,0.028778076171875,-0.550018310546875
1726940890727622000,3.097621826171875,-1.0736236572265625,0.0751190185546875,-0.517791748046875
1726940890737607700,3.107607666015625,-1.0312042236328125,0.104278564453125,-0.4977874755859375
1726940890747593700,3.11759375,-0.893890380859375,0.1215667724609375,-0.4500274658203125
1726940890757579800,3.127579833984375,-0.78509521484375,0.1213531494140625,-0.4182891845703125
1726940890767565800,3.13756591796875,-0.7196197509765625,0.0894927978515625,-0.4100799560546875
1726940890777551600,3.147551513671875,-0.66180419921875,0.05645751953125,-0.40936279296875
1726940890787536600,3.15753662109375,-0.650604248046875,0.035247802734375,-0.4189453125
1726940890797522700,3.167522705078125,-0.677947998046875,0.021026611328125,-0.4382171630859375
1726940890807508700,3.1775087890625,-0.7372283935546875,0.0078125,-0.4862518310546875
1726940890817494500,3.18749462890625,-0.73858642578125,-0.0024261474609375,-0.53839111328125
1726940890827480800,3.197480712890625,-0.660736083984375,0.007080078125,-0.569915771484375
1726940890837466600,3.207466552734375,-0.5773468017578125,0.070465087890625,-0.5585174560546875
1726940890847452700,3.21745263671875,-0.5948638916015625,0.14178466796875,-0.5553741455078125
1726940890857438700,3.227438720703125,-0.687408447265625,0.155364990234375,-0.60235595703125
1726940890867424800,3.2374248046875,-0.8018798828125,0.08917236328125,-0.664337158203125
1726940890877409800,3.247409912109375,-0.92547607421875,0.02294921875,-0.6926422119140625
1726940890887395600,3.2573955078125,-1.01812744140625,-0.0284576416015625,-0.688232421875
1726940890897382000,3.2673818359375,-1.0267791748046875,-0.0883941650390625,-0.6712493896484375
1726940890907367700,3.27736767578125,-1.0436859130859375,-0.120269775390625,-0.64697265625
1726940890917353700,3.287353759765625,-1.03985595703125,-0.157989501953125,-0.6345672607421875
1726940890927339800,3.29733984375,-1.037506103515625,-0.175079345703125,-0.591033935546875
1726940890937325800,3.307325927734375,-1.00323486328125,-0.18817138671875,-0.5135498046875
1726940890947311600,3.3173115234375,-0.96466064453125,-0.1793365478515625,-0.4610748291015625
1726940890957296600,3.327296630859375,-0.957855224609375,-0.165283203125,-0.42218017578125
1726940890967282700,3.33728271484375,-0.9438018798828125,-0.1689605712890625,-0.4058074951171875
1726940890977268700,3.347268798828125,-0.9393310546875,-0.1776580810546875,-0.3939971923828125
1726940890987254500,3.357254638671875,-0.9104766845703125,-0.197479248046875,-0.40313720703125
1726940890997240800,3.36724072265625,-0.90625,-0.235015869140625,-0.4434814453125
1726940891007226600,3.3772265625,-0.8598480224609375,-0.258636474609375,-0.4743194580078125
1726940891017212700,3.387212646484375,-0.8035888671875,-0.280731201171875,-0.5370330810546875
1726940891027198700,3.39719873046875,-0.7564544677734375,-0.2935028076171875,-0.60015869140625
1726940891037184800,3.407184814453125,-0.7203826904296875,-0.28564453125,-0.6418304443359375
1726940891047169800,3.417169677734375,-0.7210540771484375,-0.26824951171875,-0.6609039306640625
1726940891057155600,3.427155517578125,-0.7506866455078125,-0.2472381591796875,-0.684356689453125
1726940891067142000,3.437141845703125,-0.77154541015625,-0.21124267578125,-0.69171142578125
1726940891077127700,3.447127685546875,-0.7539825439453125,-0.1619720458984375,-0.6799774169921875
1726940891087113700,3.45711376953125,-0.744720458984375,-0.0662841796875,-0.6316680908203125
1726940891097099800,3.467099853515625,-0.7966156005859375,0.02203369140625,-0.5947265625
1726940891107085800,3.4770859375,-0.86883544921875,0.08087158203125,-0.5654296875
1726940891117071600,3.487071533203125,-0.86767578125,0.11956787109375,-0.5340728759765625
1726940891127057700,3.4970576171875,-0.8300628662109375,0.1473541259765625,-0.5225982666015625
1726940891137042700,3.507042724609375,-0.8624420166015625,0.1243743896484375,-0.5565185546875
1726940891147028700,3.51702880859375,-0.904815673828125,0.06805419921875,-0.6315155029296875
1726940891157014500,3.5270146484375,-0.8733978271484375,0.028533935546875,-0.632232666015625
1726940891167000800,3.537000732421875,-0.8472747802734375,0.0106201171875,-0.6243896484375
1726940891176986600,3.546986572265625,-0.834442138671875,0.016815185546875,-0.61871337890625
1726940891186972700,3.55697265625,-0.84368896484375,0.0328216552734375,-0.6106414794921875
1726940891196958700,3.566958740234375,-0.8664398193359375,0.05267333984375,-0.602386474609375
1726940891206944800,3.57694482421875,-0.878570556640625,0.07427978515625,-0.6117095947265625
1726940891216930600,3.5869306640625,-0.8951416015625,0.0815582275390625,-0.624237060546875
1726940891226915600,3.59691552734375,-0.8780517578125,0.0764007568359375,-0.6571197509765625
1726940891236902000,3.60690185546875,-0.8269195556640625,0.0524749755859375,-0.6923065185546875
1726940891246887700,3.6168876953125,-0.80340576171875,-0.0027923583984375,-0.71221923828125
1726940891256873700,3.626873779296875,-0.7594146728515625,-0.052490234375,-0.705596923828125
1726940891266859800,3.63685986328125,-0.694671630859375,-0.0964202880859375,-0.6707763671875
1726940891276845600,3.646845458984375,-0.6646881103515625,-0.1435546875,-0.6538238525390625
1726940891286831600,3.65683154296875,-0.6458282470703125,-0.17694091796875,-0.6540985107421875
1726940891296817700,3.666817626953125,-0.6237030029296875,-0.2030487060546875,-0.650421142578125
1726940891306802700,3.676802734375,-0.605255126953125,-0.222076416015625,-0.6738128662109375
1726940891316788700,3.686788818359375,-0.5752105712890625,-0.234649658203125,-0.7061309814453125
1726940891326774500,3.6967744140625,-0.599395751953125,-0.24639892578125,-0.7187652587890625
1726940891336760800,3.7067607421875,-0.60382080078125,-0.24078369140625,-0.7152252197265625
1726940891346746600,3.71674658203125,-0.5695037841796875,-0.2125701904296875,-0.7049102783203125
1726940891356732700,3.726732666015625,-0.6012725830078125,-0.1864013671875,-0.705230712890625
1726940891366718700,3.73671875,-0.6412811279296875,-0.1304168701171875,-0.6846771240234375
1726940891376704800,3.746704833984375,-0.716278076171875,-0.0654754638671875,-0.6219024658203125
1726940891386690600,3.756690673828125,-0.828369140625,-0.0010986328125,-0.587127685546875
1726940891396675600,3.766675537109375,-0.900115966796875,0.0469818115234375,-0.5387725830078125
1726940891406661600,3.77666162109375,-0.930938720703125,0.0690460205078125,-0.508026123046875
1726940891416647700,3.786647705078125,-0.8933563232421875,0.0812530517578125,-0.4794158935546875
1726940891426633500,3.796633544921875,-0.8232421875,0.1109161376953125,-0.455230712890625
1726940891436619800,3.806619873046875,-0.796783447265625,0.1461639404296875,-0.4462432861328125
1726940891446605600,3.81660546875,-0.837432861328125,0.1822357177734375,-0.47808837890625
1726940891456591000,3.826591064453125,-0.9009552001953125,0.2152099609375,-0.5066375732421875
1726940891466577200,3.8365771484375,-0.921539306640625,0.245635986328125,-0.5207366943359375
1726940891476563200,3.846563232421875,-0.9492340087890625,0.2579193115234375,-0.540496826171875
1726940891486548200,3.85654833984375,-0.9541473388671875,0.2392730712890625,-0.5916748046875
1726940891496534000,3.866533935546875,-0.832977294921875,0.1482391357421875,-0.675811767578125
1726940891506520000,3.87652001953125,-0.69097900390625,-0.025146484375,-0.7655792236328125
1726940891516506000,3.886506103515625,-0.5989227294921875,-0.1381683349609375,-0.801605224609375
1726940891526492200,3.8964921875,-0.5706024169921875,-0.1843109130859375,-0.801483154296875
1726940891536478000,3.90647802734375,-0.6194305419921875,-0.2172393798828125,-0.8264617919921875
1726940891546464300,3.91646435546875,-0.71624755859375,-0.1402130126953125,-0.7781982421875
1726940891556450000,3.926449951171875,-0.7794036865234375,-0.0302276611328125,-0.7135772705078125
1726940891566436000,3.93643603515625,-0.8040313720703125,0.0550384521484375,-0.6856842041015625
1726940891576421000,3.946421142578125,-0.807373046875,0.1055145263671875,-0.65008544921875
1726940891586407200,3.9564072265625,-0.7747955322265625,0.1024627685546875,-0.634033203125
1726940891596393200,3.966393310546875,-0.7659454345703125,0.0478668212890625,-0.6131439208984375
1726940891606379000,3.97637890625,-0.7354583740234375,-0.0038909912109375,-0.5830535888671875
1726940891616365300,3.986365234375,-0.6640167236328125,-0.0688018798828125,-0.5479736328125
1726940891626351000,3.99635107421875,-0.6064300537109375,-0.12310791015625,-0.5190277099609375
1726940891636337200,4.006337158203125,-0.650146484375,-0.15869140625,-0.551971435546875
1726940891646323200,4.0163232421875,-0.7602386474609375,-0.15509033203125,-0.5835418701171875
1726940891656309200,4.026309326171875,-0.88287353515625,-0.0847930908203125,-0.5754852294921875
1726940891666294000,4.0362939453125,-0.998199462890625,0.0379791259765625,-0.56817626953125
1726940891676280000,4.046280029296875,-1.089019775390625,0.1264190673828125,-0.585052490234375
1726940891686266000,4.05626611328125,-1.121307373046875,0.146636962890625,-0.6151275634765625
1726940891696252200,4.066252197265625,-1.086395263671875,0.104888916015625,-0.63934326171875
1726940891706238000,4.076238037109375,-0.9420013427734375,0.0273590087890625,-0.63372802734375
1726940891716224300,4.086224365234375,-0.808990478515625,-0.058502197265625,-0.6590118408203125
1726940891726210000,4.0962099609375,-0.70599365234375,-0.13671875,-0.6939239501953125
1726940891736196000,4.106196044921875,-0.7034454345703125,-0.2180633544921875,-0.682586669921875
1726940891746182100,4.11618212890625,-0.7043304443359375,-0.2767791748046875,-0.71044921875
1726940891756167200,4.126167236328125,-0.740447998046875,-0.299468994140625,-0.713226318359375
1726940891766153200,4.1361533203125,-0.791473388671875,-0.2785186767578125,-0.7109527587890625
1726940891776139000,4.146138916015625,-0.8404998779296875,-0.2455902099609375,-0.6998443603515625
1726940891786125000,4.156125,-0.8896026611328125,-0.24383544921875,-0.7216796875
1726940891796111000,4.166111083984375,-0.8369903564453125,-0.242706298828125,-0.6969146728515625
1726940891806097200,4.17609716796875,-0.76617431640625,-0.2250823974609375,-0.639190673828125
1726940891816083200,4.186083251953125,-0.6860809326171875,-0.19171142578125,-0.572296142578125
1726940891826069000,4.196069091796875,-0.6324920654296875,-0.1566162109375,-0.526397705078125
1726940891836055000,4.206054931640625,-0.6118621826171875,-0.1458282470703125,-0.5191650390625
1726940891846040000,4.2160400390625,-0.62200927734375,-0.14739990234375,-0.5336761474609375
1726940891856026000,4.226026123046875,-0.6303863525390625,-0.1491851806640625,-0.565948486328125
1726940891866012200,4.23601220703125,-0.6401214599609375,-0.1428680419921875,-0.6046295166015625
1726940891875998000,4.245998046875,-0.6234130859375,-0.1093597412109375,-0.6255645751953125
1726940891885984300,4.255984375,-0.6301116943359375,-0.065521240234375,-0.6496124267578125
1726940891895970000,4.265969970703125,-0.695343017578125,-0.0295867919921875,-0.6728668212890625
1726940891905956000,4.2759560546875,-0.7723541259765625,-0.005157470703125,-0.7133026123046875
1726940891915942100,4.285942138671875,-0.84307861328125,0.006683349609375,-0.75592041015625
1726940891925927200,4.29592724609375,-0.891387939453125,-0.014434814453125,-0.7902679443359375
1726940891935913000,4.305912841796875,-0.8751220703125,-0.0191650390625,-0.7850341796875
1726940891945899000,4.31589892578125,-0.8404388427734375,-0.0287017822265625,-0.776092529296875
1726940891955885000,4.325885009765625,-0.7828216552734375,-0.0236358642578125,-0.7478485107421875
1726940891965871000,4.33587109375,-0.7363739013671875,-0.0196685791015625,-0.7140960693359375
1726940891975857000,4.34585693359375,-0.7384490966796875,-0.0257110595703125,-0.701019287109375
1726940891985843200,4.35584326171875,-0.7442474365234375,-0.03924560546875,-0.6985321044921875
1726940891995829000,4.3658291015625,-0.7227325439453125,-0.03759765625,-0.6779327392578125
1726940892005815000,4.37581494140625,-0.68682861328125,-0.03997802734375,-0.663177490234375
1726940892015801000,4.385801025390625,-0.6527252197265625,-0.0435943603515625,-0.6548309326171875
1726940892025786000,4.3957861328125,-0.6041412353515625,-0.067474365234375,-0.665130615234375
1726940892035772200,4.405772216796875,-0.6114044189453125,-0.0972442626953125,-0.69073486328125
1726940892045758000,4.415758056640625,-0.6454010009765625,-0.1209564208984375,-0.711700439453125
1726940892055744300,4.425744140625,-0.6930999755859375,-0.1608123779296875,-0.7296905517578125
1726940892065730000,4.43572998046875,-0.74322509765625,-0.189178466796875,-0.7270965576171875
1726940892075716000,4.445716064453125,-0.8182373046875,-0.1968841552734375,-0.7150726318359375
1726940892085702100,4.4557021484375,-0.8890380859375,-0.1907196044921875,-0.6946563720703125
1726940892095688200,4.465688232421875,-0.917083740234375,-0.1510009765625,-0.659576416015625
1726940892105673000,4.4756728515625,-0.9019012451171875,-0.101226806640625,-0.620513916015625
1726940892115659300,4.4856591796875,-0.8712005615234375,-0.062164306640625,-0.59881591796875
1726940892125645000,4.49564501953125,-0.8575439453125,-0.016845703125,-0.5917205810546875
1726940892135631000,4.505631103515625,-0.8658905029296875,0.0223541259765625,-0.5929107666015625
1726940892145617000,4.515616943359375,-0.8959197998046875,0.0544891357421875,-0.6043853759765625
1726940892155603200,4.525603271484375,-0.937408447265625,0.078094482421875,-0.6080780029296875
1726940892165589000,4.535589111328125,-0.9636688232421875,0.0981597900390625,-0.6088104248046875
1726940892175575000,4.545574951171875,-0.9392852783203125,0.096588134765625,-0.6147308349609375
1726940892185561000,4.55556103515625,-0.8540802001953125,0.080322265625,-0.618896484375
1726940892195547100,4.565547119140625,-0.73260498046875,0.03533935546875,-0.62347412109375
1726940892205532200,4.5755322265625,-0.67333984375,-0.029815673828125,-0.6342620849609375
1726940892215518200,4.585518310546875,-0.6468658447265625,-0.0972442626953125,-0.624114990234375
1726940892225504300,4.595504150390625,-0.6261749267578125,-0.1220703125,-0.589996337890625
1726940892235490000,4.605489990234375,-0.6518707275390625,-0.1290130615234375,-0.5352020263671875
1726940892245476000,4.61547607421875,-0.6967620849609375,-0.1067657470703125,-0.46282958984375
1726940892255462100,4.625462158203125,-0.7174072265625,-0.06414794921875,-0.4212799072265625
1726940892265448200,4.6354482421875,-0.7682342529296875,-0.062835693359375,-0.4304656982421875
1726940892275434000,4.64543408203125,-0.7925567626953125,-0.052825927734375,-0.4581756591796875
1726940892285419300,4.655419189453125,-0.844512939453125,-0.05352783203125,-0.5168609619140625
1726940892295405000,4.665405029296875,-0.951812744140625,-0.0634002685546875,-0.593658447265625
1726940892305391000,4.67539111328125,-1.0789031982421875,-0.0760955810546875,-0.6528167724609375
1726940892315377200,4.685377197265625,-1.1505279541015625,-0.0780792236328125,-0.6602020263671875
1726940892325363200,4.69536328125,-1.1360015869140625,-0.0615081787109375,-0.6217193603515625
1726940892335349000,4.705348876953125,-1.1094970703125,-0.039093017578125,-0.5789947509765625
1726940892345335000,4.7153349609375,-1.0660247802734375,-0.0038909912109375,-0.528167724609375
1726940892355321000,4.725321044921875,-1.0475006103515625,0.0102386474609375,-0.479217529296875
1726940892365307100,4.73530712890625,-1.00537109375,0.024322509765625,-0.425933837890625
1726940892375292200,4.745292236328125,-0.951568603515625,0.0599517822265625,-0.372039794921875
1726940892385278200,4.7552783203125,-0.8982086181640625,0.0988006591796875,-0.3399200439453125
1726940892395264300,4.76526416015625,-0.848968505859375,0.1245269775390625,-0.3626556396484375
1726940892405250000,4.77525,-0.8317108154296875,0.1225433349609375,-0.4163055419921875
1726940892415236400,4.785236328125,-0.8317718505859375,0.11944580078125,-0.4517822265625
1726940892425222100,4.79522216796875,-0.8274993896484375,0.1177978515625,-0.4510040283203125
1726940892435208200,4.805208251953125,-0.84661865234375,0.1190338134765625,-0.4395294189453125
1726940892445194000,4.815194091796875,-0.8539276123046875,0.124969482421875,-0.4125823974609375
1726940892455180300,4.82518017578125,-0.8632965087890625,0.147796630859375,-0.3705902099609375
1726940892465165600,4.83516552734375,-0.8863677978515625,0.154754638671875,-0.350250244140625
1726940892475151600,4.845151611328125,-0.9260711669921875,0.1428375244140625,-0.336578369140625
1726940892485137400,4.855137451171875,-0.9789276123046875,0.169097900390625,-0.32489013671875
1726940892495123700,4.865123779296875,-0.9843902587890625,0.175445556640625,-0.3043670654296875
1726940892505109500,4.875109619140625,-0.9788818359375,0.19195556640625,-0.2850799560546875
1726940892515095600,4.885095458984375,-0.9769744873046875,0.242889404296875,-0.297210693359375
1726940892525081600,4.89508154296875,-0.99578857421875,0.3083038330078125,-0.3427886962890625
1726940892535067600,4.905067626953125,-1.0132598876953125,0.343017578125,-0.367034912109375
1726940892545053400,4.915053466796875,-1.0218505859375,0.3457794189453125,-0.3699951171875
1726940892555038700,4.925038818359375,-1.0192413330078125,0.34521484375,-0.34808349609375
1726940892565024500,4.9350244140625,-0.986572265625,0.31561279296875,-0.327667236328125
1726940892575010600,4.945010498046875,-0.9146881103515625,0.2490081787109375,-0.3326263427734375
1726940892584996400,4.954996337890625,-0.7922515869140625,0.178924560546875,-0.3094329833984375
1726940892594982700,4.964982666015625,-0.6892242431640625,0.1847686767578125,-0.3872528076171875
1726940892604968400,4.974968505859375,-0.6784820556640625,0.2257843017578125,-0.487823486328125
1726940892614954500,4.98495458984375,-0.766571044921875,0.2345123291015625,-0.5816192626953125
1726940892624940500,4.9949404296875,-0.893341064453125,0.2410888671875,-0.6483001708984375
1726940892634926600,5.004926513671875,-1.0380706787109375,0.2728729248046875,-0.6248016357421875
1726940892644911600,5.01491162109375,-1.1066131591796875,0.3029632568359375,-0.49383544921875
1726940892654897700,5.024897705078125,-1.0071868896484375,0.299072265625,-0.31988525390625
1726940892664883700,5.0348837890625,-0.871337890625,0.2619781494140625,-0.2121429443359375
1726940892674869500,5.044869384765625,-0.7955780029296875,0.2357025146484375,-0.1556854248046875
1726940892684855600,5.05485546875,-0.7805938720703125,0.2394866943359375,-0.13348388671875
1726940892694841600,5.064841552734375,-0.792083740234375,0.2291107177734375,-0.19915771484375
1726940892704827600,5.07482763671875,-0.81573486328125,0.197662353515625,-0.3153839111328125
1726940892714813400,5.0848134765625,-0.8462066650390625,0.1597747802734375,-0.3938751220703125
1726940892724799700,5.0947998046875,-0.8807220458984375,0.1612548828125,-0.3819732666015625
1726940892734784500,5.104784423828125,-0.9031982421875,0.2067413330078125,-0.3310089111328125
1726940892744770600,5.1147705078125,-0.9042510986328125,0.2779693603515625,-0.29412841796875
1726940892754756600,5.124756591796875,-0.8858642578125,0.3641815185546875,-0.28814697265625
1726940892764742700,5.13474267578125,-0.86724853515625,0.41925048828125,-0.3109283447265625
1726940892774728400,5.144728515625,-0.8649444580078125,0.42742919921875,-0.31048583984375
1726940892784714500,5.154714599609375,-0.8539276123046875,0.400177001953125,-0.30279541015625
1726940892794700500,5.164700439453125,-0.830657958984375,0.3782196044921875,-0.28564453125
1726940892804686600,5.1746865234375,-0.801055908203125,0.365264892578125,-0.26739501953125
1726940892814672400,5.18467236328125,-0.778900146484375,0.36322021484375,-0.2694244384765625
1726940892824657700,5.19465771484375,-0.7807769775390625,0.35284423828125,-0.314178466796875
1726940892834643700,5.204643798828125,-0.80218505859375,0.33294677734375,-0.3591461181640625
1726940892844629500,5.21462939453125,-0.8148956298828125,0.3159332275390625,-0.3760833740234375
1726940892854615800,5.22461572265625,-0.809814453125,0.311614990234375,-0.3929290771484375
1726940892864601600,5.2346015625,-0.79400634765625,0.295196533203125,-0.4315032958984375
1726940892874587600,5.244587646484375,-0.805877685546875,0.278411865234375,-0.4654541015625
1726940892884573400,5.254573486328125,-0.840728759765625,0.26361083984375,-0.4832763671875
1726940892894559700,5.264559814453125,-0.8759918212890625,0.2373199462890625,-0.481170654296875
1726940892904545500,5.274545654296875,-0.909637451171875,0.2252655029296875,-0.459869384765625
1726940892914531600,5.284531494140625,-0.9386444091796875,0.231201171875,-0.4234161376953125
1726940892924516600,5.2945166015625,-0.9381256103515625,0.23858642578125,-0.3799285888671875
1726940892934502700,5.304502685546875,-0.9198455810546875,0.25579833984375,-0.375640869140625
1726940892944488400,5.314488525390625,-0.891693115234375,0.2812652587890625,-0.4031829833984375
1726940892954474800,5.324474853515625,-0.881072998046875,0.289398193359375,-0.427734375
1726940892964460500,5.33446044921875,-0.8666839599609375,0.295989990234375,-0.435546875
1726940892974446600,5.344446533203125,-0.8567657470703125,0.3228302001953125,-0.44293212890625
1726940892984432600,5.3544326171875,-0.8788299560546875,0.350006103515625,-0.437347412109375
1726940892994418700,5.364418701171875,-0.909393310546875,0.361907958984375,-0.4368438720703125
1726940893004404500,5.374404541015625,-0.9517059326171875,0.351165771484375,-0.41534423828125
1726940893014389500,5.384389404296875,-0.9692840576171875,0.3098297119140625,-0.3669891357421875
1726940893024375600,5.39437548828125,-0.95843505859375,0.2767791748046875,-0.3276824951171875
1726940893034361600,5.404361572265625,-0.95086669921875,0.2779693603515625,-0.30889892578125
1726940893044347600,5.41434765625,-0.933258056640625,0.28350830078125,-0.317047119140625
1726940893054333700,5.424333740234375,-0.898529052734375,0.261077880859375,-0.3273468017578125
1726940893064319500,5.434319580078125,-0.857696533203125,0.2352294921875,-0.332611083984375
1726940893074305500,5.444305419921875,-0.804290771484375,0.23760986328125,-0.333587646484375
1726940893084291600,5.45429150390625,-0.7949981689453125,0.23480224609375,-0.339599609375
1726940893094276600,5.464276611328125,-0.840240478515625,0.2223968505859375,-0.352691650390625
1726940893104262700,5.4742626953125,-0.8880462646484375,0.2029266357421875,-0.3699188232421875
1726940893114248400,5.48424853515625,-0.925750732421875,0.1697235107421875,-0.3846588134765625
1726940893124234800,5.49423486328125,-0.9112091064453125,0.1427154541015625,-0.3955230712890625
1726940893134220500,5.504220458984375,-0.957916259765625,0.1349945068359375,-0.400421142578125
1726940893144206600,5.51420654296875,-0.9817962646484375,0.1439208984375,-0.3903350830078125
1726940893154192600,5.524192626953125,-0.9891815185546875,0.1663665771484375,-0.37322998046875
1726940893164178700,5.5341787109375,-0.9760589599609375,0.18212890625,-0.3482666015625
1726940893174164500,5.54416455078125,-0.95697021484375,0.19158935546875,-0.33599853515625
1726940893184150800,5.55415087890625,-0.9658203125,0.196502685546875,-0.319549560546875
1726940893194135600,5.564135498046875,-0.9674224853515625,0.1990203857421875,-0.3038330078125
1726940893204121600,5.57412158203125,-0.9554595947265625,0.19708251953125,-0.2832794189453125
1726940893214107400,5.584107421875,-0.94915771484375,0.19476318359375,-0.274444580078125
1726940893224093700,5.59409375,-0.909210205078125,0.206817626953125,-0.2963104248046875
1726940893234079500,5.60407958984375,-0.9111175537109375,0.2114105224609375,-0.3041534423828125
1726940893244065500,5.6140654296875,-0.8970947265625,0.204498291015625,-0.298858642578125
1726940893254051600,5.624051513671875,-0.8555145263671875,0.1786651611328125,-0.30999755859375
1726940893264037600,5.63403759765625,-0.797119140625,0.1188201904296875,-0.32720947265625
1726940893274023400,5.6440234375,-0.78271484375,0.075286865234375,-0.351898193359375
1726940893284008400,5.654008544921875,-0.8368988037109375,0.0601959228515625,-0.4063568115234375
1726940893293994800,5.663994873046875,-0.925537109375,0.0478363037109375,-0.4571990966796875
1726940893303980500,5.67398046875,-1.0045013427734375,0.0205841064453125,-0.487640380859375
1726940893313966600,5.683966552734375,-1.0290069580078125,0.0023345947265625,-0.514129638671875
1726940893323952600,5.69395263671875,-1.0072479248046875,0.00286865234375,-0.52874755859375
1726940893333938700,5.703938720703125,-1.025665283203125,0.0107269287109375,-0.5355682373046875
1726940893343924500,5.713924560546875,-1.008056640625,-0.0114593505859375,-0.5433807373046875
1726940893353910800,5.723910888671875,-0.998321533203125,-0.0254364013671875,-0.5438385009765625
1726940893363896600,5.733896484375,-1.0091094970703125,-0.024322509765625,-0.56268310546875
1726940893373881600,5.743881591796875,-1.026947021484375,-0.0157623291015625,-0.5504913330078125
1726940893383867400,5.753867431640625,-1.0107269287109375,0.0262908935546875,-0.4889984130859375
1726940893393853700,5.763853759765625,-0.940277099609375,0.0745697021484375,-0.4365997314453125
1726940893403839500,5.773839599609375,-0.8578338623046875,0.098358154296875,-0.4208221435546875
1726940893413825500,5.783825439453125,-0.78369140625,0.098297119140625,-0.4155426025390625
1726940893423811600,5.7938115234375,-0.7382659912109375,0.081207275390625,-0.4263763427734375
1726940893433797600,5.803797607421875,-0.735076904296875,0.069427490234375,-0.43841552734375
1726940893443783400,5.813783447265625,-0.7378997802734375,0.06463623046875,-0.4321746826171875
1726940893453769700,5.823769775390625,-0.7421875,0.0643310546875,-0.4185638427734375
1726940893463754000,5.83375390625,-0.75408935546875,0.083648681640625,-0.41900634765625
1726940893473739800,5.84373974609375,-0.796539306640625,0.115020751953125,-0.4194183349609375
1726940893483725800,5.853725830078125,-0.8695220947265625,0.1324462890625,-0.4273223876953125
1726940893493711600,5.863711669921875,-0.8831939697265625,0.1526031494140625,-0.4412078857421875
1726940893503698000,5.873697998046875,-0.9217681884765625,0.1443634033203125,-0.45654296875
1726940893513683700,5.88368359375,-0.9285125732421875,0.11676025390625,-0.485443115234375
1726940893523669800,5.893669677734375,-1.038970947265625,0.0855560302734375,-0.489471435546875
1726940893533655800,5.90365576171875,-1.0658111572265625,0.056793212890625,-0.477691650390625
1726940893543641900,5.913641845703125,-1.0067291259765625,0.0611572265625,-0.4473876953125
1726940893553627000,5.923626953125,-0.9993896484375,0.0802001953125,-0.3884124755859375
1726940893563613000,5.933613037109375,-0.976409912109375,0.1018524169921875,-0.32830810546875
1726940893573599000,5.943598876953125,-0.8898468017578125,0.119476318359375,-0.2818603515625
1726940893583584800,5.953584716796875,-0.8071136474609375,0.116302490234375,-0.27294921875
1726940893593570800,5.96357080078125,-0.7578887939453125,0.07769775390625,-0.3029632568359375
1726940893603556900,5.973556884765625,-0.784820556640625,0.0431365966796875,-0.3690185546875
1726940893613543000,5.98354296875,-0.863250732421875,0.0125885009765625,-0.4429168701171875
1726940893623528700,5.99352880859375,-0.905975341796875,-0.0009765625,-0.4649658203125
1726940893633515000,6.003514892578125,-0.93310546875,0.0001220703125,-0.4566192626953125
1726940893643499800,6.013499755859375,-0.943084716796875,0.0069427490234375,-0.4291229248046875
1726940893653485800,6.02348583984375,-0.936431884765625,0.0166473388671875,-0.3919830322265625
1726940893663471900,6.033471923828125,-0.9066314697265625,0.038055419921875,-0.3652496337890625
1726940893673458000,6.0434580078125,-0.875885009765625,0.0482025146484375,-0.3641357421875
1726940893683443700,6.053443603515625,-0.828826904296875,0.0478668212890625,-0.400146484375
1726940893693430000,6.063429931640625,-0.828277587890625,0.0446624755859375,-0.44317626953125
1726940893703415800,6.073415771484375,-0.8465576171875,0.062255859375,-0.46990966796875
1726940893713401900,6.08340185546875,-0.8670806884765625,0.0819244384765625,-0.48089599609375
1726940893723387600,6.0933876953125,-0.8728790283203125,0.082550048828125,-0.4757843017578125
1726940893733373000,6.103373046875,-0.8873138427734375,0.0823822021484375,-0.4352569580078125
1726940893743359000,6.11335888671875,-0.8907470703125,0.0877685546875,-0.3909454345703125
1726940893753344800,6.1233447265625,-0.840789794921875,0.0822906494140625,-0.405242919921875
1726940893763330800,6.133330810546875,-0.8088226318359375,0.068756103515625,-0.4332427978515625
1726940893773316900,6.14331689453125,-0.794464111328125,0.047210693359375,-0.4635467529296875
1726940893783302700,6.153302734375,-0.802978515625,0.03472900390625,-0.509796142578125
1726940893793289000,6.1632890625,-0.84832763671875,0.0164031982421875,-0.5576629638671875
1726940893803274800,6.173274658203125,-0.9209136962890625,0.0091094970703125,-0.584686279296875
1726940893813260800,6.1832607421875,-0.9726104736328125,0.024383544921875,-0.5798492431640625
1726940893823245800,6.193245849609375,-0.9808197021484375,0.03924560546875,-0.551300048828125
1726940893833232000,6.20323193359375,-0.948822021484375,0.043212890625,-0.543212890625
1726940893843218000,6.213218017578125,-0.94036865234375,0.0342254638671875,-0.5585479736328125
1726940893853203700,6.22320361328125,-0.9573822021484375,0.0176239013671875,-0.56182861328125
1726940893863190000,6.23318994140625,-0.9611663818359375,-0.0027618408203125,-0.632080078125
1726940893873175800,6.24317578125,-0.9500274658203125,-0.00433349609375,-0.705291748046875
1726940893883161900,6.253161865234375,-0.988494873046875,-0.0018310546875,-0.6911468505859375
1726940893893148000,6.26314794921875,-0.983154296875,-0.0098876953125,-0.6353912353515625
1726940893903134000,6.273134033203125,-0.9726104736328125,-0.027374267578125,-0.46759033203125
1726940893913118700,6.28311865234375,-0.84747314453125,-0.001068115234375,-0.36077880859375
1726940893923104800,6.293104736328125,-0.7604522705078125,0.031982421875,-0.325286865234375
1726940893933090800,6.3030908203125,-0.7471771240234375,0.0545501708984375,-0.344268798828125
1726940893943076900,6.313076904296875,-0.8241424560546875,0.064483642578125,-0.380615234375
1726940893953062700,6.323062744140625,-0.869110107421875,0.0570831298828125,-0.4390411376953125
1726940893963049000,6.333049072265625,-0.8739013671875,0.04046630859375,-0.490325927734375
1726940893973034800,6.34303466796875,-0.9062347412109375,0.036468505859375,-0.5119476318359375
1726940893983020800,6.353020751953125,-0.9354248046875,0.0468292236328125,-0.5032958984375
1726940893993006800,6.3630068359375,-0.9507293701171875,0.0572967529296875,-0.4424591064453125
1726940894002993000,6.372992919921875,-0.95245361328125,0.0639190673828125,-0.3850860595703125
1726940894012978000,6.38297802734375,-0.9419097900390625,0.0818023681640625,-0.3441162109375
1726940894022963700,6.392963623046875,-0.9179229736328125,0.093017578125,-0.3374176025390625
1726940894032950000,6.402949951171875,-0.9312286376953125,0.1062164306640625,-0.3739471435546875
1726940894042935800,6.412935791015625,-0.948272705078125,0.1156463623046875,-0.4242706298828125
1726940894052921900,6.422921875,-1.00274658203125,0.1113739013671875,-0.4753570556640625
1726940894062908000,6.432907958984375,-1.06109619140625,0.1137847900390625,-0.4652557373046875
1726940894072894000,6.44289404296875,-1.057281494140625,0.1330413818359375,-0.40631103515625
1726940894082879700,6.452879638671875,-1.0125579833984375,0.1754913330078125,-0.3175201416015625
1726940894092866000,6.462865966796875,-0.9669036865234375,0.2179718017578125,-0.263824462890625
1726940894102850800,6.472850830078125,-1.004730224609375,0.2736968994140625,-0.2451934814453125
1726940894112836900,6.4828369140625,-1.10528564453125,0.30999755859375,-0.2757720947265625
1726940894122822700,6.49282275390625,-1.2682037353515625,0.2752685546875,-0.3235626220703125
1726940894132809000,6.50280908203125,-1.416595458984375,0.2286834716796875,-0.3041229248046875
1726940894142794800,6.512794677734375,-1.4487457275390625,0.2081298828125,-0.17510986328125
1726940894152780800,6.52278076171875,-1.3429718017578125,0.2358245849609375,-0.01629638671875
1726940894162766800,6.532766845703125,-1.1276092529296875,0.2728729248046875,0.0909576416015625
1726940894172753000,6.5427529296875,-0.9504547119140625,0.31494140625,0.1362457275390625
1726940894182738700,6.55273876953125,-0.872589111328125,0.3551177978515625,0.11346435546875
1726940894192723700,6.5627236328125,-0.87518310546875,0.3809661865234375,0.0825958251953125
1726940894202710000,6.5727099609375,-0.9033355712890625,0.40966796875,-0.01849365234375
1726940894212695800,6.58269580078125,-0.9047393798828125,0.424102783203125,-0.0845794677734375
1726940894222681900,6.592681884765625,-0.87603759765625,0.4379425048828125,-0.1318511962890625
1726940894232668000,6.60266796875,-0.78192138671875,0.4227447509765625,-0.1439208984375
1726940894242654000,6.612654052734375,-0.607574462890625,0.3766632080078125,-0.1884918212890625
1726940894252639700,6.6226396484375,-0.4678192138671875,0.3551025390625,-0.2538604736328125
1726940894262626000,6.6326259765625,-0.35064697265625,0.37646484375,-0.303497314453125
1726940894272611800,6.64261181640625,-0.3282318115234375,0.4004974365234375,-0.45233154296875
1726940894282596900,6.652596923828125,-0.3753204345703125,0.3773040771484375,-0.6398773193359375
1726940894292582700,6.662582763671875,-0.406890869140625,0.3145751953125,-0.668243408203125
1726940894302569000,6.67256884765625,-0.4815673828125,0.227142333984375,-0.546478271484375
1726940894312554800,6.6825546875,-0.5749053955078125,0.1881866455078125,-0.36663818359375
1726940894322540800,6.692540771484375,-0.6320953369140625,0.19073486328125,-0.3295135498046875
1726940894332526800,6.70252685546875,-0.6862030029296875,0.24822998046875,-0.4001312255859375
1726940894342513000,6.712512939453125,-0.761505126953125,0.2936859130859375,-0.4781951904296875
1726940894352498700,6.722498779296875,-0.887115478515625,0.314361572265625,-0.5342864990234375
1726940894362485000,6.732485107421875,-1.0286102294921875,0.3242645263671875,-0.5181121826171875
1726940894372470000,6.742469970703125,-1.0413818359375,0.2940216064453125,-0.44110107421875
1726940894382455800,6.752455810546875,-0.9487762451171875,0.313262939453125,-0.3125152587890625
1726940894392441900,6.76244189453125,-0.8473052978515625,0.3869476318359375,-0.243011474609375
1726940894402428000,6.772427978515625,-0.794464111328125,0.43994140625,-0.2443389892578125
1726940894412414000,6.7824140625,-0.7815399169921875,0.4638519287109375,-0.2429962158203125
1726940894422399700,6.792399658203125,-0.773834228515625,0.478271484375,-0.2544403076171875
1726940894432386000,6.802385986328125,-0.760101318359375,0.4917755126953125,-0.2851104736328125
1726940894442371800,6.812371826171875,-0.733673095703125,0.4993743896484375,-0.302276611328125
1726940894452358000,6.82235791015625,-0.6883544921875,0.47637939453125,-0.29669189453125
1726940894462344000,6.832343994140625,-0.632598876953125,0.4273681640625,-0.30169677734375
1726940894472329000,6.842328857421875,-0.582000732421875,0.398345947265625,-0.326629638671875
1726940894482315000,6.85231494140625,-0.578643798828125,0.3646392822265625,-0.325042724609375
1726940894492301000,6.862301025390625,-0.6077728271484375,0.337921142578125,-0.3424072265625
1726940894502286800,6.872286865234375,-0.6717529296875,0.308990478515625,-0.3921966552734375
1726940894512273000,6.88227294921875,-0.81219482421875,0.2622528076171875,-0.484893798828125
1726940894522259000,6.892259033203125,-0.9918212890625,0.2245941162109375,-0.6103515625
1726940894532245000,6.902244873046875,-1.05712890625,0.1986541748046875,-0.66766357421875
1726940894542230800,6.912230712890625,-1.183685302734375,0.1429595947265625,-0.5976409912109375
1726940894552217000,6.922217041015625,-1.2376556396484375,0.1443634033203125,-0.4563446044921875
1726940894562201900,6.932201904296875,-1.2607879638671875,0.2413787841796875,-0.36456298828125
1726940894572188000,6.94218798828125,-1.3505096435546875,0.3241119384765625,-0.303680419921875
1726940894582174000,6.952174072265625,-1.516448974609375,0.4001312255859375,-0.3076171875
1726940894592160000,6.962159912109375,-1.6105804443359375,0.4412384033203125,-0.3590545654296875
1726940894602145800,6.972145751953125,-1.584686279296875,0.377349853515625,-0.3883209228515625
1726940894612132000,6.982132080078125,-1.5096435546875,0.2825164794921875,-0.3798828125
1726940894622118000,6.992117919921875,-1.408721923828125,0.2108612060546875,-0.329986572265625
1726940894632104000,7.00210400390625,-1.2706298828125,0.2028656005859375,-0.23822021484375
1726940894642089700,7.01208984375,-1.133514404296875,0.18304443359375,-0.1173858642578125
1726940894652075000,7.022074951171875,-0.9714202880859375,0.2011260986328125,-0.0460052490234375
1726940894662061000,7.03206103515625,-0.8360443115234375,0.2252044677734375,-0.0437164306640625
1726940894672046800,7.042046875,-0.7396240234375,0.202606201171875,-0.050567626953125
1726940894682033200,7.052033203125,-0.753448486328125,0.204254150390625,-0.08612060546875
1726940894692019000,7.06201904296875,-0.7700653076171875,0.1975860595703125,-0.1337127685546875
1726940894702005000,7.0720048828125,-0.7802734375,0.165374755859375,-0.156158447265625
1726940894711991000,7.081990966796875,-0.7594451904296875,0.1314544677734375,-0.18310546875
1726940894721977000,7.09197705078125,-0.707183837890625,0.1103515625,-0.1927032470703125
1726940894731963000,7.101962890625,-0.6627655029296875,0.11199951171875,-0.17767333984375
1726940894741949000,7.111948974609375,-0.6725921630859375,0.1225738525390625,-0.1609954833984375
1726940894751934000,7.121933837890625,-0.6805877685546875,0.117218017578125,-0.1855926513671875
1726940894761920000,7.131919921875,-0.68719482421875,0.1099395751953125,-0.236968994140625
1726940894771905800,7.14190576171875,-0.732879638671875,0.11590576171875,-0.295745849609375
1726940894781892000,7.15189208984375,-0.8307037353515625,0.1318206787109375,-0.3657379150390625
1726940894791878000,7.1618779296875,-0.9490203857421875,0.1336669921875,-0.4069671630859375
1726940894801864000,7.171864013671875,-1.1386566162109375,0.1197967529296875,-0.4884033203125
1726940894811850000,7.18185009765625,-1.30596923828125,0.077850341796875,-0.570343017578125
1726940894821836000,7.1918359375,-1.4307861328125,0.05316162109375,-0.605865478515625
1726940894831821800,7.20182177734375,-1.5132293701171875,0.027862548828125,-0.6131134033203125
1726940894841806800,7.211806884765625,-1.4520263671875,0.0030364990234375,-0.5464935302734375
1726940894851793200,7.221793212890625,-1.2253570556640625,-0.020233154296875,-0.42401123046875
1726940894861779000,7.231779052734375,-1.0372467041015625,0.0035858154296875,-0.3270263671875
1726940894871765000,7.241764892578125,-0.9966888427734375,0.022186279296875,-0.2875213623046875
1726940894881751000,7.2517509765625,-0.919830322265625,-0.022216796875,-0.31744384765625
1726940894891737000,7.261737060546875,-0.8369140625,-0.0720977783203125,-0.3447418212890625
1726940894901723000,7.271722900390625,-0.7853240966796875,-0.114837646484375,-0.3360443115234375
1726940894911709200,7.281709228515625,-0.7017059326171875,-0.132354736328125,-0.2978668212890625
1726940894921695000,7.291695068359375,-0.6765289306640625,-0.1165618896484375,-0.212127685546875
1726940894931681000,7.301680908203125,-0.7205657958984375,-0.09442138671875,-0.1247406005859375
1726940894941665800,7.311665771484375,-0.7787628173828125,-0.0827789306640625,-0.091339111328125
1726940894951652000,7.321652099609375,-0.872528076171875,-0.0710601806640625,-0.0826568603515625
1726940894961638000,7.331637939453125,-0.942596435546875,-0.05792236328125,-0.0853729248046875
1726940894971624000,7.3416240234375,-0.8925933837890625,-0.024017333984375,-0.1060028076171875
1726940894981610000,7.35160986328125,-0.81488037109375,0.050079345703125,-0.144989013671875
1726940894991596000,7.361595947265625,-0.8321990966796875,0.1016387939453125,-0.186859130859375
1726940895001581800,7.371581787109375,-0.8733367919921875,0.1323089599609375,-0.256317138671875
1726940895011568000,7.381568115234375,-0.927886962890625,0.1493072509765625,-0.35711669921875
1726940895021554000,7.391553955078125,-0.9877166748046875,0.1497344970703125,-0.46075439453125
1726940895031539000,7.4015390625,-1.0176849365234375,0.1453399658203125,-0.5387115478515625
1726940895041525000,7.41152490234375,-1.0102081298828125,0.1319122314453125,-0.575927734375
1726940895051511000,7.421510986328125,-1.0077056884765625,0.1154327392578125,-0.5461883544921875
1726940895061497000,7.4314970703125,-1.063690185546875,0.0860443115234375,-0.4677734375
1726940895071483000,7.44148291015625,-1.092742919921875,0.063568115234375,-0.3919525146484375
1726940895081469200,7.45146923828125,-1.045074462890625,0.0699615478515625,-0.391357421875
1726940895091455000,7.461455078125,-1.000274658203125,0.0899810791015625,-0.41571044921875
1726940895101441000,7.47144091796875,-0.9857940673828125,0.1017608642578125,-0.437408447265625
1726940895111427000,7.481427001953125,-0.989898681640625,0.1044158935546875,-0.4533233642578125
1726940895121412000,7.491412109375,-1.0313720703125,0.111724853515625,-0.423583984375
1726940895131398000,7.50139794921875,-1.0887451171875,0.1146697998046875,-0.3493804931640625
1726940895141384000,7.511384033203125,-1.062103271484375,0.1161346435546875,-0.3188629150390625
1726940895151370000,7.521369873046875,-0.9945526123046875,0.1379547119140625,-0.30047607421875
1726940895161356000,7.53135595703125,-0.9468231201171875,0.1545867919921875,-0.2928009033203125
1726940895171341800,7.541341796875,-0.8958282470703125,0.1453399658203125,-0.310821533203125
1726940895181328100,7.551328125,-0.8787078857421875,0.1395416259765625,-0.33740234375
1726940895191314000,7.56131396484375,-0.904296875,0.126678466796875,-0.36029052734375
1726940895201300000,7.571300048828125,-0.94189453125,0.116180419921875,-0.331787109375
1726940895211286000,7.5812861328125,-0.9630279541015625,0.1081390380859375,-0.31317138671875
1726940895221271000,7.59127099609375,-0.9499969482421875,0.124420166015625,-0.3302459716796875
1726940895231257000,7.601257080078125,-0.9512481689453125,0.1535186767578125,-0.3154754638671875
1726940895241243000,7.611242919921875,-0.955657958984375,0.1683349609375,-0.2873687744140625
1726940895251229000,7.62122900390625,-0.9715118408203125,0.177276611328125,-0.255035400390625
1726940895261215000,7.631215087890625,-0.9927520751953125,0.174102783203125,-0.214691162109375
1726940895271200800,7.64120068359375,-0.955963134765625,0.1307525634765625,-0.1793670654296875
1726940895281187000,7.65118701171875,-0.883941650390625,0.1162261962890625,-0.1735687255859375
1726940895291172900,7.6611728515625,-0.8865814208984375,0.1514434814453125,-0.18548583984375
1726940895301159000,7.671158935546875,-0.9300689697265625,0.20086669921875,-0.2210540771484375
1726940895311144000,7.68114404296875,-0.9803466796875,0.2469482421875,-0.2622528076171875
1726940895321130000,7.6911298828125,-1.04571533203125,0.278778076171875,-0.28594970703125
1726940895331116000,7.701115966796875,-1.05804443359375,0.2445831298828125,-0.30389404296875
1726940895341101800,7.711101806640625,-0.9854736328125,0.23486328125,-0.2094879150390625
1726940895351088000,7.721088134765625,-0.9204864501953125,0.2608489990234375,-0.1091461181640625
1726940895361074000,7.731073974609375,-0.8643035888671875,0.296234130859375,-0.055389404296875
1726940895371060000,7.74106005859375,-0.8625946044921875,0.3709259033203125,-0.0649566650390625
1726940895381046000,7.7510458984375,-0.9378509521484375,0.4161224365234375,-0.1750946044921875
1726940895391032000,7.761031982421875,-1.0082855224609375,0.3821563720703125,-0.2613067626953125
1726940895401017900,7.771017822265625,-1.0417022705078125,0.3132476806640625,-0.2721099853515625
1726940895411003000,7.7810029296875,-0.9738311767578125,0.2609100341796875,-0.207763671875
1726940895420989000,7.790989013671875,-0.85498046875,0.267486572265625,-0.1684417724609375
1726940895430975000,7.80097509765625,-0.8484039306640625,0.375701904296875,-0.2254791259765625
1726940895440960800,7.810960693359375,-0.8953094482421875,0.47186279296875,-0.4029998779296875
1726940895450947000,7.820947021484375,-0.8939971923828125,0.3582611083984375,-0.460693359375
1726940895460932900,7.830932861328125,-0.77850341796875,0.2361907958984375,-0.3409271240234375
1726940895470919200,7.840919189453125,-0.6560211181640625,0.18597412109375,-0.2120361328125
1726940895480905000,7.850905029296875,-0.578399658203125,0.275054931640625,-0.1336517333984375
1726940895490891000,7.86089111328125,-0.5409088134765625,0.4555816650390625,-0.2560272216796875
1726940895500876300,7.870876220703125,-0.62860107421875,0.5691986083984375,-0.4418792724609375
1726940895510862000,7.880862060546875,-0.8150634765625,0.5251007080078125,-0.4564666748046875
1726940895520848100,7.89084814453125,-0.9027557373046875,0.40228271484375,-0.3304901123046875
1726940895530834000,7.900833984375,-0.830047607421875,0.35833740234375,-0.2094879150390625
1726940895540820200,7.9108203125,-0.7291107177734375,0.4210357666015625,-0.26324462890625
1726940895550806000,7.920805908203125,-0.656585693359375,0.468536376953125,-0.3590545654296875
1726940895560792000,7.9307919921875,-0.673675537109375,0.4563751220703125,-0.376007080078125
1726940895570778000,7.940778076171875,-0.7419586181640625,0.345123291015625,-0.35858154296875
1726940895580764200,7.95076416015625,-0.7745819091796875,0.237945556640625,-0.26873779296875
1726940895590750000,7.96075,-0.7218017578125,0.229583740234375,-0.2158050537109375
1726940895600735200,7.9707353515625,-0.6819610595703125,0.2809600830078125,-0.23846435546875
1726940895610721000,7.980720947265625,-0.6986236572265625,0.3457794189453125,-0.27410888671875
1726940895620707000,7.99070703125,-0.770355224609375,0.391845703125,-0.3134918212890625
1726940895630693000,8.000693115234375,-0.863616943359375,0.38299560546875,-0.3575439453125
1726940895640679200,8.01067919921875,-0.9083709716796875,0.325897216796875,-0.3798370361328125
1726940895650665000,8.0206650390625,-0.94525146484375,0.318939208984375,-0.3841552734375
1726940895660651000,8.030651123046875,-1.0035858154296875,0.336212158203125,-0.385986328125
1726940895670637000,8.040636962890625,-1.0879058837890625,0.3508453369140625,-0.4045257568359375
1726940895680623000,8.050623046875,-1.171478271484375,0.3407440185546875,-0.4088592529296875
1726940895690608000,8.060608154296874,-1.2088470458984375,0.3013458251953125,-0.3838958740234375
1726940895700594200,8.07059423828125,-1.1922760009765625,0.28680419921875,-0.354583740234375
1726940895710580200,8.080580322265625,-1.1578369140625,0.290191650390625,-0.331146240234375
1726940895720566000,8.09056591796875,-1.2057342529296875,0.297515869140625,-0.3192291259765625
1726940895730552300,8.10055224609375,-1.1918182373046875,0.26397705078125,-0.30609130859375
1726940895740538000,8.1105380859375,-1.113616943359375,0.2533111572265625,-0.3192596435546875
1726940895750524200,8.120524169921875,-0.9982452392578125,0.24151611328125,-0.2638702392578125
1726940895760510000,8.130510009765626,-0.883453369140625,0.2799530029296875,-0.2258453369140625
1726940895770496300,8.140496337890625,-0.851837158203125,0.312255859375,-0.18292236328125
1726940895780482000,8.15048193359375,-0.788787841796875,0.2993927001953125,-0.1734466552734375
1726940895790467000,8.160467041015625,-0.7629241943359375,0.2542572021484375,-0.2027740478515625
1726940895800453000,8.170453125,-0.72686767578125,0.1964874267578125,-0.26239013671875
1726940895810439200,8.180439208984374,-0.701690673828125,0.164703369140625,-0.3170166015625
1726940895820425000,8.190425048828125,-0.754058837890625,0.140350341796875,-0.386016845703125
1726940895830411300,8.200411376953125,-0.8168182373046875,0.1321258544921875,-0.452667236328125
1726940895840397000,8.21039697265625,-0.8458709716796875,0.1293792724609375,-0.4852447509765625
1726940895850383000,8.220383056640625,-0.8553924560546875,0.12322998046875,-0.4771575927734375
1726940895860369000,8.230368896484375,-0.888336181640625,0.1219329833984375,-0.458526611328125
1726940895870355200,8.240355224609376,-0.961669921875,0.1294403076171875,-0.4313812255859375
1726940895880340200,8.25034033203125,-1.017425537109375,0.132354736328125,-0.3840484619140625
1726940895890326000,8.260325927734375,-0.9862518310546875,0.1497802734375,-0.351470947265625
1726940895900312000,8.27031201171875,-0.9892120361328125,0.1572418212890625,-0.34979248046875
1726940895910298000,8.280298095703126,-1.01025390625,0.1639556884765625,-0.3379364013671875
1726940895920284200,8.2902841796875,-1.06591796875,0.1850433349609375,-0.336944580078125
1726940895930270200,8.300270263671875,-1.146636962890625,0.1937255859375,-0.32952880859375
1726940895940256000,8.310256103515625,-1.200225830078125,0.1985321044921875,-0.30450439453125
1726940895950242000,8.320241943359376,-1.23248291015625,0.2165985107421875,-0.2915191650390625
1726940895960227800,8.330227783203124,-1.252716064453125,0.211578369140625,-0.2964630126953125
1726940895970214100,8.340214111328125,-1.2042694091796875,0.2123565673828125,-0.3058929443359375
1726940895980199200,8.35019921875,-1.117340087890625,0.1923370361328125,-0.2961883544921875
1726940895990185000,8.36018505859375,-1.0195159912109375,0.1882171630859375,-0.2365875244140625
1726940896000171300,8.370171142578124,-0.9323272705078125,0.1979522705078125,-0.17437744140625
1726940896010157000,8.380156982421875,-0.80401611328125,0.19830322265625,-0.17181396484375
1726940896020143000,8.39014306640625,-0.75616455078125,0.195068359375,-0.193878173828125
1726940896030129200,8.400129150390624,-0.7889404296875,0.187744140625,-0.2210540771484375
1726940896040115200,8.410115234375,-0.78106689453125,0.1742095947265625,-0.236785888671875
1726940896050101000,8.42010107421875,-0.753631591796875,0.147796630859375,-0.2329254150390625
1726940896060087000,8.430087158203126,-0.7260284423828125,0.1294708251953125,-0.2084808349609375
1726940896070072000,8.440072021484376,-0.7135162353515625,0.119232177734375,-0.2113037109375
1726940896080058000,8.45005810546875,-0.774261474609375,0.0936126708984375,-0.2908172607421875
1726940896090044000,8.4600439453125,-0.833282470703125,0.0708160400390625,-0.392364501953125
1726940896100030200,8.4700302734375,-0.8747711181640625,0.0694732666015625,-0.43743896484375
1726940896110016000,8.48001611328125,-0.8759765625,0.0693359375,-0.3740997314453125
1726940896120002000,8.490001953125,-0.8369293212890625,0.054718017578125,-0.245941162109375
1726940896129988000,8.499988037109375,-0.861724853515625,0.0074615478515625,-0.23822021484375
1726940896139974100,8.50997412109375,-0.9107513427734375,-0.029296875,-0.328369140625
1726940896149960000,8.5199599609375,-0.950042724609375,-0.0420074462890625,-0.4422149658203125
1726940896159946000,8.529946044921875,-1.04296875,-0.0699920654296875,-0.5284576416015625
1726940896169931300,8.53993115234375,-1.1096343994140625,-0.11273193359375,-0.4965667724609375
1726940896179917000,8.5499169921875,-1.1049957275390625,-0.1407623291015625,-0.3741302490234375
1726940896189903000,8.559903076171874,-1.0424652099609375,-0.114349365234375,-0.2708740234375
1726940896199889200,8.56988916015625,-1.008575439453125,-0.0712738037109375,-0.216094970703125
1726940896209875200,8.579875244140625,-0.9878997802734375,-0.0329132080078125,-0.2517242431640625
1726940896219861000,8.589861083984376,-0.9789581298828125,-0.00048828125,-0.363677978515625
1726940896229847300,8.599847412109375,-0.972625732421875,0.034820556640625,-0.432098388671875
1726940896239833000,8.6098330078125,-0.9493408203125,0.071868896484375,-0.367889404296875
1726940896249819100,8.619819091796876,-0.9911956787109375,0.083160400390625,-0.302764892578125
1726940896259805000,8.629804931640624,-1.0009918212890625,0.086822509765625,-0.2872314453125
1726940896269790200,8.639790283203125,-1.0275726318359375,0.1197357177734375,-0.3198394775390625
1726940896279776000,8.64977587890625,-1.0553741455078125,0.1572418212890625,-0.373077392578125
1726940896289762000,8.659761962890625,-1.0211334228515625,0.170501708984375,-0.3936614990234375
1726940896299748000,8.669748046875,-0.967193603515625,0.137542724609375,-0.3650360107421875
1726940896309734100,8.679734130859375,-0.9054107666015625,0.1009063720703125,-0.336578369140625
1726940896319720000,8.689719970703125,-0.855255126953125,0.098419189453125,-0.3160858154296875
1726940896329706200,8.699706298828126,-0.8118438720703125,0.1239013671875,-0.34912109375
1726940896339692000,8.709692138671874,-0.83447265625,0.149993896484375,-0.4127349853515625
1726940896349678000,8.719677978515625,-0.887359619140625,0.1615753173828125,-0.4765777587890625
1726940896359663000,8.7296630859375,-0.9699859619140625,0.153839111328125,-0.4552459716796875
1726940896369649200,8.739649169921876,-0.982940673828125,0.1290283203125,-0.3909454345703125
1726940896379635200,8.74963525390625,-0.9255523681640625,0.1247100830078125,-0.350677490234375
1726940896389621000,8.75962109375,-0.9111328125,0.16558837890625,-0.3316650390625
1726940896399607300,8.769607177734375,-0.97308349609375,0.2336578369140625,-0.32415771484375
1726940896409593000,8.779593017578126,-1.075469970703125,0.2535247802734375,-0.3161468505859375
1726940896419579100,8.7895791015625,-1.1876220703125,0.201019287109375,-0.34210205078125
1726940896429565200,8.799565185546875,-1.2199859619140625,0.1522979736328125,-0.3326416015625
1726940896439551200,8.80955126953125,-1.1846466064453125,0.1717071533203125,-0.271087646484375
1726940896449537000,8.819537109375,-1.1756744384765625,0.236846923828125,-0.17633056640625
1726940896459522000,8.82952197265625,-1.1572113037109375,0.2694854736328125,-0.0656890869140625
1726940896469508600,8.839508544921875,-1.1019287109375,0.27386474609375,-0.0128326416015625
1726940896479495000,8.849494873046876,-1.0548095703125,0.2690277099609375,-0.038421630859375
1726940896489480700,8.859480712890624,-1.0458984375,0.2781829833984375,-0.0633544921875
1726940896499466800,8.869466796875,-0.9963531494140625,0.2754669189453125,-0.05230712890625
1726940896509452800,8.879452880859375,-0.899871826171875,0.30047607421875,-0.04754638671875
1726940896519438800,8.88943896484375,-0.8296051025390625,0.357177734375,-0.06744384765625
1726940896529424600,8.899424560546874,-0.8006134033203125,0.415435791015625,-0.123779296875
1726940896539411000,8.909410888671875,-0.8119354248046875,0.450958251953125,-0.22906494140625
1726940896549396700,8.919396728515625,-0.827850341796875,0.4302520751953125,-0.3082733154296875
1726940896559381800,8.9293818359375,-0.826385498046875,0.3727264404296875,-0.387725830078125
1726940896569367600,8.939367431640624,-0.7113800048828125,0.33819580078125,-0.4409942626953125
1726940896579353900,8.949353759765625,-0.6119842529296875,0.3270111083984375,-0.4144439697265625
1726940896589339600,8.959339599609375,-0.5978546142578125,0.35955810546875,-0.3470458984375
1726940896599325700,8.96932568359375,-0.6064453125,0.3797760009765625,-0.2845458984375
1726940896609311700,8.979311767578125,-0.6089019775390625,0.377532958984375,-0.184722900390625
1726940896619297800,8.9892978515625,-0.6317291259765625,0.4189605712890625,-0.157440185546875
1726940896629283600,8.99928369140625,-0.6796875,0.517486572265625,-0.32257080078125
1726940896639270000,9.009269775390624,-0.7406005859375,0.5294342041015625,-0.50042724609375
1726940896649255700,9.019255615234375,-0.81121826171875,0.4888916015625,-0.558197021484375
1726940896659240700,9.02924072265625,-0.8483734130859375,0.4049835205078125,-0.5025482177734375
1726940896669226800,9.039226806640626,-0.8458709716796875,0.280609130859375,-0.321197509765625
1726940896679212800,9.049212890625,-0.7806243896484375,0.2524871826171875,-0.1948394775390625
1726940896689198800,9.05919873046875,-0.6814117431640625,0.296905517578125,-0.1757659912109375
1726940896699184600,9.0691845703125,-0.6512298583984375,0.327484130859375,-0.2179718017578125
1726940896709171000,9.0791708984375,-0.65386962890625,0.3419189453125,-0.2905731201171875
1726940896719156700,9.08915673828125,-0.657135009765625,0.3404541015625,-0.306243896484375
1726940896729142800,9.099142822265625,-0.6443939208984375,0.3159027099609375,-0.2773590087890625
1726940896739128800,9.10912890625,-0.62353515625,0.298004150390625,-0.273468017578125
1726940896749114600,9.119114501953124,-0.645111083984375,0.30487060546875,-0.2897796630859375
1726940896759099600,9.129099609375,-0.7033538818359375,0.3254547119140625,-0.331298828125
1726940896769085700,9.139085693359375,-0.796722412109375,0.3516387939453125,-0.382110595703125
1726940896779071700,9.14907177734375,-0.9061279296875,0.3688507080078125,-0.42822265625
1726940896789057800,9.159057861328124,-0.94134521484375,0.328094482421875,-0.4237823486328125
1726940896799043600,9.169043701171875,-0.902557373046875,0.2989349365234375,-0.4004974365234375
1726940896809030000,9.17902978515625,-0.857879638671875,0.3040008544921875,-0.362762451171875
1726940896819015700,9.189015625,-0.9770355224609375,0.3412933349609375,-0.316162109375
1726940896829001700,9.199001708984374,-1.1183013916015625,0.3763427734375,-0.2855377197265625
1726940896838987800,9.20898779296875,-1.14984130859375,0.4039459228515625,-0.256591796875
1726940896848972800,9.218972900390625,-1.1193389892578125,0.3825836181640625,-0.2157135009765625
1726940896858958800,9.228958740234376,-1.090362548828125,0.32427978515625,-0.232635498046875
1726940896868944600,9.238944580078124,-1.0812835693359375,0.27850341796875,-0.2603759765625
1726940896878930700,9.2489306640625,-1.1677703857421875,0.2555084228515625,-0.2911224365234375
1726940896888916700,9.258916748046875,-1.24188232421875,0.260467529296875,-0.300048828125
1726940896898902500,9.268902587890626,-1.207000732421875,0.259918212890625,-0.2877655029296875
1726940896908888800,9.278888916015624,-1.1263427734375,0.2527923583984375,-0.2494354248046875
1726940896918874600,9.28887451171875,-1.0608062744140625,0.2503814697265625,-0.2117156982421875
1726940896928860700,9.298860595703125,-1.0390777587890625,0.2222442626953125,-0.1910858154296875
1726940896938846700,9.3088466796875,-1.0166015625,0.1876983642578125,-0.207244873046875
1726940896948832800,9.318832763671875,-0.97235107421875,0.1605377197265625,-0.2285614013671875
1726940896958817800,9.32881787109375,-0.9013214111328125,0.1343841552734375,-0.2502899169921875
1726940896968803600,9.338803466796875,-0.87701416015625,0.1257781982421875,-0.2729644775390625
1726940896978790000,9.348789794921874,-0.8743743896484375,0.148712158203125,-0.288909912109375
1726940896988775700,9.358775634765625,-0.9279022216796875,0.1622161865234375,-0.3447723388671875
1726940896998761700,9.36876171875,-0.9973602294921875,0.1620941162109375,-0.4175567626953125
1726940897008747800,9.378747802734376,-1.0320281982421875,0.162567138671875,-0.4345855712890625
1726940897018733800,9.38873388671875,-1.0355377197265625,0.1587982177734375,-0.373565673828125
1726940897028719600,9.3987197265625,-1.017242431640625,0.16717529296875,-0.2961578369140625
1726940897038706000,9.408705810546875,-0.9905853271484375,0.178375244140625,-0.27142333984375
1726940897048691700,9.418691650390626,-0.9562530517578125,0.1886138916015625,-0.264984130859375
1726940897058677800,9.428677734375,-0.94805908203125,0.1993408203125,-0.2591705322265625
1726940897068662500,9.43866259765625,-0.9478302001953125,0.225128173828125,-0.2419281005859375
1726940897078648800,9.44864892578125,-0.9283447265625,0.24310302734375,-0.2375335693359375
1726940897088634600,9.458634521484376,-0.8874053955078125,0.2424163818359375,-0.2649688720703125
1726940897098620700,9.46862060546875,-0.8448638916015625,0.22528076171875,-0.3132781982421875
1726940897108606700,9.478606689453125,-0.8338470458984375,0.197601318359375,-0.3807373046875
1726940897118592800,9.4885927734375,-0.932373046875,0.1769256591796875,-0.3619842529296875
1726940897128578600,9.49857861328125,-1.054046630859375,0.1327056884765625,-0.3278045654296875
1726940897138564900,9.50856494140625,-1.073089599609375,0.0749969482421875,-0.2900238037109375
1726940897148550700,9.518550537109375,-0.980377197265625,0.035858154296875,-0.247467041015625
1726940897158536700,9.52853662109375,-0.8452301025390625,0.022308349609375,-0.2076263427734375
1726940897168521700,9.538521728515626,-0.776336669921875,0.018096923828125,-0.204071044921875
1726940897178507800,9.5485078125,-0.8441009521484375,0.0319976806640625,-0.182891845703125
1726940897188493800,9.558493896484375,-0.9517822265625,0.016998291015625,-0.1964569091796875
1726940897198479600,9.568479736328126,-0.9596099853515625,-0.0233306884765625,-0.2863311767578125
1726940897208466000,9.5784658203125,-0.885498046875,-0.0464630126953125,-0.382110595703125
1726940897218451700,9.58845166015625,-0.882843017578125,-0.0375518798828125,-0.3869781494140625
1726940897228437800,9.598437744140625,-0.9276275634765625,-0.0315399169921875,-0.2756500244140625
1726940897238423800,9.608423828125,-1.008270263671875,-0.0054779052734375,-0.2250213623046875
1726940897248409900,9.618409912109374,-1.1194610595703125,0.019500732421875,-0.259368896484375
1726940897258395600,9.628395751953125,-1.104736328125,0.0374298095703125,-0.3734130859375
1726940897268382000,9.6383818359375,-1.064239501953125,0.063873291015625,-0.4500885009765625
1726940897278367700,9.64836767578125,-1.0263824462890625,0.1050567626953125,-0.370086669921875
1726940897288352800,9.658352783203124,-1.0281982421875,0.12213134765625,-0.239166259765625
1726940897298338600,9.668338623046875,-1.0472412109375,0.1014862060546875,-0.198944091796875
1726940897308324900,9.678324951171875,-1.0299530029296875,0.1022796630859375,-0.2258148193359375
1726940897318310700,9.688310546875,-1.0053863525390625,0.122406005859375,-0.277374267578125
1726940897328296700,9.698296630859375,-0.9687042236328125,0.137664794921875,-0.31298828125
1726940897338282800,9.70828271484375,-0.9201507568359375,0.13494873046875,-0.3079071044921875
1726940897348268800,9.718268798828126,-0.913421630859375,0.1095428466796875,-0.2864837646484375
1726940897358254600,9.728254638671874,-0.940643310546875,0.092742919921875,-0.3096771240234375
1726940897368241000,9.738240966796875,-0.951873779296875,0.09527587890625,-0.336669921875
1726940897378226700,9.748226806640625,-0.9564361572265625,0.1112060546875,-0.4036712646484375
1726940897388212700,9.758212646484376,-0.9884490966796875,0.118133544921875,-0.432647705078125
1726940897398197800,9.76819775390625,-1.0045318603515625,0.1079254150390625,-0.3730926513671875
1726940897408183800,9.778183837890625,-1.0092010498046875,0.0898590087890625,-0.302520751953125
1726940897418169900,9.788169921875,-1.0124969482421875,0.081817626953125,-0.2655181884765625
1726940897428155600,9.79815576171875,-0.943603515625,0.094573974609375,-0.2840423583984375
1726940897438141700,9.8081416015625,-0.906951904296875,0.14483642578125,-0.259857177734375
1726940897448127700,9.818127685546875,-0.9112396240234375,0.175933837890625,-0.23553466796875
1726940897458113800,9.82811376953125,-0.9377288818359375,0.191558837890625,-0.216949462890625
1726940897468098800,9.838098876953126,-0.9915618896484375,0.16888427734375,-0.2070770263671875
1726940897478084900,9.8480849609375,-0.98248291015625,0.1466064453125,-0.2200469970703125
1726940897488070700,9.858070556640625,-1.019561767578125,0.1417999267578125,-0.24285888671875
1726940897498057000,9.868056884765625,-1.1369781494140625,0.144866943359375,-0.276947021484375
1726940897508042000,9.8780419921875,-1.1789703369140625,0.1581573486328125,-0.2877197265625
1726940897518027800,9.88802783203125,-1.0993499755859375,0.1775360107421875,-0.228057861328125
1726940897528013800,9.898013916015625,-0.998809814453125,0.2051544189453125,-0.14691162109375
1726940897538000000,9.907999755859375,-0.9806365966796875,0.252410888671875,-0.1231689453125
1726940897547986000,9.91798583984375,-1.012725830078125,0.3229522705078125,-0.133148193359375
1726940897557971700,9.9279716796875,-0.9979248046875,0.366851806640625,-0.1418914794921875
1726940897567957800,9.937957763671875,-0.96783447265625,0.373504638671875,-0.1519012451171875
1726940897577943800,9.94794384765625,-0.986602783203125,0.3647003173828125,-0.1676025390625
1726940897587929600,9.9579296875,-1.02423095703125,0.3793487548828125,-0.1988067626953125
1726940897597916000,9.967916015625,-1.0548248291015625,0.402313232421875,-0.2201385498046875
1726940897607901700,9.977901611328125,-1.045623779296875,0.404449462890625,-0.214752197265625
1726940897617886700,9.98788671875,-1.0096435546875,0.3912811279296875,-0.2279205322265625
1726940897627873000,9.997873046875,-0.9186859130859375,0.36737060546875,-0.208709716796875
1726940897637858800,10.00785888671875,-0.8100128173828125,0.292724609375,-0.1800384521484375
1726940897647844900,10.017844970703125,-0.7028350830078125,0.2400360107421875,-0.1002044677734375
1726940897657830700,10.02783056640625,-0.582855224609375,0.2550201416015625,-0.0494232177734375
1726940897667817000,10.03781689453125,-0.435302734375,0.322906494140625,-0.1508636474609375
1726940897677802800,10.047802734375,-0.432403564453125,0.39239501953125,-0.3043975830078125
1726940897687788800,10.057788818359375,-0.5298004150390625,0.430267333984375,-0.38946533203125
1726940897697774800,10.06777490234375,-0.5850830078125,0.427032470703125,-0.4195556640625
1726940897707761000,10.077760986328125,-0.647552490234375,0.398284912109375,-0.4321441650390625
1726940897717746700,10.08774658203125,-0.7065887451171875,0.3903045654296875,-0.4613037109375
1726940897727732000,10.09773193359375,-0.745819091796875,0.4220123291015625,-0.5179595947265625
1726940897737717800,10.1077177734375,-0.8343658447265625,0.406219482421875,-0.4854736328125
1726940897747703800,10.117703857421875,-0.889495849609375,0.3146820068359375,-0.35955810546875
1726940897757689600,10.127689697265625,-0.865142822265625,0.2426300048828125,-0.2344970703125
1726940897767676000,10.137676025390626,-0.7724761962890625,0.251708984375,-0.161041259765625
1726940897777661700,10.14766162109375,-0.69635009765625,0.3018798828125,-0.1549835205078125
1726940897787647700,10.157647705078125,-0.6619873046875,0.3665924072265625,-0.2028961181640625
1726940897797633800,10.1676337890625,-0.6954345703125,0.40374755859375,-0.255767822265625
1726940897807619800,10.177619873046876,-0.7602386474609375,0.4060211181640625,-0.294189453125
1726940897817605600,10.187605712890624,-0.8431396484375,0.3925018310546875,-0.3467864990234375
1726940897827592000,10.197592041015625,-0.8867034912109375,0.383819580078125,-0.3991241455078125
1726940897837577700,10.20757763671875,-0.9655914306640625,0.4093780517578125,-0.418975830078125
1726940897847562800,10.217562744140626,-1.070159912109375,0.42706298828125,-0.4049072265625
1726940897857548800,10.227548828125,-1.1048126220703125,0.3847198486328125,-0.403411865234375
1726940897867534800,10.237534912109375,-1.0761566162109375,0.3006744384765625,-0.3592987060546875
1726940897877521000,10.24752099609375,-0.945892333984375,0.2591552734375,-0.3001251220703125
1726940897887506700,10.257506591796876,-0.8527679443359375,0.249237060546875,-0.221099853515625
1726940897897493000,10.267492919921875,-0.8573760986328125,0.250579833984375,-0.1842803955078125
1726940897907478800,10.277478759765625,-0.847442626953125,0.2422637939453125,-0.1944580078125
1726940897917464800,10.28746484375,-0.8922882080078125,0.2404022216796875,-0.2081146240234375
1726940897927451000,10.297450927734374,-0.94439697265625,0.21722412109375,-0.2543182373046875
1726940897937437000,10.30743701171875,-0.9864959716796875,0.1714935302734375,-0.30322265625
1726940897947422700,10.317422607421875,-1.0266876220703125,0.1584320068359375,-0.353973388671875
1726940897957409000,10.327408935546876,-1.06011962890625,0.1569976806640625,-0.3786468505859375
1726940897967393800,10.337393798828124,-1.0789337158203125,0.16552734375,-0.3851165771484375
1726940897977379800,10.3473798828125,-1.055633544921875,0.1744842529296875,-0.37127685546875
1726940897987365600,10.35736572265625,-1.064544677734375,0.1821441650390625,-0.335052490234375
1726940897997352000,10.36735205078125,-1.0681304931640625,0.1926727294921875,-0.3334503173828125
1726940898007337700,10.377337646484374,-1.072357177734375,0.1915435791015625,-0.3726654052734375
1726940898017323800,10.38732373046875,-1.0750885009765625,0.178131103515625,-0.43115234375
1726940898027309800,10.397309814453125,-1.0797119140625,0.1542510986328125,-0.4912567138671875
1726940898037295900,10.4072958984375,-1.1139984130859375,0.1413421630859375,-0.4785614013671875
1726940898047281700,10.41728173828125,-1.1394805908203125,0.1627197265625,-0.42840576171875
1726940898057268000,10.42726806640625,-1.171600341796875,0.1807098388671875,-0.3957977294921875
1726940898067253800,10.437253662109375,-1.136260986328125,0.2177886962890625,-0.329986572265625
1726940898077238800,10.44723876953125,-0.9922943115234375,0.2388763427734375,-0.2630157470703125
1726940898087224800,10.457224853515624,-0.908111572265625,0.24560546875,-0.1979827880859375
1726940898097211000,10.4672109375,-0.8705902099609375,0.25146484375,-0.1602630615234375
1726940898107197000,10.477197021484375,-0.808380126953125,0.241668701171875,-0.183929443359375
1726940898117182700,10.4871826171875,-0.7954254150390625,0.220977783203125,-0.2295379638671875
1726940898127168800,10.497168701171875,-0.777099609375,0.1948394775390625,-0.304962158203125
1726940898137154800,10.50715478515625,-0.763336181640625,0.1753082275390625,-0.3480682373046875
1726940898147140900,10.517140869140626,-0.808349609375,0.17449951171875,-0.309295654296875
1726940898157127000,10.527126953125,-0.8830413818359375,0.170501708984375,-0.287384033203125
1726940898167112700,10.53711279296875,-0.9336700439453125,0.142913818359375,-0.2759857177734375
1726940898177098800,10.5470986328125,-0.9069061279296875,0.11297607421875,-0.2427215576171875
1726940898187083800,10.557083740234376,-0.8606109619140625,0.1003570556640625,-0.2197723388671875
1726940898197069800,10.56706982421875,-0.8421630859375,0.1005706787109375,-0.1989288330078125
1726940898207056000,10.577055908203125,-0.9143829345703125,0.07861328125,-0.215240478515625
1726940898217041700,10.587041748046875,-0.960479736328125,0.0371246337890625,-0.3005523681640625
1726940898227028000,10.597028076171876,-0.9400787353515625,-0.0051422119140625,-0.4008026123046875
1726940898237013800,10.607013671875,-0.9199676513671875,-0.01654052734375,-0.4300384521484375
1726940898246999800,10.616999755859375,-0.930999755859375,-0.0233001708984375,-0.392974853515625
1726940898256985900,10.62698583984375,-1.01300048828125,-0.02435302734375,-0.31658935546875
1726940898266972000,10.636971923828124,-1.0404052734375,-0.028228759765625,-0.2466888427734375
1726940898276957700,10.646957763671875,-0.9738922119140625,-0.045928955078125,-0.216217041015625
1726940898286944000,10.656944091796875,-0.8950958251953125,-0.0427398681640625,-0.2129669189453125
1726940898296929800,10.6669296875,-0.863861083984375,-0.01849365234375,-0.2158203125
1726940898306914800,10.676914794921874,-0.8890228271484375,0.0033721923828125,-0.2479248046875
1726940898316900600,10.686900634765625,-0.9076385498046875,0.0051116943359375,-0.3247222900390625
1726940898326887000,10.696886962890625,-0.922210693359375,-0.00042724609375,-0.3724365234375
1726940898336872700,10.706872802734376,-0.9470672607421875,0.01287841796875,-0.36737060546875
1726940898346858800,10.716858642578124,-0.978057861328125,0.0371856689453125,-0.347900390625
1726940898356844800,10.7268447265625,-1.0391998291015625,0.0459136962890625,-0.331451416015625
1726940898366830800,10.736830810546875,-1.071685791015625,0.0649871826171875,-0.306854248046875
1726940898376816600,10.746816650390626,-1.0255889892578125,0.0932769775390625,-0.283447265625
1726940898386803000,10.756802978515625,-0.9035186767578125,0.1078948974609375,-0.2734527587890625
1726940898396788700,10.766788818359375,-0.840606689453125,0.113739013671875,-0.267242431640625
1726940898406774800,10.77677490234375,-0.84765625,0.1258392333984375,-0.282623291015625
1726940898416760800,10.7867607421875,-0.8724822998046875,0.138427734375,-0.324951171875
1726940898426745900,10.796745849609374,-0.9273529052734375,0.144012451171875,-0.4036102294921875
1726940898436732000,10.80673193359375,-1.0200653076171875,0.13067626953125,-0.446563720703125
1726940898446717700,10.8167177734375,-1.1046600341796875,0.1157989501953125,-0.4207916259765625
1726940898456704000,10.8267041015625,-1.1308441162109375,0.1414642333984375,-0.3685455322265625
1726940898466690300,10.836690185546875,-1.1096649169921875,0.1807708740234375,-0.3500518798828125
1726940898476676400,10.84667626953125,-1.1248626708984375,0.223480224609375,-0.310821533203125
1726940898486662400,10.856662353515626,-1.14813232421875,0.2314300537109375,-0.2877655029296875
1726940898496648200,10.866648193359374,-1.14703369140625,0.215911865234375,-0.25946044921875
1726940898506634200,10.87663427734375,-1.1099395751953125,0.22100830078125,-0.218841552734375
1726940898516620300,10.886620361328125,-1.1085968017578125,0.2479248046875,-0.1767425537109375
1726940898526606300,10.8966064453125,-1.1249847412109375,0.2849884033203125,-0.157379150390625
1726940898536591400,10.90659130859375,-1.1047515869140625,0.2800445556640625,-0.174560546875
1726940898546577200,10.9165771484375,-1.0104827880859375,0.2394866943359375,-0.17559814453125
1726940898556563500,10.9265634765625,-0.900543212890625,0.224517822265625,-0.1756744384765625
1726940898566549200,10.93654931640625,-0.866455078125,0.2263336181640625,-0.1524505615234375
1726940898576535300,10.946535400390625,-0.899566650390625,0.2811431884765625,-0.14776611328125
1726940898586521300,10.956521240234375,-0.9643096923828125,0.2980804443359375,-0.2422637939453125
1726940898596507400,10.96650732421875,-1.0257415771484375,0.2850341796875,-0.3095550537109375
1726940898606493200,10.9764931640625,-1.0144805908203125,0.2804107666015625,-0.30084228515625
1726940898616479500,10.9864794921875,-0.9856414794921875,0.339996337890625,-0.25518798828125
1726940898626465300,10.99646533203125,-1.014434814453125,0.4002838134765625,-0.240386962890625
1726940898636451300,11.006451416015626,-0.9831695556640625,0.4044036865234375,-0.180816650390625
1726940898646436000,11.01643603515625,-0.9076080322265625,0.3617095947265625,-0.151763916015625
1726940898656422400,11.02642236328125,-0.779144287109375,0.299163818359375,-0.190826416015625
1726940898666408200,11.036408203125,-0.6229095458984375,0.2584075927734375,-0.176788330078125
1726940898676394200,11.046394287109376,-0.459686279296875,0.2671051025390625,-0.1407623291015625
1726940898686380300,11.05638037109375,-0.3245849609375,0.3120269775390625,-0.238555908203125
1726940898696366300,11.066366455078125,-0.3660888671875,0.4071807861328125,-0.39361572265625
1726940898706352000,11.07635205078125,-0.4901580810546875,0.5280303955078125,-0.506988525390625
1726940898716338400,11.08633837890625,-0.611236572265625,0.579437255859375,-0.515594482421875
1726940898726324200,11.09632421875,-0.7306365966796875,0.5493316650390625,-0.4295501708984375
1726940898736310300,11.106310302734375,-0.8163604736328125,0.4953460693359375,-0.3128509521484375
1726940898746296300,11.11629638671875,-0.83990478515625,0.416534423828125,-0.2158203125
1726940898756282400,11.126282470703124,-0.7902679443359375,0.3439483642578125,-0.22119140625
1726940898766267400,11.136267333984375,-0.735870361328125,0.33831787109375,-0.2539825439453125
1726940898776253200,11.146253173828125,-0.6853485107421875,0.353607177734375,-0.2850799560546875
1726940898786239500,11.156239501953126,-0.67169189453125,0.3603515625,-0.3407440185546875
1726940898796225300,11.166225341796874,-0.7013092041015625,0.346343994140625,-0.3606109619140625
1726940898806211300,11.17621142578125,-0.758148193359375,0.3187255859375,-0.3768157958984375
1726940898816197400,11.186197265625,-0.84649658203125,0.3155364990234375,-0.417144775390625
1726940898826183400,11.196183349609376,-0.9450531005859375,0.3452911376953125,-0.4065093994140625
1726940898836169200,11.206169189453124,-1.01708984375,0.384124755859375,-0.37213134765625
1726940898846155500,11.216155517578125,-1.0201263427734375,0.394775390625,-0.315948486328125
1726940898856141300,11.226141357421875,-0.9173736572265625,0.3494415283203125,-0.238189697265625
1726940898866127400,11.23612744140625,-0.9189910888671875,0.3386993408203125,-0.227386474609375
1726940898876112100,11.246112060546874,-1.0083465576171875,0.3440093994140625,-0.204803466796875
1726940898886098400,11.256098388671875,-1.028533935546875,0.332794189453125,-0.18536376953125
1726940898896084200,11.266084228515625,-0.9974212646484375,0.3065948486328125,-0.187255859375
1726940898906070300,11.2760703125,-0.927734375,0.224365234375,-0.2110595703125
1726940898916056300,11.286056396484375,-0.8651275634765625,0.17376708984375,-0.2055816650390625
1726940898926042400,11.29604248046875,-0.8989105224609375,0.131072998046875,-0.226226806640625
1726940898936028200,11.306028076171875,-0.97943115234375,0.1515045166015625,-0.231658935546875
1726940898946014500,11.316014404296874,-0.99859619140625,0.19281005859375,-0.2519683837890625
1726940898956000300,11.326000244140625,-0.9569244384765625,0.2074737548828125,-0.267913818359375
1726940898965986300,11.335986328125,-0.941131591796875,0.1891632080078125,-0.2586212158203125
1726940898975972400,11.345972412109376,-0.944091796875,0.1697540283203125,-0.2641754150390625
1726940898985958400,11.35595849609375,-1.0115966796875,0.15557861328125,-0.302215576171875
1726940898995943400,11.365943359375,-1.0704193115234375,0.1526031494140625,-0.348785400390625
1726940899005929200,11.37592919921875,-1.089599609375,0.1562042236328125,-0.400299072265625
1726940899015915500,11.38591552734375,-1.0747528076171875,0.1490936279296875,-0.428131103515625
1726940899025901300,11.3959013671875,-1.1194305419921875,0.1426544189453125,-0.42462158203125
1726940899035887400,11.405887451171875,-1.208465576171875,0.1551361083984375,-0.394775390625
1726940899045873400,11.415873291015625,-1.2554931640625,0.176177978515625,-0.3983306884765625
1726940899055859200,11.425859130859376,-1.1943511962890625,0.2252349853515625,-0.3814239501953125
1726940899065845200,11.43584521484375,-1.1031646728515625,0.2616729736328125,-0.357421875
1726940899075831300,11.445831298828125,-1.037200927734375,0.2623443603515625,-0.311859130859375
1726940899085817300,11.4558173828125,-0.9905548095703125,0.2673187255859375,-0.2703857421875
1726940899095803100,11.46580322265625,-0.9667816162109375,0.2627716064453125,-0.2680816650390625
1726940899105788200,11.4757880859375,-0.9637603759765625,0.2486419677734375,-0.3285980224609375
1726940899115774500,11.4857744140625,-0.944427490234375,0.241607666015625,-0.34539794921875
1726940899125760300,11.49576025390625,-0.929779052734375,0.232818603515625,-0.3135223388671875
1726940899135746300,11.505746337890624,-0.93255615234375,0.21417236328125,-0.24859619140625
1726940899145732400,11.515732421875,-0.9282379150390625,0.21856689453125,-0.2021331787109375
1726940899155718400,11.525718505859375,-0.8968048095703125,0.1977386474609375,-0.192474365234375
1726940899165704200,11.5357041015625,-0.8409423828125,0.16448974609375,-0.216949462890625
1726940899175690500,11.5456904296875,-0.78533935546875,0.13421630859375,-0.2587127685546875
1726940899185676300,11.55567626953125,-0.7734222412109375,0.08306884765625,-0.26751708984375
1726940899195662300,11.565662353515625,-0.7624664306640625,0.019775390625,-0.31585693359375
1726940899205648400,11.5756484375,-0.7537384033203125,-0.014678955078125,-0.3640289306640625
1726940899215634400,11.585634521484375,-0.796844482421875,-0.0186614990234375,-0.355987548828125
1726940899225619200,11.595619140625,-0.8502960205078125,-0.0234222412109375,-0.3217315673828125
1726940899235605200,11.605605224609375,-0.87445068359375,-0.0121307373046875,-0.2474365234375
1726940899245591300,11.61559130859375,-0.9034881591796875,-0.002899169921875,-0.18878173828125
1726940899255577300,11.625577392578125,-0.9151611328125,0.0070648193359375,-0.1937255859375
1726940899265563100,11.635563232421875,-0.929840087890625,0.0176544189453125,-0.2322845458984375
1726940899275549400,11.645549560546876,-0.976837158203125,0.0482330322265625,-0.28948974609375
1726940899285535200,11.65553515625,-1.01043701171875,0.0816802978515625,-0.322998046875
1726940899295521300,11.665521240234375,-1.01861572265625,0.090576171875,-0.310638427734375
1726940899305507300,11.67550732421875,-1.0230255126953125,0.094757080078125,-0.2861480712890625
1726940899315493400,11.685493408203126,-1.0438079833984375,0.0975494384765625,-0.2982025146484375
1726940899325479200,11.695479248046874,-1.08306884765625,0.114349365234375,-0.3294525146484375
1726940899335465500,11.705465576171875,-1.102203369140625,0.13623046875,-0.352325439453125
1726940899345450500,11.715450439453125,-1.1023406982421875,0.132049560546875,-0.3327178955078125
1726940899355436300,11.725436279296876,-1.0514678955078125,0.1140899658203125,-0.300994873046875
1726940899365422300,11.73542236328125,-0.99609375,0.1182098388671875,-0.267791748046875
1726940899375408400,11.745408447265625,-0.9810791015625,0.122039794921875,-0.262664794921875
1726940899385394400,11.75539453125,-0.95526123046875,0.14117431640625,-0.2727508544921875
1726940899395380200,11.765380126953126,-0.93682861328125,0.1707611083984375,-0.279205322265625
1726940899405366500,11.775366455078125,-0.9527130126953125,0.171875,-0.2946014404296875
1726940899415352300,11.785352294921875,-0.9713592529296875,0.1717987060546875,-0.3303375244140625
1726940899425338400,11.79533837890625,-1.039337158203125,0.191131591796875,-0.33843994140625
1726940899435324400,11.805324462890624,-1.106781005859375,0.182220458984375,-0.355499267578125
1726940899445310500,11.815310546875,-1.1179962158203125,0.1588287353515625,-0.40887451171875
1726940899455295200,11.825295166015625,-1.0723419189453125,0.1300506591796875,-0.3670654296875
1726940899465280800,11.83528076171875,-0.974578857421875,0.1356201171875,-0.2646942138671875
1726940899475266800,11.845266845703126,-0.904632568359375,0.1427764892578125,-0.2092132568359375
1726940899485252900,11.8552529296875,-0.9149932861328125,0.1656494140625,-0.1970367431640625
1726940899495238700,11.86523876953125,-1.000885009765625,0.19671630859375,-0.24359130859375
1726940899505225000,11.875224853515626,-1.126495361328125,0.157989501953125,-0.3151092529296875
1726940899515210800,11.885210693359374,-1.136199951171875,0.1090240478515625,-0.3165130615234375
1726940899525196800,11.89519677734375,-1.046844482421875,0.12420654296875,-0.220123291015625
1726940899535182800,11.905182861328125,-0.9717254638671875,0.1672821044921875,-0.1219940185546875
1726940899545169000,11.9151689453125,-0.9478912353515625,0.2265472412109375,-0.0471038818359375
1726940899555154700,11.92515478515625,-0.9762420654296875,0.29718017578125,-0.00439453125
1726940899565141000,11.93514111328125,-0.9194488525390625,0.2867584228515625,-0.01263427734375
1726940899575126000,11.9451259765625,-0.8873443603515625,0.2735443115234375,-0.0110015869140625
1726940899585111800,11.95511181640625,-0.8511962890625,0.2823028564453125,-0.005401611328125
1726940899595097900,11.965097900390624,-0.80859375,0.3193359375,-0.0573883056640625
1726940899605084000,11.975083984375,-0.8375091552734375,0.3960113525390625,-0.150787353515625
1726940899615070000,11.985070068359375,-0.941925048828125,0.4372100830078125,-0.2601776123046875
1726940899625055700,11.9950556640625,-0.9596099853515625,0.44879150390625,-0.3802490234375
1726940899635042000,12.0050419921875,-0.967315673828125,0.475982666015625,-0.469635009765625
1726940899645027800,12.01502783203125,-0.9402008056640625,0.477142333984375,-0.482086181640625
1726940899655014000,12.025013916015626,-0.8346710205078125,0.4094085693359375,-0.4282989501953125
1726940899665000000,12.035,-0.696258544921875,0.3238525390625,-0.3093414306640625
1726940899674986000,12.044986083984375,-0.55584716796875,0.288330078125,-0.221710205078125
1726940899684970800,12.054970703125,-0.5011749267578125,0.334228515625,-0.1874542236328125
1726940899694956800,12.064956787109375,-0.5314788818359375,0.4248809814453125,-0.2390289306640625
1726940899704942800,12.07494287109375,-0.5887298583984375,0.459930419921875,-0.349517822265625
1726940899714929000,12.084928955078125,-0.6681060791015625,0.46466064453125,-0.3601226806640625
1726940899724914700,12.094914794921875,-0.739959716796875,0.4889068603515625,-0.3500823974609375
1726940899734901000,12.10490087890625,-0.767791748046875,0.4575347900390625,-0.31561279296875
1726940899744886800,12.11488671875,-0.771484375,0.3900146484375,-0.2456817626953125
1726940899754872800,12.124872802734375,-0.75146484375,0.3381195068359375,-0.2165069580078125
1726940899764859000,12.13485888671875,-0.7246246337890625,0.3182220458984375,-0.2192230224609375
1726940899774845000,12.144844970703126,-0.695220947265625,0.3105010986328125,-0.2639923095703125
1726940899784830700,12.154830810546875,-0.6952056884765625,0.3006134033203125,-0.3270721435546875
1726940899794817000,12.164817138671875,-0.7200775146484375,0.28863525390625,-0.3611602783203125
1726940899804802000,12.174802001953125,-0.74188232421875,0.2685546875,-0.352020263671875
1726940899814787800,12.184787841796876,-0.716278076171875,0.2418365478515625,-0.32342529296875
1726940899824774000,12.19477392578125,-0.721343994140625,0.2355499267578125,-0.2954559326171875
1726940899834760000,12.204760009765625,-0.773529052734375,0.252593994140625,-0.286102294921875
1726940899844746000,12.21474609375,-0.9208221435546875,0.300384521484375,-0.3081207275390625
1726940899854731800,12.224731689453124,-1.0757598876953125,0.354827880859375,-0.2923431396484375
1726940899864718000,12.234718017578125,-1.127716064453125,0.3681182861328125,-0.2770538330078125
1726940899874704000,12.244703857421875,-1.1086883544921875,0.268035888671875,-0.280517578125
1726940899884690000,12.25468994140625,-1.091949462890625,0.2227783203125,-0.24151611328125
1726940899894676000,12.264676025390624,-1.1479034423828125,0.2343597412109375,-0.1734466552734375
1726940899904662000,12.274662109375,-1.24530029296875,0.28057861328125,-0.139312744140625
1726940899914646800,12.284646728515625,-1.257476806640625,0.3022003173828125,-0.1481781005859375
1726940899924632800,12.2946328125,-1.1826171875,0.281341552734375,-0.149139404296875
1726940899934619000,12.304618896484374,-1.128692626953125,0.2682342529296875,-0.12640380859375
1726940899944605000,12.31460498046875,-1.1231536865234375,0.249542236328125,-0.1331634521484375
1726940899954590700,12.3245908203125,-1.1127166748046875,0.2300262451171875,-0.176177978515625
1726940899964577000,12.334576904296876,-1.0872955322265625,0.188446044921875,-0.220947265625
1726940899974562800,12.344562744140624,-1.040374755859375,0.1497955322265625,-0.2333221435546875
1726940899984548900,12.354548828125,-0.988677978515625,0.1422576904296875,-0.2512359619140625
1726940899994535000,12.364534912109375,-0.970184326171875,0.148590087890625,-0.2845306396484375
1726940900004521000,12.37452099609375,-0.908721923828125,0.137908935546875,-0.326385498046875
1726940900014506800,12.3845068359375,-0.8014678955078125,0.1219482421875,-0.3243865966796875
1726940900024493000,12.3944931640625,-0.7705078125,0.0965118408203125,-0.3129119873046875
1726940900034477800,12.404477783203125,-0.8092803955078125,0.0948486328125,-0.3387451171875
1726940900044463900,12.4144638671875,-0.8783721923828125,0.11700439453125,-0.4127655029296875
1726940900054450000,12.424449951171875,-0.95269775390625,0.151275634765625,-0.4781341552734375
1726940900064436000,12.43443603515625,-1.026153564453125,0.1944122314453125,-0.4809722900390625
1726940900074421800,12.444421875,-1.083740234375,0.2259979248046875,-0.4095916748046875
1726940900084407800,12.45440771484375,-1.0771484375,0.2390594482421875,-0.33477783203125
1726940900094393900,12.464393798828125,-1.1100616455078125,0.2405548095703125,-0.2936553955078125
1726940900104380000,12.4743798828125,-1.083465576171875,0.23394775390625,-0.257415771484375
1726940900114365700,12.48436572265625,-0.974212646484375,0.2109222412109375,-0.21124267578125
1726940900124352000,12.49435205078125,-0.89385986328125,0.18499755859375,-0.16204833984375
1726940900134337800,12.504337890625,-0.8589019775390625,0.1581573486328125,-0.18585205078125
1726940900144323800,12.51432373046875,-0.87615966796875,0.1217803955078125,-0.2874298095703125
1726940900154308900,12.524308837890626,-0.94580078125,0.1087188720703125,-0.35882568359375
1726940900164295000,12.534294921875,-0.9977264404296875,0.0836181640625,-0.305023193359375
1726940900174281000,12.544281005859375,-0.952423095703125,0.06414794921875,-0.193634033203125
1726940900184266800,12.554266845703125,-0.8640899658203125,0.08367919921875,-0.1265869140625
1726940900194253000,12.564253173828124,-0.795684814453125,0.0961456298828125,-0.1309814453125
1726940900204238800,12.57423876953125,-0.7791748046875,0.094085693359375,-0.2122039794921875
1726940900214225000,12.584224853515625,-0.779388427734375,0.083892822265625,-0.2721099853515625
1726940900224211000,12.5942109375,-0.7752685546875,0.0909881591796875,-0.249542236328125
1726940900234197000,12.604197021484374,-0.7880096435546875,0.1250762939453125,-0.2473907470703125
1726940900244182800,12.614182861328125,-0.87237548828125,0.1451568603515625,-0.3112640380859375
1726940900254169000,12.624169189453125,-1.0160675048828125,0.155426025390625,-0.3992767333984375
1726940900264155000,12.63415478515625,-1.1687774658203125,0.1584930419921875,-0.445159912109375
1726940900274140000,12.644139892578124,-1.218109130859375,0.1443634033203125,-0.389801025390625
1726940900284125700,12.654125732421875,-1.1746673583984375,0.133636474609375,-0.2999114990234375
1726940900294112000,12.664112060546875,-1.122528076171875,0.1369476318359375,-0.2763214111328125
1726940900304097800,12.674097900390626,-1.1244964599609375,0.1381683349609375,-0.29449462890625
1726940900314083800,12.684083740234374,-1.1325225830078125,0.119842529296875,-0.3108673095703125
1726940900324070000,12.69406982421875,-1.0772247314453125,0.100433349609375,-0.2975921630859375
1726940900334056000,12.704055908203125,-0.9795989990234375,0.1008453369140625,-0.2565460205078125
1726940900344041700,12.714041748046874,-0.9359130859375,0.12664794921875,-0.2007598876953125
1726940900354028000,12.724028076171875,-0.9697723388671875,0.1520538330078125,-0.174407958984375
1726940900364013800,12.734013916015625,-1.012054443359375,0.1684417724609375,-0.255462646484375
1726940900373999900,12.743999755859376,-0.9436187744140625,0.18096923828125,-0.251617431640625
1726940900383985000,12.75398486328125,-0.9190673828125,0.1673431396484375,-0.20904541015625
1726940900393971000,12.763970947265625,-0.930419921875,0.1742401123046875,-0.2551422119140625
1726940900403957000,12.77395703125,-0.912109375,0.20562744140625,-0.2784423828125
1726940900413942800,12.78394287109375,-0.961639404296875,0.2068939208984375,-0.313262939453125
1726940900423929000,12.79392919921875,-0.9829864501953125,0.2264404296875,-0.3209686279296875
1726940900433915000,12.803914794921875,-0.983917236328125,0.210784912109375,-0.3217010498046875
1726940900443901000,12.81390087890625,-1.0127105712890625,0.18865966796875,-0.3212890625
