time,seconds_elapsed,z,y,x
1726940887650726100,0.02072607421875,-1.4906184969842433,0.08539017251580953,-0.8718426016487181
1726940887660712000,0.0307119140625,-0.980689199206233,0.20431816523522137,-0.6322875572070479
1726940887670698000,0.040697998046875,-0.8236872041583061,0.3807426536336541,-0.3058056322015822
1726940887680683000,0.05068310546875,-0.9414373852699994,0.44958121206015345,-0.1018972168110311
1726940887690669000,0.0606689453125,-1.2348404858857394,0.5131549818262457,-0.03099164285212755
1726940887700655000,0.070655029296875,-1.6037942097872495,0.5977677402287721,-0.005151683674752712
1726940887710641000,0.080640869140625,-1.6654010633945464,0.7152642388403415,-0.1578181337364018
1726940887720627000,0.090626953125,-1.2857307151675224,0.9793547357320785,-0.13044935755655168
1726940887730613000,0.100613037109375,-0.7470096226692199,1.2654060122802853,0.08123743675053119
1726940887740599000,0.11059912109375,-0.3793775027602911,1.615503352281451,0.36300226815119385
1726940887750585000,0.120585205078125,-0.05264671756029129,2.0651292802661656,0.6161781339272856
1726940887760570000,0.130570068359375,0.3201595901161432,2.3809850357085467,1.076777875868976
1726940887770556000,0.140555908203125,0.46767245680689806,2.36581610814929,1.2632017802342772
1726940887780542000,0.1505419921875,-0.40308863321542737,1.8834259746819733,0.9734890585690736
1726940887790528000,0.160528076171875,-1.2013742696136236,1.2023293783813713,0.47569180487245316
1726940887800514000,0.17051416015625,-1.5371131216555833,1.1372814444094896,0.21820962020456788
1726940887810499800,0.180499755859375,-1.1505448306083679,1.1533394297629593,0.2896779426127672
1726940887820484900,0.19048486328125,-0.5477040248990058,1.4043448196321724,0.35611177798509597
1726940887830471000,0.200470947265625,0.12917173883616923,1.2161731948167085,0.7568354356348515
1726940887840457000,0.21045703125,0.4391536338090896,0.8506324942290783,1.1880419098317623
1726940887850443000,0.220443115234375,0.6012526597350836,0.3289747647345066,1.3712442218020557
1726940887860429000,0.230428955078125,0.7364099027216434,0.5492173520714044,1.8379548478394745
1726940887870414800,0.240414794921875,0.815759333768487,1.3373422444611787,2.1587150341972707
1726940887880401000,0.25040087890625,0.38743455248773095,1.3037503559827803,1.971749570301175
1726940887890386200,0.26038623046875,-0.6508662932097912,1.0215519554704426,1.8615338763475417
1726940887900372000,0.2703720703125,-1.096006015691161,1.3835551295816897,1.1144035499081015
1726940887910358000,0.28035791015625,-0.9993088517412543,1.9267752870649097,0.7374743170827627
1726940887920343800,0.29034375,-0.8410922202065586,1.872917440149188,1.0532242740631104
1726940887930330000,0.300330078125,-0.41860155190676446,1.7522803054243326,0.2570993228301406
1726940887940316000,0.31031591796875,0.07265256375670433,1.0127706831216812,0.3096396574065089
1726940887950302000,0.320302001953125,0.29045798707455395,1.3436089036405086,0.8248924882948399
1726940887960288000,0.3302880859375,0.4061494820907712,2.18532100931108,1.1061509776085614
1726940887970273000,0.34027294921875,-1.0925587978467344,2.0167700307667253,1.9832968002319336
1726940887980258800,0.3502587890625,-2.015271901163459,1.7534119398027657,2.4320190573751925
1726940887990245000,0.3602451171875,-1.3525158481955528,1.4156488884568215,1.5842694251060485
1726940888000231000,0.37023095703125,-0.048861938324570656,0.21614333532452581,0.41051147669255733
1726940888010217000,0.380217041015625,1.0682548160649836,-0.17157061862647532,0.10645312654972076
1726940888020203000,0.390203125,2.1256401553303004,-0.44486908884644505,1.0240624769866467
1726940888030189000,0.40018896484375,3.047116118067503,-0.8225959017902612,2.5179285775899887
1726940888040174000,0.410174072265625,2.3818507126271724,-0.6005553251206874,2.4018232410758733
1726940888050159900,0.420159912109375,2.4255273572683334,-0.7235667877614498,2.7030858230203387
1726940888060146200,0.430146240234375,2.97863820964694,0.8781289884418249,2.0000351690649985
1726940888070132000,0.440132080078125,4.821853169971704,-0.08442658818066119,-7.363370128419995
1726940888080118000,0.450117919921875,5.586627581912278,-3.773874979868531,-9.144092684474588
1726940888090104000,0.46010400390625,4.040004873633385,-1.292881755965948,4.687802426922321
1726940888100090000,0.470090087890625,2.306331653523445,0.43164194300472736,-2.346626839032769
1726940888110075000,0.480074951171875,-0.2602056913476437,0.835011731249094,-0.9866063142955303
1726940888120061000,0.49006103515625,-2.49140531232357,0.9300392084211111,0.01874620152413845
1726940888130047000,0.500046875,-4.161555031549931,2.1060072340995073,0.17329963437616824
1726940888140033000,0.510032958984375,-4.912517191237211,2.2646891450583935,2.120757643985748
1726940888150018800,0.520018798828125,-5.5387529010593886,1.6787942134529352,5.209774044671654
1726940888160005000,0.530005126953125,-4.1863831833362575,2.5289117438971993,5.607441821882128
1726940888169991000,0.539990966796875,-1.0249426208220422,2.833079984155297,5.075096109634638
1726940888179977000,0.54997705078125,1.006745139221847,0.9306225612670183,0.14104454745948314
1726940888189962000,0.5599619140625,1.3525439052462578,-0.834362619690597,-2.1754057644963263
1726940888199948000,0.569947998046875,0.5183119261980056,-0.672720689882338,-1.315769295078516
1726940888209934000,0.57993408203125,0.25877587774023414,1.1720172422260045,1.772052342864871
1726940888219920000,0.589919921875,0.45115971342325206,1.6044044506400823,5.85781651263237
1726940888229906200,0.59990625,0.8192237950086593,0.8094245777890086,8.34612561250627
1726940888239892000,0.60989208984375,0.7926569828614592,-1.4830530301660299,7.498967516389489
1726940888249878000,0.6198779296875,1.197579845766723,-3.5342560764104127,3.058285162335634
1726940888259862800,0.62986279296875,2.7516236439570783,-4.612311424869299,-2.175223978188634
1726940888269849000,0.63984912109375,5.5766474551677705,-5.513244365793466,-4.819149171710014
1726940888279835000,0.6498349609375,8.323604568618535,-2.9338270080178974,-3.3873289006531238
1726940888289821000,0.659821044921875,7.010337027227878,-1.9910059133045375,-0.5127151291042567
1726940888299807000,0.669806884765625,3.371438673081994,-2.170268693868816,1.8519886338889597
1726940888309793000,0.67979296875,0.511409014941752,-1.1920762799143791,2.25822316391468
1726940888319778800,0.68977880859375,-1.8878812005251644,-1.6282240099057554,0.7703098342359066
1726940888329765000,0.69976513671875,-3.2377930037021634,-2.961746696078777,-0.43578620320260525
1726940888339750100,0.709750244140625,-3.585583528065681,-5.137728799158334,-1.689072446361184
1726940888349736000,0.71973583984375,-2.9066461556255816,-5.0685915500462055,-2.7325065632939336
1726940888359722000,0.729721923828125,-1.8746826962560414,-4.128057543356716,-2.575471250498295
1726940888369708000,0.7397080078125,-1.0340846893072129,-2.998869389031827,-1.2333218980163334
1726940888379694000,0.749694091796875,-0.3231780611544847,0.25326518802735953,1.186856499439478
1726940888389679900,0.759679931640625,-1.3323738083988428,1.9599246924728153,8.61720406858921
1726940888399666200,0.769666259765625,-1.3875275403439997,1.1940722760371862,11.732856547266245
1726940888409651000,0.77965087890625,-0.5278098223835229,1.784841535680741,8.02375886773467
1726940888419637000,0.789636962890625,-2.050550135293603,1.0821803924996405,6.173651809808612
1726940888429622800,0.799622802734375,-2.886093196940422,0.7110827884372324,4.027093954133988
1726940888439609000,0.809609130859375,-2.707296718713641,1.4446850133270024,1.7455366763830185
1726940888449595000,0.819594970703125,-1.471864404414594,1.1470362379655241,0.24910218659639358
1726940888459580700,0.82958056640625,-0.13967296684533356,1.0958278826452792,-1.942334675246477
1726940888469566500,0.83956640625,-0.09706921213269233,1.4755881011128424,-3.8948306790232654
1726940888479552500,0.849552490234375,-0.9003177316352724,2.8381220699757335,-5.874082587778568
1726940888489537500,0.85953759765625,0.6531590803220868,4.124392298847437,-8.140217839992046
1726940888499523600,0.869523681640625,2.523264970181882,4.618282315972447,-7.391606042823195
1726940888509509600,0.879509521484375,1.5418290442615747,4.455709242793917,-5.3488318022280925
1726940888519495400,0.889495361328125,-2.124398338575661,3.246063111658394,-4.854607438582182
1726940888529481700,0.899481689453125,-4.742363161410391,3.039646512839198,-4.141894637790322
1726940888539467500,0.909467529296875,-6.572680938500166,3.4007278959304093,-3.779225693246722
1726940888549453600,0.91945361328125,-5.706979469954967,3.0976445282995697,-3.6411557776838537
1726940888559439600,0.929439697265625,-3.0343805551350114,2.5189690265536306,-1.4592302560299635
1726940888569424600,0.939424560546875,-0.8994622838497162,1.489591199763119,-0.36466041062176224
1726940888579410400,0.949410400390625,-0.15522680206894873,1.2046932579685001,-1.1557844848275185
1726940888589396500,0.959396484375,1.0571052071496843,1.2561679360747338,-0.41205286091566085
1726940888599382500,0.969382568359375,1.7186545146763323,1.3921616298854351,0.4373538909107446
1726940888609368600,0.97936865234375,3.5870766892328856,1.9121745147824287,0.5913602112740278
1726940888619354400,0.989354248046875,4.934889182043075,2.066889275676012,0.28337621212005615
1726940888629340700,0.999340576171875,3.7020740645051,1.3110000348500908,-0.04133797256052494
1726940888639325700,1.00932568359375,0.8188836032688617,1.046592142572254,-0.6763543702095747
1726940888649311500,1.0193115234375,0.7671503472916782,1.0433554256733506,-1.144580369246006
1726940888659297500,1.029297607421875,0.26145897934436796,-0.3481954519025981,-2.4227649068176746
1726940888669283600,1.03928369140625,-0.5582967305839062,-0.605082081830129,-4.380904469439387
1726940888679269600,1.04926953125,-0.25673728458471595,-0.6149118403185159,-3.162846776050329
1726940888689255400,1.05925537109375,-0.21437691017389296,-0.43607817188650366,-0.42349779951572414
1726940888699241700,1.06924169921875,0.17792608860041945,-0.3465481961522251,1.5972960799396037
1726940888709227500,1.0792275390625,0.6461690753042697,-0.31853487499114125,2.045132201898098
1726940888719212500,1.089212646484375,1.0034224245399237,-0.31349048761576415,1.044255954709649
1726940888729198600,1.099198486328125,1.4286100768387318,-0.46936406315565105,-0.25389292800426483
1726940888739184600,1.1091845703125,1.6899129888385533,-0.5047697230577468,-2.1006857468158007
1726940888749170400,1.11917041015625,1.3827204323232174,-0.6669910601891577,-3.7844507344186304
1726940888759156500,1.129156494140625,1.499617795997858,-1.2186224145997315,-4.802612462928891
1726940888769142500,1.139142578125,2.594551214021444,-1.8313266618713735,-4.75791115141511
1726940888779128600,1.149128662109375,3.930692265999317,-2.4426341210223734,-3.684332071587443
1726940888789114400,1.1591142578125,2.513358200934529,-2.568978381347656,-2.561338095727563
1726940888799099600,1.169099609375,0.9134429514724761,-2.2243549427129325,-1.0406149678587913
1726940888809085700,1.179085693359375,0.9268804521292447,-1.644767732949555,-0.2026853033363819
1726940888819071500,1.189071533203125,0.6880904007107019,-1.3364458801433443,0.27753800748586654
1726940888829057800,1.199057861328125,0.2111449425153434,-1.1027545401033014,0.519799534407258
1726940888839043600,1.209043701171875,0.08864508265852927,-0.8527186528533697,0.7978221105396747
1726940888849029600,1.219029541015625,-0.39885494116842746,-0.6091371659072116,0.7615209631025791
1726940888859015400,1.229015380859375,-0.8446715399980544,-0.38452414493374526,0.4742307924091816
1726940888869000700,1.239000732421875,-1.0939368082016705,-0.25501204996099697,0.6197124455332755
1726940888878986500,1.248986572265625,-1.2055068393737076,-0.1819856296569109,0.6906184578835963
1726940888888972500,1.25897265625,-1.1946101823061703,-0.22549060752559452,0.3980506390482187
1726940888898958600,1.26895849609375,-1.188599105323106,-0.284814099436067,0.11762743151485919
1726940888908944600,1.278944580078125,-0.9924025794841349,-0.39272732513360675,0.04935761288702488
1726940888918930400,1.288930419921875,-0.7436638193726539,-0.5046749574463815,-0.05348433742821216
1726940888928916700,1.298916748046875,-0.49949850465655327,-0.48583947020359336,-0.08094342224001884
1726940888938902500,1.308902587890625,-0.12865677505135537,-0.40422804904151705,0.11211597461700439
1726940888948887600,1.318887451171875,0.34078254529759283,-0.336838958770968,0.12244330736398697
1726940888958873600,1.32887353515625,0.7381481246910989,-0.2698598192744888,0.2115039850860834
1726940888968859600,1.338859619140625,0.7646307656861842,-0.22263302613738922,0.1706558418691158
1726940888978845700,1.348845703125,0.7908322516523301,-0.21059446902573106,-0.05370645574629306
1726940888988831500,1.35883154296875,0.9203373140960931,-0.2300813876482658,-0.2794265977114439
1726940888998817800,1.36881787109375,0.9799128080062568,-0.2936088157882914,-0.38720249729752537
1726940889008803600,1.378803466796875,0.9966891707621515,-0.3010697079871781,-0.3966127151995897
1726940889018789600,1.38878955078125,0.9439759638369083,-0.27126696439236403,-0.44702071392238135
1726940889028774400,1.3987744140625,0.9423524542883038,-0.31171240855995563,-0.4010615113019943
1726940889038760700,1.4087607421875,0.968331529675424,-0.4002710915766656,-0.21429215449988842
1726940889048746500,1.41874658203125,0.8660331847175955,-0.4488382847383618,-0.097519293987751
1726940889058732500,1.428732666015625,0.5558785635262727,-0.3879513794360682,-0.04133797256052494
1726940889068718600,1.438718505859375,0.303925079151988,-0.2593402701573446,0.02916121255457401
1726940889078704600,1.44870458984375,0.11154738094881177,-0.08427116015693173,0.06719780548214913
1726940889088690400,1.4586904296875,-0.003831979378312826,0.08950922520719468,0.06381050113141537
1726940889098675500,1.468675537109375,-0.04544248526990413,0.15960209454372523,0.07560498382151126
1726940889108661800,1.478661865234375,-0.05240589454174041,0.2125018370170146,0.004190437427163123
1726940889118647600,1.4886474609375,-0.03553571602255106,0.2146287112441845,-0.1077718079328537
1726940889128633600,1.498633544921875,-0.1498696589499712,0.29861637828461823,-0.23202771767675875
1726940889138619600,1.50861962890625,-0.26363924599289895,0.45835327818915245,-0.28843291098773477
1726940889148605700,1.518605712890625,-0.3504427924379706,0.554343316783011,-0.4128390428572893
1726940889158591500,1.528591552734375,-0.29940058746486903,0.6261830297868698,-0.5343827710330487
1726940889168577800,1.538577880859375,-0.2746475467413664,0.6278725903090089,-0.6510059939414262
1726940889178562600,1.5485625,-0.24128303727805614,0.5311889068951829,-0.866159149184823
1726940889188548600,1.558548583984375,-0.060005263629555695,0.34515115230325605,-0.9553069206684828
1726940889198534400,1.568534423828125,0.5094470672190189,0.17444105949625371,-0.8797533747732639
1726940889208520700,1.578520751953125,1.0518939022421836,0.04654125855835154,-0.8825392060995101
1726940889218506500,1.588506591796875,1.40590695438236,0.031659449977939944,-0.5196978275984525
1726940889228492500,1.598492431640625,1.640274805444479,-0.05303246547486633,-0.423738622534275
1726940889238478600,1.608478515625,1.6519769336760044,-0.09354227098240517,-0.3547276301503181
1726940889248464600,1.618464599609375,1.2982123033389448,0.018969041361426933,-0.29520635064542294
1726940889258449700,1.62844970703125,0.7213815526768564,0.057620213390234855,-0.34014322448074813
1726940889268435500,1.638435546875,0.35020664559453724,-0.07646819478841498,-0.2619756966948509
1726940889278421800,1.648421875,0.23651304639726875,-0.2186038071539253,-0.1779109275639057
1726940889288407600,1.658407470703125,0.24639088181108235,-0.49160398854706433,-0.053258711978793144
1726940889298393600,1.6683935546875,0.26119623675495385,-0.8073753901742399,0.019248890349268914
1726940889308379600,1.678379638671875,0.2853483889758587,-1.1477829646795987,0.10571136827170849
1726940889318365700,1.68836572265625,0.3183610162615776,-1.4027863381437957,0.09265607186555862
1726940889328351500,1.6983515625,0.3116618108838796,-1.566282225255668,-0.07739186723828315
1726940889338336500,1.70833642578125,0.3197685449719429,-1.6947246269039808,-0.1471370191156864
1726940889348322600,1.718322509765625,0.3766396022289991,-1.7633331759668887,-0.05215162751972675
1726940889358308600,1.72830859375,0.32920623540282246,-1.7624606309160589,-0.11769640509784221
1726940889368294400,1.73829443359375,0.20213760632574557,-1.7951548399023711,-0.3170014183461666
1726940889378280700,1.74828076171875,0.26354747605621814,-1.8441205308623612,-0.4007955538421869
1726940889388266500,1.7582666015625,0.3790110075354576,-1.81836708092466,-0.38783553450405595
1726940889398252500,1.76825244140625,0.3670852996811271,-1.6537826679237186,-0.24896774656176565
1726940889408237600,1.778237548828125,0.2992331219434738,-1.5598774727798999,-0.14819734182357788
1726940889418223600,1.7882236328125,0.25264029759466644,-1.5322244728311896,-0.04204933570027351
1726940889428209700,1.798209716796875,0.26183482691943644,-1.3907633073948322,0.08260112631916999
1726940889438195500,1.808195556640625,0.2784159593641758,-1.3250978260464965,0.1754284630984068
1726940889448181500,1.818181396484375,0.10230419017672539,-1.0898886287894098,0.25695523818433286
1726940889458168600,1.82816845703125,0.05623159030973911,-0.8617648597486317,0.25846155109405516
1726940889468154600,1.838154541015625,0.06365735639631748,-0.7664861842945218,0.30107261233031746
1726940889478140700,1.848140625,0.1557815133422613,-0.6875603854872286,0.3242027280271053
1726940889488125400,1.85812548828125,0.10686170735061168,-0.7815716713540256,0.030201076996326445
1726940889498111700,1.86811181640625,-0.49878421890735625,-0.7908930419288576,-0.28078619562685486
1726940889508097500,1.87809765625,-0.47570729470252987,-0.9245289205670356,-0.07324409990906715
1726940889518083600,1.88808349609375,-0.5223679235905409,-0.9160515996009111,0.2788864994853735
1726940889528069600,1.898069580078125,-0.7608966937243938,-0.812387226986885,0.7165437572568655
1726940889538055700,1.9080556640625,-0.746962860918045,-0.7222234103284776,1.114193414288759
1726940889548041500,1.91804150390625,-0.4243161301612854,-0.581365142688714,1.408710029104352
1726940889558027500,1.928027587890625,-0.1475251416504383,-0.3866921000899747,1.45114281116426
1726940889568012800,1.9380126953125,0.14028992969989776,-0.06465241358196362,1.264550564494729
1726940889577998600,1.94799853515625,0.39472821662724017,0.2524984231722541,0.8679232362478971
1726940889587984600,1.957984619140625,0.6056061787694692,0.3823034001443535,0.3434124554097652
1726940889597970700,1.967970703125,0.5353530773699283,0.5011562818009406,-0.22667817334234713
1726940889607956700,1.977956787109375,0.1969821232587099,0.48301915208585555,-0.8692465938061475
1726940889617942500,1.987942626953125,-0.20513269648849963,0.38810667959563433,-1.4328583819329739
1726940889627928800,1.9979287109375,-0.6650806965231895,0.3843914584647864,-1.5893746392905712
1726940889637913600,2.00791357421875,-0.9755477446645497,0.4733055673230439,-1.5622317808210848
1726940889647899600,2.017899658203125,-0.7761480388700962,0.7374824273239821,-1.2753753253698348
1726940889657885400,2.027885498046875,-0.685219813710451,1.0149181434791534,-1.0032610964983701
1726940889667871700,2.037871826171875,-0.6417290470302105,1.1309412085372954,-0.942939606526494
1726940889677857500,2.047857421875,-0.37030280042290686,1.0504458953909575,-0.9447235673338175
1726940889687843600,2.057843505859375,0.24292320570051668,0.7849842562764883,-0.8666320273935795
1726940889697829600,2.06782958984375,0.8207786232352257,0.3612656901495531,-0.917927914866805
1726940889707815700,2.077815673828125,1.1519564509719609,-0.25955340145137157,-1.006625604495406
1726940889717800700,2.08780078125,1.175129236766696,-0.8917482023410499,-1.0296522598177194
1726940889727786500,2.097786376953125,1.3592600617587565,-1.5933645857095717,-1.2932628642380237
1726940889737772800,2.107772705078125,1.7660212460070848,-2.0137365082897243,-1.6607471001088618
1726940889747758600,2.117758544921875,1.6846441085249184,-1.8789087895184755,-1.900152068555355
1726940889757744600,2.12774462890625,1.2179437116205691,-1.622174500608444,-1.7481307845294474
1726940889767730700,2.137730712890625,0.6330225934833288,-1.2523127219513057,-1.406190155237913
1726940889777716700,2.147716796875,0.11491583446860312,-0.9355616251043974,-0.9227215788841246
1726940889787702500,2.15770263671875,-0.41292029139995573,-0.5132064197525382,-0.2676312382385135
1726940889797687600,2.1676875,-0.995646529841423,0.2019993668988347,0.36802433409690855
1726940889807673600,2.177673583984375,-1.4464906014442442,1.040690078921616,0.8136004021689295
1726940889817659600,2.18765966796875,-1.6784008302211761,0.960552712367475,0.33340982457250357
1726940889827645400,2.1976455078125,-1.7523749979704617,0.9057017627611755,0.2597910461321473
1726940889837631700,2.2076318359375,-1.3138105622261762,1.1079662103369832,1.064998590748012
1726940889847617500,2.217617431640625,-1.0425713626235722,0.9412471233949065,1.2852554988712073
1726940889857603600,2.227603515625,-0.8098404651135206,0.62775166734308,1.098132506325841
1726940889867588600,2.237588623046875,-0.0067751932233572005,0.1942778327360749,0.78999770052433
1726940889877574700,2.24757470703125,0.9333458487510681,-0.24358663804531097,0.5860618126049637
1726940889887560700,2.257560791015625,1.7468904290795326,0.04403934047371149,0.6300596520245075
1726940889897546500,2.26754638671875,2.0977239744007585,0.8808274337455629,0.48952656121850013
1726940889907532800,2.27753271484375,2.5445845293253657,1.5061360918506979,0.05667348885834217
1726940889917518600,2.2875185546875,2.3794068266063926,1.9210875968173144,-0.4615548507094383
1726940889927504600,2.297504638671875,1.8494547314971683,2.246032083122432,-0.5635556740254163
1726940889937490700,2.30749072265625,1.286535017287731,2.3712241046726703,-0.5800348074004054
1726940889947475700,2.317475830078125,0.8495324240326881,2.552806998747587,-0.6112354168280959
1726940889957461500,2.32746142578125,0.57141924700737,2.4851322234034536,-0.6003226854085922
1726940889967447600,2.337447509765625,0.4347171126663685,2.0597659996673463,-0.5470078593283891
1726940889977433600,2.34743359375,0.0688064097225666,1.4882073441892862,-0.5091930924579501
1726940889987419600,2.357419677734375,0.052794017076492304,0.9372510394960641,-0.158090959328413
1726940889997405400,2.367405517578125,0.46722003686428065,0.47384179309159513,0.5110507030233741
1726940890007391700,2.377391845703125,0.709340109488368,0.09782266084849833,0.9883104878649115
1726940890017377500,2.38737744140625,0.47404842157959937,-0.25682635110765695,0.9680845691770315
1726940890027362600,2.397362548828125,-0.2118038448154926,-0.6555576658964156,0.8154527520373464
1726940890037348600,2.4073486328125,-0.8960504295796156,-1.0833394263416527,0.6741326025068759
1726940890047334700,2.417334716796875,-0.9386901323884725,-1.5285338016197085,0.7033350238546728
1726940890057320700,2.42732080078125,-0.6247212136059999,-1.5661429629154502,0.7500710560664534
1726940890067306500,2.437306396484375,-0.32258769404590126,-1.0664891215667127,0.92341102245301
1726940890077292800,2.447292724609375,0.35307694033384324,-0.7368528241835535,0.7217547699034214
1726940890087278600,2.457278564453125,0.9132540778368711,-0.8411139936469495,0.0924412600710988
1726940890097264600,2.4672646484375,0.9887328049302101,-1.2894792540460824,-0.9054843206182122
1726940890107249700,2.477249755859375,0.47704117365479465,-1.8171616506576538,-1.7357243074208497
1726940890117235700,2.487235595703125,-0.21738895147144793,-1.9416706583797931,-2.0000015590563414
1726940890127221500,2.497221435546875,-1.2017179684847592,-1.5647478552952407,-2.106333397313952
1726940890137207600,2.50720751953125,-1.5411059906840323,-0.537193590670079,-1.4728931629404425
1726940890147193600,2.517193603515625,-1.1858166349977255,0.39772023805007334,-0.6098500999495386
1726940890157179600,2.5271796875,-0.24603052406609058,1.0190665683954954,0.1410349028483033
1726940890167165400,2.53716552734375,0.7285486678272485,1.3589197238884865,0.5630091460585593
1726940890177151700,2.54715185546875,0.967718073952198,1.50542355966717,0.23421821345835922
1726940890187136800,2.55713671875,0.4781418283730745,1.7191047426618635,-0.45854251715093847
1726940890197122600,2.56712255859375,0.023151743006706235,1.9195177171520887,-1.1748758465275169
1726940890207108900,2.57710888671875,-0.6620739159226418,1.9410455122187733,-2.039718360155821
1726940890217094700,2.5870947265625,-0.7341214995235205,1.9793721741341053,-2.3559400263011456
1726940890227080700,2.597080810546875,0.0447644398778677,1.9158210545912384,-2.184377590981126
1726940890237066500,2.60706640625,0.9085030839174986,1.706311604323238,-1.6332514826789497
1726940890247052500,2.617052490234375,1.550838280147314,1.290930914159119,-0.8387535481259226
1726940890257038600,2.62703857421875,2.296320547118783,0.6829694044351577,-0.07376870830506085
1726940890267024600,2.637024658203125,2.6069939314872026,0.11793372098505496,0.5410404753565788
1726940890277009700,2.647009765625,2.273082294872403,-0.36714696674048897,0.7821127924934029
1726940890286995700,2.65699560546875,1.6889935359060764,-0.8824391797911375,0.9015259383812546
1726940890296981500,2.6669814453125,0.9173632667213678,-1.495029591424763,0.5648080121740698
1726940890306967800,2.6769677734375,0.352846054187417,-2.0437153208374976,0.31945261089056726
1726940890316953600,2.68695361328125,0.012629179948568343,-2.18100343837291,0.4289332685679197
1726940890326939600,2.696939697265625,-0.06706862614452838,-2.1250483269169926,0.5842319668292999
1726940890336925400,2.706925537109375,0.12090075409710406,-1.989450354425609,0.649139615547657
1726940890346911700,2.716911865234375,0.42943537287116046,-1.77683329353109,0.4922147773891687
1726940890356896500,2.726896484375,0.37293724057972427,-1.811314385934174,0.2278194523319602
1726940890366882600,2.736882568359375,-0.2276075631469488,-1.9133008884638547,-0.05037351193130016
1726940890376868600,2.74686865234375,-1.2563064677625895,-1.6729501635998487,-0.264017723916471
1726940890386854700,2.756854736328125,-1.796135229241848,-0.9765586752727627,-0.2206210652604699
1726940890396840400,2.76684033203125,-1.267105509674549,-0.31526239265911277,0.04150777616947889
1726940890406826800,2.77682666015625,-0.33504093290567394,0.31115137714371083,0.16095248623937367
1726940890416812500,2.7868125,0.22313421712517736,0.6538787728987634,0.04625380165278911
1726940890426798600,2.796798583984375,0.7564934903293847,0.6931924000248313,-0.4152402587801218
1726940890436783600,2.80678369140625,1.1374117927908898,0.5790576329313218,-1.0115510781988502
1726940890446769700,2.816769775390625,0.7481430106133222,0.3696606300618499,-1.5213520734220742
1726940890456754700,2.826754638671875,-0.036900866895914076,0.23869477435052394,-1.9784531595930457
1726940890466740700,2.83674072265625,-1.1738286755621432,0.3719391694530845,-2.5261872873693703
1726940890476726800,2.846726806640625,-1.381919052812457,0.4908174047466367,-2.524473469188809
1726940890486712600,2.856712646484375,-0.3964379431545734,0.8500242992028594,-2.268523900915682
1726940890496698600,2.86669873046875,0.3110088999330997,1.5198980752214788,-1.6863181792169808
1726940890506684700,2.8766845703125,0.7413876911342143,1.8976679966546595,-0.8663377206221222
1726940890516670700,2.886670654296875,1.1931740120232104,2.066098417559266,-0.3453472228646278
1726940890526655700,2.89665576171875,1.0124451044291258,2.1255248583875597,0.07119505842477082
1726940890536641500,2.9066416015625,0.8906979626357555,1.8359391241028904,0.27384733627438546
1726940890546627800,2.9166279296875,0.5681523541659116,1.2899193990290163,0.38572657952606676
1726940890556613600,2.926613525390625,0.4605664241939783,0.6203261935174464,0.33516660511195656
1726940890566599700,2.936599609375,0.3776724524080753,-0.01911667880434543,0.2865139256238937
1726940890576585700,2.946585693359375,0.41057051340341566,-0.5239906659541651,0.31182138535976406
1726940890586571800,2.95657177734375,0.31116438275575636,-0.8383296236254274,0.2817842667534947
1726940890596557600,2.9665576171875,0.11383037731945514,-1.1111473245911299,0.21276479880213736
1726940890606542600,2.97654248046875,-0.12726678199768066,-1.5568348902136087,-0.07929010207504034
1726940890616528600,2.986528564453125,-0.7681243068903684,-1.898277068463713,-0.1943763246744871
1726940890626514700,2.9965146484375,-1.1012854173988103,-2.2449594854548574,-0.3465270802989602
1726940890636500500,3.00650048828125,-0.5055366157770157,-2.699392813721299,-0.42797699075639245
1726940890646486800,3.01648681640625,0.2940741317451,-2.9596538154527545,-0.6676786040619015
1726940890656472600,3.02647265625,0.8436655778259038,-3.084227997365594,-1.0555915877163409
1726940890666458600,3.036458740234375,1.2895125717937945,-3.2874548602327702,-1.6115642592668533
1726940890676444700,3.046444580078125,1.2094050158560274,-3.0757483383119104,-2.0046599062561987
1726940890686430700,3.0564306640625,0.6917202816456556,-2.594918878290057,-2.223821712619066
1726940890696415700,3.066415771484375,-0.04839315176904201,-1.8410003530152141,-2.110688669914007
1726940890706401500,3.076401611328125,-0.9980629433333873,-1.069056999293342,-1.5462456916600464
1726940890716387800,3.086387939453125,-1.5982447589665651,-0.1083183906986378,-0.7907435504555702
1726940890726373600,3.09637353515625,-1.9497551806360482,0.6563831569351255,-0.2920224599123001
1726940890736359700,3.106359619140625,-2.1020137805491683,1.0890480132468043,0.003096212449669838
1726940890746345700,3.116345703125,-1.434185831144452,1.3918835435964165,0.2676999195605516
1726940890756331800,3.126331787109375,-0.07140928569734097,1.537402021599561,0.7961632374167442
1726940890766317600,3.136317626953125,0.8700888898491859,1.485839153753221,1.0235966130405665
1726940890776303900,3.146303955078125,1.473930981555581,1.1142601228494196,1.1038380244910717
1726940890786288600,3.15628857421875,1.9395237094789741,0.8530808372292668,1.0643225911825895
1726940890796274700,3.166274658203125,1.9783774640083311,0.6797881440505384,0.948320130521059
1726940890806260500,3.176260498046875,1.5793161866128445,0.5767349621374159,0.6746802995175123
1726940890816246800,3.186246826171875,1.0868056411474942,0.4910091279264539,0.14935586420893668
1726940890826232600,3.196232666015625,1.2766647806584834,0.4575941669175401,-0.3431079195052385
1726940890836218600,3.206218505859375,2.16875975061059,0.7156596678987145,-0.5477683223068713
1726940890846204700,3.21620458984375,2.7852491424441337,1.444230547557771,-0.38247722234129905
1726940890856190700,3.226190673828125,2.3868542200028893,2.074492736417055,-0.458953728300333
1726940890866176500,3.236176513671875,1.3607915091097353,1.9949949829407034,-1.030344918256998
1726940890876161800,3.246161865234375,0.245720142942667,1.2571712678983806,-1.5624544836610554
1726940890886147800,3.25614794921875,-0.9991402171760797,0.6583531418338417,-1.7544284233689307
1726940890896133600,3.266133544921875,-1.656173800843954,0.1426192128976807,-1.653968984276056
1726940890906119700,3.27611962890625,-1.729686780822277,-0.4121621299764141,-1.465833015295863
1726940890916105700,3.286105712890625,-1.8635504768669604,-0.7141857959538698,-1.2148784788310527
1726940890926091800,3.296091796875,-1.8463789773136376,-1.0497621509104966,-1.0632815576970576
1726940890936077600,3.30607763671875,-1.789837005880475,-1.1985161037035286,-0.4851525839179754
1726940890946064000,3.31606396484375,-1.3992121329188345,-1.309929190748185,0.2523772627443075
1726940890956048600,3.326048583984375,-1.0955389827013016,-1.1731060603760182,0.7546177595853805
1726940890966034700,3.33603466796875,-1.0681979713112115,-1.0849863167658447,1.1017717396110296
1726940890976020700,3.346020751953125,-0.942100233092904,-1.1274220945004374,1.2578127806723116
1726940890986006800,3.3560068359375,-0.8899865994960069,-1.2075338151566684,1.4037895238369702
1726940890995992600,3.36599267578125,-0.6616863779097795,-1.456681448329985,1.210032792365551
1726940891005978600,3.375978515625,-0.5914022968500853,-1.7885856906451283,0.9068465488821268
1726940891015964700,3.385964599609375,-0.10630465798974037,-2.0211080599710343,0.5624737240076064
1726940891025950700,3.39595068359375,0.4168465249329805,-2.2130475128874183,-0.02580196525454521
1726940891035936500,3.4059365234375,0.8541039697319268,-2.3484083156220614,-0.6246721137672663
1726940891045921800,3.415921875,1.1512585318356752,-2.2598323526769875,-0.9387427393585442
1726940891055907800,3.425907958984375,1.0296358932048082,-2.1310481518536806,-1.1414736354023218
1726940891065893600,3.4358935546875,0.7724164511263371,-1.9161746903344987,-1.3557891707777976
1726940891075880000,3.4458798828125,0.6308762291043997,-1.5763637665480374,-1.4283552252948284
1726940891085865700,3.45586572265625,0.8796557596176863,-1.0240339084792882,-1.2251444367796183
1726940891095851800,3.465851806640625,0.858471517291665,-0.05402238982766867,-0.7570850264817476
1726940891105837800,3.475837890625,0.2327449260354042,0.6668336046051233,-0.47227030599117276
1726940891115823900,3.485823974609375,-0.3479968605905771,1.1819209427334367,-0.15858137319386004
1726940891125809700,3.4958095703125,-0.12752338710725306,1.494802943062037,0.11204875459969044
1726940891135794700,3.505794677734375,0.08483926063477992,1.636911028099805,0.1596416959017515
1726940891145780700,3.51578076171875,-0.34678397766947744,1.2839388633146882,-0.335061391171813
1726940891155766800,3.525766845703125,-0.6304179639428854,0.7323620886355638,-0.9335241279274225
1726940891165752600,3.535752685546875,-0.24243980609774587,0.44369416331555694,-0.8206061892777681
1726940891175739000,3.54573876953125,-0.0700222152531147,0.32387082919161764,-0.7508329803496598
1726940891185724700,3.555724609375,0.02186579484939575,0.49902591870874163,-0.6748457192122936
1726940891195710700,3.565710693359375,-0.11483517044782637,0.7111482548888772,-0.5778051486521959
1726940891205696800,3.57569677734375,-0.37464638258516786,1.0029379289586096,-0.5399731383860111
1726940891215682800,3.585682861328125,-0.4559206442147493,1.2619653703071176,-0.6251157658815384
1726940891225667800,3.595667724609375,-0.6606500205993652,1.3932611155599355,-0.762604666686058
1726940891235653600,3.605653564453125,-0.36147125919163225,1.3969567552074789,-1.0836123980641363
1726940891245639700,3.6156396484375,0.043188568863272665,1.1480953185644,-1.3272902215242386
1726940891255625700,3.625625732421875,0.18005729194283485,0.6623300826407968,-1.412311268466711
1726940891265611800,3.63561181640625,0.7076192770451307,0.269757290481776,-1.1786299383640289
1726940891275597800,3.645597900390625,1.2043822192579507,-0.12090930272974074,-0.7711655742824077
1726940891285583600,3.65558349609375,1.355717274585366,-0.5303871985908597,-0.6297317352443933
1726940891295569700,3.665569580078125,1.5138748694092035,-0.773897702660039,-0.553031941923499
1726940891305554700,3.6755546875,1.7161930929988622,-1.0009755428444593,-0.5078823021203279
1726940891315540700,3.685540771484375,1.852965369966626,-1.1523290836766362,-0.7576672102838754
1726940891325526800,3.69552685546875,2.0842735411971804,-1.2875398104161024,-1.0291384650766848
1726940891335512600,3.7055126953125,1.774663402146101,-1.4001657803818583,-1.061811485144496
1726940891345499000,3.715498779296875,1.8532003477662802,-1.3361371064551173,-0.9937754752725362
1726940891355484700,3.725484619140625,2.080176627272367,-1.1138067530587314,-0.8717816652417183
1726940891365470700,3.735470703125,1.681802747619152,-0.9071863022305071,-0.8889934968054294
1726940891375456800,3.745456787109375,1.2704080583512782,-0.35377537092678246,-0.5027461082756519
1726940891385442800,3.75544287109375,0.33306758700609207,0.1984323220670223,0.0846878694653511
1726940891395427600,3.765427490234375,-0.6747463504910469,0.7615618065696209,0.4653326156824827
1726940891405413600,3.77541357421875,-1.3536258552640676,1.1464249741993844,0.9787275437444448
1726940891415399700,3.785399658203125,-1.5374965680152177,1.2710856653518974,1.2972259226500986
1726940891425385700,3.7953857421875,-1.0604174004375935,1.4583254161447285,1.6213696139663456
1726940891435371500,3.80537158203125,-0.4505845438838005,1.761608105739951,1.9024369646221397
1726940891445357800,3.81535791015625,-0.4198544745773077,2.131681042929739,1.93104580399096
1726940891455343000,3.825343017578125,-0.952300140067935,2.4896160908192395,1.6096546262532472
1726940891465329200,3.8353291015625,-1.5264274769902229,2.824757853750884,1.3751187251478434
1726940891475315200,3.845315185546875,-1.6806512394964694,3.106400666207075,1.2769254774212837
1726940891485300000,3.855300048828125,-2.031220580923557,3.14901611135751,1.0097668251305818
1726940891495286300,3.865286376953125,-1.783084024488926,2.8517987131506204,0.4542787222266197
1726940891505272000,3.87527197265625,-0.4056757270991802,1.6444203808166085,-0.4571364497452974
1726940891515258000,3.885258056640625,0.8575415429651737,-0.027409400451183317,-1.2068085696220396
1726940891525244200,3.895244140625,1.6524761153697967,-0.9197069072380661,-1.409502640786767
1726940891535230200,3.905230224609375,1.711392999240756,-1.4211395948275922,-1.4628011002540589
1726940891545216000,3.915216064453125,1.0668722756654023,-1.556993003384769,-1.6228548840880392
1726940891555202000,3.9252021484375,0.12623042468726633,-0.6135796418666839,-0.9833668939828872
1726940891565188000,3.93518798828125,-0.33876725995242596,0.37412926337588576,-0.46945232596099373
1726940891575173000,3.945173095703125,-0.5353109917938709,1.1082342866886405,-0.1961848354011774
1726940891585159200,3.9551591796875,-0.4629880983829498,1.4836094950050114,0.1425280640155077
1726940891595145200,3.965145263671875,-0.18383447239398956,1.2564518675826488,0.24667408266663549
1726940891605131300,3.97513134765625,-0.08388707447648049,0.7266380119003355,0.5150386036157608
1726940891615117000,3.985116943359375,0.31057343112528324,0.19709818738643078,0.7883522714048623
1726940891625103400,3.995103271484375,1.1102128202199935,-0.41876203969810155,1.13176005063951
1726940891635089200,4.005089111328125,1.513207929933071,-0.8871080483850091,1.2325778016507625
1726940891645075200,4.0150751953125,0.8936796087950467,-1.1324918720453976,0.7783721446603536
1726940891655061000,4.02506103515625,-0.2070680484652519,-0.9590992256235331,0.4766472059011459
1726940891665046300,4.03504638671875,-1.3256477150142192,-0.03401453433725983,0.5432067134797572
1726940891675032000,4.045031982421875,-2.3748101464658973,1.1786058999013156,0.49343409005105493
1726940891685018000,4.05501806640625,-3.0957097608447075,1.9068185407072304,0.23782968195378779
1726940891695004200,4.065004150390625,-3.2776053741306064,1.9526820278681813,-0.09855039060115814
1726940891704990200,4.074990234375,-2.661421687245369,1.465977538333088,-0.26216508178710934
1726940891714976000,4.08497607421875,-1.1426532005757093,0.6689630178492516,-0.20095219593346117
1726940891724962300,4.09496240234375,0.1413549285829067,-0.1117265369080007,-0.5205670116484165
1726940891734948000,4.104947998046875,0.812180306237936,-0.904883651311323,-0.7809884646385907
1726940891744934100,4.11493408203125,0.8102122210353613,-1.632064903242886,-0.6638911944776773
1726940891754919200,4.124919189453125,0.7279150460988283,-2.1268176746770737,-0.9706704940170049
1726940891764905200,4.1349052734375,0.2835422163367271,-2.2257474199846388,-0.9423007241010666
1726940891774891300,4.144891357421875,-0.15459785651564598,-1.9460969503894447,-0.8994529314994811
1726940891784877000,4.154876953125,-0.7833177843689918,-1.65520203320235,-0.8543792795419692
1726940891794863000,4.164863037109375,-0.9553408229380845,-1.690018933431059,-0.9854390240818262
1726940891804849200,4.17484912109375,-0.42003275375366206,-1.6398261848941444,-0.6295744988560676
1726940891814835000,4.1848349609375,0.3393833460241556,-1.4545556883476674,0.010807809740304946
1726940891824821200,4.1948212890625,1.0673393086552618,-1.0669710598647595,0.6500947243154048
1726940891834807000,4.20480712890625,1.4986872371494768,-0.8151285615842789,1.0145599046260119
1726940891844792000,4.2147919921875,1.6387947960197924,-0.7333108407277613,1.018701826736331
1726940891854778000,4.224778076171875,1.4980027620166538,-0.7499187881141901,0.8131196329146623
1726940891864764200,4.23476416015625,1.4254641800284384,-0.7392525788016617,0.4482306742340326
1726940891874750200,4.244750244140625,1.3931097243905066,-0.5978478927928954,0.1010918917775154
1726940891884736000,4.254736083984375,1.5976386097669601,-0.19824812460653482,-0.12901391792595385
1726940891894722300,4.264722412109375,1.40727736595273,0.23052235461510717,-0.402882296988368
1726940891904708000,4.2747080078125,0.7175725157827139,0.5373959083091467,-0.7011649863392114
1726940891914694100,4.284694091796875,0.018555062866210937,0.7304810241293161,-1.1730933470249176
1726940891924679200,4.29467919921875,-0.6197463478028774,0.7457994431618601,-1.6443004076987504
1726940891934665200,4.304665283203125,-0.899800137501955,0.5412929157476872,-1.9047201071232556
1726940891944651000,4.314651123046875,-0.6067430738449097,0.46226270671784875,-1.8746359345048664
1726940891954637000,4.324636962890625,-0.26502982356846333,0.3991624727476388,-1.7732126188158988
1726940891964623000,4.334623046875,0.4159393469601869,0.45594811674356456,-1.4845663573384285
1726940891974609200,4.344609130859375,0.7154033550500869,0.48493894116729497,-1.219100480440259
1726940891984595000,4.354594970703125,0.7026023256659507,0.3992752124071121,-1.1711942354053257
1726940891994581200,4.364581298828125,0.7093775188893079,0.32362558572627603,-1.1540858642160892
1726940892004567000,4.374567138671875,0.9954542221397161,0.36353710568025704,-0.9937906728416681
1726940892014553000,4.384552978515625,1.379141989314556,0.3412128264736384,-0.891937149041891
1726940892024538000,4.3945380859375,1.804067191284895,0.26429230307415125,-0.9076245475172996
1726940892034524200,4.404524169921875,2.23129365593493,-0.04442322522476315,-1.0909797119617461
1726940892044510200,4.41451025390625,2.056894535884261,-0.3440845825176686,-1.3953268159180878
1726940892054496000,4.42449609375,1.737620496430993,-0.6601836451966315,-1.6409318080484867
1726940892064482300,4.434482421875,1.2753519444942474,-1.1003402455031872,-1.8210872996687888
1726940892074468000,4.444468017578125,0.7864595895260572,-1.3851270550735293,-1.8078607383489607
1726940892084454100,4.4544541015625,0.027238720059394834,-1.4616566063940524,-1.7022808875024318
1726940892094440200,4.464440185546875,-0.5365700519442558,-1.3805673459425567,-1.5219728356689213
1726940892104425200,4.47442529296875,-0.6784305919617414,-0.9210271960563957,-1.1707862391263246
1726940892114411000,4.484410888671875,-0.42968496371805665,-0.49079672728478907,-0.8587497497111558
1726940892124397000,4.49439697265625,-0.1096364327609539,-0.11363324731215833,-0.7482663447320461
1726940892134383000,4.504383056640625,0.003595394143462181,0.2991824877347797,-0.7669844892054796
1726940892144369200,4.514369140625,-0.10562661259770392,0.663463762845844,-0.8634434604853392
1726940892154355000,4.52435498046875,-0.3942553384184837,0.9015193625099956,-1.054823233692348
1726940892164341200,4.53434130859375,-0.7574410003125667,1.1184990025281905,-1.110907816746831
1726940892174327000,4.5443271484375,-0.9138076200664043,1.2351752707980572,-1.165761104440689
1726940892184313000,4.55431298828125,-0.5281973603963852,1.15794970003739,-1.2510714897185564
1726940892194299100,4.564299072265625,0.47961190092563627,0.9260131677754223,-1.243774318447709
1726940892204284200,4.5742841796875,1.5753642341166734,0.34505445046313105,-1.335122522585094
1726940892214270200,4.584270263671875,1.9858318716675043,-0.35940767772533,-1.3834025693684815
1726940892224256000,4.594256103515625,2.2472680546581745,-1.0293255851466208,-1.2223352245777845
1726940892234242300,4.6042421875,2.3770254844278096,-1.2247036342095583,-0.8190002153858542
1726940892244228000,4.61422802734375,1.9992086551129817,-1.3368800337769091,-0.22382862913012502
1726940892254214100,4.624214111328125,1.6552379812985658,-1.0491523484490812,0.44096360584050415
1726940892264200200,4.6342001953125,1.4050813172131775,-0.7883391927275806,0.6759235775768756
1726940892274186200,4.644186279296875,0.937754897364974,-0.8497755120735615,0.49018034895211454
1726940892284171000,4.6541708984375,0.7504711612999438,-0.8123965062718838,0.12067249829918146
1726940892294157000,4.664156982421875,0.12182488320469856,-0.9452088666327297,-0.6028296997934579
1726940892304143000,4.67414306640625,-1.0039631072878836,-1.154397706644237,-1.4139999522060156
1726940892314129200,4.684129150390625,-2.1374194404512643,-1.3625896445728838,-1.9854063397318125
1726940892324115000,4.694114990234375,-2.5769594432294367,-1.4377692425891757,-1.9894637984290717
1726940892334101200,4.704101318359375,-2.3243653228640553,-1.3472393690973519,-1.6334750623017549
1726940892344087000,4.714087158203125,-2.006953570151329,-1.1917466095685958,-1.27998165012151
1726940892354073000,4.724072998046875,-1.5848732362180948,-0.9686125385738908,-0.8214818030685186
1726940892364059100,4.73405908203125,-1.400199974912405,-0.9279997384827583,-0.40750966452807186
1726940892374044200,4.744044189453125,-0.8931330808281898,-0.7856463003817945,0.05866875432878732
1726940892384030200,4.7540302734375,-0.3445283076971769,-0.44121239296980197,0.4991235338643193
1726940892394016000,4.76401611328125,0.2077794116050005,-0.12047544135712086,0.622453268674016
1726940892404002300,4.774002197265625,0.6567150192379951,0.033943624525517226,0.23241642473340032
1726940892413988000,4.783988037109375,0.7769464957714081,-0.07434840788915753,-0.3592743336692452
1726940892423974100,4.79397412109375,0.7988187203615903,-0.14974281769990921,-0.6757131496965885
1726940892433960200,4.803960205078125,0.8161293361246585,-0.2344644433043897,-0.6834349761202931
1726940892443946200,4.8139462890625,0.6414981608837843,-0.3155468356236815,-0.5969736672416329
1726940892453932000,4.82393212890625,0.5994599310994148,-0.33289880631044505,-0.3476870639890432
1726940892463917600,4.83391748046875,0.4860585928469896,-0.16751067571118472,-0.01592851375490427
1726940892473903600,4.843903564453125,0.21616905428767202,-0.41453590990304945,0.0892103153258562
1726940892483889700,4.8538896484375,-0.25456279008984567,-0.4877361706703901,0.191375681553781
1726940892493875500,4.86387548828125,-0.6974678853869438,-0.39014366531595585,0.2698787249043584
1726940892503861800,4.87386181640625,-0.7227583939880132,-0.4533206908494234,0.5017123813137412
1726940892513847600,4.88384765625,-0.696436204251647,-0.3185771432302892,0.6684568949580192
1726940892523833600,4.89383349609375,-0.7502765155106782,0.15511632743179798,0.48105391642749307
1726940892533819600,4.903819580078125,-1.035615552136302,0.6786921655073761,0.06059592299908399
1726940892543805700,4.9138056640625,-1.1661422127127647,0.8519266256928444,-0.06058657064884901
1726940892553790500,4.92379052734375,-1.2712696436166762,0.761345898796618,-0.050317105568945406
1726940892563776500,4.933776611328125,-1.2556366056770085,0.6564227582931518,0.2858426022335887
1726940892573762600,4.943762451171875,-0.8676403276532888,0.18884908568561076,0.43087095863223074
1726940892583748600,4.95374853515625,-0.07785948475003242,-0.564701336929202,0.49895928321331734
1726940892593734400,4.963734375,1.1376005933612585,-1.1490727122291922,0.6883005363300442
1726940892603720700,4.973720703125,1.9195289691984652,-0.9522501634463667,-0.24898002152144907
1726940892613706500,4.98370654296875,1.7566051828861236,-0.5914040504157543,-1.1287091386362909
1726940892623692500,4.993692626953125,0.7158411619454622,-0.5918807280167937,-2.0999436962768434
1726940892633678600,5.0036787109375,-0.5267442389786243,-0.5001823952674865,-2.552949329827726
1726940892643663600,5.01366357421875,-1.9783698652237653,-0.14547668468803165,-2.081576557198167
1726940892653649700,5.023649658203125,-2.178468659198284,0.031689854249358176,-0.560262769959867
1726940892663635500,5.033635498046875,-1.020557683736086,-0.06289280176460743,1.076442068043351
1726940892673621800,5.043621826171875,0.23356442572474478,-0.5020376677453517,1.9504630366444586
1726940892683607600,5.053607666015625,0.7795581395745277,-0.6463429705664515,2.4506100683376193
1726940892693593600,5.063593505859375,0.8528583535850047,-0.6371893577739596,2.430703883123398
1726940892703579600,5.07357958984375,0.7161579728096723,-0.8123404652357101,1.567032166840136
1726940892713565700,5.083565673828125,0.48465398674607274,-1.1890259524330495,0.39794454832524057
1726940892723551500,5.093551513671875,0.14479600894749164,-1.5206407102823256,-0.2162485492646694
1726940892733536500,5.10353662109375,-0.1431897427946329,-1.422009363399446,0.04709405186921358
1726940892743522600,5.1135224609375,-0.3062655047982931,-0.9292831293568015,0.4665437450379133
1726940892753508600,5.123508544921875,-0.25755028146803377,-0.19052724803090093,0.7449009599521755
1726940892763494400,5.133494384765625,-0.008408347383141517,0.6098538993418217,0.6276403159230947
1726940892773480700,5.143480712890625,0.1110305174678564,1.0294517688095568,0.4174740091815591
1726940892783466500,5.153466552734375,0.16550445045530796,0.9879323022022842,0.3891919175490737
1726940892793452500,5.16345263671875,0.31259003164470195,0.6970178035318851,0.453010017465055
1726940892803438600,5.1734384765625,0.592784691119194,0.4923761054307222,0.5892012796744703
1726940892813424600,5.183424560546875,0.8836872070908546,0.4141980562508106,0.7060381453335285
1726940892823409700,5.19340966796875,1.0819517713755369,0.38383302086442705,0.5249865816563367
1726940892833395500,5.2033955078125,1.033360466685891,0.2796162750646472,-0.007242810735106468
1726940892843381800,5.2133818359375,0.8279279104679822,0.07549918535947799,-0.4442018571093678
1726940892853367600,5.223367431640625,0.7839572513163089,-0.020100538742542265,-0.6264183729127049
1726940892863353600,5.233353515625,0.9016355362355708,-0.04856675477027893,-0.9151412067577243
1726940892873339600,5.243339599609375,1.0573889925271271,-0.22253449766635894,-1.38882313311249
1726940892883325700,5.25332568359375,0.8848071510314941,-0.3496732693701982,-1.7429615651980042
1726940892893311500,5.2633115234375,0.5712094036489724,-0.49494391009211536,-1.9551593777671454
1726940892903297500,5.273297607421875,0.24084347681701182,-0.7269283731490374,-1.9291949154272674
1726940892913283600,5.28328369140625,-0.047315877926349635,-0.7833134004548191,-1.7796730470016597
1726940892923268600,5.2932685546875,-0.2658013924628496,-0.6807081815049052,-1.4204896064862609
1726940892933254400,5.30325439453125,-0.17076456294059753,-0.5822542370155454,-1.1138491308957337
1726940892943240700,5.31324072265625,0.0754249510794878,-0.3382499580800533,-1.2351640187516808
1726940892953226500,5.3232265625,0.35495734725296496,-0.08560118491798639,-1.5594456572338937
1726940892963212500,5.333212646484375,0.46512978658676146,0.008741817121207713,-1.7981266953200101
1726940892973198600,5.343198486328125,0.6421142469555139,0.18427140250653026,-1.9148842121325431
1726940892983184600,5.3531845703125,0.7138233923822641,0.5372302694186568,-2.0016832285329698
1726940892993170400,5.36317041015625,0.46945583309233185,0.8275792431607842,-1.9954422883167862
1726940893003156700,5.37315673828125,0.15368015714883804,0.9463836095005274,-2.0327910451106725
1726940893013141800,5.383141845703125,-0.20093582932054996,0.8031415519967675,-1.7447892190165817
1726940893023127600,5.39312744140625,-0.2814122185707092,0.4214572335988283,-1.30041273599267
1726940893033113600,5.403113525390625,-0.13267477852106094,0.23163199635744094,-0.9626897243961692
1726940893043099600,5.413099609375,-0.06034896250069141,0.339760216512531,-0.8742558002702892
1726940893053085400,5.42308544921875,0.1935305215001106,0.4184774871356785,-0.9571085632629692
1726940893063071500,5.433071533203125,0.5666109699428081,0.20016689077466726,-1.032007444641739
1726940893073057500,5.4430576171875,1.0088678304642438,0.09954846172779798,-1.0321890848189592
1726940893083043600,5.453043701171875,1.518760303363204,0.21718831433281302,-1.0076387270607055
1726940893093028600,5.463028564453125,1.4077917452156543,0.24671061528474092,-1.0385384538456797
1726940893103014400,5.473014404296875,0.9699643915742635,0.1945234780602157,-1.141389902641624
1726940893113000700,5.483000732421875,0.4838526072353124,0.06247369956970215,-1.235532852064073
1726940893122986500,5.492986572265625,0.278432325977087,-0.17923048572987316,-1.3379244282633065
1726940893132972500,5.50297265625,0.3217512432217598,-0.32162805523350835,-1.3755568243041634
1726940893142958600,5.51295849609375,-0.17652034998834132,-0.2587932672664523,-1.337259534613788
1726940893152944600,5.522944580078125,-0.3270096021413803,-0.04588891386315226,-1.1373957184389234
1726940893162930400,5.532930419921875,-0.37849838183820245,0.261302327477932,-0.8881316192790866
1726940893172916700,5.542916748046875,-0.19036007477045058,0.47852498247176406,-0.5948170737296342
1726940893182902500,5.552902587890625,-0.08215045994222164,0.6214286018013954,-0.44434711079895495
1726940893192887600,5.562887451171875,-0.18871932182610035,0.7211011283002793,-0.19021540560275316
1726940893202873300,5.572873291015625,-0.18813596898019314,0.8253345329739152,0.021629355745017526
1726940893212859600,5.582859619140625,-0.08921791411042213,0.8687249810848384,0.31461539999246596
1726940893222845400,5.592845458984375,0.014228431838750838,0.9773791248101741,0.37519349507391453
1726940893232831500,5.60283154296875,0.38807635752260683,1.2069098380394279,0.18130027774125337
1726940893242817500,5.612817626953125,0.28656477902829647,1.3265966863021255,0.25213059450685976
1726940893252803600,5.622803466796875,0.5135340442717075,1.3464835822939871,0.2876113654717803
1726940893262789400,5.632789306640625,0.9678677115559577,1.057556677244231,0.2094125657647848
1726940893272775700,5.642775634765625,1.4884540124267338,0.5492100455477833,0.11403759032934903
1726940893282760700,5.6527607421875,1.418948514524102,0.2515561556197703,-0.16152707125693558
1726940893292746500,5.66274658203125,0.7687959225416183,0.1828869624108076,-0.6489812101155519
1726940893302732500,5.672732666015625,-0.19017010515630245,0.040240459647402166,-1.0532610989421605
1726940893312718600,5.682718505859375,-0.8408125264823436,-0.19079269403405485,-1.2767907451257108
1726940893322704600,5.69270458984375,-0.9444657931804656,-0.31256657770387825,-1.4583309691026807
1726940893332690400,5.7026904296875,-0.8040455150991678,-0.24697211576513944,-1.5075032885506747
1726940893342676700,5.7126767578125,-1.0040665676623581,-0.22074405231932176,-1.5349246717005967
1726940893352662500,5.72266259765625,-0.7746382188290357,-0.4724075955700129,-1.517115458765626
1726940893362648600,5.732648681640625,-0.8004092044234276,-0.5417706162620336,-1.5247797097831963
1726940893372633600,5.742633544921875,-0.9421288746654987,-0.5393431699194013,-1.6286235306173562
1726940893382619600,5.75261962890625,-1.1187333958059549,-0.36012985452003776,-1.3692410652860998
1726940893392605400,5.76260546875,-0.7995867821246385,0.12105879420302808,-0.6349938935562968
1726940893402591500,5.772591552734375,-0.1061550203859806,0.5312557615863159,-0.20069734438955783
1726940893412577500,5.78257763671875,0.7179343348324299,0.7132516569089145,-0.04460778801143169
1726940893422563600,5.7925634765625,1.3523100964903831,0.6411547542735934,0.015467325983941554
1726940893432549400,5.80254931640625,1.695613246306777,0.4597606607690453,-0.056825756810605525
1726940893442535700,5.81253564453125,1.633851494398713,0.3748059570610523,-0.11572744311243295
1726940893452521500,5.822521484375,1.5974217521458862,0.33611711076982315,0.038084815983474254
1726940893462505700,5.832505615234375,1.532294323197007,0.37061530043818053,0.159161511169374
1726940893472491800,5.84249169921875,1.3458400236934422,0.6039918023753911,0.19064941310584543
1726940893482477800,5.852477783203125,0.8112152605980634,0.8878349744200706,0.16566753206253051
1726940893492463900,5.8624638671875,0.18906068260967732,1.0644411029957235,0.10000614236742257
1726940893502449700,5.87244970703125,0.09360533541440963,1.2087994511783122,-0.04670680611729622
1726940893512436000,5.88243603515625,-0.2817535793542862,1.0506822614300995,-0.24369448233395813
1726940893522421800,5.892421875,-0.4301350455731153,0.7694151504185051,-0.5200926721349358
1726940893532407800,5.90240771484375,-1.6029700339227915,0.4158522166660055,-0.5315943093582988
1726940893542393900,5.912393798828125,-1.465840614080429,0.2158730304831639,-0.3983277024239301
1726940893552379000,5.92237890625,-0.9436439554035663,0.30462701687626537,-0.03566197275072336
1726940893562365000,5.932364990234375,-0.9637807345032692,0.497537872108072,0.5562555801451206
1726940893572350700,5.942350830078125,-0.5433312166422605,0.7253976564504205,1.126746898652613
1726940893582337000,5.9523369140625,0.3422334747582674,0.8669485459968447,1.4963704846397041
1726940893592322800,5.96232275390625,1.1166717871010303,0.7399816237285732,1.4564122759997844
1726940893602308900,5.972308837890625,1.4522136552661657,0.3420767498265952,1.0886652975395321
1726940893612295000,5.982294921875,0.9842091900259256,0.015435323410481214,0.3586342822000384
1726940893622281000,5.992281005859375,0.2516413496851921,-0.26742545000072565,-0.2639779764279723
1726940893632266800,6.002266845703125,-0.055986675637960434,-0.36959940139390524,-0.3940872883751988
1726940893642251800,6.012251708984375,-0.3731470839381218,-0.3636041795670986,-0.25552403633743526
1726940893652237800,6.02223779296875,-0.3385515713751316,-0.3129003762355074,0.015417933884263038
1726940893662224000,6.032223876953125,-0.23962767128646373,-0.20841939000897108,0.36237259194552895
1726940893672209700,6.042209716796875,0.06723521488308906,-0.03326455622017383,0.5518713737115264
1726940893682196000,6.052196044921875,0.4427431827336549,0.0458358319690451,0.46967298297435045
1726940893692181800,6.062181640625,0.8394441607385873,0.0023027970496565103,0.03416121279895305
1726940893702167800,6.072167724609375,0.7377841136842965,0.0062765960514545435,-0.3629784488841891
1726940893712153900,6.08215380859375,0.5786562125235796,0.212262840629369,-0.5898252567917108
1726940893722140000,6.092139892578125,0.3805810333311557,0.36558439359888434,-0.6710410662323236
1726940893732125000,6.102125,0.3546960659682751,0.3311650413203984,-0.5638002964362502
1726940893742110700,6.11211083984375,0.17392799540758133,0.3669806702628732,-0.10381693282723427
1726940893752096800,6.1220966796875,0.310488090929389,0.38663872593492266,0.17964198914021254
1726940893762082800,6.132082763671875,0.8120984731733798,0.31271223325226455,-0.0642050534069538
1726940893772068900,6.14206884765625,1.0734656825810671,0.1341813836917281,-0.3454538981094956
1726940893782055000,6.152054931640625,1.182109597173333,-0.06932681686747819,-0.6990899336308241
1726940893792040700,6.162040771484375,1.0183183803766964,-0.2056571222214028,-1.1991194764241575
1726940893802026800,6.17202685546875,0.4968915370285511,-0.395544355315715,-1.6456275646492837
1726940893812012800,6.1820126953125,-0.21062311059832572,-0.4241200961325317,-1.8705574330195784
1726940893821997800,6.191997802734375,-0.6086258188515902,-0.2931193517709151,-1.751783461818099
1726940893831983900,6.20198388671875,-0.5585802237004042,-0.20034122442826627,-1.5125819069892168
1726940893841969700,6.2119697265625,-0.22457740167081355,-0.24467604071721433,-1.541440337204933
1726940893851956000,6.2219560546875,-0.23330022183060645,-0.3909596578739583,-1.730617631931603
1726940893861941800,6.231941650390625,-0.39062428843975067,-0.651448477011919,-1.8329615695968269
1726940893871927800,6.241927734375,-0.3208464033365249,-0.8685164529006928,-2.7728806592583655
1726940893881913900,6.251913818359375,-0.3616512919336557,-0.9244249487359076,-3.240328951920569
1726940893891900000,6.26189990234375,-0.6673720223307609,-0.9585934680584818,-3.0820410087153314
1726940893901885700,6.2718857421875,-0.5698042130261659,-1.1399907033681869,-2.2642112984135747
1726940893911870700,6.28187060546875,-0.2681500014156103,-1.2784458188563586,-0.5983259586334229
1726940893921856800,6.291856689453125,1.0424515356361865,-0.9813610340531915,0.18326222546398638
1726940893931842800,6.3018427734375,1.725606233510375,-0.7157959345642477,0.34764643971771
1726940893941828600,6.31182861328125,1.6664952883720396,-0.5770861867278814,0.04178630084991455
1726940893951815000,6.32181494140625,0.7925719349265098,-0.5651685891147703,-0.3935869376376271
1726940893961800700,6.33180078125,0.6104261462718248,-0.7404932265125215,-1.0426289380297065
1726940893971786800,6.341786865234375,0.46496027523875233,-0.9536357725858687,-1.4989268911242484
1726940893981772800,6.351772705078125,0.12427052279114723,-1.0182685498856008,-1.6845695819839834
1726940893991758800,6.3617587890625,-0.10734510695338248,-0.9935805372223258,-1.489716287447512
1726940894001744600,6.37174462890625,-0.23175416143238542,-0.9514797635957598,-0.8752633698776364
1726940894011729700,6.381729736328125,-0.23356208763718603,-0.9435555464677512,-0.3666942545369267
1726940894021716000,6.391716064453125,-0.04395020088553429,-0.8066938376508652,-0.06838701526671648
1726940894031701800,6.40170166015625,0.10515139630138873,-0.768212861956656,-0.17087591436058283
1726940894041687800,6.411687744140625,-0.02790858214497566,-0.6816955851070583,-0.6683531423225999
1726940894051673900,6.421673828125,-0.23223814555704592,-0.7109476908154785,-1.279592066282034
1726940894061660000,6.431659912109375,-0.8501806588083505,-0.8636040578745305,-1.8010311845898628
1726940894071645700,6.441645751953125,-1.276387717282772,-0.8996022768422961,-1.662752010190487
1726940894081632000,6.451632080078125,-1.1192974594295024,-0.7479873816601932,-1.0397700414672493
1726940894091617800,6.46161767578125,-0.6068126319497823,-0.44799423512965436,-0.3021095541626215
1726940894101602800,6.471602783203125,-0.34145079994797706,-0.11893149985074997,0.05632277572453022
1726940894111588600,6.481588623046875,-0.8929337588638067,0.30624300070554017,0.04776859012991189
1726940894121575000,6.491574951171875,-2.0648054551392794,0.34868162798434493,-0.4636092990212142
1726940894131560700,6.501560791015625,-3.707437637364864,-0.21872195364087818,-0.9831075123943388
1726940894141546800,6.511546630859375,-5.0067643316864965,-0.776153884088993,-0.6437706358604133
1726940894151532800,6.52153271484375,-4.9605847643136975,-0.9921195247590541,0.6568743014529347
1726940894161518800,6.531518798828125,-3.6045740597397087,-0.7607035092398524,2.0298422783076764
1726940894171504600,6.541504638671875,-1.4976345132261515,-0.5262231377139687,2.92813318029046
1726940894181491000,6.551490966796875,-0.014417232409119605,-0.16604162607192993,3.1728736645460125
1726940894191476000,6.56147607421875,0.44977147393524647,0.04781681318581104,2.9943408056914804
1726940894201461800,6.571461669921875,0.25231471890211105,0.24874884311407802,2.653379250565171
1726940894211447800,6.58144775390625,-0.048230070161819454,0.4239715545073151,1.7326321866244077
1726940894221433900,6.591433837890625,-0.022638532787561415,0.5016954301789402,1.3189803660795092
1726940894231420000,6.601419921875,0.2841138787448406,0.5573465902522206,1.0661442536517978
1726940894241405700,6.61140576171875,1.405360134154558,0.24551117636710404,1.0508061070054768
1726940894251392000,6.62139208984375,3.0428192976564166,-0.2659899007722735,0.7122039744868874
1726940894261377800,6.631377685546875,4.258828826344013,-0.3782049518495798,0.2643283973008394
1726940894271363800,6.64136376953125,5.165922627985477,-0.17518939364552497,-0.112500882281363
1726940894281348900,6.651348876953125,4.997738729187846,-0.06304565423876046,-1.6970558463305234
1726940894291335000,6.6613349609375,4.527386824038625,-0.4375371385231614,-3.1091695463985203
1726940894301320700,6.67132080078125,4.0875118902176615,-1.1993494857877491,-2.9116970092743633
1726940894311306800,6.681306640625,3.2606828809022903,-1.9974907452791928,-1.41449504224658
1726940894321292800,6.691292724609375,2.410521511316299,-2.289395716291666,0.07071721177995205
1726940894331278800,6.70127880859375,1.9176994156837461,-2.1475050733968613,0.021819325359165666
1726940894341264600,6.7112646484375,1.3721376635104416,-1.5168600226998328,-0.8432850540757179
1726940894351251000,6.7212509765625,0.5916074640333652,-1.1925754616081714,-1.641024454768002
1726940894361236700,6.73123681640625,-0.7560287954270839,-1.000213983887434,-2.1690511347725985
1726940894371221800,6.7412216796875,-1.9243565354853867,-1.0198574265122413,-1.8833242678731679
1726940894381208000,6.7512080078125,-1.6759534370690583,-1.3110074875041842,-1.0470467544719577
1726940894391193900,6.76119384765625,-0.6719049895852803,-0.9152268392145633,0.16416326497942207
1726940894401180000,6.771179931640625,0.2624327928125858,-0.18740093270391225,0.5564204153180122
1726940894411165700,6.781165771484375,0.6566232493013143,0.24951369000673293,0.510261890733242
1726940894421152000,6.791152099609375,0.7800269261300563,0.4705670092046261,0.46288083861619234
1726940894431137800,6.8011376953125,0.8894780654519796,0.6400596525132656,0.2695265504658222
1726940894441123800,6.811123779296875,1.1023656138509512,0.8479068686574697,-0.067697863958776
1726940894451110000,6.82110986328125,1.439322024989128,0.9290864377409219,-0.20694676017314195
1726940894461096000,6.831095947265625,1.9583488214582203,0.6887599705353379,-0.16011165150105952
1726940894471081000,6.8410810546875,2.585791568982601,0.338545141634345,-0.2959250203087926
1726940894481067000,6.85106689453125,3.0373464192032813,0.1834673926472664,-0.5110778832912445
1726940894491052800,6.861052734375,3.0177433085888623,-0.03976239380687475,-0.46619244738221166
1726940894501039000,6.8710390625,2.7055016519904136,-0.13094137885719537,-0.7457634220004081
1726940894511025000,6.88102490234375,2.0441630646049975,-0.3691615214332938,-1.2956541432887314
1726940894521011000,6.891010986328125,0.38434067812561984,-0.6445072795718908,-2.4204279883027073
1726940894530997000,6.9009970703125,-0.9126958594322204,-0.8561942200094461,-3.6422979334563013
1726940894540983000,6.910983154296875,-1.6294377696096896,-1.016510454171896,-3.997263464015722
1726940894550968800,6.92096875,-2.7450883969694373,-1.4485492875397203,-3.0889176164865493
1726940894560953900,6.930953857421875,-3.0559768853932616,-1.0579513025850058,-1.7698928267434237
1726940894570940000,6.94093994140625,-3.324674583819508,0.0707122433438897,-1.007211003167927
1726940894580926000,6.950926025390625,-4.439189485147595,0.8693506387025117,-0.5342028844214975
1726940894590911700,6.960911865234375,-5.998583412194252,1.7332237227767704,-0.8227280037373303
1726940894600898000,6.97089794921875,-6.511620612859725,1.9920761728845535,-1.4246611930824815
1726940894610883800,6.9808837890625,-6.085000297409295,1.2938593688264488,-1.5885409649454056
1726940894620870000,6.990869873046875,-5.2580175588369364,0.4785882569663226,-1.3776198943138123
1726940894630856000,7.00085595703125,-4.1979508715331555,0.026630086641758678,-0.704499537589401
1726940894640842000,7.010842041015625,-2.82266789573431,0.09485913486778735,0.3619166648715734
1726940894650827000,7.020826904296875,-1.4196511098355054,0.01539601431339979,1.6202882484704255
1726940894660812800,7.030812744140625,0.16082126107513903,0.44015418915376064,2.1856822438389063
1726940894670799000,7.040799072265625,1.3690589867174625,0.6459631774686276,2.234545058946311
1726940894680785000,7.050784912109375,2.1470383326679467,0.5384940057441592,2.214506771785021
1726940894690771000,7.06077099609375,1.781757744321227,0.6954378408640622,1.9078119356587528
1726940894700757000,7.070757080078125,1.7200462612956762,0.6500584108930081,1.5790367851495741
1726940894710743000,7.080742919921875,1.5813520763546227,0.38297844986170526,1.498508081190288
1726940894720728800,7.090728759765625,1.8738579358696936,0.1307153880815953,1.3341378954619167
1726940894730715100,7.100715087890625,2.3877818562418223,0.020120047160610555,1.423165547697246
1726940894740701000,7.110700927734375,2.684921805298328,0.1042134578641504,1.6222031421810388
1726940894750686000,7.12068603515625,2.497166944590211,0.2311936780054122,1.8227184080019592
1726940894760671700,7.130671630859375,2.469775079795718,0.16290668904706834,1.4925184853866695
1726940894770658000,7.140657958984375,2.3100924673616885,0.13032200484983622,1.0316635996401309
1726940894780643800,7.150643798828125,1.7419687547683715,0.2837750021792948,0.4343433109179139
1726940894790630000,7.1606298828125,0.6845312469244003,0.4474200885035097,-0.16581073992550371
1726940894800616000,7.170615966796875,-0.599043751513958,0.5066403392352163,-0.5986614741981029
1726940894810602000,7.18060205078125,-2.5359786135435103,0.331850393236056,-1.4833131424069403
1726940894820587800,7.190587890625,-3.9726632757663722,0.005744900327548384,-2.2428607596099375
1726940894830574000,7.200573974609375,-5.158322089853883,-0.12357545319907366,-2.5632316543892024
1726940894840559000,7.21055908203125,-5.633390502130985,-0.35943186231851576,-2.6470278357118366
1726940894850545000,7.220544921875,-4.5562978612244125,-0.5790320966312661,-1.7923913665384053
1726940894860531000,7.230531005859375,-2.1534861936330794,-0.7506519977595657,-0.6974573639929295
1726940894870517000,7.24051708984375,-0.7412468213587999,-0.4051200659777969,0.15333119758069513
1726940894880503000,7.2505029296875,-0.3815338040113449,-0.385017591006495,0.32442893799841405
1726940894890488800,7.26048876953125,0.45638533911705015,-0.8603146609403193,-0.029871114389598368
1726940894900475100,7.27047509765625,1.188984159117937,-1.2813109990291296,-0.20034137055873869
1726940894910461000,7.2804609375,1.7169173156201838,-1.646798361994326,0.003143558722734451
1726940894920447000,7.290447021484375,2.5345138016879556,-1.7444615944974124,0.507859798027575
1726940894930433000,7.30043310546875,2.479074238538742,-1.5373646121986209,1.5199045049622655
1726940894940418000,7.31041796875,2.013412537032366,-1.3676253006525336,2.280915764977038
1726940894950403800,7.32040380859375,1.3289093471586704,-1.2815842630125582,2.6026968188151716
1726940894960390000,7.330389892578125,0.3687093937516212,-1.1997568975448607,2.6492601248085497
1726940894970376000,7.3403759765625,-0.09374094449281692,-1.106712557014078,2.637741828711331
1726940894980362000,7.350362060546875,0.6330050578266382,-0.7032341938287019,2.375152384032309
1726940894990347800,7.36034765625,1.170455399736762,-0.03154080116748809,2.0165262851387262
1726940895000334000,7.370333984375,0.8516489777952432,0.3124318454083055,1.5580995033219456
1726940895010320000,7.38031982421875,0.4471639217853546,0.5425527796156704,0.8041051363319158
1726940895020306000,7.390305908203125,-0.17531740393936632,0.6054895666524768,-0.19044483044445515
1726940895030291000,7.400291015625,-0.712452688550949,0.547822244451195,-1.154086156477034
1726940895040277000,7.410277099609375,-0.9283394187659024,0.42736207372844215,-1.7999179626509547
1726940895050263000,7.420262939453125,-0.8155600118041038,0.23088600029572842,-2.0129668390914794
1726940895060248800,7.430248779296875,-0.9458943646788597,-0.00557407380528748,-1.5421853103533387
1726940895070235100,7.440235107421875,-1.5415554880172013,-0.3953206295624375,-0.734954150955379
1726940895080221000,7.450220947265625,-1.6047405507266521,-0.580201396138966,-0.14262217203974722
1726940895090207000,7.46020703125,-1.0675362925320864,-0.5035550865709781,-0.29764760631769893
1726940895100193000,7.470193115234375,-0.714554629266262,-0.3459897585518658,-0.5809112979739904
1726940895110179000,7.480178955078125,-0.5843693294733763,-0.30232743469700213,-0.817100226983428
1726940895120163800,7.490163818359375,-0.6898983269155025,-0.3240194804146886,-0.9927581149235367
1726940895130150000,7.50014990234375,-1.1931938857674598,-0.28590163894444703,-0.5866165238782763
1726940895140136000,7.510135986328125,-1.5768039115309713,-0.3127519442081451,-0.010106675733625888
1726940895150122000,7.5201220703125,-1.108080484366417,-0.28970483061969277,0.13319880239516496
1726940895160107800,7.530107666015625,-0.4456938492327928,-0.09737097155824304,0.23163111957460641
1726940895170094000,7.540093994140625,0.028678397473692892,-0.03366071593090891,0.14608429519236088
1726940895180079900,7.550079833984375,0.5075450329899788,-0.18597206894457338,-0.1499500307098031
1726940895190066000,7.56006591796875,0.5741226607471704,-0.296096723613888,-0.5111927418425679
1726940895200052000,7.570052001953125,0.3145417502343654,-0.493468430712074,-0.6915913945689797
1726940895210038000,7.5800380859375,-0.07287000589966773,-0.6600646219268441,-0.4500038213863969
1726940895220023000,7.59002294921875,-0.15341887586414812,-0.766781513979286,-0.4811252280980348
1726940895230008800,7.6000087890625,-0.007148118188977241,-0.6341312853775918,-0.7287187636971473
1726940895239995000,7.609994873046875,-0.06882160729169845,-0.44815483251884575,-0.6164040516376496
1726940895249981000,7.61998095703125,-0.0942301893144846,-0.4449595436088741,-0.4430316442862153
1726940895259967000,7.629967041015625,-0.26171616897583005,-0.46903526959270236,-0.2738232247464359
1726940895269953000,7.639953125,-0.45091246066391466,-0.6814658680044114,0.1160281796246767
1726940895279938800,7.649938720703125,0.10421031605899334,-1.2470099393680691,0.29540011965185403
1726940895289924900,7.6599248046875,0.6822253080695867,-1.3532339333370327,0.27380188969746233
1726940895299911000,7.669910888671875,0.42866497302055356,-1.0551002970680594,0.05566533472910523
1726940895309896000,7.67989599609375,-0.03668693188428879,-0.7042658749639987,-0.35522213566899297
1726940895319882000,7.689882080078125,-0.5990262158572673,-0.3903726517662406,-0.7095612048931419
1726940895329867800,7.69986767578125,-1.2659019791036843,-0.3648737611114979,-0.9475412551030516
1726940895339854000,7.70985400390625,-1.1808318323224782,-0.889904474170506,-0.9076073041215539
1726940895349840000,7.71983984375,-0.4731704697012901,-0.9620610711038112,0.2554934950686991
1726940895359826000,7.729825927734375,0.08677578165531158,-0.8030404297098517,1.1292444145567715
1726940895369812000,7.73981201171875,0.49987961292862887,-0.4677797165736556,1.6301444565743206
1726940895379798000,7.749798095703125,0.25010522615909575,0.17498393420130012,1.3138573239773512
1726940895389783800,7.75978369140625,-0.6451292108625173,0.27949323320686814,0.2540991181008518
1726940895399770000,7.76977001953125,-1.3321487674713135,-0.2892573791131377,-0.28314459532126784
1726940895409755000,7.7797548828125,-1.545982072287798,-1.0843915657430887,-0.05999181962609291
1726940895419741000,7.789740966796875,-0.6896095731019973,-1.5092144763827322,0.7996265296131372
1726940895429726700,7.799726806640625,0.23429332452118395,-1.2782920895993708,1.1223650303065775
1726940895439713000,7.809713134765625,-0.024293898779153823,-0.022044366286695004,0.3809244399413466
1726940895449698800,7.81969873046875,-0.4983411513149738,0.432638552826643,-1.2255687996715308
1726940895459685000,7.82968505859375,-0.23080022170841694,-0.9748787593618035,-1.154464634400606
1726940895469671000,7.8396708984375,1.008943818309903,-1.9622236170649527,0.21100831052362917
1726940895479657200,7.8496572265625,2.056055162450671,-2.1928134108930823,1.5321604676842688
1726940895489643000,7.85964306640625,2.754267144203186,-0.9598407647058367,1.9348314600095151
1726940895499628000,7.8696279296875,2.878795441147685,0.7847522010862826,0.32086072412282224
1726940895509614000,7.879614013671875,1.679391010302305,1.5480197155952453,-1.2229939807474612
1726940895519600000,7.88960009765625,-0.08840659772753715,0.7630275682732462,-0.936525647830963
1726940895529586200,7.899586181640625,-0.47356619102060793,-0.3517150043308735,0.41652942180782554
1726940895539572000,7.909572021484375,0.444251833730936,-0.43366263517737386,1.2231047476455568
1726940895549558300,7.919558349609375,1.4204226787298917,0.29110797541588546,0.3411526937842369
1726940895559544000,7.9295439453125,1.9946447081983087,0.662867696648836,-0.4463599119260907
1726940895569530000,7.939530029296875,1.675180114609003,0.35049043097198007,-0.5767047861948609
1726940895579516200,7.94951611328125,1.050524367454648,-0.8189207204088568,-0.3028729397505522
1726940895589502200,7.959502197265625,1.000586908853054,-1.5704308693677187,0.5820008467763662
1726940895599487000,7.969487060546875,1.6680366725951432,-1.3705261366605759,0.7895280371859669
1726940895609473000,7.97947314453125,1.9737462970763444,-0.7186480360597371,0.4187947363913059
1726940895619459000,7.989458984375,1.731680584987998,-0.039516602352261544,-0.02516805126518011
1726940895629445000,7.999445068359375,0.9627934770315885,0.39914369498193264,-0.5169193027958273
1726940895639431000,8.009430908203125,0.18862229119241236,0.17282909425497053,-1.0233984601199626
1726940895649417200,8.019417236328126,-0.09728957688510417,-0.2632330032795667,-1.2937883494168518
1726940895659403000,8.029403076171874,-0.47777357958257194,-0.08674714008271693,-1.3810454848483205
1726940895669389000,8.03938916015625,-1.0304746821165085,0.14109452408105133,-1.5210145120307803
1726940895679375000,8.049375,-1.8815847307294606,0.37036885139644143,-1.7702711585365234
1726940895689360100,8.059360107421876,-2.5120371814638376,0.2634635971650481,-1.8030713121153412
1726940895699346200,8.06934619140625,-2.747941448312998,0.062032385542988774,-1.5555216156579552
1726940895709332000,8.07933203125,-2.367116084831953,0.1231280747577548,-1.3055886773258447
1726940895719318300,8.089318359375,-2.152100876754522,0.3391393081352114,-1.1091108503274618
1726940895729304000,8.099303955078126,-2.704953954979777,0.47279476825669403,-0.89767393912822
1726940895739290000,8.1092900390625,-2.177421780493855,0.27149054401516914,-0.937217721748352
1726940895749276200,8.119276123046875,-1.4164093514353036,0.23647578312680123,-0.7258712653115391
1726940895759262200,8.12926220703125,-0.1792658493041992,0.3323379575572908,-0.03645779930353164
1726940895769248000,8.139248046875,0.7118442012637853,0.8334412670619785,0.44321021572351454
1726940895779234000,8.149234130859375,0.9929232423573732,1.1345556727074086,0.9384832116395234
1726940895789219000,8.159218994140625,1.6144751782774924,1.021479913147539,1.0054308417528868
1726940895799205000,8.169205078125,1.8084043437063693,0.5990491583414376,0.6719839000403881
1726940895809191000,8.17919091796875,2.2251129214733836,0.15488120350167153,0.16645459078699348
1726940895819177200,8.18917724609375,2.2648855444133282,-0.03475757125690579,-0.32882921878397464
1726940895829163000,8.1991630859375,1.663103892368078,-0.18600100277811288,-0.9998206006556749
1726940895839149000,8.209149169921876,1.1172872886508702,-0.1825844723328948,-1.569433967284858
1726940895849135000,8.219135009765624,0.9144213680505752,-0.1627976757146418,-1.7718924761280417
1726940895859121200,8.22912109375,0.8086772665530443,-0.18888254956379533,-1.6382275175258516
1726940895869107000,8.23910693359375,0.3665881638139486,-0.13739698473736642,-1.4238868477091193
1726940895879092000,8.249092041015626,-0.4132762652307749,-0.04528510275110602,-1.0723369708120822
1726940895889078000,8.259078125,-0.7255868954122066,0.051295449081808324,-0.5853235614582896
1726940895899064000,8.26906396484375,-0.39962183388769623,0.2513805067919195,-0.3186401254639029
1726940895909050000,8.279050048828125,-0.512287259081006,0.3552770807266235,-0.2760615051925182
1726940895919036200,8.2890361328125,-0.799358234065771,0.482079752343893,-0.14457856680452824
1726940895929022000,8.29902197265625,-1.425674023386836,0.7412725403219461,-0.15410568908452987
1726940895939008000,8.309008056640625,-2.2041011131048203,0.8159089713722467,-0.005282324317097664
1726940895948994000,8.318994140625,-2.6228479187011717,0.9943754139270633,0.2532166361778974
1726940895958980000,8.32897998046875,-2.9534079068005084,1.1475720984078943,0.34957127030044793
1726940895968966000,8.3389658203125,-3.007058832967281,1.1472394323874264,0.2631774737000465
1726940895978951000,8.348950927734375,-2.3768583111673593,1.1694723069835453,0.21089520553797483
1726940895988937200,8.358937255859376,-1.5036077424168586,0.9725424984339625,0.4153720684662461
1726940895998923000,8.368923095703124,-0.5718576384246349,1.0587259402193128,1.107632740598917
1726940896008909000,8.378908935546875,0.37076165010631085,1.1544994865182787,1.5933178239583967
1726940896018895000,8.38889501953125,1.5727806473642587,1.1647698283810168,1.5444310434535145
1726940896028881200,8.398881103515626,1.7175684730052947,1.1858734066862613,1.320385264441371
1726940896038867000,8.408866943359374,1.4540391171276568,1.1385395547118038,1.0681681606948374
1726940896048853200,8.418853271484375,1.6230536215305327,1.01437906816639,0.9649532854139804
1726940896058839000,8.428839111328125,1.884139091387391,0.7780936930451542,1.0638806926339863
1726940896068824000,8.438823974609376,2.1741291686892508,0.6480450252439827,1.2973822822555898
1726940896078809900,8.448809814453124,2.1104250505417586,0.555041345517151,1.1068111950829624
1726940896088796200,8.458796142578125,1.4630910231113432,0.30030067810975014,0.1628159420236945
1726940896098782000,8.468781982421875,0.9474281501173972,0.1771446558991447,-0.7817416210934519
1726940896108768000,8.47876806640625,0.603126052391529,0.2070160260170698,-1.0206836482033133
1726940896118754000,8.488754150390625,0.7656219686806202,0.19957232241500167,-0.12626812634915113
1726940896128740000,8.498739990234375,1.0578285529881715,-0.02994450841937214,0.9463657815828919
1726940896138726000,8.508725830078125,0.6947831763476133,-0.5153432856507599,0.6501321337163448
1726940896148712200,8.518712158203124,0.2529015788793564,-0.8236794592432677,-0.3331245778903365
1726940896158698000,8.528697998046875,-0.2057528742134571,-0.9516823004305363,-1.4855828409045935
1726940896168683000,8.53868310546875,-1.1629963159024714,-1.3263302904509007,-2.1359455685064197
1726940896178669000,8.5486689453125,-1.6531050609230995,-1.783094107491523,-1.4913883123129605
1726940896188655000,8.558655029296874,-1.4308961419492958,-1.989534233316779,-0.26061083808243274
1726940896198641200,8.56864111328125,-0.8203887471348047,-1.691390660175681,0.6718102970391512
1726940896208627000,8.578626953125,-0.5915864212453364,-1.3173466273978351,1.050748239338398
1726940896218613200,8.58861328125,-0.3712187462240457,-0.9797051566049456,0.44992140379995105
1726940896228599000,8.59859912109375,-0.40007016217708585,-0.7004228627350181,-0.6200000303030013
1726940896238585000,8.608585205078125,-0.19932780960202215,-0.3837205734658986,-0.9335033774003386
1726940896248571100,8.618571044921875,-0.20745091030299662,-0.09728826171085238,-0.09069500092566013
1726940896258557200,8.62855712890625,-0.6088339086443185,-0.12852708425708115,0.4296463852733373
1726940896268542000,8.6385419921875,-0.6569359685122966,-0.06937354208603501,0.47459641085118054
1726940896278528000,8.648528076171875,-1.0203741438627243,0.22055969046205282,0.013443711201846599
1726940896288514000,8.65851416015625,-1.1077326938420533,0.5065756765011697,-0.5090411167666316
1726940896298500000,8.6685,-0.725127461206913,0.4394477213848382,-0.603765811599791
1726940896308486000,8.67848583984375,-0.13751754237711428,-0.020042817205935714,-0.3313683818727732
1726940896318472200,8.68847216796875,0.44648996804654595,-0.39166123027205463,-0.10596914242506027
1726940896328458000,8.6984580078125,0.9443570721089839,-0.3838727683529258,-0.04981938517987728
1726940896338444000,8.708444091796874,1.2620517334163188,-0.1897235304325819,-0.5724982744157314
1726940896348430000,8.71843017578125,0.9346785586595535,-0.047393911598622794,-1.3043573819652199
1726940896358415000,8.7284150390625,0.36131460732519627,-0.042544133479893206,-1.8536486760556696
1726940896368401200,8.738401123046875,-0.4216705840885639,-0.2635585819721222,-1.4972805852219462
1726940896378387000,8.748386962890624,-0.26324235562980175,-0.5731093920513988,-0.9820502584263682
1726940896388373200,8.758373291015625,0.2402384966611862,-0.5992291910834611,-0.7497703195542097
1726940896398359000,8.768359130859375,0.29702129111289977,-0.1821381898701191,-0.7244508771196008
1726940896408345000,8.778344970703126,-0.5119879838734865,0.31040757303908467,-0.7651539127774536
1726940896418331100,8.7883310546875,-1.5457599539697169,0.17806904073506594,-0.8869384639717638
1726940896428317200,8.798317138671875,-2.5566964074015615,-0.5439024406589568,-1.2622294280707835
1726940896438303000,8.808302978515625,-2.6371891632646323,-1.0001073086425663,-1.106409044022858
1726940896448289300,8.818289306640626,-2.302426462778449,-0.7567524335265159,-0.49679231443777677
1726940896458274000,8.828274169921874,-2.310688679689169,-0.28965923791229725,0.45134500686228274
1726940896468260900,8.8382607421875,-2.0304133561939,-0.15478402673751115,1.3947592451632023
1726940896478246700,8.84824658203125,-1.5012246466726065,-0.3256415286585688,1.7259231905050574
1726940896488233000,8.85823291015625,-1.1923439909398554,-0.4295049309760332,1.3642967407517135
1726940896498218800,8.86821875,-1.1023469091504812,-0.4727636424660682,1.2365749084629118
1726940896508204800,8.878204833984375,-0.5147340677112341,-0.5719029388710856,1.4137224504388868
1726940896518190800,8.88819091796875,0.3919476459980011,-0.2886523989573121,1.4715224591091274
1726940896528177000,8.898177001953124,0.9179998110592364,0.17795213635712862,1.3161061258174478
1726940896538162700,8.90816259765625,1.0089613539665936,0.6411556310564279,0.7668949112258852
1726940896548148700,8.918148681640625,0.757675393590331,0.7928969290971756,-0.08144435749948024
1726940896558133800,8.9281337890625,0.5543424400001764,0.3793415546640754,-0.589120031131804
1726940896568119800,8.938119873046874,0.6639800418049097,-0.19388561854809522,-1.1685597952485083
1726940896578105600,8.948105712890625,1.8827163651078938,-0.5398801994055509,-1.3407666659519075
1726940896588092000,8.958091796875,2.5564877330869433,-0.572793750230968,-0.7283923082217574
1726940896598077700,8.96807763671875,2.4609213267326355,-0.2912991140738129,0.010449790082871913
1726940896608063700,8.978063720703124,2.402235329008102,-0.2027574917897582,0.8231292780146002
1726940896618049800,8.9880498046875,2.267047690883279,-0.2439750528410077,1.8293802039787173
1726940896628035800,8.998035888671875,1.9762188246697185,0.3459104097053408,1.653202676078677
1726940896638021600,9.008021728515626,1.445739490815997,1.1716896177068352,-0.2627864285558462
1726940896648007700,9.018007568359375,0.8096516645431518,1.0684203818902374,-1.7272312043637037
1726940896657993000,9.027992919921875,0.17105156318843365,0.5830602927014231,-2.0695012117400764
1726940896667978800,9.037978759765625,-0.08631985458135605,-0.4082949696868658,-1.1598980576261877
1726940896677964800,9.04796484375,0.07418401110768318,-1.4958379851981998,0.603088935251534
1726940896687950800,9.057950927734375,0.9265817614436149,-1.46368460509032,1.4853893641591072
1726940896697937000,9.06793701171875,1.8278584012389183,-1.0067658897489309,1.4234949257820844
1726940896707922700,9.077922607421876,2.004086490282416,-0.7235358081012964,0.8144038275063037
1726940896717908700,9.08790869140625,2.0329823298990726,-0.577096415860951,0.09053191931843757
1726940896727894800,9.097894775390625,2.045959884893894,-0.6084998543843627,0.029814123505353927
1726940896737880800,9.107880859375,2.2922043439716098,-0.8355173426836728,0.2098155936077237
1726940896747866600,9.11786669921875,2.4682184980034827,-0.8854916261643171,0.07843494655042886
1726940896757852000,9.127851806640624,2.2153391309559343,-0.7188733692482113,-0.23596330356001852
1726940896767837700,9.137837646484375,1.6232196257472038,-0.4325152187079191,-0.8082885594964027
1726940896777823700,9.14782373046875,0.6964402959048748,-0.09806143804043531,-1.4387442251011728
1726940896787809800,9.157809814453126,-0.23932898060083388,-0.0010600304469466208,-1.9150201134718954
1726940896797795800,9.1677958984375,-0.2824929995447397,-0.38919922407269475,-1.863860127338022
1726940896807781600,9.17778173828125,0.27740824362635613,-0.4482157689258456,-1.7137056600973009
1726940896817768000,9.187767822265625,0.44520518893301486,-0.23529168790876864,-1.2927630980223417
1726940896827753700,9.197753662109376,-0.9560837502598762,0.2952253476068377,-0.9506668397776782
1726940896837739800,9.20773974609375,-2.0131009868651626,0.772528387068212,-0.659584583324939
1726940896847724800,9.217724853515625,-2.0962012948781252,1.1043173324406146,-0.41694677043706174
1726940896857710800,9.2277109375,-1.653212028428912,0.9339505366459488,-0.10310396225228904
1726940896867696600,9.237696533203126,-1.4277093286067246,0.48746729060113425,-0.3234504483550787
1726940896877682700,9.2476826171875,-1.4490081372231245,0.22006372363865373,-0.5286220155492425
1726940896887668700,9.257668701171875,-2.4574229632228612,0.16802154784277082,-0.7386946526579559
1726940896897654800,9.26765478515625,-2.9073697937250134,0.33166210412234065,-0.683405165503919
1726940896907640600,9.277640625,-2.3972668929457663,0.35932167994230985,-0.38925110039040445
1726940896917627000,9.287626953125,-1.5764181270837783,0.3896411226212978,0.09749313663318752
1726940896927612700,9.29761279296875,-1.0552139865756034,0.3939401349894702,0.5531000387236475
1726940896937598700,9.3075986328125,-0.8953636163592338,0.1468567408695817,0.7330874803006648
1726940896947584500,9.31758447265625,-0.6380272699028253,-0.09006035628393291,0.602046440461278
1726940896957569800,9.32756982421875,-0.11090776787102222,-0.2812735407523811,0.4572916403070092
1726940896967555800,9.337555908203125,0.4894388829350471,-0.45246232045441864,0.28755525137037036
1726940896977541600,9.347541748046876,0.6638315732449293,-0.3810904441580176,0.1590285324394703
1726940896987528000,9.35752783203125,0.5850275011211633,-0.07714958291500806,-0.027717443487048146
1726940896997513700,9.367513671875,-0.06112696113586425,0.062255526774376624,-0.6286901172369718
1726940897007499800,9.377499755859375,-0.6523305205434561,0.11929960251078009,-1.2430907200977206
1726940897017485800,9.38748583984375,-0.9554606499254703,0.15274053821116684,-1.152860706335306
1726940897027472000,9.397471923828125,-0.8905722904294728,0.17212971381396056,-0.4328229694828391
1726940897037457700,9.407457763671875,-0.6925929728269576,0.3212174286060035,0.2540013568148017
1726940897047443700,9.417443603515625,-0.40346915696561336,0.4524617359325289,0.4074295850291848
1726940897057429800,9.4274296875,-0.09892156200110912,0.6091581721626221,0.4821700609758496
1726940897067414800,9.437414794921875,-0.0993184523642063,0.7961345958441496,0.5890674241617322
1726940897077400600,9.447400634765625,-0.03928396264016628,1.1008280290201307,0.7752303395032882
1726940897087387000,9.457386962890626,0.22204466832280156,1.3003976845540106,0.7205147067144513
1726940897097372700,9.46737255859375,0.6372393343955278,1.2958160558521747,0.43029520457088943
1726940897107358700,9.477358642578125,1.0737889231860638,1.156101149561256,-0.1871212389796972
1726940897117344800,9.4873447265625,0.9538456159442663,0.9426261566631495,-0.6992986079454422
1726940897127330800,9.497330810546876,-0.20443536187410352,0.7586715650208294,-0.4054813735708594
1726940897137316600,9.507316650390624,-1.1821586970120668,0.3034332039818167,-0.13449059577137232
1726940897147302700,9.517302734375,-1.086131102886796,-0.18742409438379107,0.24808716433495281
1726940897157288700,9.527288818359375,0.007671265280246734,-0.46516135076880455,0.6699328127294778
1726940897167273700,9.537273681640626,1.3472621654510497,-0.5605010356951504,0.9042714376971125
1726940897177259800,9.547259765625,1.6467168211907148,-0.5328484741378575,0.9777078453078866
1726940897187245800,9.557245849609375,0.7823731969952583,-0.42170309811867773,1.143418339729309
1726940897197231900,9.56723193359375,-0.17022212662696837,-0.6251522984996437,0.8538643157571554
1726940897207217700,9.5772177734375,0.0954150151848793,-1.048408909670636,-0.13745645983964205
1726940897217204000,9.587203857421875,0.7324485978752374,-1.158660186394304,-0.9324772492229938
1726940897227189800,9.597189697265625,0.5678653539180756,-1.0943990919511764,-0.6066787764370442
1726940897237175800,9.60717578125,0.07170213116407394,-1.0540907546993343,0.4506690072968602
1726940897247161600,9.61716162109375,-0.8670639890700578,-0.8228656586423516,0.7226578562229872
1726940897257148000,9.62714794921875,-1.7618547739773989,-0.614379194746539,0.17147241894900797
1726940897267133700,9.6371337890625,-1.4126502911627292,-0.5153303531039506,-1.0048346294254065
1726940897277119700,9.64711962890625,-1.0487240400344133,-0.27147571177221835,-1.3977055277481674
1726940897287104800,9.657104736328124,-0.745758161303401,0.06658712623789906,-0.26616438055634495
1726940897297090800,9.6670908203125,-0.8886404455840587,0.03653912091143429,0.8737325070485472
1726940897307076600,9.67707666015625,-1.027027172011137,-0.19310206695497034,1.0828276774272323
1726940897317063000,9.68706298828125,-0.7898504010081291,-0.15004194677695631,0.7348661804109812
1726940897327048700,9.697048583984374,-0.577308889567852,0.01831219402104616,0.25606413456350563
1726940897337034800,9.70703466796875,-0.14513912329673767,0.09749182145893573,0.007902151426672934
1726940897347020500,9.7170205078125,0.2574140878677368,-0.042985885898023844,0.13773001608401536
1726940897357006800,9.7270068359375,0.2085200008392334,-0.3423711296632886,0.2526195470675826
1726940897366992600,9.73699267578125,-0.053474400556087494,-0.513413632762432,-0.056979778328537935
1726940897376978700,9.746978759765625,-0.1215355448693037,-0.4924240362256765,-0.4548641208991408
1726940897386964700,9.75696484375,-0.19620938532054424,-0.3851972949549556,-1.1730153133526444
1726940897396949800,9.76694970703125,-0.5308955134391784,-0.4485248348750174,-1.3065551842704415
1726940897406935800,9.776935791015624,-0.5901683711409569,-0.6420018726222216,-0.6691743955776095
1726940897416921900,9.786921875,-0.6582125643193721,-0.8574034496687352,-0.11997048750966786
1726940897426908000,9.796907958984375,-0.53984454357028,-0.9813472247235476,0.03274140912890434
1726940897436893700,9.806893798828124,0.19834756639301776,-0.8227282959982752,-0.24140491009205578
1726940897446879700,9.816879638671875,0.404935722386837,-0.40447000457122917,-0.004880319387465715
1726940897456865800,9.82686572265625,0.34640929913818835,-0.22389979467019439,0.041266953150928015
1726940897466850800,9.836850830078125,-0.017363807255029676,-0.24348858449831604,0.11864449960291384
1726940897476836900,9.8468369140625,-0.41320729164779185,-0.6186762343533336,0.049086833121627566
1726940897486823000,9.856822998046875,-0.30990181547403334,-0.9036766866743564,-0.20525033151879907
1726940897496808700,9.86680859375,-0.9484610002964734,-1.0554793595135212,-0.5457943918853998
1726940897506793700,9.876793701171875,-2.1120003370344635,-1.1443681878000498,-0.9421991634227335
1726940897516779800,9.88677978515625,-2.189030385223031,-1.1598577256157994,-0.9326486602671444
1726940897526765800,9.896765869140625,-1.3146686403602361,-1.0633598836302756,-0.23054580855593085
1726940897536751900,9.906751953125,-0.5043260709434747,-0.927638869281113,0.4583914182424545
1726940897546738000,9.916738037109376,-0.5870154600679874,-0.5130585357144475,0.6257473417833447
1726940897556723700,9.9267236328125,-0.9154828598022461,0.03853519009947776,0.5022724994145333
1726940897566709800,9.936709716796875,-0.6926631154537201,0.21417963403612375,0.5265279658794403
1726940897576695800,9.94669580078125,-0.5850199023365974,0.08191577440351247,0.46799189801961183
1726940897586681900,9.956681884765626,-0.9189970054030417,-0.1270160221070051,0.4102104479193687
1726940897596667600,9.966667724609374,-1.3953718241035937,-0.02864800233542919,0.20131869115829468
1726940897606654000,9.976654052734375,-1.7164572968930005,0.03563596152663231,0.27022432347163555
1726940897616639000,9.986638916015625,-1.6097569175839423,-0.03353051367998123,0.45491263621598477
1726940897626624800,9.996624755859376,-1.2541297082453966,-0.2470662968546152,0.5322700166627764
1726940897636610800,10.00661083984375,-0.28987258840203284,-0.5874006599932908,1.0111652937516569
1726940897646596900,10.016596923828125,0.6566384468704461,-1.3827642714649437,1.4921981673911213
1726940897656583000,10.0265830078125,1.6847686116874216,-1.7247323732852935,2.537029583901167
1726940897666568700,10.036568603515626,2.896446248650551,-1.4402218964383005,2.827097402614355
1726940897676555000,10.046554931640625,4.1141187421143055,-0.7428995570018887,1.6191639206156134
1726940897686540800,10.056540771484375,3.6929683825075625,-0.10874357557445764,0.28279432057887316
1726940897696526800,10.06652685546875,2.785775796666741,0.13088468023389577,-0.3715338035225868
1726940897706513000,10.076512939453124,2.3330209230065346,0.050314182959496974,-0.639141076363623
1726940897716499000,10.0864990234375,1.6463859818011521,-0.2847302570775151,-0.7876438308745622
1726940897726483700,10.096483642578125,1.24086339943707,-0.2010124016880989,-1.2456368974491954
1726940897736469800,10.1064697265625,0.7464449745237827,0.08024871797412633,-1.763452856823802
1726940897746455800,10.116455810546874,-0.0940817207545042,-0.2690449044287205,-1.1912941896259783
1726940897756441900,10.12644189453125,-0.4338298084378242,-1.2192787596166133,0.04954378310889005
1726940897766427600,10.136427734375,0.09620704234540461,-1.6675085570678114,1.083697153738141
1726940897776414000,10.1464140625,1.067803419035673,-1.3900395231649278,1.5614844695851207
1726940897786399700,10.156399658203124,1.813106822308898,-0.7704460278362035,1.3528127853155136
1726940897796385800,10.1663857421875,2.0373048692733047,-0.10335165340304374,0.7373454300060868
1726940897806371800,10.176371826171875,1.6617144838362932,0.2467605919063091,0.16722528289854527
1726940897816358000,10.18635791015625,1.0251736530989408,0.302951557944715,-0.3558981352344155
1726940897826343700,10.19634375,0.3724310446232557,0.23012802153527737,-1.0132070287123323
1726940897836330000,10.206330078125,0.022743162205815314,0.34073125350177286,-1.54964746292755
1726940897846315000,10.21631494140625,-0.8473691085189581,0.7564040584802627,-1.7610703456014394
1726940897856300800,10.22630078125,-1.6450293064951895,0.922842282654345,-1.6366450706399975
1726940897866286800,10.236286865234375,-1.8480770134031772,0.4800415245145559,-1.6010047251991926
1726940897876273000,10.24627294921875,-1.2091215227395296,-0.14755670583248137,-1.078314583916962
1726940897886259000,10.256259033203126,0.13862053518295286,-0.3264560599118471,-0.4345350340977311
1726940897896244700,10.26624462890625,0.7905810533702373,-0.1971650786101818,0.39498745208531616
1726940897906231000,10.27623095703125,0.7772171294063329,-0.07841039663106203,0.6173148828722537
1726940897916216800,10.286216796875,0.830199947053194,-0.04723682134076953,0.567347759784758
1726940897926203000,10.296202880859376,0.23991642509996888,0.058225394475460046,0.4530252150341868
1726940897936189000,10.30618896484375,-0.13702595946788787,-0.16135814443081617,0.00796118813753128
1726940897946175000,10.316175048828125,-0.6068593937009573,-0.47961672323122617,-0.3885620952129364
1726940897956160800,10.326160888671875,-0.9311316798329353,-0.4485751037575304,-0.80223232819736
1726940897966145800,10.336145751953126,-1.3181290099471807,-0.3723328449457884,-0.8895160593748093
1726940897976131800,10.3461318359375,-1.3540402812838555,-0.2047322989940643,-0.8529317110821604
1726940897986118000,10.356117919921875,-1.1869599598139524,-0.09372676983699202,-0.5436722851648926
1726940897996103700,10.366103759765625,-1.3233978902608154,0.04562690192610025,-0.18807693226933478
1726940898006090000,10.376090087890624,-1.329258891248703,0.167046711461246,-0.20864684208929538
1726940898016075800,10.38607568359375,-1.4031535640209913,0.18075287299156187,-0.6222922328934073
1726940898026061800,10.396061767578125,-1.4266332238078117,0.06839008400663733,-1.1922244562134146
1726940898036048000,10.4060478515625,-1.5354980876743793,-0.1093731056496501,-1.6208414984390138
1726940898046034000,10.416033935546874,-1.885474723905325,-0.12099515438228844,-1.2603382074967027
1726940898056019700,10.426019775390625,-2.1456045004725457,0.15215031723305583,-0.8082236775666475
1726940898066006000,10.436006103515625,-2.3895927050560712,0.3843821791797876,-0.411647787246108
1726940898075991000,10.445990966796876,-1.7505974669039248,0.7970540487766266,0.2796621600329876
1726940898085976800,10.455976806640624,-0.29542729991972444,0.9671193774066865,0.9252651258870959
1726940898095963000,10.465962890625,0.26434768652319907,1.1293351615801452,1.5631912735030054
1726940898105949000,10.475948974609375,0.7692512650936841,1.1915187921620904,1.7657108648836612
1726940898115935000,10.48593505859375,1.276796298083663,1.1485248690880834,1.4565984462216495
1726940898125920800,10.495920654296874,1.358957279419899,0.9627241381224244,0.922006708613038
1726940898135906800,10.50590673828125,1.6281652654558418,0.8238774660333991,0.14331892213225364
1726940898145892900,10.515892822265625,1.6275918494820594,0.7150215161256491,-0.07521949163526297
1726940898155878700,10.525878662109376,1.1164584366112946,0.8485593412168323,0.3341378465861082
1726940898165865000,10.535864990234375,0.3780599904209375,0.8024159411359578,0.4217515403702855
1726940898175850800,10.545850830078125,0.0729103379100561,0.5476632544972002,0.5727583866566419
1726940898185835800,10.555835693359375,0.47715457090139385,0.3396959191046655,0.8404194355115294
1726940898195821800,10.56582177734375,0.9300696035593747,0.28931553904116153,1.0195479221716524
1726940898205807900,10.575807861328125,0.933586671769619,0.2940430059544742,1.1378238807231187
1726940898215794000,10.5857939453125,0.13067805174589156,0.07602342842929065,0.8187231520101428
1726940898225779700,10.59577978515625,-0.08685176950097083,-0.3337515506822616,-0.2563569800302386
1726940898235766000,10.60576611328125,0.17627017461955546,-0.6510002948530018,-1.0732245673015712
1726940898245751800,10.615751708984375,0.3498170617550611,-0.717519908812642,-1.2915247883990406
1726940898255737900,10.62573779296875,0.09314414764344692,-0.7792141484424472,-0.7993053348347544
1726940898265724000,10.635723876953126,-0.7291852121651172,-0.7987953394860029,-0.08956424333006142
1726940898275710000,10.6457099609375,-0.732533353549242,-0.9168597011134028,0.49815731918066736
1726940898285695700,10.65569580078125,0.03885200096368789,-1.1040233909953385,0.6904276114866137
1726940898295681800,10.665681884765625,0.7275234164327382,-1.0467862769048661,0.7049445048779249
1726940898305666800,10.675666748046876,0.8705594299703836,-0.8388065204221755,0.6361962550833821
1726940898315652900,10.68565283203125,0.5805003790855408,-0.675320350986719,0.24250731837600467
1726940898325638700,10.695638671875,0.4171358632683754,-0.7632358041964471,-0.5109188933372497
1726940898335625000,10.705625,0.2109416750282049,-0.8472497199229896,-0.7615878908589482
1726940898345610800,10.71561083984375,-0.017394202393293378,-0.7082683155383914,-0.6004550796166062
1726940898355596800,10.7255966796875,-0.46617491172552106,-0.5844667254332453,-0.345346930603683
1726940898365582800,10.735582763671875,-1.0402058025360106,-0.5421965865891426,-0.13248334760218858
1726940898375569000,10.74556884765625,-1.2465893758684397,-0.3856996915191412,0.14002718711048365
1726940898385554700,10.7555546875,-0.546817889714241,-0.179718050051108,0.3447758527174592
1726940898395540700,10.765540771484375,0.6129238083064555,-0.13015658515505493,0.42845980583727356
1726940898405526800,10.77552685546875,1.0143126518666743,-0.11685732392519711,0.42671266990900036
1726940898415512800,10.785512939453126,0.8649924434930085,-0.06258490485921502,0.16790274376869202
1726940898425497900,10.795497802734374,0.5977718318819999,0.009762538471072911,-0.37629239622652527
1726940898435484000,10.80548388671875,-0.055174774733185765,-0.07239435121193527,-1.2389154802396893
1726940898445470000,10.815469970703125,-0.970625485831499,-0.32152035707533355,-1.5473589135989545
1726940898455455700,10.825455810546876,-1.6918424955964086,-0.48109366391599173,-1.2696347358912228
1726940898465442300,10.8354423828125,-1.738571513545513,-0.26517712308466435,-0.9193068020045757
1726940898475428400,10.845428466796875,-1.6098147852510214,0.058534168163686985,-0.8555880708098411
1726940898485414100,10.8554140625,-1.7474848878413438,0.30743381792530416,-0.5943364506058395
1726940898495400400,10.865400390625,-2.0069787045925853,0.1609101084023714,-0.5190829105705023
1726940898505386200,10.87538623046875,-1.8227046717375517,-0.061647916270047426,-0.32306130290701984
1726940898515372300,10.885372314453125,-1.5156564921289681,-0.06034867023974657,-0.0699959117680788
1726940898525358300,10.8953583984375,-1.5731547413736582,0.1396137840040028,0.24482860093042252
1726940898535343400,10.90534326171875,-1.7369792759180067,0.3264271260783076,0.21329057624191045
1726940898545329400,10.915329345703125,-1.3862199648767708,0.009571253682672977,0.013186521570384501
1726940898555315200,10.925315185546875,-0.35047464888095853,-0.4926873633369803,-0.022912527423352
1726940898565301500,10.935301513671876,0.5445347472131252,-0.7388111186444759,0.018484043456614016
1726940898575287300,10.945287353515624,0.6205623403608799,-0.7370996385514735,0.33868498849645257
1726940898585273300,10.9552734375,0.1440215174436569,-0.3498673306375742,0.1865128978230059
1726940898595259400,10.96525927734375,-0.616380670762062,-0.4248085898533463,-0.7087874440416694
1726940898605245400,10.975245361328126,-1.1505956840127707,-0.6959796926558017,-1.0931456578239798
1726940898615231200,10.985231201171874,-0.9453624497592449,-0.7313780460342765,-0.7265760525800288
1726940898625217500,10.995217529296875,-0.9373159214258193,-0.16946575530171393,-0.22656477609574793
1726940898635203300,11.005203369140625,-1.230161388158798,0.19728490559756753,0.18757219761759042
1726940898645188400,11.015188232421876,-0.8732780412793159,0.03573036181181669,0.974702526012063
1726940898655174100,11.025174072265624,-0.10694178684949875,-0.4929930682852864,1.3107009057730437
1726940898665160400,11.035160400390625,1.214913550144434,-1.1323203148707748,1.094614853593707
1726940898675146200,11.045146240234375,2.653620073583722,-1.3970003020882606,1.6544216964796183
1726940898685132300,11.05513232421875,4.276695906946062,-1.2221315186992288,1.8511407848879693
1726940898695118300,11.065118408203125,5.198512061423063,-0.6705860159412026,0.7670274515643716
1726940898705104400,11.0751044921875,4.379712629306316,0.36318010893613095,-0.747662241359055
1726940898715090200,11.085090087890626,3.1959611101448533,1.4430124039396643,-1.6272855600118636
1726940898725076500,11.095076416015624,1.9972563520014286,1.685034569147229,-1.5139105252444742
1726940898735062300,11.105062255859375,0.9031032707005738,1.2861302358791231,-0.5892191075921058
1726940898745048300,11.11504833984375,0.21923194898962972,0.7470593070298432,0.5061874809011817
1726940898755034400,11.125034423828126,0.2120616189688444,-0.10676379993408917,1.1765811891406774
1726940898765019400,11.135019287109374,0.8145522960662841,-0.5987178805604577,0.8820923391148447
1726940898775005400,11.14500537109375,1.3811457303524017,-0.5371873070597648,0.5258218634366989
1726940898784991200,11.1549912109375,1.8749971690326928,-0.3207765529707074,0.08731675666421651
1726940898794977500,11.1649775390625,1.9477216289818287,-0.22976064952760933,-0.5151674906924366
1726940898804963300,11.17496337890625,1.6463047332584857,-0.34068332270681856,-0.7095160505771636
1726940898814949400,11.184949462890625,1.0987456697881222,-0.5042644038841128,-1.0814318391546607
1726940898824935400,11.194935302734375,0.22295944508016108,-0.3467652729690075,-1.5327508347928522
1726940898834921500,11.20492138671875,-0.6143921272933482,0.06180968270301818,-1.4569596807494758
1726940898844907300,11.2149072265625,-1.1294120262086391,0.5216194433107972,-1.2163446058608591
1726940898854893600,11.2248935546875,-0.8694938465654849,0.5898869238510728,-0.6724706606440246
1726940898864879400,11.23487939453125,0.23647183760404586,0.2432730420514941,-0.0360477571979165
1726940898874864400,11.244864501953124,-0.1554559346497059,0.41361704149246215,-0.015398936922848223
1726940898884850200,11.25485009765625,-0.8671031520366668,0.5620636819019913,0.2591961489789188
1726940898894836500,11.26483642578125,-0.8525129011482,0.633096827763319,0.40859307585060595
1726940898904822300,11.274822265625,-0.4008218573272228,0.3717572370149195,0.3070500793047249
1726940898914808300,11.284808349609374,0.34553719247877596,-0.22473346901535987,0.23623320654258131
1726940898924794400,11.29479443359375,0.8074252206653356,-0.6090671328783035,0.28939094236493107
1726940898934780400,11.304780517578125,0.24621990915834902,-0.7666575953386724,0.2069181186005473
1726940898944766200,11.31476611328125,-0.46876785082817074,-0.35590865662842985,0.20916326717883346
1726940898954752500,11.32475244140625,-0.436161466255784,0.1068847959652543,0.07016600763797759
1726940898964738300,11.33473828125,-0.05217734648287296,0.23233473779931663,0.044749242308735844
1726940898974724400,11.344724365234375,0.04511866014301777,0.10147431522384286,0.2295727257400751
1726940898984710100,11.354710205078124,-0.1145686284661293,-0.024862346316874027,0.1612570221439004
1726940898994695400,11.3646953125,-0.8898416380673646,-0.08867328583970666,-0.17515227650552986
1726940899004681500,11.374681396484375,-1.370706753924489,-0.049652065788954494,-0.5871762035876512
1726940899014667300,11.384667236328125,-1.4449118078202008,0.01411225811317563,-1.0194897622436285
1726940899024653300,11.3946533203125,-1.3593816423118115,-0.042057519006729126,-1.2036910221233963
1726940899034639400,11.404639404296875,-1.9879718063056468,-0.025236732587218282,-1.051167633794248
1726940899044625400,11.41462548828125,-2.82408477679491,0.17670023659989237,-0.7789666034221648
1726940899054611500,11.424611572265626,-3.065792176964879,0.44512949334830043,-0.8087079539522528
1726940899064597200,11.43459716796875,-2.252614091861248,1.0136023116402328,-0.6062061904892325
1726940899074583300,11.444583251953125,-1.4185054469317198,1.2685402186527848,-0.3384320366486907
1726940899084569000,11.454569091796875,-0.8311375201642512,1.3203219899468124,0.17376666736602783
1726940899094555400,11.464555419921876,-0.40772564536631106,1.4058999401196837,0.5193786786466836
1726940899104540400,11.47454052734375,-0.25590894400179387,1.4064897227063775,0.3551049390301108
1726940899114526200,11.484526123046875,-0.17723931191265582,1.3455641293615102,-0.2374538343787193
1726940899124512500,11.494512451171875,0.053933250239491456,1.3636127040103077,-0.2856687069714069
1726940899134498300,11.504498291015626,0.15733926417827604,1.2948868121780455,0.12202742003947496
1726940899144484400,11.514484375,0.14389467619359492,1.2377227633237837,0.7218570612341165
1726940899154470400,11.524470458984375,0.2667231834828853,1.3016785181447863,1.0194017916992306
1726940899164456400,11.53445654296875,0.6394196010440588,1.0876888537228107,1.0069216648325323
1726940899174442200,11.544442138671876,1.2544488571971655,0.8520489368982612,0.6735501264438033
1726940899184428300,11.55442822265625,1.7365566665917633,0.5364345889963209,0.24755875654667614
1726940899194414300,11.564414306640625,1.7886404895722865,0.05518756114952266,0.16036767208874225
1726940899204400400,11.574400390625,1.975983262348175,-0.5115825448777527,-0.4759878652095794
1726940899214386200,11.58438623046875,1.9265256962180137,-0.7279254213623703,-0.8093632029905915
1726940899224371500,11.594371337890625,1.4511784669995307,-0.7735077534943818,-0.6792702576562761
1726940899234357200,11.604357177734375,0.9558908580362796,-0.8019150789417326,-0.24971505779772996
1726940899244343300,11.61434326171875,0.7855623484253883,-0.696616748450324,0.5124854120016098
1726940899254329300,11.624329345703124,0.45244624610245227,-0.6412052423518151,0.9437816103085875
1726940899264315400,11.6343154296875,0.41241234187781806,-0.5817646268676966,0.7931187551543116
1726940899274301200,11.64430126953125,0.13776421061456204,-0.47486397574618455,0.3854644214585423
1726940899284287200,11.654287353515626,-0.32664076882898807,-0.14872224248051644,-0.12865268339812755
1726940899294273300,11.664273193359374,-0.6125888772636652,0.07256707743033766,-0.3037669659808278
1726940899304259300,11.67425927734375,-0.6531944438964128,0.08098799203410745,-0.10250058953166008
1726940899314245000,11.6842451171875,-0.7600093894958496,0.07680727228336036,0.10918313603550195
1726940899324231400,11.6942314453125,-0.9991068994283675,0.07993059193566442,-0.08886983132511377
1726940899334217200,11.70421728515625,-1.3992664934545755,0.2320962528683245,-0.37231180215775966
1726940899344202200,11.7142021484375,-1.5059785632014273,0.36867527228631075,-0.515362721003592
1726940899354188500,11.7241884765625,-1.4337030160635709,0.20834493653327224,-0.2643371651291847
1726940899364174300,11.73417431640625,-0.8479910398095846,0.015950360260531305,0.048558863724768156
1726940899374160400,11.744160400390625,-0.4004290586173534,0.035071167250722644,0.30615853729248044
1726940899384146200,11.754146240234375,-0.28256957191228865,0.04184292640797794,0.27603140231519935
1726940899394132500,11.764132568359376,0.01664484533071518,0.21776377613320946,0.14752543391138315
1726940899404118300,11.7741181640625,0.09278934285640716,0.401323084847629,-0.0046443186745047564
1726940899414104300,11.784104248046875,-0.0516746576577425,0.27843890184834597,-0.22739859657138584
1726940899424090400,11.79409033203125,-0.3092980043619871,0.28875045250430703,-0.692536274203658
1726940899434076400,11.804076416015626,-1.0461597425043583,0.314319778046757,-0.7875172818854451
1726940899444062200,11.814062255859374,-1.5618091714948414,0.10241685677096247,-1.2147662506282328
1726940899454047500,11.824047607421875,-1.5492840364426375,-0.28460180839225646,-1.742933069755882
1726940899464032800,11.83403271484375,-0.9121154291957616,-0.6284297127351165,-1.164531854906678
1726940899474018800,11.844018798828126,0.028291443982720373,-0.6350839099273086,-0.3106719230636954
1726940899484004900,11.8540048828125,0.5607032072037458,-0.6909314693555235,0.01388327166289091
1726940899493991000,11.863990966796875,0.2162450421333313,-0.5343393702827394,-0.03347454570904374
1726940899503976700,11.873976806640625,-0.822462046277523,-0.5121591026566923,-0.695252693555504
1726940899513963000,11.883962890625,-1.9230594814121722,-1.1541302878797053,-1.3586417837299405
1726940899523948800,11.89394873046875,-1.6995605226278303,-1.6568834104180334,-1.159229218453914
1726940899533934800,11.903934814453125,-0.8341992458224297,-1.505607976323366,-0.1473185131624341
1726940899543920600,11.913920654296875,-0.1796715074956417,-1.2345163684979081,0.6919393312238157
1726940899553907000,11.923906982421874,-0.25665070227980613,-0.6930076911076903,1.4282660857066511
1726940899563892700,11.933892822265625,-0.4020446771204471,-0.2914621956810355,1.6896353409409521
1726940899573877800,11.943877685546875,0.14489187053740024,-0.6118912503883243,1.6230718878395853
1726940899583864000,11.953864013671875,0.34709728140234947,-0.7605220151931047,1.779306405646354
1726940899593849900,11.963849853515624,0.696320468917489,-0.713759971757233,1.804317512784153
1726940899603836000,11.9738359375,1.0039134229272604,-0.3086772421151399,1.2656750384800135
1726940899613822000,11.983822021484375,0.32110417748987674,0.3325347953036427,0.4770772678814828
1726940899623808000,11.99380810546875,-0.6234317583173513,0.5414151538878679,-0.41347734076082704
1726940899633793800,12.003793701171874,-0.7786597294300794,0.6235673673957586,-1.3585796782791613
1726940899643779800,12.01377978515625,-0.9614923313051461,0.831333919519186,-1.8441510721310972
1726940899653766000,12.023765869140625,-0.5329670590162277,0.6801163530915976,-1.5901409474879502
1726940899663752000,12.033751953125,0.4843558805823326,-0.12803075210750103,-0.6817363555088639
1726940899673737700,12.04373779296875,1.893680242192745,-0.904328428581357,0.6199082603663205
1726940899683723000,12.053722900390625,3.0622827075392007,-1.0742623859167097,1.4064561126977204
1726940899693708800,12.063708740234375,3.3482921907722947,-0.46021132714599366,1.5869947584167121
1726940899703694800,12.07369482421875,2.9415128863453863,0.3500064468473196,0.7821312049329281
1726940899713681000,12.083680908203124,2.3860405655324457,0.5444824325039982,-0.1982715785473585
1726940899723667000,12.0936669921875,1.5783979027241468,0.6574684679538011,-0.18208733646571634
1726940899733652700,12.10365283203125,1.0042565372765064,0.8265320721954107,-0.17677666283696888
1726940899743638800,12.113638671875,0.8670283332347869,0.40412206791639327,0.22726006488353012
1726940899753624800,12.123624755859375,0.9221247820347547,-0.23684359352588652,0.7547621364921331
1726940899763611000,12.13361083984375,1.2107891636908055,-0.6217287537917494,0.8317965685948729
1726940899773596700,12.1435966796875,1.559808937588334,-0.6993181894287467,0.6080354517430067
1726940899783583000,12.1535830078125,1.8631845661640165,-0.6900017872899771,-0.01011398225724697
1726940899793568800,12.16356884765625,1.8745611157029867,-0.7125853750199079,-0.7280018475994467
1726940899803553800,12.1735537109375,1.6635802777081727,-0.7003121689021587,-1.065306341522932
1726940899813540000,12.1835400390625,1.6320669490695,-0.8289654368221759,-1.0027247976645828
1726940899823526000,12.19352587890625,1.9965578483432531,-0.9264283244475722,-0.8099215675257145
1726940899833512000,12.203511962890625,1.8564052812874317,-0.7779758388191461,-0.596198737346381
1726940899843497700,12.213497802734375,1.2621411652654408,-0.4025061571523547,-0.7468278363615274
1726940899853484000,12.223484130859376,-0.32312954583764075,0.28167145402878524,-0.8344315932735801
1726940899863469800,12.2334697265625,-1.5871248145371675,0.9578726795032619,-0.7311870535068213
1726940899873455900,12.243455810546875,-1.8240473185181616,0.9884434665948152,-0.5374010959409177
1726940899883442000,12.25344189453125,-1.4963099866241216,0.07997749981731175,-0.6587288432784378
1726940899893428000,12.263427978515624,-1.457934955522418,-0.03881882934644818,0.0573528494246304
1726940899903413800,12.273413818359375,-2.2317548437058923,0.26376389528587457,0.6967021617114544
1726940899913399000,12.28339892578125,-3.0535195553690193,0.8244782084055244,1.0492935104854404
1726940899923384800,12.293384765625,-2.9263299302607773,0.9670753921344876,0.9899550402015447
1726940899933371000,12.303370849609376,-2.132333515489101,0.8490443482547998,1.1862570722416041
1726940899943356700,12.313356689453125,-1.7764847723543642,0.7639560812950134,1.4163506069853902
1726940899953343000,12.323343017578125,-1.7379612726926803,0.641360505978763,1.313464233006537
1726940899963328800,12.333328857421876,-1.6126006165772675,0.4425103968910873,0.8807283572852611
1726940899973314800,12.343314697265624,-1.326073246949911,0.03993365872055292,0.5807917632475496
1726940899983300900,12.35330078125,-0.8103612741172314,-0.22924670865610242,0.5054378315776586
1726940899993287000,12.363286865234375,-0.3889250833064318,-0.2206216497823596,0.3233282832801342
1726940900003272700,12.373272705078126,-0.19895430011451243,-0.13826178487315774,-0.03636398354023695
1726940900013259000,12.383259033203124,0.610431406968832,-0.2510566816650331,-0.3552878943815827
1726940900023244800,12.393244873046875,1.5436661965608596,-0.42219387731030583,-0.2430091304183006
1726940900033229800,12.403229736328125,1.6267413701325655,-0.6048742112331092,-0.17588994313031434
1726940900043216000,12.4132158203125,1.166943592223525,-0.4968392223194241,-0.5647513135507702
1726940900053202000,12.423201904296874,0.43762043289244174,-0.20243921962082384,-1.3209344227567315
1726940900063187700,12.433187744140625,-0.24112872349917888,0.208621415387094,-1.8613658263042567
1726940900073173800,12.443173828125,-0.9885790756732225,0.6388317181535065,-1.6931225985348224
1726940900083159800,12.453159912109374,-1.3367811034470796,0.9487995846010744,-0.9319272141247987
1726940900093145900,12.463145751953125,-1.3124579785734414,1.0433487767368554,-0.302492708261311
1726940900103131600,12.473131591796875,-1.6366215436339377,1.083918249142915,0.01685790355950594
