time,seconds_elapsed,z,y,x
1726940887650726100,0.02072607421875,-0.05958385393023491,-0.15860450267791748,1.4833000898361206
1726940887660712000,0.0307119140625,-0.1449633091688156,-0.25708121061325073,1.5054755210876465
1726940887670698000,0.040697998046875,-0.1787598878145218,-0.33964264392852783,1.5422306060791016
1726940887680683000,0.05068310546875,-0.17748785018920898,-0.41032513976097107,1.644071102142334
1726940887690669000,0.0606689453125,-0.18869923055171967,-0.4948994219303131,1.8166172504425049
1726940887700655000,0.070655029296875,-0.21093441545963287,-0.5338572859764099,2.033768653869629
1726940887710641000,0.080640869140625,-0.2608873248100281,-0.6518688797950745,2.1907498836517334
1726940887720627000,0.090626953125,-0.3423169255256653,-0.8218397498130798,2.258103609085083
1726940887730613000,0.100613037109375,-0.3989546298980713,-0.9444906115531921,2.2619802951812744
1726940887740599000,0.11059912109375,-0.32585299015045166,-0.9754077792167664,2.180497646331787
1726940887750585000,0.120585205078125,-0.1591809093952179,-1.192630648612976,2.0216562747955322
1726940887760570000,0.130570068359375,0.03469550237059593,-1.499192476272583,1.8948156833648682
1726940887770556000,0.140555908203125,0.1936526745557785,-1.728659987449646,1.9222757816314697
1726940887780542000,0.1505419921875,0.23428717255592346,-1.9630415439605713,2.1019320487976074
1726940887790528000,0.160528076171875,0.12775273621082306,-2.1495940685272217,2.3942131996154785
1726940887800514000,0.17051416015625,-0.06160423159599304,-2.284984827041626,2.5339341163635254
1726940887810499800,0.180499755859375,-0.23632171750068665,-2.2101821899414062,2.53641939163208
1726940887820484900,0.19048486328125,-0.32140153646469116,-2.0330810546875,2.4075722694396973
1726940887830471000,0.200470947265625,-0.3247150480747223,-1.8015960454940796,2.191802740097046
1726940887840457000,0.21045703125,-0.31356197595596313,-1.5782766342163086,1.9881079196929932
1726940887850443000,0.220443115234375,-0.17721664905548096,-1.3795435428619385,1.840465784072876
1726940887860429000,0.230428955078125,0.18819260597229004,-1.2836683988571167,1.77025306224823
1726940887870414800,0.240414794921875,0.5746971964836121,-1.3871610164642334,1.800894856452942
1726940887880401000,0.25040087890625,0.833680272102356,-1.6283965110778809,1.9966740608215332
1726940887890386200,0.26038623046875,1.0380686521530151,-1.9619965553283691,2.2747111320495605
1726940887900372000,0.2703720703125,1.154099702835083,-2.1852660179138184,2.511225461959839
1726940887910358000,0.28035791015625,1.2210930585861206,-2.246246337890625,2.6545979976654053
1726940887920343800,0.29034375,1.1717406511306763,-2.3174660205841064,2.6857903003692627
1726940887930330000,0.300330078125,0.993796706199646,-2.1567013263702393,2.5974576473236084
1726940887940316000,0.31031591796875,0.8957924246788025,-2.1111459732055664,2.5433802604675293
1726940887950302000,0.320302001953125,0.9135288000106812,-2.6968812942504883,2.5427823066711426
1726940887960288000,0.3302880859375,1.0934855937957764,-2.963214159011841,2.750145435333252
1726940887970273000,0.34027294921875,1.375787615776062,-2.8941609859466553,3.0067267417907715
1726940887980258800,0.3502587890625,1.6153355836868286,-2.9276998043060303,3.247080087661743
1726940887990245000,0.3602451171875,1.6229056119918823,-3.14897084236145,3.393653154373169
1726940888000231000,0.37023095703125,1.5626271963119507,-3.4254446029663086,3.4622642993927
1726940888010217000,0.380217041015625,1.5551352500915527,-3.549640417098999,3.39839506149292
1726940888020203000,0.390203125,1.628164291381836,-3.5839221477508545,3.102989912033081
1726940888030189000,0.40018896484375,1.805982232093811,-3.3877241611480713,2.9126462936401367
1726940888040174000,0.410174072265625,2.04634165763855,-2.6434590816497803,2.565472364425659
1726940888050159900,0.420159912109375,2.297981023788452,-1.8197581768035889,1.9530754089355469
1726940888060146200,0.430146240234375,1.4296209812164307,-1.080692172050476,1.2155565023422241
1726940888070132000,0.440132080078125,0.7354834675788879,-0.18748533725738525,0.3992862403392792
1726940888080118000,0.450117919921875,1.220802664756775,0.1937076300382614,-0.17109529674053192
1726940888090104000,0.46010400390625,1.3112878799438477,0.3361300230026245,-0.47662219405174255
1726940888100090000,0.470090087890625,1.4410392045974731,0.44800204038619995,-0.41892921924591064
1726940888110075000,0.480074951171875,1.461740493774414,0.04386785998940468,-0.08672197163105011
1726940888120061000,0.49006103515625,1.743310570716858,-0.40367522835731506,0.5007853507995605
1726940888130047000,0.500046875,2.3736228942871094,-0.8389630317687988,1.1538881063461304
1726940888140033000,0.510032958984375,3.3463518619537354,-0.8838526606559753,1.7393189668655396
1726940888150018800,0.520018798828125,3.9657721519470215,-0.7791025042533875,1.9822815656661987
1726940888160005000,0.530005126953125,4.445680141448975,-0.8221595287322998,1.7623534202575684
1726940888169991000,0.539990966796875,4.096714019775391,-0.8471759557723999,1.2848401069641113
1726940888179977000,0.54997705078125,3.419886827468872,-0.7514885663986206,0.7744224667549133
1726940888189962000,0.5599619140625,2.808138370513916,-0.42782843112945557,0.45495691895484924
1726940888199948000,0.569947998046875,2.628598690032959,-0.31043028831481934,0.3552895188331604
1726940888209934000,0.57993408203125,2.8938002586364746,-0.6958336234092712,0.4737360179424286
1726940888219920000,0.589919921875,3.632378339767456,-1.4983054399490356,0.7851104140281677
1726940888229906200,0.59990625,4.537382125854492,-2.1384925842285156,1.2471230030059814
1726940888239892000,0.60989208984375,4.89573335647583,-1.8196179866790771,1.6677154302597046
1726940888249878000,0.6198779296875,4.6319403648376465,-1.1328952312469482,1.8439730405807495
1726940888259862800,0.62986279296875,3.7533986568450928,-1.287716269493103,1.5927233695983887
1726940888269849000,0.63984912109375,3.0320045948028564,-2.0010929107666016,0.60909104347229
1726940888279835000,0.6498349609375,2.7050814628601074,-2.3083505630493164,-0.2949652671813965
1726940888289821000,0.659821044921875,2.77473783493042,-2.3049638271331787,-0.811884880065918
1726940888299807000,0.669806884765625,2.889737129211426,-2.389575958251953,-0.9073718786239624
1726940888309793000,0.67979296875,2.795315742492676,-2.4445550441741943,-0.5781721472740173
1726940888319778800,0.68977880859375,2.4477808475494385,-2.3585495948791504,-0.1589001566171646
1726940888329765000,0.69976513671875,2.0725769996643066,-1.5599462985992432,0.27016064524650574
1726940888339750100,0.709750244140625,1.4384628534317017,-0.5592401027679443,0.5596349239349365
1726940888349736000,0.71973583984375,0.7509945034980774,-0.007501550950109959,0.783678412437439
1726940888359722000,0.729721923828125,0.03924442082643509,0.10757093876600266,0.9876206517219543
1726940888369708000,0.7397080078125,-0.2307489812374115,-0.05512396618723869,0.9883090853691101
1726940888379694000,0.749694091796875,-0.003067705547437072,-1.235546588897705,1.7194656133651733
1726940888389679900,0.759679931640625,0.7542164921760559,-2.0463099479675293,1.6691340208053589
1726940888399666200,0.769666259765625,1.1547378301620483,-2.5338430404663086,1.4408509731292725
1726940888409651000,0.77965087890625,1.5245885848999023,-2.226691246032715,1.305432677268982
1726940888419637000,0.789636962890625,1.6248584985733032,-1.5089826583862305,1.1631855964660645
1726940888429622800,0.799622802734375,1.4636597633361816,-0.2890854775905609,0.9236882925033569
1726940888439609000,0.809609130859375,1.259036660194397,1.2524065971374512,0.5184536576271057
1726940888449595000,0.819594970703125,1.0173276662826538,2.79626727104187,-0.16275708377361298
1726940888459580700,0.82958056640625,0.853255569934845,4.2712883949279785,-0.7879402041435242
1726940888469566500,0.83956640625,0.6609300374984741,5.407984256744385,-1.1177083253860474
1726940888479552500,0.849552490234375,0.21135756373405457,5.416293621063232,-1.364848017692566
1726940888489537500,0.85953759765625,-0.12788920104503632,4.429113388061523,-1.4499274492263794
1726940888499523600,0.869523681640625,-0.14915570616722107,2.6967923641204834,-1.1450949907302856
1726940888509509600,0.879509521484375,-0.43808260560035706,1.3799866437911987,-0.1237417459487915
1726940888519495400,0.889495361328125,-0.4390071630477905,-0.8022965788841248,0.9596052765846252
1726940888529481700,0.899481689453125,-0.5603035092353821,-1.8487846851348877,2.0645391941070557
1726940888539467500,0.909467529296875,-0.7120883464813232,-1.307600736618042,2.71386981010437
1726940888549453600,0.91945361328125,-0.6761325001716614,-0.4138612151145935,2.818120241165161
1726940888559439600,0.929439697265625,-0.9166338443756104,-0.2836865782737732,2.5674779415130615
1726940888569424600,0.939424560546875,-1.568502426147461,0.48857367038726807,2.250293731689453
1726940888579410400,0.949410400390625,-2.1777327060699463,1.0657167434692383,1.7923492193222046
1726940888589396500,0.959396484375,-2.6264047622680664,1.4052774906158447,1.3026578426361084
1726940888599382500,0.969382568359375,-3.0168306827545166,1.3772706985473633,0.6451855897903442
1726940888609368600,0.97936865234375,-3.288702964782715,1.1817907094955444,-0.18056289851665497
1726940888619354400,0.989354248046875,-3.476630926132202,1.1129752397537231,-0.8065204620361328
1726940888629340700,0.999340576171875,-3.6179258823394775,1.1137372255325317,-0.7881374359130859
1726940888639325700,1.00932568359375,-2.6713979244232178,1.3348618745803833,-0.7318828701972961
1726940888649311500,1.0193115234375,-0.7708813548088074,1.6896190643310547,-0.49097761511802673
1726940888659297500,1.029297607421875,0.23088455200195312,2.4397637844085693,-0.1255212277173996
1726940888669283600,1.03928369140625,0.5209746956825256,2.9382803440093994,0.209878608584404
1726940888679269600,1.04926953125,0.547714352607727,3.1194348335266113,0.5701927542686462
1726940888689255400,1.05925537109375,0.5385509729385376,3.196528196334839,0.8254586458206177
1726940888699241700,1.06924169921875,0.6286114454269409,3.1418631076812744,0.9917264580726624
1726940888709227500,1.0792275390625,0.6995705962181091,3.024082899093628,0.9911275506019592
1726940888719212500,1.089212646484375,0.7326112985610962,2.773458957672119,0.8996471166610718
1726940888729198600,1.099198486328125,0.6918926239013672,2.44447660446167,0.7335026264190674
1726940888739184600,1.1091845703125,0.5139127969741821,2.2411246299743652,0.5580549240112305
1726940888749170400,1.11917041015625,0.26364195346832275,1.9700227975845337,0.39803385734558105
1726940888759156500,1.129156494140625,0.003166046692058444,1.4221296310424805,0.1414821743965149
1726940888769142500,1.139142578125,-0.17421619594097137,0.6211972236633301,-0.3106922209262848
1726940888779128600,1.149128662109375,-0.26745903491973877,0.06210736930370331,-0.5825669765472412
1726940888789114400,1.1591142578125,-0.21935035288333893,-0.12936511635780334,-0.5941490530967712
1726940888799099600,1.169099609375,-0.12888547778129578,-0.1533171534538269,-0.5732183456420898
1726940888809085700,1.179085693359375,-0.01939040794968605,-0.03689945861697197,-0.5595936179161072
1726940888819071500,1.189071533203125,0.08521413058042526,0.17618052661418915,-0.5369817614555359
1726940888829057800,1.199057861328125,0.18660813570022583,0.34238603711128235,-0.5462303757667542
1726940888839043600,1.209043701171875,0.27002108097076416,0.46722638607025146,-0.5261853933334351
1726940888849029600,1.219029541015625,0.30774953961372375,0.5320152044296265,-0.4597291052341461
1726940888859015400,1.229015380859375,0.3642433285713196,0.5843378305435181,-0.3718877136707306
1726940888869000700,1.239000732421875,0.39079156517982483,0.5654895901679993,-0.24142105877399445
1726940888878986500,1.248986572265625,0.379342257976532,0.4945048689842224,-0.11342461407184601
1726940888888972500,1.25897265625,0.3389812409877777,0.407265841960907,0.0015152835985645652
1726940888898958600,1.26895849609375,0.299055814743042,0.2712966203689575,0.08662362396717072
1726940888908944600,1.278944580078125,0.2654176950454712,0.12474790960550308,0.1309809535741806
1726940888918930400,1.288930419921875,0.24704286456108093,0.0171714648604393,0.15109695494174957
1726940888928916700,1.298916748046875,0.2538136839866638,0.030927758663892746,0.17598286271095276
1726940888938902500,1.308902587890625,0.23060517013072968,0.07680416852235794,0.1974818855524063
1726940888948887600,1.318887451171875,0.19595690071582794,0.13027937710285187,0.2003178894519806
1726940888958873600,1.32887353515625,0.15467305481433868,0.21915984153747559,0.2309141904115677
1726940888968859600,1.338859619140625,0.10269799083471298,0.3291979432106018,0.2712826430797577
1726940888978845700,1.348845703125,0.04997587203979492,0.41037148237228394,0.28469255566596985
1726940888988831500,1.35883154296875,0.01283782348036766,0.4581432640552521,0.2564537227153778
1726940888998817800,1.36881787109375,-0.002186358906328678,0.47157686948776245,0.21767032146453857
1726940889008803600,1.378803466796875,-0.007780062034726143,0.46970653533935547,0.18880458176136017
1726940889018789600,1.38878955078125,-0.012678254395723343,0.4792252480983734,0.1705320030450821
1726940889028774400,1.3987744140625,-0.005397172644734383,0.4981512725353241,0.13874317705631256
1726940889038760700,1.4087607421875,0.013500177301466465,0.5427849888801575,0.09398283064365387
1726940889048746500,1.41874658203125,0.02740587294101715,0.5592712759971619,0.0682673454284668
1726940889058732500,1.428732666015625,0.0404057502746582,0.5529865622520447,0.05591946840286255
1726940889068718600,1.438718505859375,0.04435468465089798,0.5694814324378967,0.06087108328938484
1726940889078704600,1.44870458984375,0.037243764847517014,0.5726854801177979,0.07545209676027298
1726940889088690400,1.4586904296875,0.024060584604740143,0.5773686170578003,0.07934829592704773
1726940889098675500,1.468675537109375,0.00447038421407342,0.6022497415542603,0.05389706417918205
1726940889108661800,1.478661865234375,-0.017451956868171692,0.6443476676940918,-0.0076680295169353485
1726940889118647600,1.4886474609375,-0.04172897711396217,0.7266477942466736,-0.08726838231086731
1726940889128633600,1.498633544921875,-0.0697382390499115,0.7920345067977905,-0.1455327421426773
1726940889138619600,1.50861962890625,-0.09428362548351288,0.8605098128318787,-0.1923646330833435
1726940889148605700,1.518605712890625,-0.12738806009292603,0.8750882148742676,-0.2116033136844635
1726940889158591500,1.528591552734375,-0.15482352674007416,0.8168789148330688,-0.20288324356079102
1726940889168577800,1.538577880859375,-0.20684120059013367,0.7031294703483582,-0.16127508878707886
1726940889178562600,1.5485625,-0.26037687063217163,0.5506041049957275,-0.1083914041519165
1726940889188548600,1.558548583984375,-0.3010159134864807,0.3517397940158844,-0.12137431651353836
1726940889198534400,1.568534423828125,-0.3370058238506317,0.21196410059928894,-0.1800146996974945
1726940889208520700,1.578520751953125,-0.3316248953342438,0.1754082292318344,-0.25873374938964844
1726940889218506500,1.588506591796875,-0.31763163208961487,0.17399294674396515,-0.35566431283950806
1726940889228492500,1.598492431640625,-0.2903022766113281,0.24146093428134918,-0.4529453217983246
1726940889238478600,1.608478515625,-0.2696630656719208,0.3020310401916504,-0.5114501714706421
1726940889248464600,1.618464599609375,-0.266064316034317,0.31673699617385864,-0.5129074454307556
1726940889258449700,1.62844970703125,-0.27233555912971497,0.3947737216949463,-0.4790497422218323
1726940889268435500,1.638435546875,-0.30177706480026245,0.554781973361969,-0.4504590928554535
1726940889278421800,1.648421875,-0.33739739656448364,0.6968472003936768,-0.4001367688179016
1726940889288407600,1.658407470703125,-0.3701375126838684,0.8323608040809631,-0.34699657559394836
1726940889298393600,1.6683935546875,-0.3999181389808655,0.9630555510520935,-0.28774723410606384
1726940889308379600,1.678379638671875,-0.4178853929042816,1.0818493366241455,-0.22091145813465118
1726940889318365700,1.68836572265625,-0.42561808228492737,1.2142307758331299,-0.15364576876163483
1726940889328351500,1.6983515625,-0.402864545583725,1.3554201126098633,-0.09305379539728165
1726940889338336500,1.70833642578125,-0.3547198474407196,1.4966219663619995,-0.05268336832523346
1726940889348322600,1.718322509765625,-0.28735867142677307,1.6025346517562866,0.0027663111686706543
1726940889358308600,1.72830859375,-0.22020578384399414,1.6741256713867188,0.08673041313886642
1726940889368294400,1.73829443359375,-0.15564462542533875,1.718326449394226,0.17827817797660828
1726940889378280700,1.74828076171875,-0.08833575993776321,1.714362621307373,0.2754417657852173
1726940889388266500,1.7582666015625,-0.004587596282362938,1.6996835470199585,0.3710907995700836
1726940889398252500,1.76825244140625,0.10654568672180176,1.7031855583190918,0.4613224267959595
1726940889408237600,1.778237548828125,0.22957520186901093,1.7062404155731201,0.5507069230079651
1726940889418223600,1.7882236328125,0.33700594305992126,1.7599798440933228,0.5945653319358826
1726940889428209700,1.798209716796875,0.41270363330841064,1.8086498975753784,0.608738124370575
1726940889438195500,1.808195556640625,0.46557170152664185,1.8816957473754883,0.6205745935440063
1726940889448181500,1.818181396484375,0.4827727973461151,1.9600603580474854,0.6129388213157654
1726940889458168600,1.82816845703125,0.49839380383491516,2.0165302753448486,0.576026439666748
1726940889468154600,1.838154541015625,0.5084325671195984,2.021911382675171,0.5059338808059692
1726940889478140700,1.848140625,0.47399815917015076,1.9602104425430298,0.3984763026237488
1726940889488125400,1.85812548828125,0.4003351330757141,1.8693428039550781,0.3292974829673767
1726940889498111700,1.86811181640625,0.3421664237976074,1.6850612163543701,0.22272616624832153
1726940889508097500,1.87809765625,0.2953384816646576,1.4034820795059204,0.134992316365242
1726940889518083600,1.88808349609375,0.2759842574596405,1.068010687828064,0.0844794437289238
1726940889528069600,1.898069580078125,0.2776995897293091,0.6928253173828125,0.07388298958539963
1726940889538055700,1.9080556640625,0.31253182888031006,0.3303775489330292,0.047923192381858826
1726940889548041500,1.91804150390625,0.34379202127456665,0.13969174027442932,0.02122979797422886
1726940889558027500,1.928027587890625,0.36609309911727905,0.13453009724617004,0.011089212261140347
1726940889568012800,1.9380126953125,0.38065606355667114,0.16537456214427948,-0.02020639181137085
1726940889577998600,1.94799853515625,0.3874209523200989,0.17419186234474182,-0.10120843350887299
1726940889587984600,1.957984619140625,0.3609296679496765,0.1786515861749649,-0.20393933355808258
1726940889597970700,1.967970703125,0.28472188115119934,0.2732630968093872,-0.3207763731479645
1726940889607956700,1.977956787109375,0.18071745336055756,0.43753886222839355,-0.4265137016773224
1726940889617942500,1.987942626953125,0.10409260541200638,0.5990036725997925,-0.5097821354866028
1726940889627928800,1.9979287109375,0.04396269470453262,0.747955858707428,-0.5703120827674866
1726940889637913600,2.00791357421875,0.016909349709749222,0.79436856508255,-0.6133371591567993
1726940889647899600,2.017899658203125,0.039852485060691833,0.7885625958442688,-0.5983448624610901
1726940889657885400,2.027885498046875,0.09198959171772003,0.8062916398048401,-0.5357664227485657
1726940889667871700,2.037871826171875,0.19813387095928192,0.8844287395477295,-0.47940805554389954
1726940889677857500,2.047857421875,0.38413071632385254,1.039449691772461,-0.5197058320045471
1726940889687843600,2.057843505859375,0.6216021180152893,1.3147422075271606,-0.654207706451416
1726940889697829600,2.06782958984375,0.9254564046859741,1.755575180053711,-0.8586347699165344
1726940889707815700,2.077815673828125,1.2786762714385986,2.2428205013275146,-1.121003270149231
1726940889717800700,2.08780078125,1.6589667797088623,2.78765869140625,-1.5755321979522705
1726940889727786500,2.097786376953125,1.8580758571624756,3.0831828117370605,-2.066709518432617
1726940889737772800,2.107772705078125,1.847625732421875,3.0610954761505127,-2.466831922531128
1726940889747758600,2.117758544921875,1.63369882106781,2.724138021469116,-2.663283348083496
1726940889757744600,2.12774462890625,1.3168209791183472,2.3367717266082764,-2.7142627239227295
1726940889767730700,2.137730712890625,1.0155876874923706,2.0390491485595703,-2.6871678829193115
1726940889777716700,2.147716796875,0.7888896465301514,1.8781530857086182,-2.648163318634033
1726940889787702500,2.15770263671875,0.6697086095809937,1.769170880317688,-2.5913233757019043
1726940889797687600,2.1676875,0.6421517729759216,1.5270249843597412,-2.4135141372680664
1726940889807673600,2.177673583984375,0.5140734314918518,1.3574175834655762,-2.2708113193511963
1726940889817659600,2.18765966796875,0.3580968379974365,1.1229643821716309,-2.10282301902771
1726940889827645400,2.1976455078125,0.25322526693344116,0.7573350667953491,-1.8001374006271362
1726940889837631700,2.2076318359375,0.1730354130268097,0.29401570558547974,-1.3498799800872803
1726940889847617500,2.217617431640625,0.10168693959712982,-0.2923670709133148,-0.8115917444229126
1726940889857603600,2.227603515625,0.02886303700506687,-0.6536858677864075,-0.30994099378585815
1726940889867588600,2.237588623046875,0.019210143014788628,-0.7891635894775391,0.11035481840372086
1726940889877574700,2.24757470703125,0.11267255246639252,-0.8001062870025635,0.4217446744441986
1726940889887560700,2.257560791015625,0.2470513880252838,-0.6952661871910095,0.5868926048278809
1726940889897546500,2.26754638671875,0.34515881538391113,-0.6043396592140198,0.6013829112052917
1726940889907532800,2.27753271484375,0.321627676486969,-0.48997047543525696,0.5801172852516174
1726940889917518600,2.2875185546875,0.21554429829120636,-0.32941076159477234,0.6019384264945984
1726940889927504600,2.297504638671875,0.06250788271427155,-0.12746912240982056,0.6813209056854248
1726940889937490700,2.30749072265625,-0.10054879635572433,-0.02405373565852642,0.7902677059173584
1726940889947475700,2.317475830078125,-0.285095751285553,-0.014433331787586212,0.9118812084197998
1726940889957461500,2.32746142578125,-0.46431806683540344,-0.029536066576838493,1.0110102891921997
1726940889967447600,2.337447509765625,-0.6364498734474182,-0.0799771323800087,1.127249836921692
1726940889977433600,2.34743359375,-0.7869565486907959,-0.13279379904270172,1.2138416767120361
1726940889987419600,2.357419677734375,-0.844703197479248,-0.12178375571966171,1.1884067058563232
1726940889997405400,2.367405517578125,-0.8128724098205566,-0.03161853924393654,1.1132622957229614
1726940890007391700,2.377391845703125,-0.7416032552719116,0.004626285284757614,0.9807910919189453
1726940890017377500,2.38737744140625,-0.6487096548080444,0.06588562577962875,0.8472251296043396
1726940890027362600,2.397362548828125,-0.560802161693573,0.16323187947273254,0.7340391874313354
1726940890037348600,2.4073486328125,-0.4530048072338104,0.351159930229187,0.6018105745315552
1726940890047334700,2.417334716796875,-0.285861074924469,0.4661661386489868,0.46409904956817627
1726940890057320700,2.42732080078125,-0.08970148861408234,0.5032124519348145,0.3425244987010956
1726940890067306500,2.437306396484375,0.11570679396390915,0.5493812561035156,0.17171306908130646
1726940890077292800,2.447292724609375,0.3019295632839203,0.6201646327972412,-0.04855656996369362
1726940890087278600,2.457278564453125,0.37280744314193726,0.6115821003913879,-0.22583867609500885
1726940890097264600,2.4672646484375,0.30198514461517334,0.4708610475063324,-0.27246034145355225
1726940890107249700,2.477249755859375,0.14284847676753998,0.09639373421669006,-0.1312619298696518
1726940890117235700,2.487235595703125,0.0020453997422009706,-0.31918489933013916,0.1358409821987152
1726940890127221500,2.497221435546875,-0.057147618383169174,-0.5382059216499329,0.3826145529747009
1726940890137207600,2.50720751953125,-0.044660136103630066,-0.5295876264572144,0.5629913210868835
1726940890147193600,2.517193603515625,0.0019782057497650385,-0.38094431161880493,0.6668418049812317
1726940890157179600,2.5271796875,0.0541544072329998,-0.19599772989749908,0.6730633974075317
1726940890167165400,2.53716552734375,0.03127705305814743,-0.0006367469322867692,0.6155518889427185
1726940890177151700,2.54715185546875,-0.07799547910690308,0.20342910289764404,0.5578344464302063
1726940890187136800,2.55713671875,-0.2255828082561493,0.20552660524845123,0.5184342861175537
1726940890197122600,2.56712255859375,-0.41980278491973877,0.06341597437858582,0.5624100565910339
1726940890207108900,2.57710888671875,-0.6145198345184326,-0.10551818460226059,0.6443136930465698
1726940890217094700,2.5870947265625,-0.7432060241699219,-0.2449256181716919,0.6896255612373352
1726940890227080700,2.597080810546875,-0.805141031742096,-0.3400894105434418,0.6911262273788452
1726940890237066500,2.60706640625,-0.8184642791748047,-0.3377341330051422,0.6687299609184265
1726940890247052500,2.617052490234375,-0.8016623854637146,-0.302079975605011,0.6058953404426575
1726940890257038600,2.62703857421875,-0.7730143070220947,-0.2119286209344864,0.5866767764091492
1726940890267024600,2.637024658203125,-0.6978998780250549,0.03084832802414894,0.5818521976470947
1726940890277009700,2.647009765625,-0.5542352199554443,0.22508011758327484,0.61546790599823
1726940890286995700,2.65699560546875,-0.42985999584198,0.3936038911342621,0.6575493216514587
1726940890296981500,2.6669814453125,-0.33082935214042664,0.5622769594192505,0.641107439994812
1726940890306967800,2.6769677734375,-0.1998327225446701,0.6218446493148804,0.5682835578918457
1726940890316953600,2.68695361328125,-0.06244305521249771,0.5668855309486389,0.49016648530960083
1726940890326939600,2.696939697265625,0.10776915401220322,0.49649444222450256,0.4143305718898773
1726940890336925400,2.706925537109375,0.2962116301059723,0.4428844451904297,0.33475789427757263
1726940890346911700,2.716911865234375,0.4444389045238495,0.296751469373703,0.314514696598053
1726940890356896500,2.726896484375,0.561077892780304,0.026634693145751953,0.4014117419719696
1726940890366882600,2.736882568359375,0.657534658908844,-0.2992677688598633,0.5445108413696289
1726940890376868600,2.74686865234375,0.7607700824737549,-0.5373983979225159,0.6384252309799194
1726940890386854700,2.756854736328125,0.8700571060180664,-0.6053028702735901,0.6028920412063599
1726940890396840400,2.76684033203125,0.9410754442214966,-0.5648865699768066,0.48962050676345825
1726940890406826800,2.77682666015625,0.9402048587799072,-0.50657719373703,0.36831989884376526
1726940890416812500,2.7868125,0.8414703011512756,-0.40793633460998535,0.2302236706018448
1726940890426798600,2.796798583984375,0.634911298751831,-0.32196125388145447,0.07651878893375397
1726940890436783600,2.80678369140625,0.3693056106567383,-0.23907509446144104,-0.02550450898706913
1726940890446769700,2.816769775390625,0.06968773901462555,-0.006413088645786047,-0.07650057971477509
1726940890456754700,2.826754638671875,-0.2365003079175949,0.11943747848272324,0.02106475830078125
1726940890466740700,2.83674072265625,-0.47806552052497864,0.128469318151474,0.12092264741659164
1726940890476726800,2.846726806640625,-0.6091557741165161,0.15029582381248474,0.09541977941989899
1726940890486712600,2.856712646484375,-0.6371546387672424,0.12799665331840515,0.020332487300038338
1726940890496698600,2.86669873046875,-0.5908628702163696,0.11260044574737549,-0.034804366528987885
1726940890506684700,2.8766845703125,-0.5519727468490601,0.11262734979391098,-0.09389964491128922
1726940890516670700,2.886670654296875,-0.4411127269268036,0.1631060391664505,-0.07860267907381058
1726940890526655700,2.89665576171875,-0.3696579933166504,0.17083851993083954,-0.005906365811824799
1726940890536641500,2.9066416015625,-0.3051183819770813,0.07370246201753616,0.14798671007156372
1726940890546627800,2.9166279296875,-0.28426504135131836,-0.04646149277687073,0.3498072028160095
1726940890556613600,2.926613525390625,-0.24914591014385223,-0.13385041058063507,0.5118396878242493
1726940890566599700,2.936599609375,-0.19061575829982758,-0.21396015584468842,0.5970549583435059
1726940890576585700,2.946585693359375,-0.12758545577526093,-0.23822303116321564,0.6285480260848999
1726940890586571800,2.95657177734375,-0.07538484036922455,-0.16225184500217438,0.6491187810897827
1726940890596557600,2.9665576171875,-0.0466112419962883,-0.015698889270424843,0.6779469847679138
1726940890606542600,2.97654248046875,-0.007594336289912462,0.03376479819417,0.7868971824645996
1726940890616528600,2.986528564453125,0.05499354004859924,-0.019417207688093185,0.9401828646659851
1726940890626514700,2.9965146484375,0.15526580810546875,-0.1554884910583496,1.0129995346069336
1726940890636500500,3.00650048828125,0.2774854302406311,-0.2508062422275543,1.0114033222198486
1726940890646486800,3.01648681640625,0.4175781011581421,-0.3394758999347687,0.9680638313293457
1726940890656472600,3.02647265625,0.5192362666130066,-0.40513572096824646,0.8884777426719666
1726940890666458600,3.036458740234375,0.5531521439552307,-0.36196398735046387,0.7851686477661133
1726940890676444700,3.046444580078125,0.4845867156982422,-0.19922956824302673,0.6778170466423035
1726940890686430700,3.0564306640625,0.3581739366054535,-0.01624748669564724,0.5776899456977844
1726940890696415700,3.066415771484375,0.23383428156375885,0.08760011941194534,0.5219506025314331
1726940890706401500,3.076401611328125,0.16172945499420166,0.06611134111881256,0.5025457739830017
1726940890716387800,3.086387939453125,0.13974671065807343,-0.14882372319698334,0.5433109998703003
1726940890726373600,3.09637353515625,0.1572902798652649,-0.3202380836009979,0.6088958382606506
1726940890736359700,3.106359619140625,0.1962113380432129,-0.30784350633621216,0.5845246315002441
1726940890746345700,3.116345703125,0.24660846590995789,-0.21963801980018616,0.42626917362213135
1726940890756331800,3.126331787109375,0.22282083332538605,-0.15719515085220337,0.2829904854297638
1726940890766317600,3.136317626953125,0.13727369904518127,-0.16677293181419373,0.21297436952590942
1726940890776303900,3.146303955078125,0.02450742945075035,-0.03312363475561142,0.1631849855184555
1726940890786288600,3.15628857421875,-0.0771733894944191,0.12721304595470428,0.13345958292484283
1726940890796274700,3.166274658203125,-0.15938955545425415,0.19302301108837128,0.16113612055778503
1726940890806260500,3.176260498046875,-0.2381506711244583,0.15468786656856537,0.25184258818626404
1726940890816246800,3.186246826171875,-0.31249138712882996,0.10426005721092224,0.34063830971717834
1726940890826232600,3.196232666015625,-0.3525857925415039,0.052242130041122437,0.3272460997104645
1726940890836218600,3.206218505859375,-0.3232952356338501,-0.016637496650218964,0.2405838966369629
1726940890846204700,3.21620458984375,-0.2444305121898651,-0.051786430180072784,0.12408764660358429
1726940890856190700,3.226190673828125,-0.17147424817085266,0.009848191402852535,-0.0054781557992100716
1726940890866176500,3.236176513671875,-0.18452666699886322,-0.044333286583423615,-0.14870215952396393
1726940890876161800,3.246161865234375,-0.19881689548492432,-0.08261934667825699,-0.21615371108055115
1726940890886147800,3.25614794921875,-0.17850656807422638,-0.05300339683890343,-0.18960759043693542
1726940890896133600,3.266133544921875,-0.12603610754013062,-0.06034664064645767,-0.12229181081056595
1726940890906119700,3.27611962890625,-0.037679608911275864,-0.16747069358825684,-0.043181538581848145
1726940890916105700,3.286105712890625,0.05790119990706444,-0.20929814875125885,0.016205094754695892
1726940890926091800,3.296091796875,0.1822497844696045,-0.26370811462402344,0.10846524685621262
1726940890936077600,3.30607763671875,0.3669358789920807,-0.2572041451931,0.18918776512145996
1726940890946064000,3.31606396484375,0.5852165222167969,-0.16767056286334991,0.2826077342033386
1726940890956048600,3.326048583984375,0.7989505529403687,-0.11434315890073776,0.4418064057826996
1726940890966034700,3.33603466796875,0.9991680383682251,-0.12363466620445251,0.6401565074920654
1726940890976020700,3.346020751953125,1.2153865098953247,-0.23857232928276062,0.8613831996917725
1726940890986006800,3.3560068359375,1.3976905345916748,-0.31713637709617615,1.0631829500198364
1726940890995992600,3.36599267578125,1.5692886114120483,-0.3956609070301056,1.1996941566467285
1726940891005978600,3.375978515625,1.698448657989502,-0.4148902893066406,1.1918377876281738
1726940891015964700,3.385964599609375,1.7496342658996582,-0.3176197409629822,1.0437647104263306
1726940891025950700,3.39595068359375,1.691811442375183,-0.16949178278446198,0.8300542831420898
1726940891035936500,3.4059365234375,1.5890370607376099,-0.036158494651317596,0.6129653453826904
1726940891045921800,3.415921875,1.4293304681777954,0.10061027854681015,0.4562447667121887
1726940891055907800,3.425907958984375,1.2232645750045776,0.2176845669746399,0.35781243443489075
1726940891065893600,3.4358935546875,0.9936199188232422,0.2715648412704468,0.29600659012794495
1726940891075880000,3.4458798828125,0.804450273513794,0.2804831564426422,0.18596383929252625
1726940891085865700,3.45586572265625,0.6983368992805481,0.34299951791763306,0.03847797214984894
1726940891095851800,3.465851806640625,0.641449511051178,0.3133581876754761,-0.023146409541368484
1726940891105837800,3.475837890625,0.6330088973045349,0.17313559353351593,-0.0029047878924757242
1726940891115823900,3.485823974609375,0.634549081325531,0.035173386335372925,0.0008615576662123203
1726940891125809700,3.4958095703125,0.6345629096031189,-0.0614764578640461,0.0032890290021896362
1726940891135794700,3.505794677734375,0.5236513614654541,-0.12759873270988464,0.06675861030817032
1726940891145780700,3.51578076171875,0.3128032684326172,-0.12844881415367126,0.14232288300991058
1726940891155766800,3.525766845703125,0.08884697407484055,-0.15553803741931915,0.17494264245033264
1726940891165752600,3.535752685546875,-0.1333027333021164,-0.2023436278104782,0.22035381197929382
1726940891175739000,3.54573876953125,-0.3000665009021759,-0.19729304313659668,0.27717623114585876
1726940891185724700,3.555724609375,-0.4126167297363281,-0.13331565260887146,0.38938000798225403
1726940891195710700,3.565710693359375,-0.44117972254753113,-0.05090796947479248,0.5384488701820374
1726940891205696800,3.57569677734375,-0.40287894010543823,-0.118598073720932,0.6797550916671753
1726940891215682800,3.585682861328125,-0.331478089094162,-0.240624338388443,0.8193227052688599
1726940891225667800,3.595667724609375,-0.26468387246131897,-0.44877034425735474,0.8875238299369812
1726940891235653600,3.605653564453125,-0.19600337743759155,-0.6467825174331665,0.8637682795524597
1726940891245639700,3.6156396484375,-0.15810526907444,-0.7928465604782104,0.811434268951416
1726940891255625700,3.625625732421875,-0.14486099779605865,-0.9145557880401611,0.7254616022109985
1726940891265611800,3.63561181640625,-0.1374416947364807,-0.9346245527267456,0.6089030504226685
1726940891275597800,3.645597900390625,-0.1679793745279312,-0.8761734366416931,0.5041524171829224
1726940891285583600,3.65558349609375,-0.21729660034179688,-0.7590662240982056,0.37830981612205505
1726940891295569700,3.665569580078125,-0.27629563212394714,-0.6673319935798645,0.21085605025291443
1726940891305554700,3.6755546875,-0.342099666595459,-0.533024251461029,-0.008997485041618347
1726940891315540700,3.685540771484375,-0.3913764953613281,-0.44074079394340515,-0.3060831129550934
1726940891325526800,3.69552685546875,-0.4093160927295685,-0.34810513257980347,-0.5685403347015381
1726940891335512600,3.7055126953125,-0.39542511105537415,-0.350422739982605,-0.8037109971046448
1726940891345499000,3.715498779296875,-0.37592917680740356,-0.36192840337753296,-1.0315144062042236
1726940891355484700,3.725484619140625,-0.3937496840953827,-0.28800639510154724,-1.2113466262817383
1726940891365470700,3.735470703125,-0.40353548526763916,-0.2849554717540741,-1.3122926950454712
1726940891375456800,3.745456787109375,-0.3862816393375397,-0.3280712068080902,-1.2757422924041748
1726940891385442800,3.75544287109375,-0.3641451597213745,-0.4011765718460083,-1.1187098026275635
1726940891395427600,3.765427490234375,-0.37188246846199036,-0.5110485553741455,-0.8794201612472534
1726940891405413600,3.77541357421875,-0.4470592439174652,-0.672027051448822,-0.6330474019050598
1726940891415399700,3.785399658203125,-0.541100800037384,-0.7212375402450562,-0.5003098249435425
1726940891425385700,3.7953857421875,-0.6546090245246887,-0.6899192929267883,-0.4792705774307251
1726940891435371500,3.80537158203125,-0.771761417388916,-0.6625962257385254,-0.5135137438774109
1726940891445357800,3.81535791015625,-0.8569037914276123,-0.5840603709220886,-0.5515702962875366
1726940891455343000,3.825343017578125,-0.865642249584198,-0.41033580899238586,-0.5672134757041931
1726940891465329200,3.8353291015625,-0.7768417596817017,-0.25811031460762024,-0.5698768496513367
1726940891475315200,3.845315185546875,-0.6082068681716919,-0.1334858536720276,-0.5020453333854675
1726940891485300000,3.855300048828125,-0.4035472273826599,-0.06700881570577621,-0.44439077377319336
1726940891495286300,3.865286376953125,-0.3527472913265228,-0.15362073481082916,-0.5164100527763367
1726940891505272000,3.87527197265625,-0.4477025866508484,-0.2067449390888214,-0.6766135692596436
1726940891515258000,3.885258056640625,-0.5649357438087463,-0.14907905459403992,-0.8728832602500916
1726940891525244200,3.895244140625,-0.7105907201766968,-0.115056112408638,-1.0209873914718628
1726940891535230200,3.905230224609375,-0.8528236746788025,-0.10920478403568268,-1.1322145462036133
1726940891545216000,3.915216064453125,-0.8812372088432312,-0.07491552084684372,-1.1668963432312012
1726940891555202000,3.9252021484375,-0.8631144762039185,-0.018681375309824944,-1.1528420448303223
1726940891565188000,3.93518798828125,-0.866512656211853,0.03056579828262329,-1.1436282396316528
1726940891575173000,3.945173095703125,-0.9017861485481262,0.010107499547302723,-1.1524654626846313
1726940891585159200,3.9551591796875,-1.0326329469680786,-0.055625706911087036,-1.1689350605010986
1726940891595145200,3.965145263671875,-1.2244035005569458,-0.08150499314069748,-1.1361838579177856
1726940891605131300,3.97513134765625,-1.3856201171875,0.017886575311422348,-1.0608547925949097
1726940891615117000,3.985116943359375,-1.4555408954620361,0.21744437515735626,-1.0084339380264282
1726940891625103400,3.995103271484375,-1.4459187984466553,0.4373205602169037,-0.9714189171791077
1726940891635089200,4.005089111328125,-1.4259703159332275,0.6241937875747681,-0.8943115472793579
1726940891645075200,4.0150751953125,-1.377086877822876,0.7982023358345032,-0.7883822321891785
1726940891655061000,4.02506103515625,-1.221011757850647,0.9262661337852478,-0.6791595220565796
1726940891665046300,4.03504638671875,-0.9636551141738892,0.8762900233268738,-0.5061256885528564
1726940891675032000,4.045031982421875,-0.6671484708786011,0.6659700870513916,-0.255985826253891
1726940891685018000,4.05501806640625,-0.34779179096221924,0.37943050265312195,0.03370828181505203
1726940891695004200,4.065004150390625,-0.05437101051211357,0.15271511673927307,0.2935234308242798
1726940891704990200,4.074990234375,0.1878834217786789,-0.024437295272946358,0.41870132088661194
1726940891714976000,4.08497607421875,0.29397180676460266,-0.1136285588145256,0.4439062178134918
1726940891724962300,4.09496240234375,0.2996286153793335,-0.12211871892213821,0.4509308636188507
1726940891734948000,4.104947998046875,0.3072352409362793,-0.04625045508146286,0.454824298620224
1726940891744934100,4.11493408203125,0.283128559589386,0.029847504571080208,0.44974860548973083
1726940891754919200,4.124919189453125,0.3018421232700348,0.039902929216623306,0.45117291808128357
1726940891764905200,4.1349052734375,0.40329283475875854,0.014168274588882923,0.4460420608520508
1726940891774891300,4.144891357421875,0.5413622260093689,-0.05509619414806366,0.4882078468799591
1726940891784877000,4.154876953125,0.6335890889167786,-0.13219018280506134,0.4969587028026581
1726940891794863000,4.164863037109375,0.6482069492340088,-0.18539364635944366,0.4814687967300415
1726940891804849200,4.17484912109375,0.6211004853248596,-0.1736331284046173,0.42586812376976013
1726940891814835000,4.1848349609375,0.5525481700897217,-0.12483526021242142,0.37081000208854675
1726940891824821200,4.1948212890625,0.490995317697525,-0.08915209770202637,0.32681962847709656
1726940891834807000,4.20480712890625,0.38866326212882996,-0.005742661654949188,0.29857969284057617
1726940891844792000,4.2147919921875,0.255888432264328,0.07355402410030365,0.3203563392162323
1726940891854778000,4.224778076171875,0.12255766987800598,0.14640401303768158,0.3576679527759552
1726940891864764200,4.23476416015625,0.05457621440291405,0.23831157386302948,0.36585503816604614
1726940891874750200,4.244750244140625,0.07230488955974579,0.32379400730133057,0.3087646961212158
1726940891884736000,4.254736083984375,0.12891730666160583,0.4274170696735382,0.20921705663204193
1726940891894722300,4.264722412109375,0.22312024235725403,0.538957953453064,0.11680459976196289
1726940891904708000,4.2747080078125,0.3287164270877838,0.6351287364959717,0.048668429255485535
1726940891914694100,4.284694091796875,0.40827134251594543,0.6762169003486633,0.025011863559484482
1726940891924679200,4.29467919921875,0.4452882409095764,0.6525864005088806,0.04454481974244118
1726940891934665200,4.304665283203125,0.4048657715320587,0.49087002873420715,0.04931333661079407
1726940891944651000,4.314651123046875,0.2877300977706909,0.3937709331512451,0.06948570907115936
1726940891954637000,4.324636962890625,0.15622064471244812,0.3423249125480652,0.06396666914224625
1726940891964623000,4.334623046875,0.026840563863515854,0.33616903424263,0.05965767055749893
1726940891974609200,4.344609130859375,-0.11363741755485535,0.3685840666294098,0.05841849371790886
1726940891984595000,4.354594970703125,-0.2315661758184433,0.4389573037624359,0.056103143841028214
1726940891994581200,4.364581298828125,-0.28674912452697754,0.48129087686538696,0.032382335513830185
1726940892004567000,4.374567138671875,-0.26360654830932617,0.47832491993904114,-0.028028277680277824
1726940892014553000,4.384552978515625,-0.17644204199314117,0.5314218401908875,-0.13664816319942474
1726940892024538000,4.3945380859375,-0.06089838966727257,0.5692054033279419,-0.26903870701789856
1726940892034524200,4.404524169921875,0.057544197887182236,0.5764283537864685,-0.3624919056892395
1726940892044510200,4.41451025390625,0.1448165327310562,0.5741087794303894,-0.4371357858181
1726940892054496000,4.42449609375,0.18025563657283783,0.558150053024292,-0.49563759565353394
1726940892064482300,4.434482421875,0.15053583681583405,0.5613349676132202,-0.5536268353462219
1726940892074468000,4.444468017578125,0.060644183307886124,0.5362155437469482,-0.5440272688865662
1726940892084454100,4.4544541015625,-0.07140093296766281,0.46439939737319946,-0.47531983256340027
1726940892094440200,4.464440185546875,-0.17363719642162323,0.42045778036117554,-0.3903760612010956
1726940892104425200,4.47442529296875,-0.22863119840621948,0.4473634362220764,-0.3246612250804901
1726940892114411000,4.484410888671875,-0.2378072440624237,0.5512102246284485,-0.3005449175834656
1726940892124397000,4.49439697265625,-0.2085212618112564,0.6712924242019653,-0.31477606296539307
1726940892134383000,4.504383056640625,-0.12754660844802856,0.7735051512718201,-0.33899009227752686
1726940892144369200,4.514369140625,-0.030907155945897102,0.80032879114151,-0.35380232334136963
1726940892154355000,4.52435498046875,0.08561460673809052,0.7217597961425781,-0.3161570131778717
1726940892164341200,4.53434130859375,0.18565014004707336,0.5043030977249146,-0.21368256211280823
1726940892174327000,4.5443271484375,0.2741098701953888,0.234855517745018,-0.129667267203331
1726940892184313000,4.55431298828125,0.35825592279434204,0.018701370805501938,-0.13608494400978088
1726940892194299100,4.564299072265625,0.3942524194717407,-0.10616753995418549,-0.2442934364080429
1726940892204284200,4.5742841796875,0.3645467162132263,-0.14082324504852295,-0.39062562584877014
1726940892214270200,4.584270263671875,0.2743063271045685,-0.15465469658374786,-0.5293527245521545
1726940892224256000,4.594256103515625,0.1654471904039383,-0.09760312736034393,-0.6411871314048767
1726940892234242300,4.6042421875,0.07025332003831863,0.013858204707503319,-0.6731396317481995
1726940892244228000,4.61422802734375,0.05969788506627083,0.1476181447505951,-0.6513805389404297
1726940892254214100,4.624214111328125,0.1096758246421814,0.26224273443222046,-0.5958754420280457
1726940892264200200,4.6342001953125,0.18778714537620544,0.3632870614528656,-0.5521934628486633
1726940892274186200,4.644186279296875,0.2870997488498688,0.47063934803009033,-0.5889917612075806
1726940892284171000,4.6541708984375,0.4062730073928833,0.6308806538581848,-0.6630739569664001
1726940892294157000,4.664156982421875,0.5332804918289185,0.8185555338859558,-0.7479764819145203
1726940892304143000,4.67414306640625,0.610352098941803,0.9271422028541565,-0.8159192800521851
1726940892314129200,4.684129150390625,0.5914099216461182,0.8968295454978943,-0.8519760966300964
1726940892324115000,4.694114990234375,0.5390625596046448,0.7637340426445007,-0.8836493492126465
1726940892334101200,4.704101318359375,0.4608336091041565,0.6848012208938599,-0.905297040939331
1726940892344087000,4.714087158203125,0.3417767286300659,0.6796935200691223,-0.8869835734367371
1726940892354073000,4.724072998046875,0.17816036939620972,0.6494426727294922,-0.760094165802002
1726940892364059100,4.73405908203125,0.01054126862436533,0.6868584752082825,-0.6357232332229614
1726940892374044200,4.744044189453125,-0.08802193403244019,0.7579919695854187,-0.5263970494270325
1726940892384030200,4.7540302734375,-0.10215852409601212,0.7836834788322449,-0.46451371908187866
1726940892394016000,4.76401611328125,-0.0821513757109642,0.779004693031311,-0.4679160416126251
1726940892404002300,4.774002197265625,-0.0790858119726181,0.7215954661369324,-0.5315322875976562
1726940892413988000,4.783988037109375,-0.09340350329875946,0.6769832372665405,-0.6358968615531921
1726940892423974100,4.79397412109375,-0.11443182826042175,0.6570299863815308,-0.7872637510299683
1726940892433960200,4.803960205078125,-0.13747638463974,0.6968123316764832,-0.9828934669494629
1726940892443946200,4.8139462890625,-0.16560575366020203,0.7248008251190186,-1.1841275691986084
1726940892453932000,4.82393212890625,-0.20540550351142883,0.7189938426017761,-1.3343182802200317
1726940892463917600,4.83391748046875,-0.2606322765350342,0.7019690275192261,-1.4622554779052734
1726940892473903600,4.843903564453125,-0.2989036738872528,0.6090874671936035,-1.5230021476745605
1726940892483889700,4.8538896484375,-0.2962053716182709,0.42998185753822327,-1.5123742818832397
1726940892493875500,4.86387548828125,-0.27492740750312805,0.15837247669696808,-1.436169147491455
1726940892503861800,4.87386181640625,-0.22967229783535004,-0.16203109920024872,-1.2917622327804565
1726940892513847600,4.88384765625,-0.15954816341400146,-0.31597185134887695,-1.1317009925842285
1726940892523833600,4.89383349609375,-0.07298558205366135,-0.31649571657180786,-0.9902898073196411
1726940892533819600,4.903819580078125,-0.0024449110496789217,-0.2896873652935028,-0.9209631085395813
1726940892543805700,4.9138056640625,0.008452476933598518,-0.25640133023262024,-0.9091037511825562
1726940892553790500,4.92379052734375,0.0012470633955672383,-0.36409470438957214,-0.9059066772460938
1726940892563776500,4.933776611328125,-0.06072203069925308,-0.5066710114479065,-0.8493025302886963
1726940892573762600,4.943762451171875,-0.1640077382326126,-0.6316538453102112,-0.7075455784797668
1726940892583748600,4.95374853515625,-0.22586870193481445,-0.7127982378005981,-0.5039479732513428
1726940892593734400,4.963734375,-0.1810046285390854,-0.6552512049674988,-0.3068663477897644
1726940892603720700,4.973720703125,-0.09255784749984741,-0.36272934079170227,-0.20837469398975372
1726940892613706500,4.98370654296875,0.03195997700095177,-0.004730445332825184,-0.17612037062644958
1726940892623692500,4.993692626953125,0.2023167908191681,0.07493428885936737,-0.14390331506729126
1726940892633678600,5.0036787109375,0.40859541296958923,-0.03228188678622246,-0.09666036814451218
1726940892643663600,5.01366357421875,0.41356247663497925,-0.19441699981689453,-0.030079210177063942
1726940892653649700,5.023649658203125,0.40605756640434265,-0.34872448444366455,0.0829891785979271
1726940892663635500,5.033635498046875,0.4117940068244934,-0.3136466443538666,0.12970209121704102
1726940892673621800,5.043621826171875,0.45064419507980347,-0.10600107163190842,0.1222507655620575
1726940892683607600,5.053607666015625,0.4989326298236847,0.11326176673173904,0.08221732825040817
1726940892693593600,5.063593505859375,0.5082830786705017,0.21217891573905945,0.0349147729575634
1726940892703579600,5.07357958984375,0.4821510910987854,0.25916239619255066,-0.05882902815937996
1726940892713565700,5.083565673828125,0.4324042499065399,0.323194295167923,-0.16924884915351868
1726940892723551500,5.093551513671875,0.395192950963974,0.35291942954063416,-0.19087612628936768
1726940892733536500,5.10353662109375,0.38522976636886597,0.3806092441082001,-0.11867382377386093
1726940892743522600,5.1135224609375,0.4015807509422302,0.42308375239372253,-0.030946101993322372
1726940892753508600,5.123508544921875,0.41304290294647217,0.445551335811615,0.0008548672776669264
1726940892763494400,5.133494384765625,0.4091903865337372,0.4232609272003174,0.017046619206666946
1726940892773480700,5.143480712890625,0.4002034664154053,0.3805510997772217,0.027013728395104408
1726940892783466500,5.153466552734375,0.3842684328556061,0.35757869482040405,0.041990015655756
1726940892793452500,5.16345263671875,0.3621799349784851,0.3451039493083954,0.07491274178028107
1726940892803438600,5.1734384765625,0.35773858428001404,0.3544047772884369,0.13881103694438934
1726940892813424600,5.183424560546875,0.35678938031196594,0.402508020401001,0.18987734615802765
1726940892823409700,5.19340966796875,0.3265475928783417,0.4698156714439392,0.21857531368732452
1726940892833395500,5.2033955078125,0.2595272958278656,0.5299605131149292,0.26024991273880005
1726940892843381800,5.2133818359375,0.2047673612833023,0.5785936117172241,0.3148881196975708
1726940892853367600,5.223367431640625,0.18971741199493408,0.6330764293670654,0.34725695848464966
1726940892863353600,5.233353515625,0.19449591636657715,0.6948822736740112,0.33692681789398193
1726940892873339600,5.243339599609375,0.2088278979063034,0.7214277386665344,0.30705955624580383
1726940892883325700,5.25332568359375,0.20963376760482788,0.722432553768158,0.28507542610168457
1726940892893311500,5.2633115234375,0.20292778313159943,0.7268996834754944,0.255943238735199
1726940892903297500,5.273297607421875,0.20675288140773773,0.768692672252655,0.2112007737159729
1726940892913283600,5.28328369140625,0.22438830137252808,0.6795619130134583,0.22865255177021027
1726940892923268600,5.2932685546875,0.24190790951251984,0.5228977203369141,0.3165946304798126
1726940892933254400,5.30325439453125,0.2667243182659149,0.4679197371006012,0.3983471095561981
1726940892943240700,5.31324072265625,0.26983168721199036,0.44498273730278015,0.470235139131546
1726940892953226500,5.3232265625,0.23229321837425232,0.4087301194667816,0.5616275668144226
1726940892963212500,5.333212646484375,0.14329063892364502,0.40272098779678345,0.660900890827179
1726940892973198600,5.343198486328125,0.07747606933116913,0.41992634534835815,0.7121312022209167
1726940892983184600,5.3531845703125,0.06498211622238159,0.49601632356643677,0.6584274768829346
1726940892993170400,5.36317041015625,0.07149194180965424,0.5623034238815308,0.5398364067077637
1726940893003156700,5.37315673828125,0.04214896261692047,0.40954315662384033,0.4747588634490967
1726940893013141800,5.383141845703125,-0.08715001493692398,0.26844707131385803,0.47029414772987366
1726940893023127600,5.39312744140625,-0.23921571671962738,0.21555562317371368,0.4757879972457886
1726940893033113600,5.403113525390625,-0.34920015931129456,0.21623818576335907,0.4837062358856201
1726940893043099600,5.413099609375,-0.43976229429244995,0.14408515393733978,0.5019108057022095
1726940893053085400,5.42308544921875,-0.5680853724479675,-0.003220407525077462,0.5659762024879456
1726940893063071500,5.433071533203125,-0.7027502059936523,-0.1140369325876236,0.6704509258270264
1726940893073057500,5.4430576171875,-0.8262498378753662,-0.22197622060775757,0.7073913216590881
1726940893083043600,5.453043701171875,-0.8792826533317566,-0.2606338560581207,0.7051396369934082
1726940893093028600,5.463028564453125,-0.833917498588562,-0.32168325781822205,0.6797512173652649
1726940893103014400,5.473014404296875,-0.7733127474784851,-0.390023410320282,0.7050927877426147
1726940893113000700,5.483000732421875,-0.7514811158180237,-0.42643943428993225,0.7563661932945251
1726940893122986500,5.492986572265625,-0.7689818143844604,-0.4256330132484436,0.7548937797546387
1726940893132972500,5.50297265625,-0.812299370765686,-0.5009627938270569,0.7677190899848938
1726940893142958600,5.51295849609375,-0.830302357673645,-0.5330922603607178,0.732066810131073
1726940893152944600,5.522944580078125,-0.8378157019615173,-0.4986472427845001,0.6760842800140381
1726940893162930400,5.532930419921875,-0.8168011903762817,-0.5112581253051758,0.5887892842292786
1726940893172916700,5.542916748046875,-0.795691192150116,-0.5216584205627441,0.500277042388916
1726940893182902500,5.552902587890625,-0.7685943245887756,-0.5890167355537415,0.4721551239490509
1726940893192887600,5.562887451171875,-0.7545676231384277,-0.7117741107940674,0.5214697122573853
1726940893202873300,5.572873291015625,-0.7252305150032043,-0.6884493231773376,0.6302728652954102
1726940893212859600,5.582859619140625,-0.6926659941673279,-0.6412984728813171,0.7816413640975952
1726940893222845400,5.592845458984375,-0.625116229057312,-0.49215295910835266,0.8736133575439453
1726940893232831500,5.60283154296875,-0.5035537481307983,-0.3796476423740387,0.9935122132301331
1726940893242817500,5.612817626953125,-0.4221002161502838,-0.4015507996082306,1.0383899211883545
1726940893252803600,5.622803466796875,-0.3629060387611389,-0.49278387427330017,0.9389875531196594
1726940893262789400,5.632789306640625,-0.3101552128791809,-0.6365103721618652,0.7162008285522461
1726940893272775700,5.642775634765625,-0.24477724730968475,-0.7411973476409912,0.5263432860374451
1726940893282760700,5.6527607421875,-0.17837052047252655,-0.6898694634437561,0.41670122742652893
1726940893292746500,5.66274658203125,-0.11239904910326004,-0.5884825587272644,0.3537167012691498
1726940893302732500,5.672732666015625,-0.06699614971876144,-0.543167233467102,0.3208410441875458
1726940893312718600,5.682718505859375,-0.04662582650780678,-0.5829173922538757,0.2297336459159851
1726940893322704600,5.69270458984375,-0.03454466164112091,-0.6382379531860352,0.11831843852996826
1726940893332690400,5.7026904296875,-0.024082539603114128,-0.6037968397140503,0.04700474441051483
1726940893342676700,5.7126767578125,-0.04260961711406708,-0.5972342491149902,0.013336528092622757
1726940893352662500,5.72266259765625,-0.07732034474611282,-0.5517512559890747,0.015156966634094715
1726940893362648600,5.732648681640625,-0.14080238342285156,-0.5235270857810974,0.015739133581519127
1726940893372633600,5.742633544921875,-0.2069118320941925,-0.48120877146720886,0.020640257745981216
1726940893382619600,5.75261962890625,-0.2104029655456543,-0.46494218707084656,-0.020150847733020782
1726940893392605400,5.76260546875,-0.19769610464572906,-0.4860496520996094,-0.08285081386566162
1726940893402591500,5.772591552734375,-0.21751216053962708,-0.48634791374206543,-0.13494810461997986
1726940893412577500,5.78257763671875,-0.28020942211151123,-0.4719583988189697,-0.17848609387874603
1726940893422563600,5.7925634765625,-0.37732747197151184,-0.46631091833114624,-0.23304760456085205
1726940893432549400,5.80254931640625,-0.5069586634635925,-0.4642255902290344,-0.2706359326839447
1726940893442535700,5.81253564453125,-0.6248128414154053,-0.43858256936073303,-0.30364927649497986
1726940893452521500,5.822521484375,-0.7213916778564453,-0.3711167275905609,-0.3483348488807678
1726940893462505700,5.832505615234375,-0.7782486081123352,-0.2806185185909271,-0.3913949728012085
1726940893472491800,5.84249169921875,-0.8063411116600037,-0.17742833495140076,-0.3945457637310028
1726940893482477800,5.852477783203125,-0.8069025278091431,-0.06228151172399521,-0.38267260789871216
1726940893492463900,5.8624638671875,-0.8124385476112366,-0.02390359528362751,-0.4283781349658966
1726940893502449700,5.87244970703125,-0.8447898030281067,0.0644393190741539,-0.5091521143913269
1726940893512436000,5.88243603515625,-0.8990224599838257,0.1441713273525238,-0.6011444330215454
1726940893522421800,5.892421875,-0.9369294047355652,0.3617720901966095,-0.5576704740524292
1726940893532407800,5.90240771484375,-0.9685889482498169,0.34633147716522217,-0.5148810148239136
1726940893542393900,5.912393798828125,-0.9737693071365356,0.1603405773639679,-0.5233192443847656
1726940893552379000,5.92237890625,-0.9289868474006653,0.09233959019184113,-0.46370965242385864
1726940893562365000,5.932364990234375,-0.8333500623703003,0.11969850957393646,-0.3606719672679901
1726940893572350700,5.942350830078125,-0.7137914896011353,0.1592099517583847,-0.28427910804748535
1726940893582337000,5.9523369140625,-0.6088930368423462,0.13483509421348572,-0.2562544047832489
1726940893592322800,5.96232275390625,-0.5536624789237976,0.08174380660057068,-0.27307894825935364
1726940893602308900,5.972308837890625,-0.5476346611976624,0.059682443737983704,-0.30476123094558716
1726940893612295000,5.982294921875,-0.5651379823684692,0.044902216643095016,-0.34546005725860596
1726940893622281000,5.992281005859375,-0.562162458896637,0.02746996469795704,-0.3982737362384796
1726940893632266800,6.002266845703125,-0.5220344662666321,0.11111338436603546,-0.4448140263557434
1726940893642251800,6.012251708984375,-0.45040586590766907,0.21103492379188538,-0.4667331874370575
1726940893652237800,6.02223779296875,-0.3650543689727783,0.2740201950073242,-0.420166939496994
1726940893662224000,6.032223876953125,-0.2765974998474121,0.26580914855003357,-0.3407270014286041
1726940893672209700,6.042209716796875,-0.20268665254116058,0.23335951566696167,-0.24704325199127197
1726940893682196000,6.052196044921875,-0.1684115082025528,0.16963565349578857,-0.17205797135829926
1726940893692181800,6.062181640625,-0.18413248658180237,0.10904465615749359,-0.12256830930709839
1726940893702167800,6.072167724609375,-0.21008579432964325,0.07733013480901718,-0.11862975358963013
1726940893712153900,6.08215380859375,-0.23010537028312683,0.08305737376213074,-0.12489096820354462
1726940893722140000,6.092139892578125,-0.24130049347877502,0.13183583319187164,-0.1361106038093567
1726940893732125000,6.102125,-0.21655303239822388,0.18911729753017426,-0.11496809870004654
1726940893742110700,6.11211083984375,-0.17826956510543823,0.23415854573249817,-0.10855201631784439
1726940893752096800,6.1220966796875,-0.17230281233787537,0.22862893342971802,-0.1454121470451355
1726940893762082800,6.132082763671875,-0.18942295014858246,0.2336961328983307,-0.17493806779384613
1726940893772068900,6.14206884765625,-0.1941690295934677,0.23205919563770294,-0.19345302879810333
1726940893782055000,6.152054931640625,-0.17310981452465057,0.19834837317466736,-0.20782184600830078
1726940893792040700,6.162040771484375,-0.11928015202283859,0.16737604141235352,-0.21613922715187073
1726940893802026800,6.17202685546875,-0.02069472149014473,0.15603363513946533,-0.2150779515504837
1726940893812012800,6.1820126953125,0.12192949652671814,0.1735966056585312,-0.2124405950307846
1726940893821997800,6.191997802734375,0.28980451822280884,0.24164357781410217,-0.21269918978214264
1726940893831983900,6.20198388671875,0.45906925201416016,0.3299085199832916,-0.244923934340477
1726940893841969700,6.2119697265625,0.6188024282455444,0.38951751589775085,-0.282267302274704
1726940893851956000,6.2219560546875,0.7439188957214355,0.3949705958366394,-0.32732686400413513
1726940893861941800,6.231941650390625,0.7402437329292297,0.36391305923461914,-0.3946489095687866
1726940893871927800,6.241927734375,0.7003544569015503,0.3204197287559509,-0.4453921318054199
1726940893881913900,6.251913818359375,0.6115663051605225,0.23686732351779938,-0.41870567202568054
1726940893891900000,6.26189990234375,0.5257948040962219,0.12343137711286545,-0.3174687922000885
1726940893901885700,6.2718857421875,0.5620800852775574,0.08913278579711914,-0.16951583325862885
1726940893911870700,6.28187060546875,0.6973816156387329,0.2025505006313324,-0.10525678098201752
1726940893921856800,6.291856689453125,0.8896682262420654,0.30260464549064636,-0.07732634246349335
1726940893931842800,6.3018427734375,1.0858603715896606,0.32420259714126587,-0.06238438934087753
1726940893941828600,6.31182861328125,1.257922887802124,0.30945318937301636,-0.01585603877902031
1726940893951815000,6.32181494140625,1.3591907024383545,0.3289735019207001,-0.07054281234741211
1726940893961800700,6.33180078125,1.3945926427841187,0.22814753651618958,-0.1732225865125656
1726940893971786800,6.341786865234375,1.3482251167297363,0.12581247091293335,-0.2788989841938019
1726940893981772800,6.351772705078125,1.228481411933899,0.07303500920534134,-0.3619648516178131
1726940893991758800,6.3617587890625,1.058945894241333,0.040883682668209076,-0.39818689227104187
1726940894001744600,6.37174462890625,0.8915736675262451,0.07772691547870636,-0.38451769948005676
1726940894011729700,6.381729736328125,0.7641031742095947,0.23590166866779327,-0.35891208052635193
1726940894021716000,6.391716064453125,0.6729370355606079,0.43677327036857605,-0.3561836779117584
1726940894031701800,6.40170166015625,0.5990924835205078,0.6000561118125916,-0.41373351216316223
1726940894041687800,6.411687744140625,0.506272554397583,0.8488233089447021,-0.609779417514801
1726940894051673900,6.421673828125,0.37484702467918396,1.0848501920700073,-0.8512811660766602
1726940894061660000,6.431659912109375,0.20478768646717072,1.1697187423706055,-1.0483002662658691
1726940894071645700,6.441645751953125,-0.0016421608161181211,1.0620603561401367,-1.160805106163025
1726940894081632000,6.451632080078125,-0.195295512676239,0.8962047696113586,-1.2359315156936646
1726940894091617800,6.46161767578125,-0.3017052114009857,0.8614802956581116,-1.339470386505127
1726940894101602800,6.471602783203125,-0.3117738366127014,0.9930726885795593,-1.4850554466247559
1726940894111588600,6.481588623046875,-0.2951009273529053,1.1630231142044067,-1.5961257219314575
1726940894121575000,6.491574951171875,-0.31390923261642456,1.3780015707015991,-1.6255970001220703
1726940894131560700,6.501560791015625,-0.3572115898132324,1.5828241109848022,-1.5850825309753418
1726940894141546800,6.511546630859375,-0.3697015345096588,1.6677683591842651,-1.510801911354065
1726940894151532800,6.52153271484375,-0.3730153441429138,1.3869913816452026,-1.4075487852096558
1726940894161518800,6.531518798828125,-0.35180938243865967,0.8190087080001831,-1.3217973709106445
1726940894171504600,6.541504638671875,-0.3156961500644684,0.15922756493091583,-1.2468507289886475
1726940894181491000,6.551490966796875,-0.2383880317211151,-0.43582701683044434,-1.147645115852356
1726940894191476000,6.56147607421875,-0.12267197668552399,-0.9086766242980957,-1.0139014720916748
1726940894201461800,6.571461669921875,-0.034502699971199036,-1.244017243385315,-0.8480137586593628
1726940894211447800,6.58144775390625,0.0279316995292902,-1.3949075937271118,-0.7056304216384888
1726940894221433900,6.591433837890625,0.034476153552532196,-1.3862416744232178,-0.6227006912231445
1726940894231420000,6.601419921875,-0.034875523298978806,-1.4703351259231567,-0.6190509796142578
1726940894241405700,6.61140576171875,-0.1811283379793167,-1.6823331117630005,-0.6406912803649902
1726940894251392000,6.62139208984375,-0.3270270824432373,-1.9346457719802856,-0.6329654455184937
1726940894261377800,6.631377685546875,-0.35807475447654724,-2.126932144165039,-0.6860076189041138
1726940894271363800,6.64136376953125,-0.3398861885070801,-2.049896001815796,-0.7086570858955383
1726940894281348900,6.651348876953125,-0.38583582639694214,-1.725784420967102,-0.6750500798225403
1726940894291335000,6.6613349609375,-0.43983426690101624,-1.0973925590515137,-0.6350860595703125
1726940894301320700,6.67132080078125,-0.39470088481903076,-0.20032165944576263,-0.5385595560073853
1726940894311306800,6.681306640625,-0.2231883853673935,0.4720439016819,-0.3356184959411621
1726940894321292800,6.691292724609375,-0.0482216477394104,0.6505652070045471,-0.12944534420967102
1726940894331278800,6.70127880859375,0.051502350717782974,0.750529944896698,-0.023494571447372437
1726940894341264600,6.7112646484375,0.15185105800628662,0.8979542851448059,-0.0140675138682127
1726940894351251000,6.7212509765625,0.20557545125484467,1.0070611238479614,-0.05678911879658699
1726940894361236700,6.73123681640625,0.220417782664299,0.8704532980918884,-0.05138609558343887
1726940894371221800,6.7412216796875,0.22305378317832947,0.5917505621910095,-0.021900376304984093
1726940894381208000,6.7512080078125,0.23510697484016418,0.4557133615016937,-0.0028036481235176325
1726940894391193900,6.76119384765625,0.20074443519115448,0.37284818291664124,0.015603595413267612
1726940894401180000,6.771179931640625,0.15319690108299255,0.30128106474876404,0.09449175745248795
1726940894411165700,6.781165771484375,0.10854923725128174,0.3097418546676636,0.22518672049045563
1726940894421152000,6.791152099609375,0.07101357728242874,0.3520464301109314,0.4065653085708618
1726940894431137800,6.8011376953125,0.028754595667123795,0.4184519648551941,0.601978600025177
1726940894441123800,6.811123779296875,-0.01802915520966053,0.42947372794151306,0.7789738774299622
1726940894451110000,6.82110986328125,-0.1066136434674263,0.4072865843772888,0.909799337387085
1726940894461096000,6.831095947265625,-0.2414603978395462,0.33606672286987305,1.0152435302734375
1726940894471081000,6.8410810546875,-0.3747968375682831,0.21339017152786255,1.1114524602890015
1726940894481067000,6.85106689453125,-0.47750645875930786,0.17618128657341003,1.2033016681671143
1726940894491052800,6.861052734375,-0.5371473431587219,0.19572076201438904,1.2662615776062012
1726940894501039000,6.8710390625,-0.5644341111183167,0.233380526304245,1.2802900075912476
1726940894511025000,6.88102490234375,-0.6067507863044739,0.4733356237411499,1.379839539527893
1726940894521011000,6.891010986328125,-0.6818239688873291,0.9825841784477234,1.4075161218643188
1726940894530997000,6.9009970703125,-0.7060345411300659,1.331763505935669,1.270723581314087
1726940894540983000,6.910983154296875,-0.7574630975723267,1.0645067691802979,1.099694013595581
1726940894550968800,6.92096875,-0.9237969517707825,0.6293211579322815,0.9488369226455688
1726940894560953900,6.930953857421875,-1.0030155181884766,0.4698715806007385,0.7835009694099426
1726940894570940000,6.94093994140625,-0.9248077273368835,0.5742870569229126,0.7289292812347412
1726940894580926000,6.950926025390625,-0.7354798316955566,0.7942913174629211,0.8508943915367126
1726940894590911700,6.960911865234375,-0.5229132175445557,0.945225179195404,0.9451443552970886
1726940894600898000,6.97089794921875,-0.41581475734710693,0.45509597659111023,0.9664422273635864
1726940894610883800,6.9808837890625,-0.4768477976322174,-0.012010655365884304,0.9024708271026611
1726940894620870000,6.990869873046875,-0.6151473522186279,-0.461551696062088,0.8769710659980774
1726940894630856000,7.00085595703125,-0.6728211045265198,-0.7826606035232544,0.9321128129959106
1726940894640842000,7.010842041015625,-0.6294573545455933,-0.8280970454216003,1.0494037866592407
1726940894650827000,7.020826904296875,-0.5163907408714294,-0.7790725231170654,1.1627707481384277
1726940894660812800,7.030812744140625,-0.34120669960975647,-0.755268931388855,1.2164555788040161
1726940894670799000,7.040799072265625,-0.12867701053619385,-0.9019604325294495,1.142574429512024
1726940894680785000,7.050784912109375,0.0566859170794487,-1.032889723777771,1.1168304681777954
1726940894690771000,7.06077099609375,0.20037266612052917,-1.1774073839187622,1.069523811340332
1726940894700757000,7.070757080078125,0.2854774594306946,-1.3167277574539185,0.9949132204055786
1726940894710743000,7.080742919921875,0.2729145288467407,-1.2326775789260864,0.8360216617584229
1726940894720728800,7.090728759765625,0.23975390195846558,-1.0616205930709839,0.6314736008644104
1726940894730715100,7.100715087890625,0.23893852531909943,-0.8680794835090637,0.4807659983634949
1726940894740701000,7.110700927734375,0.29238390922546387,-0.679015576839447,0.4226270616054535
1726940894750686000,7.12068603515625,0.3444801867008209,-0.5675536394119263,0.40577787160873413
1726940894760671700,7.130671630859375,0.36904120445251465,-0.5338345170021057,0.4138307571411133
1726940894770658000,7.140657958984375,0.356742262840271,-0.48323512077331543,0.439019113779068
1726940894780643800,7.150643798828125,0.3081395626068115,-0.28829893469810486,0.5000576972961426
1726940894790630000,7.1606298828125,0.1830998957157135,-0.14137955009937286,0.5542066097259521
1726940894800616000,7.170615966796875,-0.05435580760240555,0.024928199127316475,0.6354953646659851
1726940894810602000,7.18060205078125,-0.33392828702926636,0.3065842390060425,0.6681233644485474
1726940894820587800,7.190587890625,-0.5438029170036316,0.6899811625480652,0.610994815826416
1726940894830574000,7.200573974609375,-0.6593207120895386,1.0160120725631714,0.36418354511260986
1726940894840559000,7.21055908203125,-0.6314526200294495,1.0037745237350464,0.06653881072998047
1726940894850545000,7.220544921875,-0.564782440662384,0.6385340690612793,-0.16170868277549744
1726940894860531000,7.230531005859375,-0.42786934971809387,0.3308846354484558,-0.1718641221523285
1726940894870517000,7.24051708984375,-0.2859790325164795,0.1719454973936081,0.003377006622031331
1726940894880503000,7.2505029296875,-0.22180216014385223,0.05053038150072098,0.15800653398036957
1726940894890488800,7.26048876953125,-0.22522218525409698,-0.08807948976755142,0.21982620656490326
1726940894900475100,7.27047509765625,-0.24239905178546906,-0.244131401181221,0.18462294340133667
1726940894910461000,7.2804609375,-0.22776030004024506,-0.44397369027137756,0.05077250301837921
1726940894920447000,7.290447021484375,-0.09811816364526749,-0.614794135093689,-0.045843783766031265
1726940894930433000,7.30043310546875,0.09051068127155304,-0.6594758033752441,-0.10331841558218002
1726940894940418000,7.31041796875,0.28674888610839844,-0.6149719953536987,-0.11516202986240387
1726940894950403800,7.32040380859375,0.4458363652229309,-0.4674299359321594,-0.11989475041627884
1726940894960390000,7.330389892578125,0.5776354074478149,-0.2822185456752777,-0.1631346195936203
1726940894970376000,7.3403759765625,0.652439296245575,-0.2059878259897232,-0.2872334420681
1726940894980362000,7.350362060546875,0.7262365221977234,-0.2052871435880661,-0.39187997579574585
1726940894990347800,7.36034765625,0.798496425151825,-0.18125273287296295,-0.4132455289363861
1726940895000334000,7.370333984375,0.8520440459251404,-0.22158710658550262,-0.35374677181243896
1726940895010320000,7.38031982421875,0.8426628708839417,-0.28844380378723145,-0.28139641880989075
1726940895020306000,7.390305908203125,0.7735741138458252,-0.3543703556060791,-0.24131426215171814
1726940895030291000,7.400291015625,0.6837316751480103,-0.3442282974720001,-0.2577410936355591
1726940895040277000,7.410277099609375,0.6107826232910156,-0.2771848142147064,-0.3451569378376007
1726940895050263000,7.420262939453125,0.5941141247749329,-0.15284347534179688,-0.45480605959892273
1726940895060248800,7.430248779296875,0.5662244558334351,-0.07856924831867218,-0.4752439558506012
1726940895070235100,7.440235107421875,0.49685612320899963,-0.0042692506685853004,-0.41377225518226624
1726940895080221000,7.450220947265625,0.39368075132369995,0.12060051411390305,-0.35991033911705017
1726940895090207000,7.46020703125,0.30386102199554443,0.3000100255012512,-0.3305048644542694
1726940895100193000,7.470193115234375,0.22568629682064056,0.4581865966320038,-0.329635888338089
1726940895110179000,7.480178955078125,0.1667383760213852,0.5808039903640747,-0.3771960437297821
1726940895120163800,7.490163818359375,0.16414126753807068,0.7047411203384399,-0.411388099193573
1726940895130150000,7.50014990234375,0.19138862192630768,0.819191575050354,-0.37674152851104736
1726940895140136000,7.510135986328125,0.22734741866588593,0.8658653497695923,-0.31451597809791565
1726940895150122000,7.5201220703125,0.3298014998435974,0.8838039040565491,-0.2609184682369232
1726940895160107800,7.530107666015625,0.4660125970840454,0.8691282868385315,-0.21969275176525116
1726940895170094000,7.540093994140625,0.5899295806884766,0.8029353618621826,-0.23500362038612366
1726940895180079900,7.550079833984375,0.7062332630157471,0.7855803370475769,-0.32785794138908386
1726940895190066000,7.56006591796875,0.7609607577323914,0.7668471932411194,-0.4283374845981598
1726940895200052000,7.570052001953125,0.7429423332214355,0.7520639896392822,-0.4691770672798157
1726940895210038000,7.5800380859375,0.6863835453987122,0.8185899257659912,-0.518852174282074
1726940895220023000,7.59002294921875,0.6373539566993713,0.9956062436103821,-0.6115903854370117
1726940895230008800,7.6000087890625,0.6693911552429199,1.0240167379379272,-0.7138790488243103
1726940895239995000,7.609994873046875,0.7586073279380798,1.0917123556137085,-0.8364939093589783
1726940895249981000,7.61998095703125,0.8407835364341736,1.0979446172714233,-0.9347987771034241
1726940895259967000,7.629967041015625,0.8353434801101685,0.8939501643180847,-0.9588063955307007
1726940895269953000,7.639953125,0.7191935181617737,0.582221508026123,-0.9795961976051331
1726940895279938800,7.649938720703125,0.5649603009223938,0.4225037693977356,-1.0438721179962158
1726940895289924900,7.6599248046875,0.4510694444179535,0.3023422956466675,-1.1126772165298462
1726940895299911000,7.669910888671875,0.38748806715011597,0.22215504944324493,-1.219016432762146
1726940895309896000,7.67989599609375,0.3674675524234772,0.07367544621229172,-1.3713477849960327
1726940895319882000,7.689882080078125,0.3225030303001404,-0.1800937056541443,-1.4681755304336548
1726940895329867800,7.69986767578125,0.20318983495235443,-0.35826554894447327,-1.4943389892578125
1726940895339854000,7.70985400390625,0.04512243717908859,-0.3941652178764343,-1.4212874174118042
1726940895349840000,7.71983984375,-0.10385973006486893,-0.40896955132484436,-1.2774028778076172
1726940895359826000,7.729825927734375,-0.17291709780693054,-0.37595832347869873,-1.2069257497787476
1726940895369812000,7.73981201171875,-0.164410799741745,-0.5778518915176392,-1.2710682153701782
1726940895379798000,7.749798095703125,-0.160037100315094,-0.9020086526870728,-1.400173306465149
1726940895389783800,7.75978369140625,-0.25313442945480347,-1.1472468376159668,-1.499626636505127
1726940895399770000,7.76977001953125,-0.44328412413597107,-1.217034101486206,-1.3152728080749512
1726940895409755000,7.7797548828125,-0.5408447980880737,-1.3920074701309204,-0.9371057152748108
1726940895419741000,7.789740966796875,-0.4623188376426697,-1.605451226234436,-0.621404767036438
1726940895429726700,7.799726806640625,-0.1910734474658966,-1.7645319700241089,-0.3719366490840912
1726940895439713000,7.809713134765625,0.005814051255583763,-1.5965040922164917,-0.20269116759300232
1726940895449698800,7.81969873046875,0.023794693872332573,-1.239365816116333,-0.08215385675430298
1726940895459685000,7.82968505859375,-0.07035364210605621,-1.0010172128677368,0.00921440590173006
1726940895469671000,7.8396708984375,-0.09298708289861679,-0.787066638469696,0.06362154334783554
1726940895479657200,7.8496572265625,0.07930506020784378,-0.6668885350227356,0.11390309035778046
1726940895489643000,7.85964306640625,0.35850226879119873,-0.48079365491867065,0.15015971660614014
1726940895499628000,7.8696279296875,0.5171718001365662,-0.13955245912075043,0.11765635758638382
1726940895509614000,7.879614013671875,0.4137456715106964,0.16683541238307953,0.09425964951515198
1726940895519600000,7.88960009765625,0.20490244030952454,0.2956192195415497,0.1790027767419815
1726940895529586200,7.899586181640625,0.17294278740882874,0.23813623189926147,0.35649657249450684
1726940895539572000,7.909572021484375,0.23851940035820007,0.28795093297958374,0.49083733558654785
1726940895549558300,7.919558349609375,0.2791227698326111,0.3672087490558624,0.5418686866760254
1726940895559544000,7.9295439453125,0.31661689281463623,0.40718892216682434,0.5916469097137451
1726940895569530000,7.939530029296875,0.34404170513153076,0.4827035963535309,0.7093064785003662
1726940895579516200,7.94951611328125,0.3515281081199646,0.5933797955513,0.879968523979187
1726940895589502200,7.959502197265625,0.3474736213684082,0.6389710903167725,1.0223749876022339
1726940895599487000,7.969487060546875,0.3535762429237366,0.678006112575531,1.0817835330963135
1726940895609473000,7.97947314453125,0.37733200192451477,0.8003873229026794,1.02705979347229
1726940895619459000,7.989458984375,0.4113496243953705,0.9446994662284851,0.905647337436676
1726940895629445000,7.999445068359375,0.40305590629577637,0.9914435148239136,0.8214365839958191
1726940895639431000,8.009430908203125,0.3377128541469574,0.9501517415046692,0.8440673351287842
1726940895649417200,8.019417236328126,0.2520940601825714,0.8886417746543884,0.9526703357696533
1726940895659403000,8.029403076171874,0.1674870103597641,0.8043633699417114,1.0518512725830078
1726940895669389000,8.03938916015625,0.12001004070043564,0.7761101722717285,1.1214919090270996
1726940895679375000,8.049375,0.0861213207244873,0.7656705379486084,1.1786632537841797
1726940895689360100,8.059360107421876,-0.008299498818814754,0.6362582445144653,1.34806227684021
1726940895699346200,8.06934619140625,-0.11851654946804047,0.36806192994117737,1.5380268096923828
1726940895709332000,8.07933203125,-0.17722074687480927,0.10922795534133911,1.6592592000961304
1726940895719318300,8.089318359375,-0.13394756615161896,0.04777365177869797,1.7288004159927368
1726940895729304000,8.099303955078126,-0.1459183543920517,-0.4030146598815918,1.3672826290130615
1726940895739290000,8.1092900390625,-0.3060057461261749,-0.8712063431739807,0.9959218502044678
1726940895749276200,8.119276123046875,-0.5376508831977844,-1.2335877418518066,0.7411637902259827
1726940895759262200,8.12926220703125,-0.6831729412078857,-1.3161853551864624,0.6684991717338562
1726940895769248000,8.139248046875,-0.6677378416061401,-1.151850700378418,0.7564623951911926
1726940895779234000,8.149234130859375,-0.5707423090934753,-0.8581959009170532,0.8455267548561096
1726940895789219000,8.159218994140625,-0.4605545997619629,-0.5998417139053345,0.8915610909461975
1726940895799205000,8.169205078125,-0.37803176045417786,-0.5934993624687195,0.8527907729148865
1726940895809191000,8.17919091796875,-0.3561716079711914,-0.6343626379966736,0.7363617420196533
1726940895819177200,8.18917724609375,-0.4016152620315552,-0.48706480860710144,0.6091930866241455
1726940895829163000,8.1991630859375,-0.4881218373775482,-0.2168760448694229,0.5011405348777771
1726940895839149000,8.209149169921876,-0.5730574727058411,-0.030292050912976265,0.37555333971977234
1726940895849135000,8.219135009765624,-0.5998413562774658,-0.014974917285144329,0.24591825902462006
1726940895859121200,8.22912109375,-0.6409299373626709,-0.09172189235687256,0.1476377695798874
1726940895869107000,8.23910693359375,-0.7386685013771057,-0.13697873055934906,0.11100106686353683
1726940895879092000,8.249092041015626,-0.8136612772941589,-0.12642809748649597,0.10254766047000885
1726940895889078000,8.259078125,-0.8246616125106812,-0.12571696937084198,0.0971626415848732
1726940895899064000,8.26906396484375,-0.7797404527664185,-0.19403210282325745,0.14260949194431305
1726940895909050000,8.279050048828125,-0.7031558752059937,-0.18879945576190948,0.20395293831825256
1726940895919036200,8.2890361328125,-0.6586923003196716,-0.1276831030845642,0.253827303647995
1726940895929022000,8.29902197265625,-0.6939378976821899,-0.06349082291126251,0.29195675253868103
1726940895939008000,8.309008056640625,-0.7418846487998962,-0.03248737007379532,0.2865561246871948
1726940895948994000,8.318994140625,-0.7628646492958069,-0.03138512745499611,0.2793641686439514
1726940895958980000,8.32897998046875,-0.7315037846565247,-0.038269661366939545,0.2606362998485565
1726940895968966000,8.3389658203125,-0.6968631148338318,-0.02341259829699993,0.17915070056915283
1726940895978951000,8.348950927734375,-0.7256491780281067,-0.00456886924803257,0.08756913244724274
1726940895988937200,8.358937255859376,-0.72588050365448,-0.01182040385901928,0.07886376231908798
1726940895998923000,8.368923095703124,-0.6784852743148804,-0.06284923106431961,0.13256853818893433
1726940896008909000,8.378908935546875,-0.5884771347045898,-0.1772034466266632,0.18090517818927765
1726940896018895000,8.38889501953125,-0.4734767973423004,-0.1717309206724167,0.26543179154396057
1726940896028881200,8.398881103515626,-0.3619144558906555,-0.10421353578567505,0.3335830569267273
1726940896038867000,8.408866943359374,-0.28436028957366943,-0.08142726868391037,0.31697478890419006
1726940896048853200,8.418853271484375,-0.24573414027690887,-0.04106942191720009,0.22976019978523254
1726940896058839000,8.428839111328125,-0.203492671251297,0.0062078144401311874,0.15388886630535126
1726940896068824000,8.438823974609376,-0.17065295577049255,0.08462144434452057,0.15661181509494781
1726940896078809900,8.448809814453124,-0.1886412799358368,0.17053529620170593,0.25172075629234314
1726940896088796200,8.458796142578125,-0.25067445635795593,0.20249441266059875,0.32302653789520264
1726940896098782000,8.468781982421875,-0.29743531346321106,0.23903298377990723,0.2702288329601288
1726940896108768000,8.47876806640625,-0.26374125480651855,0.23491890728473663,0.08984248340129852
1726940896118754000,8.488754150390625,-0.1589142084121704,0.19844399392604828,-0.07215707004070282
1726940896128740000,8.498739990234375,-0.04796433821320534,0.247354656457901,-0.106633260846138
1726940896138726000,8.508725830078125,0.07333651930093765,0.2745518982410431,-0.03860015049576759
1726940896148712200,8.518712158203124,0.2044735550880432,0.2944740951061249,-0.019461220130324364
1726940896158698000,8.528697998046875,0.3202499449253082,0.24324394762516022,-0.13247859477996826
1726940896168683000,8.53868310546875,0.4152945280075073,0.042621973901987076,-0.30159592628479004
1726940896178669000,8.5486689453125,0.4315222203731537,-0.18174774944782257,-0.39890599250793457
1726940896188655000,8.558655029296874,0.47398170828819275,-0.2213464379310608,-0.36539193987846375
1726940896198641200,8.56864111328125,0.590937614440918,-0.16748559474945068,-0.24181832373142242
1726940896208627000,8.578626953125,0.7536479830741882,-0.21340814232826233,-0.1165633276104927
1726940896218613200,8.58861328125,0.8614417910575867,-0.3619057536125183,-0.0427362397313118
1726940896228599000,8.59859912109375,0.8888987302780151,-0.5318406224250793,-0.12604019045829773
1726940896238585000,8.608585205078125,0.8859404921531677,-0.596337616443634,-0.22803206741809845
1726940896248571100,8.618571044921875,0.8657954931259155,-0.44993677735328674,-0.2637106478214264
1726940896258557200,8.62855712890625,0.8862959742546082,-0.22192490100860596,-0.26611945033073425
1726940896268542000,8.6385419921875,0.9229263663291931,0.08798162639141083,-0.26936277747154236
1726940896278528000,8.648528076171875,0.9820642471313477,0.2828592360019684,-0.34430891275405884
1726940896288514000,8.65851416015625,1.0025500059127808,0.3002491295337677,-0.4575919806957245
1726940896298500000,8.6685,0.9215792417526245,0.2535327672958374,-0.5131849646568298
1726940896308486000,8.67848583984375,0.778096616268158,0.33747774362564087,-0.5028639435768127
1726940896318472200,8.68847216796875,0.6652023196220398,0.48674288392066956,-0.5035433173179626
1726940896328458000,8.6984580078125,0.6174610257148743,0.6237146854400635,-0.5651090145111084
1726940896338444000,8.708444091796874,0.609775185585022,0.7392277121543884,-0.6690652370452881
1726940896348430000,8.71843017578125,0.57915198802948,0.702285885810852,-0.7464308142662048
1726940896358415000,8.7284150390625,0.48140573501586914,0.5636260509490967,-0.7282129526138306
1726940896368401200,8.738401123046875,0.29463738203048706,0.5592374205589294,-0.7235414385795593
1726940896378387000,8.748386962890624,0.11351443827152252,0.843558669090271,-0.8135781288146973
1726940896388373200,8.758373291015625,0.015028606168925762,1.2313175201416016,-1.0037171840667725
1726940896398359000,8.768359130859375,0.0830388143658638,1.4251559972763062,-1.1958160400390625
1726940896408345000,8.778344970703126,0.14643794298171997,1.4722343683242798,-1.3545706272125244
1726940896418331100,8.7883310546875,0.05151648446917534,1.2899783849716187,-1.3785358667373657
1726940896428317200,8.798317138671875,-0.16104260087013245,1.0760180950164795,-1.3620045185089111
1726940896438303000,8.808302978515625,-0.3339022397994995,1.027838110923767,-1.400701880455017
1726940896448289300,8.818289306640626,-0.4498006999492645,0.9784452319145203,-1.4323474168777466
1726940896458274000,8.828274169921874,-0.5258999466896057,0.79093337059021,-1.4573888778686523
1726940896468260900,8.8382607421875,-0.5103112459182739,0.4346413016319275,-1.4793875217437744
1726940896478246700,8.84824658203125,-0.46505939960479736,0.23445308208465576,-1.4341074228286743
1726940896488233000,8.85823291015625,-0.46632516384124756,0.06802311539649963,-1.2621287107467651
1726940896498218800,8.86821875,-0.4818117022514343,-0.15295852720737457,-1.09222412109375
1726940896508204800,8.878204833984375,-0.4390190839767456,-0.44974401593208313,-1.0647692680358887
1726940896518190800,8.88819091796875,-0.35098668932914734,-0.8254873156547546,-1.116551399230957
1726940896528177000,8.898177001953124,-0.27981171011924744,-1.3310010433197021,-1.1371755599975586
1726940896538162700,8.90816259765625,-0.29507535696029663,-1.8019776344299316,-1.1013078689575195
1726940896548148700,8.918148681640625,-0.363676518201828,-2.0755233764648438,-0.9645841121673584
1726940896558133800,8.9281337890625,-0.4801160395145416,-2.1598424911499023,-0.753166675567627
1726940896568119800,8.938119873046874,-0.570077657699585,-2.070704698562622,-0.6984753012657166
1726940896578105600,8.948105712890625,-0.5497470498085022,-1.842935562133789,-0.7199574112892151
1726940896588092000,8.958091796875,-0.4399248957633972,-1.5371586084365845,-0.7056160569190979
1726940896598077700,8.96807763671875,-0.2870892882347107,-1.1977523565292358,-0.659580409526825
1726940896608063700,8.978063720703124,-0.10723026096820831,-0.8116176128387451,-0.5495557188987732
1726940896618049800,8.9880498046875,0.0775076299905777,-0.35923099517822266,-0.4110178053379059
1726940896628035800,8.998035888671875,0.17974121868610382,-0.028030363842844963,-0.2840921878814697
1726940896638021600,9.008021728515626,0.14231900870800018,0.1084345355629921,-0.23096957802772522
1726940896648007700,9.018007568359375,0.022081149742007256,0.17764636874198914,-0.20270967483520508
1726940896657993000,9.027992919921875,-0.11255895346403122,0.28525644540786743,-0.10763722658157349
1726940896667978800,9.037978759765625,-0.06968959420919418,0.4213799834251404,0.07224467396736145
1726940896677964800,9.04796484375,0.09134563058614731,0.5441789031028748,0.23412251472473145
1726940896687950800,9.057950927734375,0.2178722769021988,0.6770806908607483,0.318901002407074
1726940896697937000,9.06793701171875,0.25645697116851807,0.7712351679801941,0.3803263008594513
1726940896707922700,9.077922607421876,0.24312064051628113,0.812035083770752,0.4376063644886017
1726940896717908700,9.08790869140625,0.21449591219425201,0.8580917716026306,0.5170961618423462
1726940896727894800,9.097894775390625,0.19906072318553925,0.9164208173751831,0.6002216935157776
1726940896737880800,9.107880859375,0.2165507674217224,0.9617816209793091,0.6833980679512024
1726940896747866600,9.11786669921875,0.279488742351532,1.021772861480713,0.7669389247894287
1726940896757852000,9.127851806640624,0.36226245760917664,1.093636393547058,0.8010904788970947
1726940896767837700,9.137837646484375,0.4391823709011078,1.207237958908081,0.8036627769470215
1726940896777823700,9.14782373046875,0.4502062499523163,1.2992573976516724,0.8246809840202332
1726940896787809800,9.157809814453126,0.34877094626426697,1.147384762763977,0.89605313539505
1726940896797795800,9.1677958984375,0.12715229392051697,0.8525112271308899,1.003065586090088
1726940896807781600,9.17778173828125,-0.1157069280743599,0.6047009825706482,1.0941792726516724
1726940896817768000,9.187767822265625,-0.293404757976532,0.5621194243431091,1.263236403465271
1726940896827753700,9.197753662109376,-0.36817795038223267,0.5630033016204834,1.4342759847640991
1726940896837739800,9.20773974609375,-0.36798566579818726,0.4864501953125,1.5410828590393066
1726940896847724800,9.217724853515625,-0.37744176387786865,0.2399410605430603,1.5789114236831665
1726940896857710800,9.2277109375,-0.4879158139228821,0.09421875327825546,1.5872607231140137
1726940896867696600,9.237696533203126,-0.6052138805389404,-0.3520316779613495,1.3026542663574219
1726940896877682700,9.2476826171875,-0.7034994959831238,-0.5417254567146301,1.0072928667068481
1726940896887668700,9.257668701171875,-0.777866542339325,-0.6818739175796509,0.8406519889831543
1726940896897654800,9.26765478515625,-0.8578660488128662,-0.8021904230117798,0.700204610824585
1726940896907640600,9.277640625,-0.8712499737739563,-0.8196126222610474,0.5895108580589294
1726940896917627000,9.287626953125,-0.7683427929878235,-0.8142322301864624,0.5615599155426025
1726940896927612700,9.29761279296875,-0.6344245672225952,-0.7571539282798767,0.6193825006484985
1726940896937598700,9.3075986328125,-0.5184828042984009,-0.6657012104988098,0.7015972137451172
1726940896947584500,9.31758447265625,-0.4214153289794922,-0.6668460369110107,0.7484620809555054
1726940896957569800,9.32756982421875,-0.35464534163475037,-0.6576703786849976,0.7258132100105286
1726940896967555800,9.337555908203125,-0.2941421866416931,-0.5262431502342224,0.6735758781433105
1726940896977541600,9.347541748046876,-0.2041393518447876,-0.4129222333431244,0.6317895650863647
1726940896987528000,9.35752783203125,-0.11331997066736221,-0.39128461480140686,0.6295247673988342
1726940896997513700,9.367513671875,-0.08199986815452576,-0.41663017868995667,0.6092135906219482
1726940897007499800,9.377499755859375,-0.11540337651968002,-0.36784934997558594,0.5048487186431885
1726940897017485800,9.38748583984375,-0.16929404437541962,-0.2711039185523987,0.3525305390357971
1726940897027472000,9.397471923828125,-0.1699662059545517,-0.1710531860589981,0.2950955629348755
1726940897037457700,9.407457763671875,-0.12632818520069122,-0.11021673679351807,0.36321520805358887
1726940897047443700,9.417443603515625,-0.07181768864393234,-0.13361291587352753,0.4776271879673004
1726940897057429800,9.4274296875,-0.06151764467358589,-0.13773176074028015,0.5474560856819153
1726940897067414800,9.437414794921875,-0.11650221049785614,-0.13098759949207306,0.5472455620765686
1726940897077400600,9.447400634765625,-0.19229178130626678,-0.07796300202608109,0.5197290182113647
1726940897087387000,9.457386962890626,-0.20923170447349548,0.011480320245027542,0.5225805640220642
1726940897097372700,9.46737255859375,-0.181044802069664,0.09394536912441254,0.5326377153396606
1726940897107358700,9.477358642578125,-0.1540430337190628,0.19252346456050873,0.516798734664917
1726940897117344800,9.4873447265625,-0.1637374609708786,0.3023304045200348,0.4812849462032318
1726940897127330800,9.497330810546876,-0.2631779611110687,0.335325688123703,0.4450060725212097
1726940897137316600,9.507316650390624,-0.3475823402404785,0.31846094131469727,0.4063686728477478
1726940897147302700,9.517302734375,-0.2924669086933136,0.29282933473587036,0.3248307704925537
1726940897157288700,9.527288818359375,-0.15078356862068176,0.26311245560646057,0.19936791062355042
1726940897167273700,9.537273681640626,-0.014438671991229057,0.19285419583320618,0.10479697585105896
1726940897177259800,9.547259765625,0.06859815865755081,0.09891704469919205,0.10594107210636139
1726940897187245800,9.557245849609375,0.06987821310758591,-0.00935881957411766,0.17344450950622559
1726940897197231900,9.56723193359375,0.013072451576590538,-0.15028637647628784,0.16095349192619324
1726940897207217700,9.5772177734375,0.006280680652707815,-0.181974396109581,0.037862628698349
1726940897217204000,9.587203857421875,0.11548173427581787,-0.05993584915995598,-0.15405941009521484
1726940897227189800,9.597189697265625,0.24119064211845398,0.006040188483893871,-0.3265034854412079
1726940897237175800,9.60717578125,0.3238818049430847,0.08942242711782455,-0.3579404950141907
1726940897247161600,9.61716162109375,0.40030738711357117,0.05540977790951729,-0.3081490397453308
1726940897257148000,9.62714794921875,0.4506789445877075,-0.10991580039262772,-0.3671681582927704
1726940897267133700,9.6371337890625,0.4701901972293854,-0.23141874372959137,-0.505035936832428
1726940897277119700,9.64711962890625,0.5052608251571655,-0.3093265891075134,-0.5871622562408447
1726940897287104800,9.657104736328124,0.5270464420318604,-0.3693111538887024,-0.4973163604736328
1726940897297090800,9.6670908203125,0.5212681889533997,-0.3281586766242981,-0.36130714416503906
1726940897307076600,9.67707666015625,0.5335249304771423,-0.3289659023284912,-0.2652304470539093
1726940897317063000,9.68706298828125,0.5795595645904541,-0.338136225938797,-0.20647579431533813
1726940897327048700,9.697048583984374,0.6268565058708191,-0.223985955119133,-0.20723505318164825
1726940897337034800,9.70703466796875,0.6498206853866577,-0.056688833981752396,-0.24749726057052612
1726940897347020500,9.7170205078125,0.6325783729553223,0.05130245164036751,-0.2545124292373657
1726940897357006800,9.7270068359375,0.603835940361023,0.2243807464838028,-0.2679627239704132
1726940897366992600,9.73699267578125,0.611766517162323,0.37950578331947327,-0.3289782702922821
1726940897376978700,9.746978759765625,0.6144485473632812,0.47463148832321167,-0.42849498987197876
1726940897386964700,9.75696484375,0.5747422575950623,0.5948362946510315,-0.5252988338470459
1726940897396949800,9.76694970703125,0.5111547112464905,0.6665211319923401,-0.5886021256446838
1726940897406935800,9.776935791015624,0.4070330560207367,0.6552987694740295,-0.58549565076828
1726940897416921900,9.786921875,0.27645373344421387,0.7175131440162659,-0.5748403072357178
1726940897426908000,9.796907958984375,0.15902657806873322,0.8748404383659363,-0.6475117802619934
1726940897436893700,9.806893798828124,0.16430656611919403,1.067932367324829,-0.7323161959648132
1726940897446879700,9.816879638671875,0.2164742797613144,1.280511498451233,-0.8204181790351868
1726940897456865800,9.82686572265625,0.2761381268501282,1.32363760471344,-0.8703833222389221
1726940897466850800,9.836850830078125,0.2875725030899048,1.1406705379486084,-0.9120534658432007
1726940897476836900,9.8468369140625,0.2915443480014801,0.97794109582901,-1.0519793033599854
1726940897486823000,9.856822998046875,0.30915728211402893,0.8170596957206726,-1.2627564668655396
1726940897496808700,9.86680859375,0.31069687008857727,0.774070143699646,-1.4289931058883667
1726940897506793700,9.876793701171875,0.24065110087394714,0.6378961801528931,-1.5333234071731567
1726940897516779800,9.88677978515625,0.1125546470284462,0.2930362820625305,-1.6075334548950195
1726940897526765800,9.896765869140625,-0.02150432951748371,-0.03691090643405914,-1.5931968688964844
1726940897536751900,9.906751953125,-0.09841722249984741,-0.22629600763320923,-1.5171856880187988
1726940897546738000,9.916738037109376,-0.09063626080751419,-0.30493757128715515,-1.4454535245895386
1726940897556723700,9.9267236328125,-0.06808701157569885,-0.39269378781318665,-1.4799150228500366
1726940897566709800,9.936709716796875,-0.057606857270002365,-0.6876922845840454,-1.5749200582504272
1726940897576695800,9.94669580078125,-0.08861164003610611,-1.0419654846191406,-1.6117726564407349
1726940897586681900,9.956681884765626,-0.1587817370891571,-1.3987009525299072,-1.53014075756073
1726940897596667600,9.966667724609374,-0.18796811997890472,-1.7311731576919556,-1.323012351989746
1726940897606654000,9.976654052734375,-0.14475688338279724,-1.8757392168045044,-1.0451686382293701
1726940897616639000,9.986638916015625,-0.10877197980880737,-2.037846326828003,-0.7050028443336487
1726940897626624800,9.996624755859376,-0.06590653210878372,-2.1970651149749756,-0.3932552635669708
1726940897636610800,10.00661083984375,-0.07678448408842087,-2.157780170440674,-0.15812742710113525
1726940897646596900,10.016596923828125,-0.005167860072106123,-1.9978934526443481,0.008486001752316952
1726940897656583000,10.0265830078125,0.13341452181339264,-1.820072054862976,0.056496135890483856
1726940897666568700,10.036568603515626,0.2439359724521637,-1.5183731317520142,-0.03917679563164711
1726940897676555000,10.046554931640625,0.3076830208301544,-0.9416043758392334,-0.10274511575698853
1726940897686540800,10.056540771484375,0.2954728305339813,-0.3579494059085846,-0.044022321701049805
1726940897696526800,10.06652685546875,0.20609819889068604,0.10888701677322388,0.020921792834997177
1726940897706513000,10.076512939453124,0.17369408905506134,0.3885645866394043,0.08286108076572418
1726940897716499000,10.0864990234375,0.23746320605278015,0.5228233337402344,0.12565754354000092
1726940897726483700,10.096483642578125,0.26597240567207336,0.5539671778678894,0.14769971370697021
1726940897736469800,10.1064697265625,0.24179410934448242,0.6014148592948914,0.2021014392375946
1726940897746455800,10.116455810546874,0.21961967647075653,0.6962930560112,0.3502902388572693
1726940897756441900,10.12644189453125,0.261150598526001,0.8316911458969116,0.5494152903556824
1726940897766427600,10.136427734375,0.33938899636268616,0.9010756611824036,0.7402753233909607
1726940897776414000,10.1464140625,0.4214867949485779,0.8687747120857239,0.8921071887016296
1726940897786399700,10.156399658203124,0.5085433125495911,0.8761765956878662,0.9869193434715271
1726940897796385800,10.1663857421875,0.5811259150505066,0.929991602897644,1.0495206117630005
1726940897806371800,10.176371826171875,0.6035556793212891,1.0577324628829956,1.089717149734497
1726940897816358000,10.18635791015625,0.5256829857826233,1.0787041187286377,1.192516565322876
1726940897826343700,10.19634375,0.39431896805763245,1.038757562637329,1.2997385263442993
1726940897836330000,10.206330078125,0.28246670961380005,0.9673382639884949,1.363491415977478
1726940897846315000,10.21631494140625,0.1612967848777771,0.7201219201087952,1.3580031394958496
1726940897856300800,10.22630078125,-0.07042620331048965,0.43455249071121216,1.3470934629440308
1726940897866286800,10.236286865234375,-0.39690718054771423,0.10680002719163895,1.4012640714645386
1726940897876273000,10.24627294921875,-0.6828757524490356,-0.17587880790233612,1.4409582614898682
1726940897886259000,10.256259033203126,-0.7783496975898743,-0.26958659291267395,1.4403321743011475
1726940897896244700,10.26624462890625,-0.8008998036384583,-0.33928123116493225,1.33126699924469
1726940897906231000,10.27623095703125,-0.7395780086517334,-0.4066849946975708,1.1877131462097168
1726940897916216800,10.286216796875,-0.6345778107643127,-0.5082299709320068,1.1186689138412476
1726940897926203000,10.296202880859376,-0.5878680348396301,-0.5833672881126404,1.030835747718811
1726940897936189000,10.30618896484375,-0.5560805201530457,-0.5936585664749146,0.9347975850105286
1726940897946175000,10.316175048828125,-0.5212839245796204,-0.5819023251533508,0.8220853805541992
1726940897956160800,10.326160888671875,-0.4529714584350586,-0.6647375822067261,0.7348982691764832
1726940897966145800,10.336145751953126,-0.41967156529426575,-0.7431197762489319,0.6044905781745911
1726940897976131800,10.3461318359375,-0.42529746890068054,-0.7830895781517029,0.4448455572128296
1726940897986118000,10.356117919921875,-0.4157026410102844,-0.6968600749969482,0.3505396246910095
1726940897996103700,10.366103759765625,-0.3495936691761017,-0.5716728568077087,0.3642524778842926
1726940898006090000,10.376090087890624,-0.23184947669506073,-0.454671710729599,0.4362885653972626
1726940898016075800,10.38607568359375,-0.12075676023960114,-0.4511347711086273,0.5272474884986877
1726940898026061800,10.396061767578125,-0.08080007135868073,-0.4899742007255554,0.5439723134040833
1726940898036048000,10.4060478515625,-0.12120076268911362,-0.394102543592453,0.4725457429885864
1726940898046034000,10.416033935546874,-0.21091368794441223,-0.3005106449127197,0.34901466965675354
1726940898056019700,10.426019775390625,-0.3036465644836426,-0.21420423686504364,0.29154151678085327
1726940898066006000,10.436006103515625,-0.324929416179657,-0.11795244365930557,0.2917878329753876
1726940898075991000,10.445990966796876,-0.2957606315612793,-0.08856472373008728,0.34770622849464417
1726940898085976800,10.455976806640624,-0.21451497077941895,-0.017096884548664093,0.47287771105766296
1726940898095963000,10.465962890625,-0.14381736516952515,0.005720813293009996,0.5784499645233154
1726940898105949000,10.475948974609375,-0.09020751714706421,0.035338446497917175,0.6611687541007996
1726940898115935000,10.48593505859375,-0.049927737563848495,0.09558741003274918,0.7725751399993896
1726940898125920800,10.495920654296874,-0.053288742899894714,0.15899018943309784,0.8426133990287781
1726940898135906800,10.50590673828125,-0.07746785134077072,0.27079129219055176,0.8487024903297424
1726940898145892900,10.515892822265625,-0.10971350222826004,0.37016141414642334,0.7781694531440735
1726940898155878700,10.525878662109376,-0.18543942272663116,0.3578072786331177,0.6960612535476685
1726940898165865000,10.535864990234375,-0.2363065481185913,0.33044248819351196,0.5814183950424194
1726940898175850800,10.545850830078125,-0.20385833084583282,0.3339085876941681,0.44600149989128113
1726940898185835800,10.555835693359375,-0.12049823254346848,0.39766955375671387,0.35894790291786194
1726940898195821800,10.56582177734375,-0.022948244586586952,0.4389221668243408,0.32529380917549133
1726940898205807900,10.575807861328125,0.018340617418289185,0.43536531925201416,0.38095879554748535
1726940898215794000,10.5857939453125,-0.04969782009720802,0.41147303581237793,0.4149250090122223
1726940898225779700,10.59577978515625,-0.12031178176403046,0.46807271242141724,0.37675410509109497
1726940898235766000,10.60576611328125,-0.16026557981967926,0.5133869647979736,0.23269228637218475
1726940898245751800,10.615751708984375,-0.1345251500606537,0.5210705995559692,-0.012758077122271061
1726940898255737900,10.62573779296875,-0.04497157037258148,0.5014002323150635,-0.17814624309539795
1726940898265724000,10.635723876953126,0.07301612198352814,0.395397424697876,-0.2759396433830261
1726940898275710000,10.6457099609375,0.18339775502681732,0.17085619270801544,-0.34500715136528015
1726940898285695700,10.65569580078125,0.2957984209060669,-0.0027911728248000145,-0.36565566062927246
1726940898295681800,10.665681884765625,0.4219294786453247,-0.11346548795700073,-0.31023821234703064
1726940898305666800,10.675666748046876,0.5343794226646423,-0.1882520318031311,-0.23211686313152313
1726940898315652900,10.68565283203125,0.5793535709381104,-0.35154080390930176,-0.23177410662174225
1726940898325638700,10.695638671875,0.601298987865448,-0.5055652856826782,-0.3185752034187317
1726940898335625000,10.705625,0.6445966958999634,-0.5868657231330872,-0.42579910159111023
1726940898345610800,10.71561083984375,0.6978235840797424,-0.6845980286598206,-0.447693794965744
1726940898355596800,10.7255966796875,0.725723922252655,-0.6391746401786804,-0.42073220014572144
1726940898365582800,10.735582763671875,0.7217538952827454,-0.46797242760658264,-0.3762085437774658
1726940898375569000,10.74556884765625,0.695697009563446,-0.26773974299430847,-0.38586676120758057
1726940898385554700,10.7555546875,0.6451017260551453,-0.06768021732568741,-0.4404106140136719
1726940898395540700,10.765540771484375,0.5860687494277954,0.08182937651872635,-0.46332019567489624
1726940898405526800,10.77552685546875,0.5330871343612671,0.2375842183828354,-0.46118003129959106
1726940898415512800,10.785512939453126,0.5004801750183105,0.4446263313293457,-0.519540011882782
1726940898425497900,10.795497802734374,0.48523473739624023,0.6445613503456116,-0.627080500125885
1726940898435484000,10.80548388671875,0.455098956823349,0.8082861304283142,-0.7499811053276062
1726940898445470000,10.815469970703125,0.3530805706977844,0.8935388922691345,-0.8278793692588806
1726940898455455700,10.825455810546876,0.22009162604808807,0.9420768618583679,-0.8933973908424377
1726940898465442300,10.8354423828125,0.13652823865413666,1.1257309913635254,-1.0056638717651367
1726940898475428400,10.845428466796875,0.14500348269939423,1.321437120437622,-1.1401479244232178
1726940898485414100,10.8554140625,0.13930679857730865,1.4127733707427979,-1.207088589668274
1726940898495400400,10.865400390625,0.044421836733818054,1.4631617069244385,-1.227416753768921
1726940898505386200,10.87538623046875,-0.07628879696130753,1.3911466598510742,-1.186719298362732
1726940898515372300,10.885372314453125,-0.12552478909492493,1.287827491760254,-1.1797114610671997
1726940898525358300,10.8953583984375,-0.12030632793903351,1.108116626739502,-1.2281298637390137
1726940898535343400,10.90534326171875,-0.17220599949359894,0.8321660161018372,-1.3277390003204346
1726940898545329400,10.915329345703125,-0.31060516834259033,0.5195394158363342,-1.4772683382034302
1726940898555315200,10.925315185546875,-0.4489092230796814,0.30342918634414673,-1.6098763942718506
1726940898565301500,10.935301513671876,-0.5370636582374573,-0.07597529888153076,-1.6681371927261353
1726940898575287300,10.945287353515624,-0.46395453810691833,-0.46130383014678955,-1.6711063385009766
1726940898585273300,10.9552734375,-0.3620533049106598,-0.7141225934028625,-1.5702346563339233
1726940898595259400,10.96525927734375,-0.33129674196243286,-0.8727508783340454,-1.443851113319397
1726940898605245400,10.975245361328126,-0.34127727150917053,-0.9330123662948608,-1.4452934265136719
1726940898615231200,10.985231201171874,-0.39898452162742615,-1.2052412033081055,-1.4683324098587036
1726940898625217500,10.995217529296875,-0.4491836726665497,-1.7117775678634644,-1.4003610610961914
1726940898635203300,11.005203369140625,-0.42743974924087524,-2.0812079906463623,-1.1423442363739014
1726940898645188400,11.015188232421876,-0.3850795030593872,-2.2060511112213135,-0.7376956343650818
1726940898655174100,11.025174072265624,-0.3780370354652405,-2.2443227767944336,-0.364650696516037
1726940898665160400,11.035160400390625,-0.2988990545272827,-2.1724443435668945,-0.12057019025087357
1726940898675146200,11.045146240234375,-0.1284109652042389,-1.9728748798370361,-0.013950267806649208
1726940898685132300,11.05513232421875,0.04702511429786682,-1.4972004890441895,-0.025286350399255753
1726940898695118300,11.065118408203125,0.15339763462543488,-0.6881816983222961,-0.05933433771133423
1726940898705104400,11.0751044921875,0.18745818734169006,-0.00957789458334446,-0.10844831168651581
1726940898715090200,11.085090087890626,0.09626089781522751,0.38131049275398254,-0.15863290429115295
1726940898725076500,11.095076416015624,-0.042079415172338486,0.7351198792457581,-0.18626680970191956
1726940898735062300,11.105062255859375,-0.08846183121204376,0.8523783683776855,-0.08316785097122192
1726940898745048300,11.11504833984375,-0.007722935639321804,0.7942701578140259,0.11262591928243637
1726940898755034400,11.125034423828126,0.04692219942808151,0.7553879618644714,0.30828437209129333
1726940898765019400,11.135019287109374,0.06856117397546768,0.7559182643890381,0.49130624532699585
1726940898775005400,11.14500537109375,0.09089284390211105,0.7949623465538025,0.6514466404914856
1726940898784991200,11.1549912109375,0.12642163038253784,0.8325400948524475,0.8043326139450073
1726940898794977500,11.1649775390625,0.20212490856647491,0.9187564849853516,0.9337143301963806
1726940898804963300,11.17496337890625,0.27483564615249634,1.0626167058944702,1.0320698022842407
1726940898814949400,11.184949462890625,0.3461329936981201,1.292384147644043,1.055575966835022
1726940898824935400,11.194935302734375,0.40986257791519165,1.3908751010894775,1.0664100646972656
1726940898834921500,11.20492138671875,0.3727250397205353,1.3576968908309937,1.1243116855621338
1726940898844907300,11.2149072265625,0.172394260764122,1.1534186601638794,1.2171677350997925
1726940898854893600,11.2248935546875,-0.15555164217948914,0.6899354457855225,1.2380197048187256
1726940898864879400,11.23487939453125,-0.443437397480011,0.39932650327682495,1.3351794481277466
1726940898874864400,11.244864501953124,-0.5961747765541077,0.24384690821170807,1.5274195671081543
1726940898884850200,11.25485009765625,-0.6063776016235352,0.1530444324016571,1.7231380939483643
1726940898894836500,11.26483642578125,-0.6106922030448914,0.05420200899243355,1.7917888164520264
1726940898904822300,11.274822265625,-0.6127868294715881,-0.23918834328651428,1.6359543800354004
1726940898914808300,11.284808349609374,-0.6233614087104797,-0.5910627841949463,1.2979885339736938
1726940898924794400,11.29479443359375,-0.6568670272827148,-0.7532044649124146,1.0674316883087158
1726940898934780400,11.304780517578125,-0.6391221284866333,-0.7568879127502441,1.0044939517974854
1726940898944766200,11.31476611328125,-0.5327741503715515,-0.6682420969009399,0.9563329219818115
1726940898954752500,11.32475244140625,-0.3789752721786499,-0.6825222373008728,0.8471161127090454
1726940898964738300,11.33473828125,-0.2608075439929962,-0.7947905659675598,0.7009882926940918
1726940898974724400,11.344724365234375,-0.19263991713523865,-0.8677188158035278,0.5657734870910645
1726940898984710100,11.354710205078124,-0.1431727558374405,-0.8345722556114197,0.5123633146286011
1726940898994695400,11.3646953125,-0.09762284904718399,-0.6949637532234192,0.50826096534729
1726940899004681500,11.374681396484375,-0.043248869478702545,-0.49255049228668213,0.5047162175178528
1726940899014667300,11.384667236328125,-0.02113877236843109,-0.3606254756450653,0.4438720643520355
1726940899024653300,11.3946533203125,-0.05431361123919487,-0.24371226131916046,0.37347105145454407
1726940899034639400,11.404639404296875,-0.10050800442695618,-0.2137458324432373,0.3479446470737457
1726940899044625400,11.41462548828125,-0.17858661711215973,-0.13605503737926483,0.3196369707584381
1726940899054611500,11.424611572265626,-0.22447288036346436,-0.0714062750339508,0.27593210339546204
1726940899064597200,11.43459716796875,-0.23554113507270813,-0.06255084276199341,0.2745714783668518
1726940899074583300,11.444583251953125,-0.2541574537754059,-0.04110254347324371,0.29827573895454407
1726940899084569000,11.454569091796875,-0.26451927423477173,-0.03289097920060158,0.3929406702518463
1726940899094555400,11.464555419921876,-0.23617605865001678,0.01370049174875021,0.548351526260376
1726940899104540400,11.47454052734375,-0.20031124353408813,0.09245818108320236,0.6885303258895874
1726940899114526200,11.484526123046875,-0.1873784065246582,0.1991550624370575,0.7283456325531006
1726940899124512500,11.494512451171875,-0.2196250557899475,0.3185245096683502,0.6758193969726562
1726940899134498300,11.504498291015626,-0.25287410616874695,0.39821693301200867,0.6101183891296387
1726940899144484400,11.514484375,-0.24808131158351898,0.43215179443359375,0.5572049617767334
1726940899154470400,11.524470458984375,-0.2073274850845337,0.4187108278274536,0.5453293919563293
1726940899164456400,11.53445654296875,-0.1688072383403778,0.4111185073852539,0.5335339903831482
1726940899174442200,11.544442138671876,-0.16999846696853638,0.40202248096466064,0.4895760715007782
1726940899184428300,11.55442822265625,-0.16978435218334198,0.40353700518608093,0.44631218910217285
1726940899194414300,11.564414306640625,-0.22956353425979614,0.3345547318458557,0.3555694818496704
1726940899204400400,11.574400390625,-0.2751925587654114,0.2832571864128113,0.19743311405181885
1726940899214386200,11.58438623046875,-0.27979421615600586,0.19761048257350922,-0.0037034570705145597
1726940899224371500,11.594371337890625,-0.21888482570648193,0.1283159852027893,-0.19152288138866425
1726940899234357200,11.604357177734375,-0.10247139632701874,0.08135167509317398,-0.3130016326904297
1726940899244343300,11.61434326171875,0.0104320477694273,0.002459985204041004,-0.2989332675933838
1726940899254329300,11.624329345703124,0.08584904670715332,-0.1279938966035843,-0.25717782974243164
1726940899264315400,11.6343154296875,0.11582223325967789,-0.253282368183136,-0.24099792540073395
1726940899274301200,11.64430126953125,0.1212974265217781,-0.3290727138519287,-0.2827424705028534
1726940899284287200,11.654287353515626,0.13568346202373505,-0.3519212007522583,-0.3621461093425751
1726940899294273300,11.664273193359374,0.1628572940826416,-0.3189406096935272,-0.4220573604106903
1726940899304259300,11.67425927734375,0.18857450783252716,-0.2435225546360016,-0.4356110394001007
1726940899314245000,11.6842451171875,0.20506933331489563,-0.17614564299583435,-0.4033905267715454
1726940899324231400,11.6942314453125,0.22552965581417084,-0.13129717111587524,-0.37167200446128845
1726940899334217200,11.70421728515625,0.2502147853374481,-0.07340723276138306,-0.4129163920879364
1726940899344202200,11.7142021484375,0.2509042024612427,-0.01730208471417427,-0.45566967129707336
1726940899354188500,11.7241884765625,0.22332744300365448,0.03487776592373848,-0.46954262256622314
1726940899364174300,11.73417431640625,0.2074636071920395,0.11209961771965027,-0.4717453420162201
1726940899374160400,11.744160400390625,0.2068721204996109,0.21875707805156708,-0.4551807641983032
1726940899384146200,11.754146240234375,0.21977950632572174,0.30647140741348267,-0.4712523818016052
1726940899394132500,11.764132568359376,0.27278998494148254,0.4455091953277588,-0.5207716822624207
1726940899404118300,11.7741181640625,0.33054354786872864,0.5909955501556396,-0.5898716449737549
1726940899414104300,11.784104248046875,0.3525916039943695,0.7556161880493164,-0.7102870345115662
1726940899424090400,11.79409033203125,0.3959192633628845,0.9740985035896301,-0.8145086169242859
1726940899434076400,11.804076416015626,0.4041287302970886,1.156036376953125,-0.9564108848571777
1726940899444062200,11.814062255859374,0.3018224537372589,1.2424647808074951,-1.0933029651641846
1726940899454047500,11.824047607421875,0.15519201755523682,1.2124139070510864,-1.1763488054275513
1726940899464032800,11.83403271484375,0.012698527425527573,1.048874020576477,-1.2337502241134644
1726940899474018800,11.844018798828126,-0.0700855702161789,0.8879951238632202,-1.3086771965026855
1726940899484004900,11.8540048828125,-0.04782412201166153,0.7584151029586792,-1.431067705154419
1726940899493991000,11.863990966796875,0.014995853416621685,0.6599771976470947,-1.5470472574234009
1726940899503976700,11.873976806640625,-0.03394053131341934,0.658156156539917,-1.5679315328598022
1726940899513963000,11.883962890625,-0.18502750992774963,0.6539584398269653,-1.5901081562042236
1726940899523948800,11.89394873046875,-0.34674036502838135,0.6039193272590637,-1.6253912448883057
1726940899533934800,11.903934814453125,-0.47566238045692444,0.5514917969703674,-1.648168683052063
1726940899543920600,11.913920654296875,-0.47818830609321594,0.28518417477607727,-1.635901927947998
1726940899553907000,11.923906982421874,-0.38573718070983887,-0.09454638510942459,-1.5649102926254272
1726940899563892700,11.933892822265625,-0.3096753656864166,-0.2973322868347168,-1.3836373090744019
1726940899573877800,11.943877685546875,-0.2706853747367859,-0.4564066231250763,-1.149820327758789
1726940899583864000,11.953864013671875,-0.2751059830188751,-0.6151242852210999,-0.996150016784668
1726940899593849900,11.963849853515624,-0.2796829044818878,-0.9469626545906067,-0.9712957739830017
1726940899603836000,11.9738359375,-0.314434289932251,-1.5504555702209473,-1.0044058561325073
1726940899613822000,11.983822021484375,-0.372261643409729,-2.0283493995666504,-1.0217499732971191
1726940899623808000,11.99380810546875,-0.4450448155403137,-2.3570022583007812,-0.9290871620178223
1726940899633793800,12.003793701171874,-0.4624443054199219,-2.4511234760284424,-0.716835618019104
1726940899643779800,12.01377978515625,-0.4016505181789398,-2.3503079414367676,-0.4976058602333069
1726940899653766000,12.023765869140625,-0.3132338523864746,-2.1750009059906006,-0.3116583824157715
1726940899663752000,12.033751953125,-0.1545628160238266,-1.8139046430587769,-0.20999689400196075
1726940899673737700,12.04373779296875,0.06561588495969772,-1.1806262731552124,-0.16088448464870453
1726940899683723000,12.053722900390625,0.28765812516212463,-0.4815836250782013,-0.0732327550649643
1726940899693708800,12.063708740234375,0.41410818696022034,0.12353985756635666,0.025568390265107155
1726940899703694800,12.07369482421875,0.3617021143436432,0.3498191237449646,0.0888100415468216
1726940899713681000,12.083680908203124,0.2776349186897278,0.5398162007331848,0.11910189688205719
1726940899723667000,12.0936669921875,0.22415399551391602,0.6692999005317688,0.16383445262908936
1726940899733652700,12.10365283203125,0.21848811209201813,0.8124210834503174,0.2329738438129425
1726940899743638800,12.113638671875,0.2858215272426605,0.9327345490455627,0.37186765670776367
1726940899753624800,12.123624755859375,0.38505518436431885,1.0190836191177368,0.5728049874305725
1726940899763611000,12.13361083984375,0.4661940932273865,1.0617845058441162,0.8029758334159851
1726940899773596700,12.1435966796875,0.49677541851997375,1.065233826637268,1.0169744491577148
1726940899783583000,12.1535830078125,0.5014365911483765,1.0874671936035156,1.1966640949249268
1726940899793568800,12.16356884765625,0.506706714630127,1.1689679622650146,1.3223726749420166
1726940899803553800,12.1735537109375,0.44444721937179565,1.148372769355774,1.4351179599761963
1726940899813540000,12.1835400390625,0.2793533504009247,1.0347011089324951,1.5069772005081177
1726940899823526000,12.19352587890625,0.06719274073839188,0.8648139834403992,1.567054033279419
1726940899833512000,12.203511962890625,-0.1441112458705902,0.6804832816123962,1.5732256174087524
1726940899843497700,12.213497802734375,-0.21568608283996582,0.5384986996650696,1.6657476425170898
1726940899853484000,12.223484130859376,-0.18794819712638855,0.43039438128471375,1.7952557802200317
1726940899863469800,12.2334697265625,-0.15586687624454498,0.27404871582984924,1.832383394241333
1726940899873455900,12.243455810546875,-0.3289092481136322,-0.012152145616710186,1.5876415967941284
1726940899883442000,12.25344189453125,-0.49694859981536865,-0.4662170708179474,1.220521092414856
1726940899893428000,12.263427978515624,-0.6472291946411133,-0.7709047794342041,0.9345194697380066
1726940899903413800,12.273413818359375,-0.66443932056427,-0.9215366840362549,0.8040140867233276
1726940899913399000,12.28339892578125,-0.6521658301353455,-0.9182056188583374,0.7473529577255249
1726940899923384800,12.293384765625,-0.5631712079048157,-0.8559436202049255,0.6887040138244629
1726940899933371000,12.303370849609376,-0.3860798180103302,-0.7602183818817139,0.6217361688613892
1726940899943356700,12.313356689453125,-0.14731541275978088,-0.60890793800354,0.5541571378707886
1726940899953343000,12.323343017578125,0.04584073647856712,-0.48404160141944885,0.47744983434677124
1726940899963328800,12.333328857421876,0.15222786366939545,-0.4868824779987335,0.46091219782829285
1726940899973314800,12.343314697265624,0.16220860183238983,-0.4744926393032074,0.432135671377182
1726940899983300900,12.35330078125,0.14453022181987762,-0.407223105430603,0.3976592719554901
1726940899993287000,12.363286865234375,0.15613707900047302,-0.2567680776119232,0.39321577548980713
1726940900003272700,12.373272705078126,0.15388904511928558,-0.164306178689003,0.3614748418331146
1726940900013259000,12.383259033203124,0.1381516307592392,-0.17729787528514862,0.311348557472229
1726940900023244800,12.393244873046875,0.11792118102312088,-0.1727907806634903,0.33940136432647705
1726940900033229800,12.403229736328125,0.08560053259134293,-0.12433589994907379,0.4356362819671631
1726940900043216000,12.4132158203125,0.04883956164121628,-0.057153746485710144,0.5186988115310669
1726940900053202000,12.423201904296874,0.004109109751880169,0.0032443522941321135,0.49838176369667053
