time,seconds_elapsed,z,y,x
1726940887638243800,0.008243896484375,0.05099048092961311,-0.22934477031230927,1.4648197889328003
1726940887648230100,0.018230224609375,-0.033788587898015976,-0.14704909920692444,1.4779177904129028
1726940887658216000,0.0282158203125,-0.12389078736305237,-0.22958765923976898,1.4951812028884888
1726940887668202000,0.038201904296875,-0.1763734370470047,-0.3225833773612976,1.5274829864501953
1726940887678187000,0.04818701171875,-0.17501655220985413,-0.3891088664531708,1.6070427894592285
1726940887688173000,0.058173095703125,-0.18438155949115753,-0.47931361198425293,1.7625128030776978
1726940887698159000,0.0681591796875,-0.2050335705280304,-0.5179305076599121,1.9793111085891724
1726940887708145000,0.078144775390625,-0.24501454830169678,-0.6123214364051819,2.1575725078582764
1726940887718131000,0.088130859375,-0.3192664086818695,-0.7809869050979614,2.246401071548462
1726940887728117000,0.098116943359375,-0.3933795094490051,-0.9241917133331299,2.265777587890625
1726940887738103000,0.10810302734375,-0.35280731320381165,-0.967066764831543,2.202148199081421
1726940887748089000,0.118089111328125,-0.20811352133750916,-1.1110910177230835,2.0648176670074463
1726940887758074000,0.12807421875,-0.015720106661319733,-1.4284474849700928,1.9120838642120361
1726940887768060000,0.138059814453125,0.16535593569278717,-1.6730566024780273,1.8967331647872925
1726940887778046000,0.1480458984375,0.23394618928432465,-1.9057834148406982,2.040846824645996
1726940887788032000,0.158031982421875,0.16573703289031982,-2.0999879837036133,2.3251616954803467
1726940887798018000,0.16801806640625,-0.01155518926680088,-2.2703378200531006,2.5068109035491943
1726940887808003800,0.17800390625,-0.19878020882606506,-2.2402358055114746,2.5493016242980957
1726940887817989000,0.187989013671875,-0.30723318457603455,-2.079660654067993,2.4487669467926025
1726940887827975000,0.197974853515625,-0.33227407932281494,-1.86143159866333,2.2472307682037354
1726940887837961000,0.2079609375,-0.32104459404945374,-1.6463792324066162,2.030303478240967
1726940887847947000,0.217947021484375,-0.2296675443649292,-1.4270319938659668,1.8653299808502197
1726940887857933000,0.22793310546875,0.08297611027956009,-1.2767060995101929,1.7782059907913208
1726940887867918800,0.2379189453125,0.4918208718299866,-1.3507022857666016,1.7744799852371216
1726940887877905000,0.24790478515625,0.7767748236656189,-1.54985773563385,1.933904767036438
1726940887887890200,0.25789013671875,0.9912804961204529,-1.8837262392044067,2.2019193172454834
1726940887897876000,0.2678759765625,1.1344786882400513,-2.1410882472991943,2.4590060710906982
1726940887907862000,0.277862060546875,1.2091566324234009,-2.2541394233703613,2.6200850009918213
1726940887917848000,0.28784814453125,1.210195779800415,-2.30542254447937,2.6775567531585693
1726940887927834000,0.297834228515625,1.0357617139816284,-2.182155132293701,2.6204066276550293
1726940887937820000,0.30781982421875,0.9093765616416931,-2.082421064376831,2.5554425716400146
1726940887947806000,0.317805908203125,0.892805814743042,-2.545234441757202,2.502960205078125
1726940887957792000,0.3277919921875,1.0407042503356934,-2.928302526473999,2.6904401779174805
1726940887967777000,0.337777099609375,1.290672779083252,-2.921599864959717,2.935727834701538
1726940887977762800,0.3477626953125,1.5792955160140991,-2.8922932147979736,3.1963934898376465
1726940887987749000,0.3577490234375,1.6361870765686035,-3.0774693489074707,3.363626480102539
1726940887997735000,0.36773486328125,1.5738264322280884,-3.3741261959075928,3.4477367401123047
1726940888007721000,0.377720947265625,1.5554178953170776,-3.527818202972412,3.4332058429718018
1726940888017707000,0.38770703125,1.601701259613037,-3.588134527206421,3.1776230335235596
1726940888027693000,0.397693115234375,1.7487854957580566,-3.4738264083862305,2.9588019847869873
1726940888037678000,0.407677978515625,1.9813036918640137,-2.8312432765960693,2.6891376972198486
1726940888047663900,0.417663818359375,2.220486879348755,-2.059790849685669,2.1050286293029785
1726940888057650200,0.427650146484375,1.968354344367981,-1.2635998725891113,1.4086263179779053
1726940888067636000,0.437635986328125,0.6322445869445801,-0.45248597860336304,0.6149662137031555
1726940888077622000,0.4476220703125,1.1406670808792114,0.14340056478977203,-0.062180548906326294
1726940888087608000,0.457608154296875,1.2977861166000366,0.27375006675720215,-0.45562317967414856
1726940888097594000,0.467593994140625,1.4098966121673584,0.4856383502483368,-0.44737324118614197
1726940888107579000,0.477578857421875,1.447414755821228,0.16170448064804077,-0.20585276186466217
1726940888117565000,0.48756494140625,1.6368581056594849,-0.2805427014827728,0.3346235156059265
1726940888127551000,0.497551025390625,2.1912994384765625,-0.758533775806427,0.9876010417938232
1726940888137537000,0.507537109375,3.08907413482666,-0.9139750599861145,1.608223795890808
1726940888147522800,0.517522705078125,3.826265573501587,-0.7728464007377625,1.9634344577789307
1726940888157509000,0.527509033203125,4.4163594245910645,-0.8143933415412903,1.844243049621582
1726940888167495000,0.537494873046875,4.229990482330322,-0.8353627920150757,1.407306432723999
1726940888177481000,0.54748095703125,3.5982208251953125,-0.8007965683937073,0.8935986757278442
1726940888187466000,0.557466064453125,2.92855167388916,-0.5098291635513306,0.5022956132888794
1726940888197452000,0.5674521484375,2.622523069381714,-0.28686320781707764,0.35514211654663086
1726940888207438000,0.57743798828125,2.7858846187591553,-0.5473877191543579,0.42553824186325073
1726940888217424000,0.587423828125,3.408113718032837,-1.2838820219039917,0.6915723085403442
1726940888227410200,0.59741015625,4.344363689422607,-2.0470705032348633,1.117546796798706
1726940888237396000,0.60739599609375,4.868134021759033,-1.9667729139328003,1.5793652534484863
1726940888247382000,0.617382080078125,4.755357265472412,-1.2964990139007568,1.8373523950576782
1726940888257366800,0.62736669921875,3.9990227222442627,-1.1048222780227661,1.7171226739883423
1726940888267353000,0.63735302734375,3.179654598236084,-1.8800932168960571,0.8726454377174377
1726940888277339000,0.6473388671875,2.743123769760132,-2.252223014831543,-0.10632377862930298
1726940888287325000,0.657324951171875,2.735933542251587,-2.32083797454834,-0.7224854826927185
1726940888297311000,0.66731103515625,2.872559070587158,-2.314237356185913,-0.9241448640823364
1726940888307297000,0.677297119140625,2.854630708694458,-2.42805552482605,-0.6820520758628845
1726940888317282800,0.68728271484375,2.5313026905059814,-2.4242634773254395,-0.258670449256897
1726940888327269000,0.69726904296875,2.189984083175659,-1.8359524011611938,0.174484983086586
1726940888337254100,0.707254150390625,1.6035974025726318,-0.7702852487564087,0.49265256524086
1726940888347240000,0.717239990234375,0.92649245262146,-0.11199657618999481,0.7232120037078857
1726940888357226000,0.72722607421875,0.2050759196281433,0.06305033713579178,0.9851735830307007
1726940888367212000,0.7372119140625,-0.22561714053153992,0.08791467547416687,0.9232889413833618
1726940888377198000,0.747197998046875,-0.13815121352672577,-0.9736146926879883,1.5507091283798218
1726940888387183900,0.757183837890625,0.6118993163108826,-1.8824703693389893,1.7283883094787598
1726940888397170200,0.767170166015625,1.065829873085022,-2.438690185546875,1.4845266342163086
1726940888407155000,0.777155029296875,1.4533815383911133,-2.395078659057617,1.3295445442199707
1726940888417141000,0.78714111328125,1.6254960298538208,-1.6872190237045288,1.208631157875061
1726940888427126800,0.797126708984375,1.5252556800842285,-0.6603073477745056,0.9875088930130005
1726940888437113000,0.807113037109375,1.3137301206588745,0.8638181090354919,0.6397315263748169
1726940888447099000,0.817098876953125,1.0776782035827637,2.4232447147369385,0.022717030718922615
1726940888457084700,0.827084716796875,0.8860206604003906,3.9021918773651123,-0.6709125638008118
1726940888467070500,0.837070556640625,0.7321714162826538,5.223082065582275,-1.0408695936203003
1726940888477056500,0.847056396484375,0.32086828351020813,5.5127153396606445,-1.3171014785766602
1726940888487041500,0.85704150390625,-0.09096532315015793,4.784087181091309,-1.457877278327942
1726940888497027600,0.867027587890625,-0.13528218865394592,3.0877063274383545,-1.291186809539795
1726940888507013600,0.877013671875,-0.38663187623023987,1.8137149810791016,-0.39676305651664734
1726940888516999400,0.88699951171875,-0.43025630712509155,-0.27838316559791565,0.6763646006584167
1726940888526985700,0.89698583984375,-0.5255870819091797,-1.7564098834991455,1.8117506504058838
1726940888536971500,0.906971435546875,-0.6823479533195496,-1.5246708393096924,2.599404811859131
1726940888546957600,0.91695751953125,-0.6881347298622131,-0.5895059108734131,2.8286924362182617
1726940888556943600,0.926943603515625,-0.8017752766609192,-0.32408618927001953,2.647408962249756
1726940888566928600,0.9369287109375,-1.3939448595046997,0.2847137451171875,2.3374907970428467
1726940888576914400,0.94691455078125,-2.0825507640838623,0.9561401009559631,1.911404013633728
1726940888586900500,0.956900390625,-2.4979617595672607,1.3505454063415527,1.4315133094787598
1726940888596886500,0.966886474609375,-2.9462947845458984,1.409026861190796,0.8200008869171143
1726940888606872600,0.97687255859375,-3.2135729789733887,1.2329127788543701,0.023068834096193314
1726940888616858400,0.9868583984375,-3.420642614364624,1.1272063255310059,-0.7068436741828918
1726940888626844700,0.9968447265625,-3.6402792930603027,1.100808024406433,-0.8884584903717041
1726940888636829700,1.00682958984375,-3.030280590057373,1.275282382965088,-0.7525800466537476
1726940888646815500,1.0168154296875,-1.2365463972091675,1.587291955947876,-0.6216866970062256
1726940888656801500,1.026801513671875,0.08136143535375595,2.2679855823516846,-0.2233145833015442
1726940888666787600,1.03678759765625,0.47548264265060425,2.8324456214904785,0.11082984507083893
1726940888676773600,1.046773681640625,0.5526533126831055,3.0704002380371094,0.4879230558872223
1726940888686759400,1.056759521484375,0.5280776619911194,3.204003095626831,0.770404577255249
1726940888696745700,1.066745849609375,0.6099416613578796,3.154916524887085,0.9578586220741272
1726940888706731500,1.0767314453125,0.6849328279495239,3.060734510421753,1.0003330707550049
1726940888716716500,1.086716552734375,0.7281883955001831,2.8499011993408203,0.9240806698799133
1726940888726702600,1.09670263671875,0.7125217914581299,2.515090227127075,0.773766279220581
1726940888736688600,1.106688720703125,0.5698911547660828,2.2828524112701416,0.5972762107849121
1726940888746674400,1.11667431640625,0.33163413405418396,2.0555176734924316,0.4381483197212219
1726940888756660500,1.126660400390625,0.06607702374458313,1.5957330465316772,0.2203797698020935
1726940888766646500,1.136646484375,-0.13690458238124847,0.809337317943573,-0.1956091821193695
1726940888776632600,1.146632568359375,-0.25664564967155457,0.17441947758197784,-0.5560805201530457
1726940888786618400,1.156618408203125,-0.23631879687309265,-0.10779038071632385,-0.5991047024726868
1726940888796603600,1.166603759765625,-0.16010019183158875,-0.1559475213289261,-0.5815930962562561
1726940888806589700,1.176589599609375,-0.04488305374979973,-0.07924981415271759,-0.5718557834625244
1726940888816575500,1.186575439453125,0.06190997362136841,0.12545566260814667,-0.5443804860115051
1726940888826561800,1.196561767578125,0.1591385155916214,0.30501317977905273,-0.5470889210700989
1726940888836547600,1.206547607421875,0.2529028356075287,0.44379130005836487,-0.539837658405304
1726940888846533600,1.21653369140625,0.2994202673435211,0.5174069404602051,-0.4792081415653229
1726940888856519400,1.22651953125,0.35031062364578247,0.5846647620201111,-0.40269526839256287
1726940888866504700,1.236504638671875,0.38588857650756836,0.5795352458953857,-0.27958476543426514
1726940888876490500,1.246490478515625,0.38631442189216614,0.5139206051826477,-0.14600221812725067
1726940888886476500,1.2564765625,0.35026028752326965,0.43114206194877625,-0.028139226138591766
1726940888896462600,1.266462646484375,0.3079913854598999,0.30903348326683044,0.06397312134504318
1726940888906448600,1.27644873046875,0.27210769057273865,0.1600612998008728,0.11919590085744858
1726940888916434400,1.286434326171875,0.24815388023853302,0.03574681282043457,0.14157737791538239
1726940888926420700,1.296420654296875,0.2543174922466278,0.018976887688040733,0.16645263135433197
1726940888936406500,1.306406494140625,0.23557044565677643,0.06953833252191544,0.19225652515888214
1726940888946391600,1.3163916015625,0.20547619462013245,0.11477851122617722,0.1953527182340622
1726940888956377600,1.326377685546875,0.16777382791042328,0.19444458186626434,0.21781301498413086
1726940888966363600,1.33636376953125,0.11628000438213348,0.3026086091995239,0.2603413164615631
1726940888976349700,1.346349609375,0.062249526381492615,0.39434438943862915,0.28169533610343933
1726940888986335500,1.35633544921875,0.019405389204621315,0.44939377903938293,0.26294001936912537
1726940888996321800,1.36632177734375,0.001287904684431851,0.4727188050746918,0.22278673946857452
1726940889006307600,1.3763076171875,-0.005483714863657951,0.4711824357509613,0.1926083266735077
1726940889016293600,1.386293701171875,-0.010877680964767933,0.4783082604408264,0.1720615029335022
1726940889026278400,1.3962783203125,-0.006670153234153986,0.4919833242893219,0.14380377531051636
1726940889036264700,1.4062646484375,0.010517089627683163,0.5329435467720032,0.10078040510416031
1726940889046250500,1.41625048828125,0.023201992735266685,0.5568491220474243,0.06980331242084503
1726940889056236500,1.426236572265625,0.03798519819974899,0.5569591522216797,0.054248325526714325
1726940889066222600,1.43622265625,0.04167687147855759,0.5645898580551147,0.057325076311826706
1726940889076208600,1.446208740234375,0.04252295941114426,0.5762707591056824,0.06852766126394272
1726940889086194400,1.4561943359375,0.02749367617070675,0.5730525851249695,0.0776607096195221
1726940889096179500,1.466179443359375,0.011415639892220497,0.595048189163208,0.05958609655499458
1726940889106165800,1.476165771484375,-0.013383982703089714,0.6288402676582336,0.006873618811368942
1726940889116151600,1.486151611328125,-0.03419498726725578,0.7081342339515686,-0.07293625921010971
1726940889126137600,1.4961376953125,-0.06222822144627571,0.7785778045654297,-0.13637328147888184
1726940889136123600,1.50612353515625,-0.0899948701262474,0.8454638719558716,-0.18433095514774323
1726940889146109700,1.516109619140625,-0.11783502250909805,0.8787949681282043,-0.21276234090328217
1726940889156095500,1.526095458984375,-0.14517104625701904,0.839216411113739,-0.21021023392677307
1726940889166081800,1.536081787109375,-0.1916184276342392,0.73491370677948,-0.1791820079088211
1726940889176066600,1.546066650390625,-0.25022581219673157,0.5929110050201416,-0.12198928743600845
1726940889186052600,1.556052490234375,-0.2882291376590729,0.4033866226673126,-0.11658547073602676
1726940889196038400,1.566038330078125,-0.3310626149177551,0.23852762579917908,-0.165405735373497
1726940889206024700,1.576024658203125,-0.33571383357048035,0.18241694569587708,-0.23804877698421478
1726940889216010500,1.586010498046875,-0.3213130533695221,0.16771043837070465,-0.3334954082965851
1726940889225996500,1.59599658203125,-0.2975784242153168,0.22324161231517792,-0.43454933166503906
1726940889235982600,1.605982666015625,-0.27327415347099304,0.2918507754802704,-0.5043409466743469
1726940889245968600,1.61596875,-0.26440396904945374,0.31030941009521484,-0.5235886573791504
1726940889255953700,1.62595361328125,-0.2681789994239807,0.3722936809062958,-0.48979365825653076
1726940889265939500,1.635939453125,-0.2950814366340637,0.5082570910453796,-0.4624115824699402
1726940889275925800,1.64592578125,-0.3279922604560852,0.6638480424880981,-0.41755783557891846
1726940889285911600,1.65591162109375,-0.36139893531799316,0.7987698912620544,-0.36227884888648987
1726940889295897600,1.665897705078125,-0.39375102519989014,0.9345405101776123,-0.30804863572120667
1726940889305883600,1.675883544921875,-0.415655255317688,1.0519331693649292,-0.24137400090694427
1726940889315869700,1.68586962890625,-0.4263113737106323,1.1823245286941528,-0.1725347489118576
1726940889325855500,1.69585546875,-0.4152272939682007,1.3218210935592651,-0.1098034605383873
1726940889335840500,1.705840576171875,-0.36900094151496887,1.4634389877319336,-0.06623947620391846
1726940889345826600,1.71582666015625,-0.3058057129383087,1.5812199115753174,-0.016650881618261337
1726940889355812600,1.7258125,-0.23804877698421478,1.6614137887954712,0.06073232367634773
1726940889365798400,1.73579833984375,-0.17009370028972626,1.712890386581421,0.1506723314523697
1726940889375784700,1.74578466796875,-0.1054968610405922,1.7175418138504028,0.24816852807998657
1726940889385770500,1.7557705078125,-0.024658208712935448,1.7093273401260376,0.3374856114387512
1726940889395756500,1.765756591796875,0.07407049834728241,1.7074105739593506,0.434558629989624
1726940889405741600,1.775741455078125,0.19938340783119202,1.6988255977630615,0.5288654565811157
1726940889415727600,1.7857275390625,0.3146927058696747,1.7471787929534912,0.5845955610275269
1726940889425713700,1.795713623046875,0.3962482810020447,1.7975420951843262,0.5999742150306702
1726940889435699500,1.805699462890625,0.4566780626773834,1.86122465133667,0.6164208650588989
1726940889445685500,1.815685546875,0.47917139530181885,1.9401756525039673,0.6118037104606628
1726940889455672600,1.825672607421875,0.4979557394981384,2.006366729736328,0.5850810408592224
1726940889465658600,1.83565869140625,0.5085652470588684,2.028658628463745,0.5268169641494751
1726940889475644700,1.845644775390625,0.48861467838287354,1.9804322719573975,0.4168217182159424
1726940889485629400,1.85562939453125,0.4187607765197754,1.8976104259490967,0.3444649577140808
1726940889495615700,1.86561572265625,0.355358362197876,1.7461676597595215,0.24669046700000763
1726940889505601500,1.8756015625,0.3052523136138916,1.474475622177124,0.15014156699180603
1726940889515587600,1.885587646484375,0.2785533368587494,1.1539647579193115,0.09046438336372375
1726940889525573600,1.89557373046875,0.27419745922088623,0.7901620268821716,0.0723453015089035
1726940889535559700,1.9055595703125,0.30540144443511963,0.4128616154193878,0.05090286210179329
1726940889545545500,1.91554541015625,0.3353273868560791,0.16475406289100647,0.026194319128990173
1726940889555531500,1.925531494140625,0.36012303829193115,0.13028396666049957,0.006884271278977394
1726940889565516800,1.935516845703125,0.3760380744934082,0.16207918524742126,-0.012376508675515652
1726940889575502600,1.945502685546875,0.389611154794693,0.1750543713569641,-0.0785113200545311
1726940889585488600,1.955488525390625,0.3725149929523468,0.17218774557113647,-0.18034367263317108
1726940889595474700,1.965474609375,0.3091557025909424,0.2414752095937729,-0.29177379608154297
1726940889605460700,1.975460693359375,0.20637208223342896,0.396791011095047,-0.40715017914772034
1726940889615446500,1.985446533203125,0.11896313726902008,0.5599740743637085,-0.4925955832004547
1726940889625432800,1.995432861328125,0.05757914111018181,0.7159253358840942,-0.5606963634490967
1726940889635417600,2.00541748046875,0.016620788723230362,0.7903620004653931,-0.611043393611908
1726940889645403600,2.015403564453125,0.02984870970249176,0.7886320352554321,-0.6124269366264343
1726940889655389400,2.025389404296875,0.07635868340730667,0.8007051944732666,-0.5562328696250916
1726940889665375700,2.035375732421875,0.1649724394083023,0.8577964305877686,-0.4923228621482849
1726940889675361500,2.045361572265625,0.3344128727912903,0.9918360114097595,-0.5023289322853088
1726940889685347600,2.05534765625,0.5564728379249573,1.232230544090271,-0.6177268624305725
1726940889695333600,2.065333740234375,0.8432654738426208,1.6311259269714355,-0.8056309819221497
1726940889705319700,2.075319580078125,1.1854890584945679,2.119795083999634,-1.0457637310028076
1726940889715304700,2.0853046875,1.568851351737976,2.6547765731811523,-1.445776343345642
1726940889725290500,2.09529052734375,1.8401305675506592,3.0487406253814697,-1.9591014385223389
1726940889735276800,2.10527685546875,1.8722224235534668,3.094266176223755,-2.38954758644104
1726940889745262600,2.1152626953125,1.7018864154815674,2.827836751937866,-2.6325271129608154
1726940889755248600,2.12524853515625,1.3984330892562866,2.4227261543273926,-2.715315341949463
1726940889765234700,2.135234619140625,1.0873303413391113,2.1011176109313965,-2.701010227203369
1726940889775220700,2.145220703125,0.8371034264564514,1.8904826641082764,-2.6547303199768066
1726940889785206500,2.15520654296875,0.6922072172164917,1.8197616338729858,-2.6213395595550537
1726940889795191600,2.165191650390625,0.649669349193573,1.5921887159347534,-2.46852707862854
1726940889805177600,2.175177490234375,0.5620055198669434,1.3852360248565674,-2.296786069869995
1726940889815163600,2.18516357421875,0.3900678753852844,1.2023842334747314,-2.170719623565674
1726940889825149400,2.1951494140625,0.2734571099281311,0.862697184085846,-1.8903647661209106
1726940889835135700,2.2051357421875,0.19437986612319946,0.42183005809783936,-1.4816848039627075
1726940889845121500,2.21512158203125,0.1132354810833931,-0.14472070336341858,-0.9431347846984863
1726940889855107600,2.225107666015625,0.04713715240359306,-0.6021875739097595,-0.43375250697135925
1726940889865092600,2.235092529296875,0.013846040703356266,-0.7575143575668335,0.00757935643196106
1726940889875078700,2.24507861328125,0.08350208401679993,-0.8207537531852722,0.3487398624420166
1726940889885064700,2.255064697265625,0.2134246677160263,-0.7168561220169067,0.5604130029678345
1726940889895050500,2.265050537109375,0.3295952081680298,-0.6312181949615479,0.6038837432861328
1726940889905036800,2.275036865234375,0.338358610868454,-0.5214884877204895,0.578007698059082
1726940889915022600,2.285022705078125,0.2481331080198288,-0.37411341071128845,0.584957480430603
1726940889925008600,2.295008544921875,0.10620446503162384,-0.173495352268219,0.6532198786735535
1726940889934994700,2.30499462890625,-0.05687073990702629,-0.03357473760843277,0.7570139169692993
1726940889944979700,2.314979736328125,-0.24231676757335663,-0.0020210728980600834,0.8867210745811462
1726940889954965500,2.324965576171875,-0.4197070002555847,-0.025948509573936462,0.9795210361480713
1726940889964951600,2.33495166015625,-0.5936702489852905,-0.05934162065386772,1.0990554094314575
1726940889974937600,2.3449375,-0.7530950903892517,-0.12231738865375519,1.1922202110290527
1726940889984923600,2.354923583984375,-0.841310977935791,-0.15582981705665588,1.2067285776138306
1726940889994909400,2.364909423828125,-0.828316330909729,-0.04364068806171417,1.1356538534164429
1726940890004895700,2.374895751953125,-0.7599226236343384,-0.0018421085551381111,1.011454701423645
1726940890014881500,2.384881591796875,-0.6712968945503235,0.04831666499376297,0.8758742809295654
1726940890024866600,2.394866455078125,-0.58077472448349,0.12123188376426697,0.7640966176986694
1726940890034852600,2.4048525390625,-0.48572781682014465,0.3071383833885193,0.6286860704421997
1726940890044838700,2.414838623046875,-0.3315718173980713,0.4510881006717682,0.4948640763759613
1726940890054824700,2.42482470703125,-0.14338165521621704,0.49681535363197327,0.3724782168865204
1726940890064810500,2.434810546875,0.06553027033805847,0.5337027907371521,0.215016707777977
1726940890074796800,2.444796875,0.26203426718711853,0.6054584980010986,0.004197141621261835
1726940890084782600,2.454782470703125,0.3704797923564911,0.6236696839332581,-0.19475138187408447
1726940890094768600,2.4647685546875,0.32932916283607483,0.5290289521217346,-0.2787133753299713
1726940890104753700,2.474753662109375,0.18802928924560547,0.20066945254802704,-0.18810012936592102
1726940890114739700,2.48473974609375,0.029146432876586914,-0.21746760606765747,0.061054032295942307
1726940890124725500,2.4947255859375,-0.04825674369931221,-0.5118457078933716,0.32395970821380615
1726940890134711600,2.504711669921875,-0.052436042577028275,-0.5391726493835449,0.524807333946228
1726940890144697600,2.514697509765625,-0.012908607721328735,-0.4284704029560089,0.6445249319076538
1726940890154683600,2.52468359375,0.045160818845033646,-0.23860351741313934,0.6764378547668457
1726940890164669400,2.53466943359375,0.04638480767607689,-0.05885479599237442,0.6278284788131714
1726940890174655700,2.54465576171875,-0.04698748141527176,0.16507630050182343,0.5692616105079651
1726940890184640800,2.554640869140625,-0.1816832423210144,0.22385093569755554,0.5186775326728821
1726940890194626600,2.56462646484375,-0.3700861632823944,0.10795576125383377,0.5401822924613953
1726940890204612600,2.574612548828125,-0.5703018307685852,-0.05952697619795799,0.6269581913948059
1726940890214598700,2.5845986328125,-0.7185898423194885,-0.2105332762002945,0.682025134563446
1726940890224584700,2.594584716796875,-0.7980667948722839,-0.3209013342857361,0.6888042688369751
1726940890234570500,2.604570556640625,-0.8156511187553406,-0.33961376547813416,0.6744343638420105
1726940890244556500,2.614556640625,-0.8073452711105347,-0.3062105178833008,0.6192376613616943
1726940890254542600,2.62454248046875,-0.7816497683525085,-0.24934804439544678,0.5885990858078003
1726940890264528600,2.634528564453125,-0.7235230803489685,-0.024231037124991417,0.5735881924629211
1726940890274513700,2.644513671875,-0.5939096808433533,0.18330563604831696,0.5992013812065125
1726940890284499700,2.654499755859375,-0.45635077357292175,0.3523508608341217,0.6464841961860657
1726940890294485500,2.664485595703125,-0.3577200472354889,0.5256701707839966,0.6499329805374146
1726940890304471800,2.674471923828125,-0.2355177104473114,0.6186909079551697,0.5849361419677734
1726940890314457600,2.68445751953125,-0.09882351756095886,0.5959267616271973,0.5035979151725769
1726940890324443600,2.694443603515625,0.05865372717380524,0.5093908309936523,0.43292373418807983
1726940890334429400,2.704429443359375,0.24985404312610626,0.4617692232131958,0.3480817973613739
1726940890344415700,2.714415771484375,0.4106975197792053,0.3490560054779053,0.3084545135498047
1726940890354400500,2.724400390625,0.5371092557907104,0.10943727940320969,0.3635912537574768
1726940890364386600,2.734386474609375,0.6330560445785522,-0.22857005894184113,0.5091348886489868
1726940890374372600,2.74437255859375,0.7334047555923462,-0.4907364249229431,0.6210986971855164
1726940890384358700,2.754358642578125,0.8471669554710388,-0.6007553339004517,0.621207058429718
1726940890394344400,2.764344482421875,0.9288253784179688,-0.5745295882225037,0.5196002721786499
1726940890404330800,2.774330810546875,0.9486334323883057,-0.5306159257888794,0.3945164084434509
1726940890414316500,2.784316650390625,0.8807814121246338,-0.4348007142543793,0.2636580169200897
1726940890424302600,2.794302490234375,0.6952035427093506,-0.3426084816455841,0.10978881269693375
1726940890434287600,2.80428759765625,0.4345301389694214,-0.2590760290622711,-0.00672368286177516
1726940890444273700,2.814273681640625,0.1456352323293686,-0.07201480120420456,-0.07669850438833237
1726940890454258700,2.8242587890625,-0.1576588749885559,0.11758574843406677,-0.02497379295527935
1726940890464244500,2.834244384765625,-0.4233507215976715,0.11695298552513123,0.10471416264772415
1726940890474230800,2.844230712890625,-0.5922545194625854,0.15950843691825867,0.10632936656475067
1726940890484216600,2.854216552734375,-0.6370257139205933,0.13423237204551697,0.035765454173088074
1726940890494202600,2.86420263671875,-0.6028326153755188,0.12149633467197418,-0.026672624051570892
1726940890504188700,2.874188720703125,-0.5688309669494629,0.09796411544084549,-0.08484005928039551
1726940890514174700,2.8841748046875,-0.4707326292991638,0.1574399620294571,-0.09407083690166473
1726940890524159700,2.89415966796875,-0.38334712386131287,0.17315153777599335,-0.033483125269412994
1726940890534145500,2.9041455078125,-0.3158112168312073,0.10921596735715866,0.09922272711992264
1726940890544131800,2.9141318359375,-0.2896363437175751,-0.018546253442764282,0.29683780670166016
1726940890554117600,2.92411767578125,-0.25985926389694214,-0.11566854268312454,0.4686580300331116
1726940890564103700,2.934103759765625,-0.2083156555891037,-0.19675379991531372,0.5816218852996826
1726940890574089700,2.94408984375,-0.1416601985692978,-0.23682665824890137,0.6170216798782349
1726940890584075800,2.95407568359375,-0.08502780646085739,-0.20703786611557007,0.6456999182701111
1726940890594061600,2.9640615234375,-0.05439053848385811,-0.04061533510684967,0.6609143018722534
1726940890604046800,2.974046875,-0.015868179500102997,0.029105421155691147,0.7471820712089539
1726940890614032600,2.98403271484375,0.03754204884171486,0.006258694920688868,0.9011985063552856
1726940890624018700,2.994018798828125,0.12767086923122406,-0.12187397480010986,1.0019326210021973
1726940890634004500,3.00400439453125,0.2435905486345291,-0.22953279316425323,1.013179063796997
1726940890643990800,3.01399072265625,0.38321903347969055,-0.3085213601589203,0.9821913838386536
1726940890653976600,3.0239765625,0.49849846959114075,-0.4005064070224762,0.9096143841743469
1726940890663962600,3.033962646484375,0.5522501468658447,-0.3840203583240509,0.8070089221000671
1726940890673948700,3.04394873046875,0.51219642162323,-0.25030332803726196,0.7023810148239136
1726940890683934700,3.053934814453125,0.3939680755138397,-0.05763666331768036,0.5957552790641785
1726940890693919700,3.063919677734375,0.2621344029903412,0.07519914954900742,0.5272132158279419
1726940890703905800,3.07390576171875,0.1772746443748474,0.08875783532857895,0.4985101819038391
1726940890713891800,3.083891845703125,0.14401762187480927,-0.08869604766368866,0.5220858454704285
1726940890723877600,3.093877685546875,0.1527048498392105,-0.2959307134151459,0.5925195217132568
1726940890733863700,3.10386376953125,0.18507185578346252,-0.32004430890083313,0.6040030717849731
1726940890743849700,3.113849609375,0.23799258470535278,-0.2418089061975479,0.4656398594379425
1726940890753835800,3.123835693359375,0.23475605249404907,-0.17706584930419922,0.3078691363334656
1726940890763821600,3.133821533203125,0.16321076452732086,-0.15962454676628113,0.22526001930236816
1726940890773807900,3.143807861328125,0.04981496185064316,-0.07613817602396011,0.17111529409885406
1726940890783792600,3.153792724609375,-0.05325736105442047,0.09845280647277832,0.13402757048606873
1726940890793778700,3.16377880859375,-0.13802897930145264,0.1849898248910904,0.1414538025856018
1726940890803764700,3.1737646484375,-0.21821542084217072,0.17642642557621002,0.22168712317943573
1726940890813750800,3.183750732421875,-0.2936055064201355,0.11187513917684555,0.322856068611145
1726940890823736600,3.193736572265625,-0.35302942991256714,0.07159455865621567,0.3363306224346161
1726940890833722600,3.20372265625,-0.3344919681549072,-0.0006215817993506789,0.2597476840019226
1726940890843708700,3.213708740234375,-0.2712419033050537,-0.04731851443648338,0.15560103952884674
1726940890853694700,3.22369482421875,-0.18062543869018555,-0.0011385013349354267,0.02586675062775612
1726940890863680500,3.233680419921875,-0.17551828920841217,-0.02695784717798233,-0.11922839283943176
1726940890873665800,3.243665771484375,-0.19457001984119415,-0.07937125116586685,-0.2147921919822693
1726940890883651800,3.25365185546875,-0.18824154138565063,-0.06800808012485504,-0.20261062681674957
1726940890893637600,3.2636376953125,-0.1417912244796753,-0.04318688437342644,-0.14483627676963806
1726940890903624000,3.2736240234375,-0.05793893337249756,-0.1391184777021408,-0.06259440630674362
1726940890913609700,3.283609619140625,0.03638783469796181,-0.19706059992313385,-0.004511395003646612
1726940890923595800,3.293595703125,0.14415690302848816,-0.25264158844947815,0.08183681219816208
1726940890933581600,3.30358154296875,0.3200959861278534,-0.2677707374095917,0.16556872427463531
1726940890943568000,3.31356787109375,0.5291746258735657,-0.18775765597820282,0.25083115696907043
1726940890953552600,3.323552734375,0.7474603652954102,-0.11903531104326248,0.39253610372543335
1726940890963538700,3.33353857421875,0.9461867809295654,-0.1144924908876419,0.5874595046043396
1726940890973524700,3.343524658203125,1.1577293872833252,-0.19907954335212708,0.805682897567749
1726940890983510800,3.3535107421875,1.3573018312454224,-0.3103906214237213,1.013993740081787
1726940890993496600,3.36349658203125,1.529106616973877,-0.37167927622795105,1.1758109331130981
1726940891003483000,3.37348291015625,1.6738065481185913,-0.4228077232837677,1.2036564350128174
1726940891013468700,3.38346875,1.7466280460357666,-0.3538707196712494,1.0862325429916382
1726940891023454700,3.393454833984375,1.710119605064392,-0.20221088826656342,0.8810245394706726
1726940891033440500,3.4034404296875,1.61844003200531,-0.0649891197681427,0.6593981385231018
1726940891043425800,3.41342578125,1.474550485610962,0.06298162788152695,0.4838321805000305
1726940891053411800,3.423411865234375,1.2788323163986206,0.1897643357515335,0.37521809339523315
1726940891063397600,3.433397705078125,1.0522040128707886,0.26912200450897217,0.31039994955062866
1726940891073384000,3.443384033203125,0.8419961929321289,0.27150872349739075,0.21678051352500916
1726940891083369700,3.45336962890625,0.717057466506958,0.32526490092277527,0.06932980567216873
1726940891093355800,3.463355712890625,0.6525287628173828,0.3393876552581787,-0.023501330986618996
1726940891103341800,3.473341796875,0.6309505105018616,0.20614278316497803,-0.010603109374642372
1726940891113327600,3.48332763671875,0.6327428221702576,0.07613418251276016,0.002170742489397526
1726940891123313700,3.493313720703125,0.6425174474716187,-0.04584205523133278,-0.005108742043375969
1726940891133298700,3.503298583984375,0.5663571357727051,-0.11444162577390671,0.043059319257736206
1726940891143284700,3.51328466796875,0.36612391471862793,-0.12542450428009033,0.12428013980388641
1726940891153270800,3.523270751953125,0.14637665450572968,-0.14578570425510406,0.16288132965564728
1726940891163256600,3.533256591796875,-0.07944076508283615,-0.18881386518478394,0.2053920328617096
1726940891173243000,3.543242919921875,-0.2669382095336914,-0.20615530014038086,0.2536274790763855
1726940891183228700,3.553228759765625,-0.38966652750968933,-0.1496395617723465,0.35432133078575134
1726940891193214700,3.563214599609375,-0.43954354524612427,-0.053878944367170334,0.4964078962802887
1726940891203200800,3.57320068359375,-0.4179575741291046,-0.09544183313846588,0.642572820186615
1726940891213186800,3.583186767578125,-0.3492770493030548,-0.20121033489704132,0.7843542098999023
1726940891223171600,3.593171630859375,-0.28281545639038086,-0.39714574813842773,0.8773158192634583
1726940891233157600,3.60315771484375,-0.21086136996746063,-0.5963081121444702,0.8727285265922546
1726940891243143700,3.613143798828125,-0.1652454137802124,-0.7657517790794373,0.8216858506202698
1726940891253129700,3.623129638671875,-0.14774179458618164,-0.8875777721405029,0.7494342923164368
1726940891263115500,3.633115478515625,-0.1362782120704651,-0.9335623383522034,0.6383700966835022
1726940891273101800,3.643101806640625,-0.15631742775440216,-0.8973110914230347,0.524961531162262
1726940891283087600,3.653087646484375,-0.2044609934091568,-0.7935556769371033,0.40695151686668396
1726940891293073700,3.66307373046875,-0.2601357102394104,-0.6877807974815369,0.2574291527271271
1726940891303058700,3.67305859375,-0.3266902267932892,-0.5582438111305237,0.0530184768140316
1726940891313044700,3.683044677734375,-0.37839871644973755,-0.47084900736808777,-0.2350386083126068
1726940891323030800,3.69303076171875,-0.40743008255958557,-0.35507872700691223,-0.5081175565719604
1726940891333016600,3.7030166015625,-0.40354958176612854,-0.34059247374534607,-0.7475655674934387
1726940891343003000,3.7130029296875,-0.37594354152679443,-0.3705993592739105,-0.9875240921974182
1726940891352988700,3.72298876953125,-0.38657432794570923,-0.30876636505126953,-1.174495816230774
1726940891362974700,3.732974609375,-0.4024031162261963,-0.2691478431224823,-1.2996371984481812
1726940891372960800,3.742960693359375,-0.39259469509124756,-0.31806692481040955,-1.3031398057937622
1726940891382946800,3.75294677734375,-0.36792662739753723,-0.3804895579814911,-1.1685374975204468
1726940891392931600,3.762931640625,-0.36631619930267334,-0.4745843708515167,-0.9459689259529114
1726940891402917600,3.772917724609375,-0.4225456714630127,-0.6326461434364319,-0.6934181451797485
1726940891412903700,3.782903564453125,-0.5146337747573853,-0.7200127840042114,-0.5211313366889954
1726940891422889700,3.7928896484375,-0.6263517737388611,-0.6949862241744995,-0.477854460477829
1726940891432875500,3.80287548828125,-0.7424418926239014,-0.674552857875824,-0.5062024593353271
1726940891442861800,3.81286181640625,-0.8445522785186768,-0.6170371174812317,-0.5478466153144836
1726940891452847000,3.82284716796875,-0.8723798990249634,-0.45586979389190674,-0.5687028765678406
1726940891462833200,3.832833251953125,-0.8087745904922485,-0.29100868105888367,-0.5772537589073181
1726940891472819200,3.842819091796875,-0.6577483415603638,-0.15809749066829681,-0.5297810435295105
1726940891482804000,3.852803955078125,-0.45101112127304077,-0.07907164841890335,-0.4522620141506195
1726940891492790300,3.862790283203125,-0.3438223600387573,-0.11726164817810059,-0.4895947277545929
1726940891502776000,3.872776123046875,-0.41847580671310425,-0.2047603279352188,-0.6327052712440491
1726940891512762000,3.88276220703125,-0.5374807715415955,-0.16985587775707245,-0.8276135325431824
1726940891522748200,3.892748046875,-0.6691240072250366,-0.1151963621377945,-0.9934077858924866
1726940891532734200,3.902734130859375,-0.8292572498321533,-0.11827151477336884,-1.1150321960449219
1726940891542720000,3.912719970703125,-0.8790769577026367,-0.08058591932058334,-1.1662967205047607
1726940891552706000,3.9227060546875,-0.8666924834251404,-0.03575240448117256,-1.1619118452072144
1726940891562692000,3.932692138671875,-0.8645134568214417,0.023334616795182228,-1.1457151174545288
1726940891572677000,3.942677001953125,-0.8860453963279724,0.024995896965265274,-1.151482343673706
1726940891582663200,3.9526630859375,-0.989632248878479,-0.044193826615810394,-1.1717612743377686
1726940891592649200,3.962649169921875,-1.1763672828674316,-0.0877988263964653,-1.1554467678070068
1726940891602635300,3.97263525390625,-1.353652834892273,-0.016396017745137215,-1.0817149877548218
1726940891612621000,3.98262109375,-1.4487377405166626,0.1641298234462738,-1.0226658582687378
1726940891622607000,3.992607177734375,-1.4532843828201294,0.387256383895874,-0.9863730669021606
1726940891632593200,4.00259326171875,-1.432428002357483,0.5823553204536438,-0.9197237491607666
1726940891642579200,4.0125791015625,-1.4005361795425415,0.749794602394104,-0.8182759284973145
1726940891652565000,4.02256494140625,-1.2699906826019287,0.9088170528411865,-0.7129439115524292
1726940891662550300,4.03255029296875,-1.0366860628128052,0.904975950717926,-0.56015545129776
1726940891672536000,4.0425361328125,-0.7443684339523315,0.7337325811386108,-0.3252236247062683
1726940891682522000,4.052522216796875,-0.42671722173690796,0.44586509466171265,-0.04375946521759033
1726940891692508200,4.062508056640625,-0.12406709045171738,0.2044692486524582,0.2335728108882904
1726940891702494200,4.072494140625,0.13791047036647797,0.01750442571938038,0.39054006338119507
1726940891712480000,4.08247998046875,0.27766624093055725,-0.10328298062086105,0.45053574442863464
1726940891722466300,4.09246630859375,0.2964886426925659,-0.12077169120311737,0.44804301857948303
1726940891732452000,4.1024521484375,0.3105453550815582,-0.07141745835542679,0.4527570903301239
1726940891742438100,4.112438232421875,0.2878187298774719,0.020318854600191116,0.4470509886741638
1726940891752423200,4.122423095703125,0.2919764518737793,0.03869093582034111,0.44512152671813965
1726940891762409200,4.1324091796875,0.3712201416492462,0.02839515544474125,0.44302642345428467
1726940891772395000,4.14239501953125,0.5140854120254517,-0.03984248638153076,0.46508780121803284
1726940891782381000,4.152381103515625,0.6167598962783813,-0.1122562363743782,0.49700257182121277
1726940891792367000,4.1623671875,0.6510409116744995,-0.17483440041542053,0.4864839017391205
1726940891802353200,4.172353271484375,0.6300826072692871,-0.17487061023712158,0.435002863407135
1726940891812339000,4.1823388671875,0.569578230381012,-0.1379072666168213,0.38368934392929077
1726940891822325200,4.1923251953125,0.5065630674362183,-0.0991380363702774,0.3350999653339386
1726940891832311000,4.20231103515625,0.41747286915779114,-0.029321404173970222,0.2978396713733673
1726940891842296000,4.212296142578125,0.2890600264072418,0.05994775518774986,0.3091677129268646
1726940891852282000,4.2222822265625,0.1547379195690155,0.1271536946296692,0.34501731395721436
1726940891862268200,4.23226806640625,0.06130889803171158,0.21647611260414124,0.3658272624015808
1726940891872254200,4.242254150390625,0.061533935368061066,0.30618521571159363,0.3239162862300873
1726940891882240000,4.252239990234375,0.11118537932634354,0.40105900168418884,0.23339277505874634
1726940891892226300,4.262226318359375,0.19884279370307922,0.5116076469421387,0.1378452181816101
1726940891902212000,4.272212158203125,0.30416709184646606,0.6162855625152588,0.057975150644779205
1726940891912198100,4.2821982421875,0.3947787284851074,0.6745550036430359,0.020196614786982536
1726940891922183000,4.292182861328125,0.4371642768383026,0.6639401912689209,0.035408858209848404
1726940891932169200,4.302169189453125,0.4220180809497833,0.536687970161438,0.04772171750664711
1726940891942155000,4.312155029296875,0.3212456703186035,0.4070417881011963,0.06011686474084854
1726940891952141000,4.32214111328125,0.18735577166080475,0.357109934091568,0.0648418441414833
1726940891962127000,4.332127197265625,0.05945879966020584,0.3336479961872101,0.05606885999441147
1726940891972113200,4.342113037109375,-0.07774806022644043,0.3501955568790436,0.054880291223526
1726940891982099000,4.352098876953125,-0.20798595249652863,0.4275300204753876,0.055384695529937744
1726940891992085200,4.362085205078125,-0.27917492389678955,0.4797096252441406,0.03856683149933815
1726940892002071000,4.372071044921875,-0.2763546407222748,0.4787452816963196,-0.01444285549223423
1726940892012057000,4.38205712890625,-0.20234563946723938,0.5177187919616699,-0.1093781590461731
1726940892022042000,4.3920419921875,-0.09119223058223724,0.5628836154937744,-0.238869309425354
1726940892032028200,4.402028076171875,0.027345070615410805,0.580405592918396,-0.34608444571495056
1726940892042014200,4.41201416015625,0.13084828853607178,0.5815118551254272,-0.42561307549476624
1726940892052000000,4.422,0.17610418796539307,0.5601186752319336,-0.4854598939418793
1726940892061986300,4.431986328125,0.16554662585258484,0.5653877854347229,-0.5474657416343689
1726940892071972000,4.44197216796875,0.09249638020992279,0.5509630441665649,-0.5575559139251709
1726940892081958100,4.451958251953125,-0.03879852965474129,0.4795492887496948,-0.4973783493041992
1726940892091944200,4.461944091796875,-0.1525285542011261,0.4314664602279663,-0.4147774875164032
1726940892101929200,4.47192919921875,-0.21877814829349518,0.43599116802215576,-0.34031763672828674
1726940892111915000,4.4819150390625,-0.24010713398456573,0.5222898125648499,-0.3050869405269623
1726940892121901000,4.491901123046875,-0.22161228954792023,0.6409142017364502,-0.3087437152862549
1726940892131887000,4.50188720703125,-0.15049150586128235,0.7570517659187317,-0.33429861068725586
1726940892141873200,4.511873046875,-0.05567045137286186,0.8015581965446472,-0.35632723569869995
1726940892151859000,4.52185888671875,0.053110089153051376,0.757490873336792,-0.3331848978996277
1726940892161845200,4.53184521484375,0.16105253994464874,0.5697438716888428,-0.24579165875911713
1726940892171831000,4.5418310546875,0.2525654137134552,0.3028072714805603,-0.15016713738441467
1726940892181817000,4.551817138671875,0.34106385707855225,0.061941131949424744,-0.12236825376749039
1726940892191803100,4.56180322265625,0.38950487971305847,-0.07388167828321457,-0.21311840415000916
1726940892201788200,4.5717880859375,0.3805049955844879,-0.13438603281974792,-0.35589098930358887
1726940892211774200,4.581774169921875,0.3002098798751831,-0.15519917011260986,-0.5007757544517517
1726940892221760000,4.591760009765625,0.19557268917560577,-0.1177428811788559,-0.6219344139099121
1726940892231746300,4.601746337890625,0.0884542316198349,-0.0172096136957407,-0.6762463450431824
1726940892241732000,4.611732177734375,0.05567790940403938,0.11254838109016418,-0.6608439683914185
1726940892251718100,4.62171826171875,0.0958426371216774,0.2362373024225235,-0.6164876818656921
1726940892261704200,4.6317041015625,0.16507630050182343,0.33965396881103516,-0.5621099472045898
1726940892271690200,4.641690185546875,0.25996845960617065,0.4370556175708771,-0.5750662088394165
1726940892281675000,4.651675048828125,0.37795156240463257,0.5851843953132629,-0.6459084153175354
1726940892291661000,4.6616611328125,0.4998098313808441,0.7771274447441101,-0.7309452891349792
1726940892301647000,4.671647216796875,0.5995103120803833,0.9138759970664978,-0.8052464127540588
1726940892311633200,4.681633056640625,0.6000706553459167,0.9163287281990051,-0.8463054299354553
1726940892321619000,4.691618896484375,0.5589626431465149,0.7982900142669678,-0.8820272088050842
1726940892331605200,4.701605224609375,0.48280394077301025,0.695330023765564,-0.9053855538368225
1726940892341591000,4.711591064453125,0.3776610195636749,0.6761307716369629,-0.905056357383728
1726940892351577000,4.7215771484375,0.21939679980278015,0.6598439812660217,-0.7971224784851074
1726940892361563100,4.731563232421875,0.04836646839976311,0.6654096841812134,-0.6707232594490051
1726940892371548200,4.741548095703125,-0.07320443540811539,0.7448462247848511,-0.5541439056396484
1726940892381534200,4.7515341796875,-0.10379163920879364,0.7809538841247559,-0.4757915735244751
1726940892391520000,4.76152001953125,-0.08515963703393936,0.783486008644104,-0.4688020944595337
1726940892401506300,4.77150634765625,-0.0805550292134285,0.7395755648612976,-0.5152681469917297
1726940892411492000,4.7814921875,-0.09018182754516602,0.680382251739502,-0.6102790832519531
1726940892421478100,4.79147802734375,-0.10931823402643204,0.6563299298286438,-0.7507336735725403
1726940892431464200,4.801464111328125,-0.1306895762681961,0.6878820061683655,-0.9323567152023315
1726940892441450200,4.8114501953125,-0.15872839093208313,0.7260019183158875,-1.140777349472046
1726940892451436000,4.82143603515625,-0.19576017558574677,0.7135871052742004,-1.3078142404556274
1726940892461421600,4.831421630859375,-0.24433676898479462,0.7172481417655945,-1.433134913444519
1726940892471407600,4.84140771484375,-0.2942550778388977,0.6379253268241882,-1.516706943511963
1726940892481393700,4.8513935546875,-0.3012160360813141,0.4818209707736969,-1.523046612739563
1726940892491379500,4.86137939453125,-0.2830125391483307,0.23953615128993988,-1.4666427373886108
1726940892501365800,4.87136572265625,-0.24440841376781464,-0.09547033160924911,-1.3332825899124146
1726940892511351600,4.8813515625,-0.17826934158802032,-0.2939962148666382,-1.1723328828811646
1726940892521337600,4.891337646484375,-0.09318507462739944,-0.32290029525756836,-1.0253322124481201
1726940892531323600,4.90132373046875,-0.014562697149813175,-0.29578903317451477,-0.9389408230781555
1726940892541309700,4.911309814453125,0.008866728283464909,-0.25932905077934265,-0.9081190228462219
1726940892551294500,4.92129443359375,0.005283711478114128,-0.3227524757385254,-0.9121409058570862
1726940892561280500,4.931280517578125,-0.04206942394375801,-0.47541871666908264,-0.8765642642974854
1726940892571266600,4.9412666015625,-0.13929423689842224,-0.6006925106048584,-0.7529467344284058
1726940892581252600,4.951252685546875,-0.21838799118995667,-0.6990702152252197,-0.5621277689933777
1726940892591238400,4.96123828125,-0.2023850679397583,-0.6876305937767029,-0.35229039192199707
1726940892601224700,4.971224609375,-0.11826831847429276,-0.4552159905433655,-0.22395586967468262
1726940892611210500,4.98121044921875,-0.003849599277600646,-0.07280682772397995,-0.18772542476654053
1726940892621196500,4.991196533203125,0.15080122649669647,0.0843295305967331,-0.1567925363779068
1726940892631182600,5.0011826171875,0.3734673261642456,-0.002910302486270666,-0.11495374888181686
1726940892641167600,5.011167724609375,0.42166867852211,-0.14839133620262146,-0.054615575820207596
1726940892651153700,5.021153564453125,0.4054361879825592,-0.31969836354255676,0.0544762909412384
1726940892661139500,5.031139404296875,0.4085310399532318,-0.348742812871933,0.12217384576797485
1726940892671125800,5.041125732421875,0.43633177876472473,-0.16368187963962555,0.12529054284095764
1726940892681111600,5.051111572265625,0.4900605082511902,0.0720859095454216,0.08881402760744095
1726940892691097600,5.06109765625,0.5089527368545532,0.19664089381694794,0.04549558088183403
1726940892701083600,5.071083740234375,0.4901297688484192,0.24543292820453644,-0.029877737164497375
1726940892711069700,5.081069580078125,0.44890668988227844,0.3110412359237671,-0.1495138555765152
1726940892721055500,5.091055419921875,0.39867067337036133,0.34625300765037537,-0.20004680752754211
1726940892731040500,5.10104052734375,0.3878750205039978,0.37312352657318115,-0.14362481236457825
1726940892741026600,5.111026611328125,0.39599525928497314,0.4115356206893921,-0.055084291845560074
1726940892751012600,5.1210126953125,0.4111025929450989,0.4466632306575775,-0.009380185976624489
1726940892760998400,5.130998291015625,0.4107896685600281,0.4327346384525299,0.015269766561686993
1726940892770984700,5.140984619140625,0.40405774116516113,0.39212357997894287,0.018643992021679878
1726940892780970500,5.150970458984375,0.38826465606689453,0.35793817043304443,0.03313717991113663
1726940892790956500,5.16095654296875,0.36903050541877747,0.3494296371936798,0.061215419322252274
1726940892800942600,5.170942626953125,0.35762763023376465,0.3494163155555725,0.11922359466552734
1726940892810928600,5.1809287109375,0.35941994190216064,0.3871232271194458,0.17494730651378632
1726940892820913700,5.19091357421875,0.33868643641471863,0.45473209023475647,0.20925042033195496
1726940892830899500,5.2008994140625,0.27751097083091736,0.5181366205215454,0.24494263529777527
1726940892840885800,5.2108857421875,0.21641193330287933,0.565240740776062,0.2991030812263489
1726940892850871600,5.22087158203125,0.19244028627872467,0.6214774250984192,0.3391019105911255
1726940892860857600,5.230857666015625,0.1913270801305771,0.6819026470184326,0.34005263447761536
1726940892870843600,5.24084375,0.20614731311798096,0.719370424747467,0.3113544285297394
1726940892880829700,5.25082958984375,0.20997773110866547,0.7227123975753784,0.28666985034942627
1726940892890815500,5.2608154296875,0.20457445085048676,0.72722327709198,0.26016685366630554
1726940892900801500,5.270801513671875,0.20352515578269958,0.7638742327690125,0.21649369597434998
1726940892910787600,5.28078759765625,0.2194543331861496,0.7176220417022705,0.2114962637424469
1726940892920772600,5.290772705078125,0.23618590831756592,0.5558089017868042,0.2883777320384979
1726940892930758400,5.30075830078125,0.2603394389152527,0.4736088514328003,0.37805089354515076
1726940892940744700,5.31074462890625,0.27055051922798157,0.4544402062892914,0.4467806816101074
1726940892950730500,5.32073046875,0.24952568113803864,0.4121316373348236,0.5327906608581543
1726940892960716500,5.330716552734375,0.16631413996219635,0.40242627263069153,0.6337391138076782
1726940892970702600,5.34070263671875,0.08777991682291031,0.4182574450969696,0.7017663717269897
1726940892980688600,5.350688720703125,0.06423890590667725,0.46383824944496155,0.6826890707015991
1726940892990674400,5.36067431640625,0.07159668952226639,0.5653981566429138,0.5635770559310913
1726940893000660700,5.37066064453125,0.057785533368587494,0.45699790120124817,0.4788725674152374
1726940893010645500,5.3806455078125,-0.04601862281560898,0.29437172412872314,0.4639093279838562
1726940893020631600,5.390631591796875,-0.20312701165676117,0.22257928550243378,0.4727635681629181
1726940893030617600,5.40061767578125,-0.3241463899612427,0.2168726623058319,0.4774903953075409
1726940893040603600,5.410603759765625,-0.4170747399330139,0.17733217775821686,0.4918304681777954
1726940893050589400,5.42058935546875,-0.5324806571006775,0.036980919539928436,0.5436065793037415
1726940893060575500,5.430575439453125,-0.6717331409454346,-0.08279634267091751,0.6461952328681946
1726940893070561500,5.4405615234375,-0.8017321228981018,-0.1958845555782318,0.7070567607879639
1726940893080547600,5.450547607421875,-0.8737913966178894,-0.2579149007797241,0.7048956155776978
1726940893090532600,5.46053271484375,-0.8503792881965637,-0.30736127495765686,0.6805045008659363
1726940893100518400,5.470518310546875,-0.7880370616912842,-0.36891624331474304,0.6886825561523438
1726940893110504700,5.480504638671875,-0.7566594481468201,-0.43754643201828003,0.7528053522109985
1726940893120490500,5.490490478515625,-0.7610877752304077,-0.41059577465057373,0.7498497366905212
1726940893130476500,5.5004765625,-0.7992900013923645,-0.47548824548721313,0.7672415375709534
1726940893140462600,5.510462646484375,-0.8296912908554077,-0.5353630185127258,0.7386157512664795
1726940893150448600,5.52044873046875,-0.8365702629089355,-0.5056977868080139,0.692486584186554
1726940893160434400,5.530434326171875,-0.8215279579162598,-0.5060448050498962,0.6080499887466431
1726940893170420700,5.540420654296875,-0.8005304932594299,-0.5136896967887878,0.5172505974769592
1726940893180406500,5.550406494140625,-0.7766821384429932,-0.5557391047477722,0.47096991539001465
1726940893190391600,5.5603916015625,-0.7589700222015381,-0.6805692315101624,0.5019198656082153
1726940893200377300,5.57037744140625,-0.7308576703071594,-0.710868775844574,0.5920912623405457
1726940893210363600,5.58036376953125,-0.7007807493209839,-0.6599971055984497,0.7467836737632751
1726940893220349400,5.590349365234375,-0.6465523838996887,-0.5336048007011414,0.8444324731826782
1726940893230335500,5.60033544921875,-0.5326191782951355,-0.3808080554008484,0.9606778025627136
1726940893240321500,5.610321533203125,-0.4403366446495056,-0.3830285966396332,1.0322740077972412
1726940893250307600,5.6203076171875,-0.37975504994392395,-0.4679030179977417,0.9765905141830444
1726940893260293400,5.63029345703125,-0.3238515853881836,-0.5927229523658752,0.7723300457000732
1726940893270279700,5.64027978515625,-0.26146355271339417,-0.7212050557136536,0.5652610063552856
1726940893280264700,5.6502646484375,-0.1932261884212494,-0.720045804977417,0.4398854970932007
1726940893290250500,5.66025048828125,-0.12704530358314514,-0.604310154914856,0.35999786853790283
1726940893300236500,5.670236572265625,-0.07406970113515854,-0.5482268929481506,0.32206031680107117
1726940893310222600,5.68022265625,-0.05095772445201874,-0.5651957392692566,0.25726670026779175
1726940893320208600,5.690208740234375,-0.03771781921386719,-0.6326459050178528,0.14168763160705566
1726940893330194400,5.7001943359375,-0.024523984640836716,-0.6112915873527527,0.056763678789138794
1726940893340180700,5.7101806640625,-0.03702539578080177,-0.6021623015403748,0.017131049185991287
1726940893350166500,5.72016650390625,-0.06438644975423813,-0.5632542967796326,0.0104726143181324
1726940893360152600,5.730152587890625,-0.12367027252912521,-0.5307030081748962,0.010894992388784885
1726940893370137600,5.7401376953125,-0.1939590871334076,-0.4926033020019531,0.018786471337080002
1726940893380123600,5.75012353515625,-0.21400097012519836,-0.45465192198753357,-0.011166367679834366
1726940893390109400,5.760109375,-0.19994160532951355,-0.4844534993171692,-0.07181267440319061
1726940893400095500,5.770095458984375,-0.207301527261734,-0.4873736500740051,-0.1287132352590561
1726940893410081500,5.78008154296875,-0.25974422693252563,-0.4753822386264801,-0.16932617127895355
1726940893420067600,5.790067626953125,-0.34927916526794434,-0.46530935168266296,-0.2244243174791336
1726940893430053400,5.800053466796875,-0.47518888115882874,-0.4622887969017029,-0.2645997107028961
1726940893440039700,5.810039794921875,-0.5974032282829285,-0.4499644935131073,-0.2985054552555084
1726940893450025500,5.820025390625,-0.6984677910804749,-0.38671281933784485,-0.3397993743419647
1726940893460009700,5.830009765625,-0.7697232961654663,-0.3035263121128082,-0.3875810205936432
1726940893469995800,5.839995849609375,-0.8018269538879395,-0.21239535510540009,-0.4006693959236145
1726940893479981800,5.84998193359375,-0.808581531047821,-0.07618771493434906,-0.38463902473449707
1726940893489967900,5.8599677734375,-0.8070704340934753,-0.041363950818777084,-0.4164409041404724
1726940893499953700,5.86995361328125,-0.8316186666488647,0.047516118735075,-0.48502233624458313
1726940893509940000,5.87993994140625,-0.8873375654220581,0.10589101165533066,-0.5948807001113892
1726940893519925800,5.88992578125,-0.9285547733306885,0.32450538873672485,-0.5790138244628906
1726940893529911800,5.899911865234375,-0.9661479592323303,0.36528849601745605,-0.5239660143852234
1726940893539897900,5.90989794921875,-0.9756000638008118,0.21355701982975006,-0.5273618102073669
1726940893549883000,5.9198828125,-0.9452069997787476,0.09737635403871536,-0.4891483783721924
1726940893559869000,5.929868896484375,-0.860960841178894,0.11632101982831955,-0.386738121509552
1726940893569854700,5.939854736328125,-0.743594765663147,0.1525575816631317,-0.3023262917995453
1726940893579841000,5.949841064453125,-0.6295132040977478,0.1478874683380127,-0.26189127564430237
1726940893589826800,5.959826904296875,-0.5625959634780884,0.09463515877723694,-0.26681384444236755
1726940893599812900,5.969812744140625,-0.5440478324890137,0.06189825385808945,-0.30018407106399536
1726940893609799000,5.979798828125,-0.5605229735374451,0.055747419595718384,-0.3359343409538269
1726940893619785000,5.989784912109375,-0.5641206502914429,0.03134727105498314,-0.38492104411125183
1726940893629770800,5.999770751953125,-0.5332138538360596,0.08464351296424866,-0.43819040060043335
1726940893639755800,6.009755859375,-0.4674508273601532,0.17977003753185272,-0.4735608994960785
1726940893649741800,6.019741943359375,-0.38756904006004333,0.2751615345478058,-0.43725377321243286
1726940893659728000,6.029727783203125,-0.2969818711280823,0.26622503995895386,-0.36833569407463074
1726940893669713700,6.039713623046875,-0.2179027646780014,0.24792884290218353,-0.2730238139629364
1726940893679700000,6.049699951171875,-0.17251531779766083,0.1863725334405899,-0.19286826252937317
1726940893689685800,6.059685791015625,-0.17884723842144012,0.12470012158155441,-0.13433757424354553
1726940893699671800,6.069671875,-0.20474621653556824,0.08079258352518082,-0.12093973904848099
1726940893709657900,6.079657958984375,-0.22511540353298187,0.0815473198890686,-0.12650814652442932
1726940893719644000,6.089643798828125,-0.24020487070083618,0.1134173721075058,-0.13871526718139648
1726940893729629000,6.09962890625,-0.2288891077041626,0.16802255809307098,-0.12619894742965698
1726940893739614700,6.10961474609375,-0.1865997016429901,0.232574924826622,-0.10646811872720718
1726940893749600800,6.119600830078125,-0.17016933858394623,0.23146145045757294,-0.1389022320508957
1726940893759586800,6.1295869140625,-0.18338899314403534,0.2361544817686081,-0.17231157422065735
1726940893769572600,6.139572509765625,-0.19646964967250824,0.2337469756603241,-0.19061867892742157
1726940893779559000,6.149558837890625,-0.180501326918602,0.20626422762870789,-0.2075989991426468
1726940893789544700,6.159544677734375,-0.13606010377407074,0.17924298346042633,-0.2196498066186905
1726940893799530800,6.16953076171875,-0.048533715307712555,0.15370061993598938,-0.22033849358558655
1726940893809516800,6.179516845703125,0.08112281560897827,0.16867423057556152,-0.21674323081970215
1726940893819501800,6.189501708984375,0.247761070728302,0.22291217744350433,-0.21464146673679352
1726940893829487900,6.19948779296875,0.41863587498664856,0.3100081980228424,-0.23880831897258759
1726940893839473700,6.2094736328125,0.5779685378074646,0.3788943290710449,-0.2728203535079956
1726940893849460000,6.2194599609375,0.7191477417945862,0.3987202048301697,-0.31914469599723816
1726940893859445800,6.22944580078125,0.7506455183029175,0.36529114842414856,-0.3756348788738251
1726940893869431800,6.239431884765625,0.7131942510604858,0.3405490517616272,-0.44659480452537537
1726940893879417900,6.24941796875,0.6399099230766296,0.2591306269168854,-0.43572109937667847
1726940893889404000,6.25940380859375,0.5387500524520874,0.15073305368423462,-0.3564060628414154
1726940893899389700,6.2693896484375,0.5433253645896912,0.09409187734127045,-0.19994480907917023
1726940893909374700,6.279374755859375,0.6561488509178162,0.1652829647064209,-0.12295175343751907
1726940893919360800,6.28936083984375,0.8396667242050171,0.2814505994319916,-0.08528240770101547
1726940893929346800,6.299346923828125,1.0388519763946533,0.32000356912612915,-0.06927920877933502
1726940893939332600,6.30933251953125,1.2212636470794678,0.3120252788066864,-0.026165824383497238
1726940893949319000,6.31931884765625,1.3393971920013428,0.33769387006759644,-0.05297107249498367
1726940893959304700,6.3293046875,1.3935730457305908,0.256355881690979,-0.14769704639911652
1726940893969290800,6.339290771484375,1.3691049814224243,0.15029843151569366,-0.2563963532447815
1726940893979276800,6.34927685546875,1.2636382579803467,0.08424457162618637,-0.3491255044937134
1726940893989262800,6.359262939453125,1.1056385040283203,0.04530462995171547,-0.3969116806983948
1726940893999248600,6.36924853515625,0.9304461479187012,0.05507789924740791,-0.39494919776916504
1726940894009233700,6.379233642578125,0.7914547324180603,0.19281232357025146,-0.36464428901672363
1726940894019220000,6.389219970703125,0.6928463578224182,0.38574156165122986,-0.35376232862472534
1726940894029205800,6.399205810546875,0.6188651323318481,0.5564600229263306,-0.39126577973365784
1726940894039191800,6.40919189453125,0.5311461687088013,0.7826087474822998,-0.5511518120765686
1726940894049177900,6.419177734375,0.41243869066238403,1.037581443786621,-0.7968971729278564
1726940894059164000,6.429163818359375,0.25586214661598206,1.165520429611206,-1.005792260169983
1726940894069149700,6.439149658203125,0.050028279423713684,1.1064763069152832,-1.1427839994430542
1726940894079136000,6.449135986328125,-0.1519932597875595,0.9368351101875305,-1.2188987731933594
1726940894089121800,6.459121826171875,-0.2820820212364197,0.8504613041877747,-1.312324047088623
1726940894099106800,6.46910693359375,-0.31879130005836487,0.956085741519928,-1.4507005214691162
1726940894109092600,6.479092529296875,-0.2964814603328705,1.1203784942626953,-1.5816497802734375
1726940894119079000,6.489078857421875,-0.30704808235168457,1.323082447052002,-1.627427339553833
1726940894129064700,6.499064697265625,-0.34619683027267456,1.5419915914535522,-1.5999579429626465
1726940894139050800,6.50905078125,-0.36650076508522034,1.6822941303253174,-1.5414408445358276
1726940894149036800,6.519036865234375,-0.37214478850364685,1.4909148216247559,-1.4319322109222412
1726940894159022800,6.52902294921875,-0.35638049244880676,0.9733132123947144,-1.3456822633743286
1726940894169008600,6.539008544921875,-0.32541483640670776,0.32585081458091736,-1.2695800065994263
1726940894178995000,6.548994873046875,-0.2655560374259949,-0.29370832443237305,-1.1792287826538086
1726940894188980000,6.55897998046875,-0.1499847024679184,-0.8027744889259338,-1.0548349618911743
1726940894198965800,6.5689658203125,-0.05763373523950577,-1.1738969087600708,-0.8926599025726318
1726940894208951800,6.578951904296875,0.01654595322906971,-1.379967212677002,-0.7388351559638977
1726940894218937900,6.588937744140625,0.035948947072029114,-1.3899716138839722,-0.6402699947357178
1726940894228924000,6.598923828125,-0.008192948997020721,-1.4312535524368286,-0.6156535744667053
1726940894238909700,6.60890966796875,-0.14013846218585968,-1.623164176940918,-0.6428495049476624
1726940894248896000,6.61889599609375,-0.2995552718639374,-1.8595542907714844,-0.6353101134300232
1726940894258881800,6.6288818359375,-0.35730940103530884,-2.097074031829834,-0.6728926301002502
1726940894268867800,6.638867919921875,-0.3388480842113495,-2.1030235290527344,-0.7155053615570068
1726940894278852900,6.648852783203125,-0.37372031807899475,-1.8314327001571655,-0.6891078352928162
1726940894288839000,6.6588388671875,-0.4288152754306793,-1.2829877138137817,-0.6506131887435913
1726940894298824700,6.66882470703125,-0.41987210512161255,-0.43221426010131836,-0.5751860737800598
1726940894308810800,6.678810791015625,-0.2749444842338562,0.3596130311489105,-0.39683204889297485
1726940894318796800,6.688796875,-0.08457320928573608,0.6271693706512451,-0.17705653607845306
1726940894328782800,6.698782958984375,0.027696609497070312,0.720565915107727,-0.04337410628795624
1726940894338768600,6.7087685546875,0.13160063326358795,0.8589679598808289,-0.012071310542523861
1726940894348755000,6.7187548828125,0.19358091056346893,1.0005370378494263,-0.050276752561330795
1726940894358740700,6.72874072265625,0.22325704991817474,0.9335351586341858,-0.061281733214855194
1726940894368725800,6.738725830078125,0.2176971733570099,0.648694634437561,-0.029930468648672104
1726940894378712000,6.748712158203125,0.23372860252857208,0.482599139213562,-0.010221212171018124
1726940894388697900,6.75869775390625,0.21523454785346985,0.3947950005531311,0.000931307440623641
1726940894398684000,6.768683837890625,0.1641993224620819,0.3098454773426056,0.06566502898931503
1726940894408669700,6.778669677734375,0.11853276938199997,0.3047234117984772,0.18593817949295044
1726940894418656000,6.788656005859375,0.08166690170764923,0.33696097135543823,0.3519793450832367
1726940894428641800,6.798641845703125,0.03789438679814339,0.4049626588821411,0.5506972074508667
1726940894438627800,6.8086279296875,-0.005153216887265444,0.435077428817749,0.7364649772644043
1726940894448614000,6.81861376953125,-0.0775427296757698,0.41844865679740906,0.874786376953125
1726940894458600000,6.828599853515625,-0.20360638201236725,0.36046311259269714,0.9864050149917603
1726940894468585000,6.8385849609375,-0.343662828207016,0.2390059232711792,1.0841609239578247
1726940894478571000,6.848571044921875,-0.45293259620666504,0.18452057242393494,1.1762950420379639
1726940894488556800,6.858556884765625,-0.5267719030380249,0.1884404867887497,1.2472728490829468
1726940894498543000,6.868543212890625,-0.5580819249153137,0.23003879189491272,1.2897135019302368
1726940894508529000,6.87852880859375,-0.5931624174118042,0.3740990161895752,1.3460670709609985
1726940894518515000,6.888514892578125,-0.6619153618812561,0.8428774476051331,1.4159414768218994
1726940894528501000,6.8985009765625,-0.705554187297821,1.2955551147460938,1.3046003580093384
1726940894538487000,6.908487060546875,-0.7342351078987122,1.1688387393951416,1.1311299800872803
1726940894548472800,6.918472900390625,-0.8811987042427063,0.7215667366981506,0.9866790771484375
1726940894558457900,6.928457763671875,-0.9977506399154663,0.4944691061973572,0.8177827000617981
1726940894568444000,6.93844384765625,-0.9542263150215149,0.5246121287345886,0.7251949906349182
1726940894578430000,6.948429931640625,-0.7908275723457336,0.7412264347076416,0.8091652989387512
1726940894588415700,6.958415771484375,-0.5676485300064087,0.9622688293457031,0.9231008887290955
1726940894598402000,6.968402099609375,-0.4268437325954437,0.5798644423484802,0.9696699976921082
1726940894608387800,6.978387939453125,-0.44886913895606995,0.1035359799861908,0.9172656536102295
1726940894618374000,6.988373779296875,-0.5884366035461426,-0.347133994102478,0.8742691874504089
1726940894628360000,6.99835986328125,-0.669836699962616,-0.7331299185752869,0.9031524658203125
1726940894638346000,7.008345947265625,-0.6475691795349121,-0.8284239172935486,1.015260934829712
1726940894648331000,7.0183310546875,-0.5525012612342834,-0.7897670865058899,1.1367849111557007
1726940894658316800,7.02831689453125,-0.39099279046058655,-0.7536444664001465,1.210426688194275
1726940894668303000,7.03830322265625,-0.17745281755924225,-0.860673189163208,1.1556761264801025
1726940894678289000,7.048288818359375,0.01263989508152008,-0.9886045455932617,1.1154005527496338
1726940894688275000,7.05827490234375,0.1671905815601349,-1.118454933166504,1.0738171339035034
1726940894698261000,7.068260986328125,0.2734975814819336,-1.301414966583252,1.0197057723999023
1726940894708247000,7.0782470703125,0.2842671573162079,-1.2647950649261475,0.8774558901786804
1726940894718232800,7.08823291015625,0.24379242956638336,-1.1078273057937622,0.6799026131629944
1726940894728219100,7.09821923828125,0.2364298403263092,-0.9117363691329956,0.5073518753051758
1726940894738205000,7.108204833984375,0.279066801071167,-0.7178984880447388,0.4275585114955902
1726940894748190000,7.11818994140625,0.33182293176651,-0.5859505534172058,0.40270936489105225
1726940894758175700,7.12817578125,0.3663545548915863,-0.539463996887207,0.406389057636261
1726940894768162000,7.138162109375,0.3653010129928589,-0.5027696490287781,0.4266456067562103
1726940894778147800,7.14814794921875,0.3273051679134369,-0.346316933631897,0.48584339022636414
1726940894788134000,7.1581337890625,0.22500088810920715,-0.16634103655815125,0.5308495163917542
1726940894798120000,7.168119873046875,0.013733921572566032,-0.026938140392303467,0.6084548234939575
1726940894808106000,7.17810595703125,-0.26631370186805725,0.22813676297664642,0.6631441712379456
1726940894818091800,7.188091796875,-0.5005201101303101,0.5854730606079102,0.6344326138496399
1726940894828078000,7.198078125,-0.6446266770362854,0.9585209488868713,0.43273064494132996
1726940894838063000,7.20806298828125,-0.6407067775726318,1.0582715272903442,0.13695864379405975
1726940894848049000,7.218048828125,-0.5900244116783142,0.7312774062156677,-0.12116264551877975
1726940894858035000,7.228034912109375,-0.46742311120033264,0.39257657527923584,-0.19890457391738892
1726940894868021000,7.23802099609375,-0.3146412968635559,0.20216934382915497,-0.04553845524787903
1726940894878007000,7.248007080078125,-0.23116850852966309,0.07939895242452621,0.12499013543128967
1726940894887992800,7.257992919921875,-0.22106660902500153,-0.058104582130908966,0.2063172161579132
1726940894897979100,7.267979248046875,-0.24010847508907318,-0.19633302092552185,0.20120447874069214
1726940894907965000,7.27796484375,-0.23991885781288147,-0.39288416504859924,0.08243788778781891
1726940894917951000,7.287950927734375,-0.14338378608226776,-0.577571451663971,-0.031131288036704063
1726940894927937000,7.29793701171875,0.041239846497774124,-0.6555570960044861,-0.09592653065919876
1726940894937922000,7.307922119140625,0.24190956354141235,-0.6346443295478821,-0.11842650920152664
1726940894947907800,7.317907958984375,0.4083392918109894,-0.5083844065666199,-0.12264496088027954
1726940894957894000,7.327893798828125,0.5509049892425537,-0.3288532495498657,-0.14716282486915588
1726940894967880000,7.3378798828125,0.6361516714096069,-0.20800593495368958,-0.2539372146129608
1726940894977866000,7.347865966796875,0.706827700138092,-0.20708660781383514,-0.37745994329452515
1726940894987851800,7.357851806640625,0.7822892069816589,-0.1831919252872467,-0.4188723564147949
1726940894997838000,7.367838134765625,0.8460780382156372,-0.2064884603023529,-0.3760375380516052
1726940895007824000,7.377823974609375,0.8539814949035645,-0.26710253953933716,-0.29971373081207275
1726940895017810000,7.387809814453125,0.794543445110321,-0.3426835834980011,-0.24949957430362701
1726940895027795000,7.397794921875,0.7067350149154663,-0.352853924036026,-0.24827346205711365
1726940895037781000,7.407781005859375,0.6243224740028381,-0.3003438413143158,-0.3209415376186371
1726940895047767000,7.41776708984375,0.5967062711715698,-0.17635080218315125,-0.435196191072464
1726940895057752800,7.4277529296875,0.5779892802238464,-0.09571001678705215,-0.4848540425300598
1726940895067739100,7.4377392578125,0.5226964950561523,-0.023738352581858635,-0.4308834671974182
1726940895077725000,7.447724853515625,0.41872429847717285,0.08352791517972946,-0.3747464418411255
1726940895087711000,7.4577109375,0.3259695768356323,0.25331002473831177,-0.33922919631004333
1726940895097697000,7.467697021484375,0.24538366496562958,0.4299178123474121,-0.32909905910491943
1726940895107682800,7.477682861328125,0.17814870178699493,0.5486905574798584,-0.3646125793457031
1726940895117667800,7.487667724609375,0.16080965101718903,0.6712455153465271,-0.41508960723876953
1726940895127654000,7.49765380859375,0.18342149257659912,0.794319748878479,-0.3930008113384247
1726940895137640000,7.507639892578125,0.21463321149349213,0.8608745336532593,-0.3302335739135742
1726940895147626000,7.5176259765625,0.2979821562767029,0.881292462348938,-0.2787826359272003
1726940895157611800,7.52761181640625,0.4324187934398651,0.8795555233955383,-0.22781026363372803
1726940895167598000,7.53759814453125,0.5595791339874268,0.8213928937911987,-0.22779667377471924
1726940895177583900,7.547583984375,0.6863080859184265,0.7900184988975525,-0.30423498153686523
1726940895187570000,7.55756982421875,0.7530668377876282,0.774438738822937,-0.4105667471885681
1726940895197556000,7.567555908203125,0.7483200430870056,0.7549387812614441,-0.4659450650215149
1726940895207542000,7.5775419921875,0.7031251192092896,0.7887537479400635,-0.5044828653335571
1726940895217527000,7.587527099609375,0.6422052979469299,0.9492107629776001,-0.5897101759910583
1726940895227512800,7.597512939453125,0.6535170674324036,1.032065510749817,-0.6932991147041321
1726940895237499000,7.607498779296875,0.7315179109573364,1.0626060962677002,-0.8114502429962158
1726940895247485000,7.61748486328125,0.8289059400558472,1.1181113719940186,-0.9178414344787598
1726940895257470700,7.627470703125,0.8501039147377014,0.9654214382171631,-0.9594626426696777
1726940895267457000,7.63745703125,0.754281759262085,0.6508134603500366,-0.9741105437278748
1726940895277442800,7.64744287109375,0.604983925819397,0.45413607358932495,-1.0289746522903442
1726940895287428900,7.657428955078125,0.4759734570980072,0.3435954451560974,-1.0974854230880737
1726940895297415000,7.667414794921875,0.4011596739292145,0.2339930534362793,-1.1890417337417603
1726940895307400000,7.67739990234375,0.3697700500488281,0.12811881303787231,-1.3369433879852295
1726940895317386000,7.687385986328125,0.3413349688053131,-0.11487092822790146,-1.4546215534210205
1726940895327371800,7.697371826171875,0.23827195167541504,-0.3392329216003418,-1.497267484664917
1726940895337358000,7.707358154296875,0.08586084842681885,-0.3877969980239868,-1.4528063535690308
1726940895347344000,7.71734375,-0.07497517764568329,-0.41026929020881653,-1.3182258605957031
1726940895357330000,7.727329833984375,-0.1652430146932602,-0.3651803731918335,-1.2156952619552612
1726940895367316000,7.73731591796875,-0.17050676047801971,-0.5114970803260803,-1.2486648559570312
1726940895377302000,7.747302001953125,-0.1561453938484192,-0.8155243396759033,-1.3697372674942017
1726940895387287800,7.757287841796875,-0.2176084816455841,-1.1132665872573853,-1.4980086088180542
1726940895397274000,7.767274169921875,-0.3938434422016144,-1.1956075429916382,-1.389808177947998
1726940895407259000,7.7772587890625,-0.5315605401992798,-1.3368122577667236,-1.0335259437561035
1726940895417245000,7.787244873046875,-0.5060961842536926,-1.5494582653045654,-0.6964459419250488
1726940895427230700,7.797230712890625,-0.262525349855423,-1.7493301630020142,-0.4285614788532257
1726940895437217000,7.807217041015625,-0.030338197946548462,-1.6718508005142212,-0.24516767263412476
1726940895447202800,7.817202880859375,0.03527063876390457,-1.3148138523101807,-0.11566641181707382
1726940895457189000,7.827189208984375,-0.03671060875058174,-1.0465126037597656,-0.010603375732898712
1726940895467175000,7.8371748046875,-0.10388857871294022,-0.8389420509338379,0.048168860375881195
1726940895477161200,7.8471611328125,0.018976887688040733,-0.685984194278717,0.09663067013025284
1726940895487147000,7.85714697265625,0.29018282890319824,-0.5459211468696594,0.14160959422588348
1726940895497132000,7.867132080078125,0.5026513934135437,-0.22575430572032928,0.12885944545269012
1726940895507118000,7.8771181640625,0.4598855674266815,0.09908024221658707,0.08597509562969208
1726940895517104000,7.887104248046875,0.24774694442749023,0.2889796197414398,0.14294835925102234
1726940895527090200,7.897090087890625,0.16291941702365875,0.2508071959018707,0.3068464994430542
1726940895537076000,7.907075927734375,0.22582247853279114,0.26677045226097107,0.4648827314376831
1726940895547062300,7.917062255859375,0.2690333425998688,0.35268110036849976,0.5277698040008545
1726940895557048000,7.927048095703125,0.3080640733242035,0.3970906436443329,0.5702637434005737
1726940895567034000,7.9370341796875,0.33719027042388916,0.4579358696937561,0.6683980226516724
1726940895577020200,7.947020263671875,0.351474404335022,0.571361780166626,0.8338162899017334
1726940895587006200,7.957006103515625,0.34936466813087463,0.634792149066925,0.9870516657829285
1726940895596991000,7.966990966796875,0.3496227264404297,0.6637356281280518,1.0729972124099731
1726940895606977000,7.97697705078125,0.37036821246147156,0.7588384747505188,1.0469917058944702
1726940895616963000,7.986963134765625,0.4053248465061188,0.9160765409469604,0.9348641037940979
1726940895626949000,7.99694921875,0.4124429523944855,0.9919249415397644,0.8330442309379578
1726940895636935000,8.006934814453125,0.3587650656700134,0.9664374589920044,0.8226227760314941
1726940895646921200,8.016921142578125,0.27377215027809143,0.9034281373023987,0.9186750054359436
1726940895656907000,8.026906982421876,0.18252426385879517,0.8252795338630676,1.0205241441726685
1726940895666893000,8.03689306640625,0.12516644597053528,0.7711601257324219,1.1037085056304932
1726940895676879000,8.046879150390625,0.0999756008386612,0.7779205441474915,1.1557642221450806
1726940895686864100,8.056864013671875,0.018020279705524445,0.6911041736602783,1.290753722190857
1726940895696850200,8.06685009765625,-0.09790179878473282,0.4306051731109619,1.4943604469299316
1726940895706836000,8.0768359375,-0.166826531291008,0.16606353223323822,1.6307885646820068
1726940895716822300,8.086822265625,-0.15943093597888947,0.0587429404258728,1.7212941646575928
1726940895726808000,8.09680810546875,-0.13062724471092224,-0.2551041841506958,1.4644190073013306
1726940895736794000,8.106794189453124,-0.24894191324710846,-0.7646420001983643,1.077117919921875
1726940895746780200,8.1167802734375,-0.47977033257484436,-1.146308183670044,0.7866370677947998
1726940895756766200,8.12676611328125,-0.6630756855010986,-1.3278619050979614,0.6613520979881287
1726940895766752000,8.136751953125,-0.682546079158783,-1.2093499898910522,0.7314907312393188
1726940895776738000,8.146738037109374,-0.5997534394264221,-0.940620481967926,0.8201694488525391
1726940895786723000,8.15672314453125,-0.485246866941452,-0.642645001411438,0.8862107992172241
1726940895796709000,8.166709228515625,-0.39325034618377686,-0.5745447874069214,0.8700650930404663
1726940895806695000,8.17669482421875,-0.3581293821334839,-0.6346909403800964,0.7650830149650574
1726940895816681200,8.18668115234375,-0.3845476806163788,-0.5428129434585571,0.6383714079856873
1726940895826667000,8.1966669921875,-0.4626848101615906,-0.2827046811580658,0.5250592231750488
1726940895836653000,8.206653076171875,-0.555526852607727,-0.057986069470644,0.40612301230430603
1726940895846639000,8.21663916015625,-0.5941986441612244,-0.00044767739018425345,0.275704562664032
1726940895856625200,8.226625244140624,-0.6218579411506653,-0.07270083576440811,0.16634956002235413
1726940895866611000,8.23661083984375,-0.7112139463424683,-0.12784132361412048,0.10835656523704529
1726940895876596000,8.246595947265625,-0.8010194897651672,-0.1298978179693222,0.10285181552171707
1726940895886582000,8.25658203125,-0.8241945505142212,-0.12068167328834534,0.09048968553543091
1726940895896568000,8.266568115234374,-0.7965786457061768,-0.17537768185138702,0.12956304848194122
1726940895906553900,8.276553955078125,-0.7208910584449768,-0.19497215747833252,0.18388648331165314
1726940895916540200,8.2865400390625,-0.6629459857940674,-0.14427942037582397,0.2392919510602951
1726940895926526000,8.29652587890625,-0.6783401370048523,-0.08174439519643784,0.28359469771385193
1726940895936512000,8.306511962890625,-0.7327674627304077,-0.035892222076654434,0.28481122851371765
1726940895946498000,8.316498046875,-0.7627674341201782,-0.02732216753065586,0.27732160687446594
1726940895956484000,8.326484130859376,-0.7420884966850281,-0.034932948648929596,0.2678753733634949
1726940895966470000,8.336469970703124,-0.6984555125236511,-0.02467179112136364,0.20246335864067078
1726940895976455000,8.346454833984374,-0.7155777812004089,-0.001535312389023602,0.10695521533489227
1726940895986441200,8.356441162109375,-0.7324126958847046,-0.013578925281763077,0.06711618602275848
1726940895996427000,8.366427001953125,-0.6977300643920898,-0.03967444226145744,0.11374413967132568
1726940896006413000,8.3764130859375,-0.6145297288894653,-0.15693049132823944,0.1645740270614624
1726940896016399000,8.386399169921875,-0.5037726163864136,-0.184944286942482,0.2376791387796402
1726940896026385200,8.39638525390625,-0.38817036151885986,-0.12164680659770966,0.3179875612258911
1726940896036371000,8.406370849609376,-0.2974841594696045,-0.08247783035039902,0.3265637457370758
1726940896046357200,8.416357177734374,-0.2535667419433594,-0.053096506744623184,0.24841779470443726
1726940896056343000,8.426343017578125,-0.2148105651140213,-0.0054395063780248165,0.16610188782215118
1726940896066328000,8.436328125,-0.17586876451969147,0.06001034006476402,0.13965590298175812
1726940896076313900,8.44631396484375,-0.178387850522995,0.1543847769498825,0.22052279114723206
1726940896086300200,8.456300048828124,-0.2322465479373932,0.19814370572566986,0.31055840849876404
1726940896096286000,8.466285888671875,-0.2888627052307129,0.22855354845523834,0.2929975092411041
1726940896106272000,8.47627197265625,-0.2836386263370514,0.25204557180404663,0.13732802867889404
1726940896116258000,8.486258056640626,-0.18766604363918304,0.195328488945961,-0.04370034113526344
1726940896126244000,8.496244140625,-0.07488968968391418,0.23156505823135376,-0.1128956601023674
1726940896136230000,8.50622998046875,0.040577519685029984,0.27270129323005676,-0.06024336814880371
1726940896146216200,8.51621630859375,0.17165938019752502,0.30347946286201477,-0.02183366008102894
1726940896156202000,8.526201904296874,0.2933594286441803,0.26066622138023376,-0.09533530473709106
1726940896166187000,8.53618701171875,0.40008828043937683,0.09901339560747147,-0.26193735003471375
1726940896176173000,8.546173095703125,0.42928531765937805,-0.13183632493019104,-0.38989102840423584
1726940896186159000,8.5561591796875,0.459551602602005,-0.23095625638961792,-0.38706570863723755
1726940896196145200,8.566145263671874,0.5523968935012817,-0.17807945609092712,-0.2792082130908966
1726940896206131000,8.576130859375,0.712655246257782,-0.1851608008146286,-0.14915113151073456
1726940896216117200,8.5861171875,0.8445088863372803,-0.3234153389930725,-0.05239396542310715
1726940896226103000,8.59610302734375,0.8855867981910706,-0.4877622127532959,-0.0965140238404274
1726940896236089000,8.606089111328124,0.8891831636428833,-0.6000823378562927,-0.21270853281021118
1726940896246075100,8.6160751953125,0.8649851083755493,-0.501952588558197,-0.26497867703437805
1726940896256061200,8.626061279296875,0.8785531520843506,-0.28529593348503113,-0.268010675907135
1726940896266046000,8.6360458984375,0.9103475213050842,0.00373108871281147,-0.2673417031764984
1726940896276032000,8.646031982421874,0.971697211265564,0.25945845246315,-0.32045790553092957
1726940896286018000,8.65601806640625,1.0063958168029785,0.31288841366767883,-0.4329010844230652
1726940896296004000,8.666004150390625,0.9531400203704834,0.25625815987586975,-0.5107114911079407
1726940896305990000,8.675989990234376,0.816216230392456,0.30687737464904785,-0.5145559906959534
1726940896315976200,8.68597607421875,0.6891075968742371,0.44496387243270874,-0.5038272142410278
1726940896325962000,8.6959619140625,0.6238060593605042,0.5869995951652527,-0.5522271990776062
1726940896335948000,8.705947998046875,0.6127417087554932,0.7244186997413635,-0.642123818397522
1726940896345934000,8.71593408203125,0.5857689380645752,0.7273929119110107,-0.7364367246627808
1726940896355919000,8.725919189453125,0.5139496326446533,0.5924886465072632,-0.7421497702598572
1726940896365905200,8.7359052734375,0.34598004817962646,0.5392634868621826,-0.7184851765632629
1726940896375891000,8.745890869140625,0.1559094339609146,0.7477074861526489,-0.7849331498146057
1726940896385877200,8.755877197265624,0.02202540822327137,1.1544965505599976,-0.9472482800483704
1726940896395863000,8.765863037109375,0.05619163438677788,1.382122278213501,-1.1535886526107788
1726940896405849000,8.77584912109375,0.14212970435619354,1.4861927032470703,-1.32936429977417
1726940896415835100,8.785835205078126,0.08949872106313705,1.3494700193405151,-1.3883354663848877
1726940896425821200,8.7958212890625,-0.10415729135274887,1.1119762659072876,-1.3619970083236694
1726940896435807000,8.805806884765625,-0.2995941638946533,1.0357762575149536,-1.3904635906219482
1726940896445793000,8.81579296875,-0.42516887187957764,0.9968430399894714,-1.4288607835769653
1726940896455778000,8.825778076171876,-0.5114662051200867,0.8612553477287292,-1.4547032117843628
1726940896465764900,8.835764892578124,-0.5217713117599487,0.5162044763565063,-1.4795063734054565
1726940896475750700,8.845750732421875,-0.47630903124809265,0.2648572325706482,-1.460503101348877
1726940896485737000,8.855737060546875,-0.4627529978752136,0.12498507648706436,-1.3206274509429932
1726940896495722800,8.86572265625,-0.4805208146572113,-0.08942388743162155,-1.121574878692627
1726940896505708800,8.875708740234375,-0.4575020372867584,-0.3665764033794403,-1.0626710653305054
1726940896515694800,8.88569482421875,-0.3753432631492615,-0.717069685459137,-1.1059093475341797
1726940896525681000,8.895680908203126,-0.2898573875427246,-1.194723129272461,-1.1391178369522095
1726940896535666700,8.905666748046874,-0.28591272234916687,-1.7027136087417603,-1.1212430000305176
1726940896545652700,8.91565283203125,-0.33942946791648865,-2.022376775741577,-1.016457200050354
1726940896555637800,8.9256376953125,-0.45352381467819214,-2.1525583267211914,-0.8004553914070129
1726940896565623800,8.935623779296876,-0.5529167056083679,-2.120307683944702,-0.6947923302650452
1726940896575609600,8.945609619140624,-0.5654218792915344,-1.8997467756271362,-0.7162193655967712
1726940896585596000,8.955595947265625,-0.47162824869155884,-1.6187238693237305,-0.7157189249992371
1726940896595581700,8.965581787109375,-0.3275754749774933,-1.2859272956848145,-0.6795753240585327
1726940896605567700,8.975567626953126,-0.15617921948432922,-0.9110429286956787,-0.5834059119224548
1726940896615553800,8.9855537109375,0.03461523354053497,-0.4770405888557434,-0.4495583772659302
1726940896625539800,8.995539794921875,0.1696723848581314,-0.08348450809717178,-0.3139936029911041
1726940896635525600,9.005525634765625,0.16047276556491852,0.08577881753444672,-0.24221396446228027
1726940896645511700,9.01551171875,0.05999569222331047,0.1592210829257965,-0.2164127230644226
1726940896655497000,9.0254970703125,-0.0912066102027893,0.2554727792739868,-0.14323651790618896
1726940896665482800,9.035482666015625,-0.09776277840137482,0.39151424169540405,0.017134778201580048
1726940896675468800,9.04546875,0.04971189424395561,0.5126148462295532,0.19783131778240204
1726940896685454800,9.055454833984374,0.19462861120700836,0.6486626863479614,0.29810625314712524
1726940896695441000,9.06544091796875,0.2530740797519684,0.7538601756095886,0.3614785671234131
1726940896705426700,9.0754267578125,0.24793043732643127,0.8027151226997375,0.41932857036590576
1726940896715412700,9.085412841796876,0.22273214161396027,0.8471139669418335,0.4921545684337616
1726940896725398800,9.095398681640624,0.20145109295845032,0.9023737907409668,0.576734721660614
1726940896735384600,9.105384521484375,0.20719605684280396,0.9514811635017395,0.6580665707588196
1726940896745370600,9.11537060546875,0.2628342807292938,1.0030953884124756,0.7463868260383606
1726940896755356000,9.12535595703125,0.34108781814575195,1.074294090270996,0.7933434247970581
1726940896765341700,9.135341796875,0.4251832664012909,1.1736901998519897,0.7986809611320496
1726940896775327700,9.14532763671875,0.4547051787376404,1.2988241910934448,0.8117504119873047
1726940896785313800,9.155313720703125,0.3881509304046631,1.2049674987792969,0.8698818683624268
1726940896795299800,9.1652998046875,0.18937845528125763,0.9330562949180603,0.9745896458625793
1726940896805285600,9.17528564453125,-0.0636303722858429,0.6580471396446228,1.0592750310897827
1726940896815272000,9.18527197265625,-0.25524428486824036,0.5489866733551025,1.2083768844604492
1726940896825257700,9.1952578125,-0.3615374267101288,0.5747101306915283,1.3974242210388184
1726940896835243800,9.205243896484374,-0.3717975318431854,0.5243505835533142,1.5141167640686035
1726940896845228800,9.215228759765624,-0.36084768176078796,0.2783626616001129,1.5738983154296875
1726940896855214800,9.22521484375,-0.46047520637512207,0.1511831283569336,1.5892342329025269
1726940896865200600,9.23520068359375,-0.5710980892181396,-0.23618829250335693,1.391982078552246
1726940896875186700,9.245186767578126,-0.6848680973052979,-0.5231332778930664,1.0625495910644531
1726940896885172700,9.2551728515625,-0.7564890384674072,-0.6459172368049622,0.8786002993583679
1726940896895158800,9.26515869140625,-0.8430169820785522,-0.7809834480285645,0.7313381433486938
1726940896905144600,9.27514453125,-0.8777536749839783,-0.8190775513648987,0.6087778210639954
1726940896915131000,9.285130859375,-0.8031409382820129,-0.817782998085022,0.5541505813598633
1726940896925116700,9.29511669921875,-0.6664672493934631,-0.7756744027137756,0.5972572565078735
1726940896935102700,9.305102783203125,-0.5470165014266968,-0.6848630309104919,0.6787174940109253
1726940896945088800,9.3150888671875,-0.444866418838501,-0.6603635549545288,0.742249071598053
1726940896955073800,9.32507373046875,-0.366376131772995,-0.670966625213623,0.7319604754447937
1726940896965059800,9.335059814453125,-0.30966997146606445,-0.5653715133666992,0.6869051456451416
1726940896975045600,9.345045654296875,-0.226486936211586,-0.4267100393772125,0.6373732686042786
1726940896985032000,9.355031982421876,-0.1342124044895172,-0.3878609240055084,0.6254684329032898
1726940896995017700,9.365017822265624,-0.08131429553031921,-0.41055530309677124,0.6175710558891296
1726940897005003800,9.375003662109375,-0.10363505035638809,-0.38896265625953674,0.5338602066040039
1726940897014989800,9.38498974609375,-0.15825913846492767,-0.29409128427505493,0.38156095147132874
1726940897024976000,9.394975830078126,-0.17467060685157776,-0.1972542107105255,0.29403480887413025
1726940897034961700,9.404961669921875,-0.13976535201072693,-0.11495587974786758,0.333572655916214
1726940897044948000,9.414947998046875,-0.08399742841720581,-0.12499626725912094,0.447294145822525
1726940897054933800,9.424933837890626,-0.058028414845466614,-0.13759194314479828,0.5330484509468079
1726940897064918800,9.434918701171876,-0.09931380301713943,-0.141737699508667,0.5453927516937256
1726940897074904600,9.444904541015624,-0.1765041947364807,-0.09368254989385605,0.5225510597229004
1726940897084891000,9.454890869140625,-0.21342119574546814,-0.015628227964043617,0.514136016368866
1726940897094876700,9.464876708984375,-0.1881651133298874,0.07544069737195969,0.5298063158988953
1726940897104862700,9.47486279296875,-0.1594059020280838,0.16838209331035614,0.5219460129737854
1726940897114848800,9.484848876953125,-0.15022732317447662,0.28205007314682007,0.48706525564193726
1726940897124834800,9.494834716796875,-0.2315778285264969,0.3394126892089844,0.45256319642066956
1726940897134820600,9.504820556640626,-0.33119362592697144,0.3363061249256134,0.41933974623680115
1726940897144807000,9.514806884765624,-0.3230172097682953,0.2912409007549286,0.3463965654373169
1726940897154792700,9.524792724609375,-0.18471498787403107,0.2763522267341614,0.2297743409872055
1726940897164777700,9.53477783203125,-0.04614752158522606,0.21748758852481842,0.11892159283161163
1726940897174763800,9.544763671875,0.05654450133442879,0.12390543520450592,0.0933174267411232
1726940897184749800,9.554749755859374,0.07684870809316635,0.022960176691412926,0.15635977685451508
1726940897194735900,9.56473583984375,0.025722673162817955,-0.12212803959846497,0.17443545162677765
1726940897204721700,9.5747216796875,0.0012807141756638885,-0.188606396317482,0.07331602275371552
1726940897214708000,9.5847080078125,0.07739758491516113,-0.09368867427110672,-0.10697971284389496
1726940897224693800,9.59469384765625,0.21747054159641266,0.0006487460341304541,-0.2975664436817169
1726940897234679800,9.6046796875,0.3068283796310425,0.0740145742893219,-0.3702888488769531
1726940897244665900,9.614665771484376,0.38211193680763245,0.08128154277801514,-0.3158024251461029
1726940897254652000,9.62465185546875,0.4425710439682007,-0.0649222731590271,-0.3454141318798065
1726940897264637700,9.6346376953125,0.4669906198978424,-0.2055712640285492,-0.4712897539138794
1726940897274623700,9.644623779296875,0.4915441572666168,-0.28344956040382385,-0.5893165469169617
1726940897284608800,9.65460888671875,0.5243028998374939,-0.3708720803260803,-0.5317277908325195
1726940897294594800,9.6645947265625,0.522283673286438,-0.3318948447704315,-0.39834871888160706
1726940897304580600,9.67458056640625,0.5276030898094177,-0.32671821117401123,-0.2867111265659332
1726940897314567000,9.68456689453125,0.5650942921638489,-0.3392595648765564,-0.22018003463745117
1726940897324552700,9.694552734375,0.6150383949279785,-0.259383887052536,-0.20326443016529083
1726940897334538800,9.704538818359374,0.6462847590446472,-0.10015589743852615,-0.23953402042388916
1726940897344524800,9.71452490234375,0.6414591073989868,0.027724571526050568,-0.2576565742492676
1726940897354510800,9.7245107421875,0.6042584776878357,0.17648369073867798,-0.2631823718547821
1726940897364496600,9.73449658203125,0.6090375185012817,0.34934255480766296,-0.3105810284614563
1726940897374482700,9.744482666015625,0.614777684211731,0.44869309663772583,-0.40858030319213867
1726940897384468700,9.75446875,0.5884336829185486,0.5691614747047424,-0.5077667832374573
1726940897394453800,9.764453857421875,0.5294595956802368,0.6645218133926392,-0.5833598375320435
1726940897404439800,9.774439697265626,0.4362497627735138,0.6593499183654785,-0.5949685573577881
1726940897414425900,9.78442578125,0.31279411911964417,0.6919377446174622,-0.5706368684768677
1726940897424411600,9.79441162109375,0.17836894094944,0.8301001191139221,-0.6282879114151001
1726940897434397700,9.804397705078125,0.1576460897922516,1.0213840007781982,-0.7143990993499756
1726940897444383700,9.8143837890625,0.20276322960853577,1.2286115884780884,-0.8039462566375732
1726940897454369800,9.824369873046875,0.2646785378456116,1.349859356880188,-0.863213837146759
1726940897464354800,9.834354736328125,0.2870759665966034,1.186718463897705,-0.8969222903251648
1726940897474340900,9.8443408203125,0.288560688495636,1.018707036972046,-1.0109561681747437
1726940897484327000,9.854326904296874,0.30812880396842957,0.8523287177085876,-1.2126338481903076
1726940897494312700,9.864312744140625,0.3153156042098999,0.780042827129364,-1.3981307744979858
1726940897504297700,9.874297607421875,0.264616996049881,0.699354887008667,-1.5150831937789917
1726940897514283800,9.88428369140625,0.1452818214893341,0.36964303255081177,-1.5940332412719727
1726940897524269800,9.894269775390624,0.010994860902428627,0.02570349909365177,-1.6043624877929688
1726940897534255600,9.904255615234375,-0.09093842655420303,-0.18987752497196198,-1.544768214225769
1726940897544242000,9.914241943359375,-0.09474248439073563,-0.28859370946884155,-1.4579243659973145
1726940897554227700,9.924227783203126,-0.0734393298625946,-0.35944125056266785,-1.4651665687561035
1726940897564213800,9.9342138671875,-0.059128034859895706,-0.5974551439285278,-1.5557692050933838
1726940897574199800,9.94419970703125,-0.07703752815723419,-0.9550178050994873,-1.61518132686615
1726940897584185900,9.954185791015625,-0.14179494976997375,-1.302167534828186,-1.5668647289276123
1726940897594171600,9.964171630859376,-0.18971987068653107,-1.6685292720794678,-1.384216070175171
1726940897604158000,9.974157958984375,-0.15733955800533295,-1.8437069654464722,-1.124805212020874
1726940897614143000,9.98414306640625,-0.11978179216384888,-1.993985652923584,-0.7974942326545715
1726940897624128800,9.994128662109375,-0.07342441380023956,-2.1648409366607666,-0.4695746898651123
1726940897634114800,10.00411474609375,-0.07782954722642899,-2.183091878890991,-0.21230188012123108
1726940897644100900,10.014100830078124,-0.03425970301032066,-2.0453319549560547,-0.029712354764342308
1726940897654087000,10.0240869140625,0.09854947775602341,-1.8609479665756226,0.06053684651851654
1726940897664072700,10.03407275390625,0.2209494262933731,-1.622799038887024,-0.014065751805901527
1726940897674059000,10.04405908203125,0.29742422699928284,-1.102524757385254,-0.10219987481832504
1726940897684044800,10.054044921875,0.3055900037288666,-0.4906509518623352,-0.07104035466909409
1726940897694030800,10.06403076171875,0.2339528352022171,0.012803146615624428,0.005797169171273708
1726940897704017000,10.074016845703126,0.16818128526210785,0.331074059009552,0.06377711147069931
1726940897714003000,10.0840029296875,0.22038297355175018,0.5041118860244751,0.1175636500120163
1726940897723987700,10.09398779296875,0.2638668119907379,0.5475342273712158,0.13755492866039276
1726940897733973800,10.103973876953125,0.254563570022583,0.5928529500961304,0.17696891725063324
1726940897743959800,10.113959716796876,0.21857282519340515,0.6657053232192993,0.30028340220451355
1726940897753945900,10.12394580078125,0.24640977382659912,0.7967818379402161,0.495714396238327
1726940897763931600,10.133931640625,0.3188112676143646,0.8997649550437927,0.6903097033500671
1726940897773918000,10.14391796875,0.40278127789497375,0.8742516040802002,0.858578085899353
1726940897783903700,10.15390380859375,0.48906397819519043,0.8715130686759949,0.9652917385101318
1726940897793889800,10.163889892578124,0.5664900541305542,0.9146565198898315,1.0319533348083496
1726940897803875800,10.173875732421875,0.6076356172561646,1.0330233573913574,1.0694658756256104
1726940897813862000,10.18386181640625,0.5552637577056885,1.0825188159942627,1.1604242324829102
1726940897823847700,10.19384765625,0.426486074924469,1.0537617206573486,1.270400047302246
1726940897833834000,10.203833984375,0.3056398034095764,0.9879384636878967,1.3481179475784302
1726940897843819000,10.213819091796875,0.2020321935415268,0.7878117561340332,1.3689987659454346
1726940897853804800,10.2238046875,-0.0018647453980520368,0.507185161113739,1.3391289710998535
1726940897863790800,10.233790771484376,-0.3134934604167938,0.19366639852523804,1.3800452947616577
1726940897873777000,10.24377685546875,-0.6270175576210022,-0.11286795884370804,1.4355332851409912
1726940897883763000,10.253762939453125,-0.7677658796310425,-0.2772928476333618,1.428733229637146
1726940897893748700,10.263748779296876,-0.8024144172668457,-0.31026145815849304,1.3654465675354004
1726940897903735000,10.273735107421874,-0.7601649761199951,-0.38846758008003235,1.2164925336837769
1726940897913720800,10.283720947265625,-0.6552937030792236,-0.47006550431251526,1.1247978210449219
1726940897923707000,10.293706787109375,-0.5936324596405029,-0.5687680840492249,1.049100637435913
1726940897933693000,10.30369287109375,-0.5654905438423157,-0.6010568141937256,0.9582011103630066
1726940897943679000,10.313678955078124,-0.5332891941070557,-0.577111542224884,0.8474018573760986
1726940897953664800,10.323664794921875,-0.46835362911224365,-0.6381064653396606,0.754349410533905
1726940897963649800,10.33364990234375,-0.42191556096076965,-0.7252852916717529,0.6392974257469177
1726940897973635800,10.3436357421875,-0.42476221919059753,-0.7839603424072266,0.4796065390110016
1726940897983622000,10.353621826171874,-0.4222601652145386,-0.7254341840744019,0.3572838306427002
1726940897993607700,10.363607666015625,-0.3727828860282898,-0.6072846055030823,0.35106587409973145
1726940898003594000,10.373593994140625,-0.261738121509552,-0.4713994860649109,0.4096391797065735
1726940898013579800,10.383579833984374,-0.14366155862808228,-0.44595056772232056,0.5073545575141907
1726940898023565800,10.39356591796875,-0.08202536404132843,-0.48572754859924316,0.5431826114654541
1726940898033552000,10.4035517578125,-0.1089499220252037,-0.4287910461425781,0.49742868542671204
1726940898043538000,10.413537841796876,-0.18403348326683044,-0.3188890516757965,0.37178874015808105
1726940898053523700,10.423523681640624,-0.2858690321445465,-0.2379598319530487,0.29933851957321167
1726940898063510000,10.433510009765625,-0.3264537453651428,-0.1325143724679947,0.2843227982521057
1726940898073494800,10.443494873046875,-0.3092521131038666,-0.10044458508491516,0.32324331998825073
1726940898083480800,10.453480712890626,-0.23615874350070953,-0.035236019641160965,0.4321626126766205
1726940898093467000,10.463466796875,-0.1578570008277893,0.004997687879949808,0.5531066060066223
1726940898103453000,10.473452880859375,-0.10253249853849411,0.02773522399365902,0.6344355344772339
1726940898113438700,10.483438720703125,-0.05552983656525612,0.07667187601327896,0.7405909895896912
1726940898123424800,10.4934248046875,-0.04741731658577919,0.14776016771793365,0.8311581611633301
1726940898133410800,10.503410888671874,-0.07000598311424255,0.23335176706314087,0.8506152629852295
1726940898143396900,10.51339697265625,-0.09739259630441666,0.3581256568431854,0.7932659387588501
1726940898153382700,10.523382568359375,-0.1691506803035736,0.3682539165019989,0.7173831462860107
1726940898163369000,10.533368896484374,-0.2307083159685135,0.3379186689853668,0.6114287376403809
1726940898173354800,10.543354736328125,-0.22019681334495544,0.3260617256164551,0.4738093912601471
1726940898183339800,10.55333984375,-0.14415131509304047,0.38236549496650696,0.3731282949447632
1726940898193325800,10.563325927734375,-0.04234692454338074,0.4358558654785156,0.3210406005382538
1726940898203311900,10.573311767578126,0.01955718919634819,0.44593432545661926,0.36332467198371887
1726940898213298000,10.5832978515625,-0.02556927502155304,0.4078308939933777,0.4083020091056824
1726940898223283700,10.59328369140625,-0.10654668509960175,0.45571187138557434,0.3902284502983093
1726940898233270000,10.60327001953125,-0.15518824756145477,0.5031347870826721,0.28043511509895325
1726940898243255800,10.613255859375,-0.14689330756664276,0.5219050049781799,0.042697928845882416
1726940898253241900,10.623241943359375,-0.07052263617515564,0.5094850659370422,-0.14575614035129547
1726940898263228000,10.633227783203125,0.04499676823616028,0.44680625200271606,-0.25924915075302124
1726940898273214000,10.6432138671875,0.1549597531557083,0.22455880045890808,-0.33301258087158203
1726940898283199700,10.65319970703125,0.26691585779190063,0.03590447083115578,-0.3693881630897522
1726940898293185800,10.663185791015625,0.3914061188697815,-0.09019540995359421,-0.3339713215827942
1726940898303170800,10.6731708984375,0.510698139667511,-0.16785664856433868,-0.25190094113349915
1726940898313156900,10.683156982421876,0.5727183818817139,-0.30029964447021484,-0.22529835999011993
1726940898323142700,10.693142578125,0.5953992009162903,-0.47711649537086487,-0.29378262162208557
1726940898333129000,10.70312890625,0.6319284439086914,-0.5683790445327759,-0.4043426811695099
1726940898343114800,10.71311474609375,0.6873546838760376,-0.6642767786979675,-0.45230114459991455
1726940898353100800,10.723100830078126,0.7227630019187927,-0.6695674061775208,-0.43202438950538635
1726940898363086800,10.7330869140625,0.723787248134613,-0.509353518486023,-0.3901709318161011
1726940898373073000,10.743072998046875,0.7052010297775269,-0.32232797145843506,-0.38080140948295593
1726940898383058700,10.75305859375,0.6568402051925659,-0.10823486000299454,-0.4316627085208893
1726940898393044700,10.763044677734374,0.6017777323722839,0.04339807480573654,-0.46494796872138977
1726940898403030800,10.77303076171875,0.5439567565917969,0.19558681547641754,-0.46319136023521423
1726940898413016800,10.783016845703125,0.5052125453948975,0.39521950483322144,-0.5037207007408142
1726940898423001900,10.793001953125,0.48755207657814026,0.596989631652832,-0.6020435094833374
1726940898432988000,10.80298779296875,0.4674795866012573,0.7747292518615723,-0.7222737669944763
1726940898442974000,10.812973876953125,0.38035187125205994,0.8893884420394897,-0.8139603137969971
1726940898452959700,10.822959716796875,0.2574312686920166,0.923203706741333,-0.8740183115005493
1726940898462946300,10.8329462890625,0.1480371356010437,1.0766468048095703,-0.9803143739700317
1726940898472932400,10.842932373046875,0.1383781135082245,1.2800867557525635,-1.1080478429794312
1726940898482918100,10.852918212890625,0.14847922325134277,1.3919024467468262,-1.2017772197723389
1726940898492904400,10.862904541015626,0.07357940822839737,1.4559568166732788,-1.231557011604309
1726940898502890200,10.87289013671875,-0.05001815780997276,1.4208470582962036,-1.200926423072815
1726940898512876300,10.882876220703125,-0.12434644997119904,1.3224447965621948,-1.1771608591079712
1726940898522862300,10.8928623046875,-0.12053786218166351,1.1587320566177368,-1.213356375694275
1726940898532847400,10.902847412109375,-0.14962917566299438,0.9224329590797424,-1.306059718132019
1726940898542833400,10.91283349609375,-0.27147677540779114,0.5788532495498657,-1.4373852014541626
1726940898552819200,10.922819091796875,-0.4116685092449188,0.3626037538051605,-1.586775302886963
1726940898562805500,10.932805419921875,-0.5401391386985779,0.034087929874658585,-1.6648695468902588
1726940898572791300,10.942791259765626,-0.4900567829608917,-0.3716111183166504,-1.6803086996078491
1726940898582777300,10.95277734375,-0.3810299038887024,-0.6601478457450867,-1.6068648099899292
1726940898592763400,10.962763427734375,-0.3322586417198181,-0.8414846062660217,-1.4706708192825317
1726940898602749400,10.97274951171875,-0.3349896967411041,-0.915505051612854,-1.4392987489700317
1726940898612735200,10.9827353515625,-0.3775824308395386,-1.0964926481246948,-1.4755805730819702
1726940898622721500,10.992721435546875,-0.44421181082725525,-1.5888876914978027,-1.4353420734405518
1726940898632707300,11.002707275390625,-0.4378657639026642,-2.014718532562256,-1.2291721105575562
1726940898642692400,11.0126923828125,-0.39003458619117737,-2.1854147911071777,-0.8458910584449768
1726940898652678100,11.02267822265625,-0.3822355270385742,-2.2471377849578857,-0.4455263316631317
1726940898662664400,11.03266455078125,-0.33133772015571594,-2.1839182376861572,-0.1779598742723465
1726940898672650200,11.042650146484375,-0.17397445440292358,-2.0444390773773193,-0.028055069968104362
1726940898682636300,11.05263623046875,0.004230963997542858,-1.6460990905761719,-0.020294886082410812
1726940898692622300,11.062622314453124,0.13170263171195984,-0.9015766978263855,-0.05423314496874809
1726940898702608400,11.0726083984375,0.18813075125217438,-0.13639380037784576,-0.1004355251789093
1726940898712594200,11.08259423828125,0.12812069058418274,0.2888997197151184,-0.14936524629592896
1726940898722580500,11.09258056640625,-0.004452272783964872,0.6617119312286377,-0.19188475608825684
1726940898732566300,11.102566162109374,-0.09526579827070236,0.8516642451286316,-0.1240825355052948
1726940898742552300,11.11255224609375,-0.029195168986916542,0.8122292160987854,0.05895679444074631
1726940898752538400,11.122538330078125,0.035831768065690994,0.7621586322784424,0.25817909836769104
1726940898762523400,11.1325234375,0.06446260958909988,0.7525414228439331,0.44497665762901306
1726940898772509400,11.142509521484374,0.0842946395277977,0.7853521108627319,0.6106036901473999
1726940898782495200,11.1524951171875,0.11552073806524277,0.8207364678382874,0.7631407976150513
1726940898792481500,11.1624814453125,0.18329472839832306,0.893609344959259,0.8999904990196228
1726940898802467300,11.17246728515625,0.2576083838939667,1.0125151872634888,1.011299967765808
1726940898812453400,11.182453369140624,0.32901811599731445,1.2452226877212524,1.047621726989746
1726940898822439400,11.192439453125,0.397874653339386,1.3780708312988281,1.0572235584259033
1726940898832425500,11.202425537109375,0.3967798352241516,1.3838927745819092,1.101400375366211
1726940898842411300,11.212411376953124,0.2363038808107376,1.226564645767212,1.1949886083602905
1726940898852397600,11.2223974609375,-0.06799023598432541,0.7825365662574768,1.2272802591323853
1726940898862383400,11.23238330078125,-0.3841854929924011,0.45050352811813354,1.2895982265472412
1726940898872368400,11.242368408203125,-0.5704027414321899,0.2736949324607849,1.4735262393951416
1726940898882354200,11.252354248046874,-0.6120647192001343,0.181341290473938,1.6736079454421997
1726940898892340500,11.262340576171875,-0.5940026044845581,0.08752638846635818,1.8068174123764038
1726940898902326300,11.272326171875,-0.6173732280731201,-0.14515958726406097,1.6929256916046143
1726940898912312300,11.282312255859376,-0.6128141283988953,-0.5163491368293762,1.3747498989105225
1726940898922298400,11.29229833984375,-0.6511114835739136,-0.723344087600708,1.1049801111221313
1726940898932284400,11.302284423828125,-0.6492078304290771,-0.7725454568862915,1.0073726177215576
1726940898942270200,11.312270263671875,-0.567248523235321,-0.6925534605979919,0.9694089889526367
1726940898952256500,11.322256591796876,-0.41802600026130676,-0.6554127335548401,0.8752052783966064
1726940898962242300,11.3322421875,-0.2848474383354187,-0.7750000953674316,0.7370452880859375
1726940898972228400,11.342228271484375,-0.20327802002429962,-0.8561319708824158,0.5925730466842651
1726940898982214100,11.352214111328125,-0.15493232011795044,-0.8554525971412659,0.5165408849716187
1726940898992199400,11.362199462890626,-0.10699036717414856,-0.7368862628936768,0.503304123878479
1726940899002185500,11.372185546875,-0.0556185208261013,-0.5389630794525146,0.5073505640029907
1726940899012171300,11.382171142578125,-0.01925651915371418,-0.38256096839904785,0.4575478434562683
1726940899022157300,11.3921572265625,-0.0411120168864727,-0.27692559361457825,0.38511866331100464
1726940899032143400,11.402143310546874,-0.08272630721330643,-0.21439245343208313,0.3460697829723358
1726940899042129200,11.412129150390625,-0.16123229265213013,-0.16147518157958984,0.3279200792312622
1726940899052115500,11.422115478515625,-0.21872328221797943,-0.07942850887775421,0.2779328227043152
1726940899062101200,11.432101318359376,-0.2329070121049881,-0.06297364085912704,0.268647700548172
1726940899072087300,11.44208740234375,-0.24724414944648743,-0.04318368807435036,0.2826780378818512
1726940899082073000,11.452072998046875,-0.26893824338912964,-0.033120669424533844,0.35884523391723633
1726940899092059400,11.462059326171875,-0.2429705709218979,-0.003317499766126275,0.5039159059524536
1726940899102044400,11.47204443359375,-0.20989491045475006,0.06776919215917587,0.6583078503608704
1726940899112030200,11.4820302734375,-0.1839408129453659,0.17549805343151093,0.7281079888343811
1726940899122016500,11.4920166015625,-0.20852763950824738,0.29513177275657654,0.6882833242416382
1726940899132002300,11.502002197265625,-0.24992302060127258,0.3776303827762604,0.6220260262489319
1726940899141988400,11.51198828125,-0.25191107392311096,0.43476131558418274,0.5656743049621582
1726940899151974400,11.521974365234374,-0.21551071107387543,0.42434409260749817,0.5405018329620361
1726940899161960400,11.53196044921875,-0.17565518617630005,0.4125145971775055,0.5390461683273315
1726940899171946200,11.5419462890625,-0.16764545440673828,0.40205156803131104,0.5010660290718079
1726940899181932300,11.551932373046874,-0.16485951840877533,0.41690802574157715,0.4527890384197235
1726940899191918300,11.56191845703125,-0.2117343544960022,0.3528933525085449,0.3838517963886261
1726940899201904400,11.571904296875,-0.2659693658351898,0.2992226481437683,0.23828980326652527
1726940899211890200,11.58189013671875,-0.2838466167449951,0.2203531414270401,0.04622262343764305
1726940899221875500,11.59187548828125,-0.23993456363677979,0.14829759299755096,-0.15292802453041077
1726940899231861200,11.601861328125,-0.13312263786792755,0.08906915783882141,-0.2987821698188782
1726940899241847300,11.611847412109375,-0.017057280987501144,0.029100626707077026,-0.31426018476486206
1726940899251833300,11.621833251953126,0.07083023339509964,-0.092258021235466,-0.2690674066543579
1726940899261819400,11.6318193359375,0.11193505674600601,-0.22499556839466095,-0.24310266971588135
1726940899271805200,11.64180517578125,0.11991788446903229,-0.3122774660587311,-0.27197158336639404
1726940899281791200,11.651791259765625,0.13135509192943573,-0.35299694538116455,-0.34354856610298157
1726940899291777300,11.66177734375,0.15599732100963593,-0.32780131697654724,-0.4145580530166626
1726940899301763300,11.671763427734374,0.182627335190773,-0.26175037026405334,-0.44149723649024963
1726940899311749000,11.6817490234375,0.20253126323223114,-0.18734592199325562,-0.4179311990737915
1726940899321735400,11.6917353515625,0.22138671576976776,-0.1434442400932312,-0.3770351707935333
1726940899331721200,11.70172119140625,0.24527287483215332,-0.08739110082387924,-0.40329232811927795
1726940899341706200,11.711706298828124,0.25648266077041626,-0.03014112450182438,-0.44992774724960327
1726940899351692500,11.721692626953125,0.22871387004852295,0.023000923916697502,-0.47396090626716614
1726940899361678300,11.73167822265625,0.2068099081516266,0.08424749970436096,-0.47459474205970764
1726940899371664400,11.741664306640626,0.2051406353712082,0.1983458399772644,-0.4620688259601593
1726940899381650200,11.751650146484375,0.2106485813856125,0.2805461883544922,-0.4673043489456177
1726940899391636500,11.761636474609375,0.2600978910923004,0.40971240401268005,-0.5142513513565063
1726940899401622300,11.771622314453126,0.3205535113811493,0.5539947748184204,-0.5716339349746704
1726940899411608300,11.7816083984375,0.3457725942134857,0.6988859176635742,-0.6826286315917969
1726940899421594400,11.791594482421875,0.3857112228870392,0.922756552696228,-0.793353259563446
1726940899431580400,11.801580322265625,0.41100457310676575,1.1136380434036255,-0.9183423519134521
1726940899441566200,11.811566162109376,0.33260616660118103,1.2386047840118408,-1.0676114559173584
1726940899451551500,11.821551513671874,0.19690214097499847,1.2399864196777344,-1.1630586385726929
1726940899461536800,11.831536865234375,0.043598610907793045,1.09282386302948,-1.219772219657898
1726940899471522800,11.841522705078125,-0.06165777146816254,0.9257752299308777,-1.2870633602142334
1726940899481508900,11.8515087890625,-0.06148679554462433,0.799992561340332,-1.3992648124694824
1726940899491495000,11.861494873046874,0.004343615844845772,0.6677394509315491,-1.5322012901306152
1726940899501480700,11.871480712890625,-0.007689877413213253,0.6599675416946411,-1.5723230838775635
1726940899511467000,11.881467041015625,-0.1395413875579834,0.6631202101707458,-1.584757685661316
1726940899521452800,11.891452880859376,-0.3111235201358795,0.6183269023895264,-1.6260366439819336
1726940899531438800,11.90143896484375,-0.44851282238960266,0.5690088868141174,-1.638620376586914
1726940899541424600,11.911424560546875,-0.49050605297088623,0.38741937279701233,-1.6512807607650757
1726940899551411000,11.921410888671875,-0.4113004505634308,-0.02304832823574543,-1.5922467708587646
1726940899561396700,11.931396728515624,-0.3268313705921173,-0.2552357614040375,-1.4450620412826538
1726940899571381800,11.9413818359375,-0.2762097418308258,-0.41014039516448975,-1.2066454887390137
1726940899581368000,11.9513681640625,-0.2751266360282898,-0.5712642669677734,-1.0277655124664307
1726940899591353900,11.961353759765625,-0.2758086919784546,-0.8378677368164062,-0.9688473343849182
1726940899601340000,11.97133984375,-0.3035005033016205,-1.388407588005066,-0.9984545111656189
1726940899611326000,11.981325927734375,-0.35342544317245483,-1.9267959594726562,-1.0265905857086182
1726940899621312000,11.99131201171875,-0.429024338722229,-2.293977737426758,-0.9660472869873047
1726940899631297800,12.0012978515625,-0.4650441110134125,-2.4545419216156006,-0.7816162109375
1726940899641284000,12.0112841796875,-0.42004308104515076,-2.3756372928619385,-0.5503997802734375
1726940899651270000,12.021269775390625,-0.3398502469062805,-2.230862617492676,-0.35428565740585327
1726940899661256000,12.031255859375,-0.201344832777977,-1.9248148202896118,-0.23196053504943848
1726940899671241700,12.04124169921875,0.008110390976071358,-1.3583959341049194,-0.1771870255470276
1726940899681227000,12.05122705078125,0.23377972841262817,-0.6523053646087646,-0.10008452087640762
1726940899691212800,12.061212890625,0.3980264663696289,0.0059510995633900166,-0.002960103563964367
1726940899701198800,12.07119873046875,0.38786622881889343,0.3044528365135193,0.07425505667924881
1726940899711185000,12.081184814453126,0.29466119408607483,0.49912139773368835,0.10833445936441422
1726940899721171000,12.0911708984375,0.2348785549402237,0.6391386985778809,0.14869387447834015
1726940899731156700,12.10115673828125,0.21352000534534454,0.7788057923316956,0.2059805989265442
1726940899741143000,12.11114306640625,0.263824462890625,0.9056851267814636,0.3285403251647949
1726940899751128800,12.12112890625,0.3608199656009674,1.0013320446014404,0.5168859958648682
1726940899761115000,12.131114990234375,0.45159274339675903,1.0569984912872314,0.7434661388397217
1726940899771100700,12.1411005859375,0.49324938654899597,1.0643786191940308,0.9635860323905945
1726940899781087000,12.1510869140625,0.4987506866455078,1.0826830863952637,1.149671196937561
1726940899791072800,12.16107275390625,0.5088049173355103,1.1484274864196777,1.2904770374298096
1726940899801057800,12.171057861328125,0.470826119184494,1.1641864776611328,1.4086170196533203
1726940899811044000,12.181044189453125,0.32664361596107483,1.0719449520111084,1.4891523122787476
1726940899821030000,12.19102978515625,0.12262525409460068,0.9159393906593323,1.5514663457870483
1726940899831016000,12.201015869140624,-0.10128480941057205,0.7107689380645752,1.5663528442382812
1726940899841002000,12.211001953125,-0.20717395842075348,0.573531985282898,1.6311166286468506
1726940899850988000,12.220988037109375,-0.20351876318454742,0.45911112427711487,1.7623369693756104
1726940899860973800,12.230973876953126,-0.14347194135189056,0.30802121758461,1.8286075592041016
1726940899870959900,12.2409599609375,-0.2871079444885254,0.08919139206409454,1.6596816778182983
1726940899880946000,12.25094580078125,-0.45034053921699524,-0.35577675700187683,1.308738350868225
1726940899890932000,12.260931884765625,-0.6217333078384399,-0.7239971160888672,0.9889688491821289
1726940899900917800,12.270917724609374,-0.6663386225700378,-0.8878129720687866,0.8189857006072998
1726940899910903000,12.280903076171874,-0.658564567565918,-0.9312371015548706,0.7557374835014343
1726940899920888800,12.290888916015625,-0.5951490998268127,-0.8686754703521729,0.6967031955718994
1726940899930875000,12.300875,-0.4395906925201416,-0.7908648252487183,0.6311249732971191
1726940899940861000,12.31086083984375,-0.20829515159130096,-0.6485044956207275,0.5711622834205627
1726940899950847000,12.320846923828125,0.005607551895081997,-0.5091455578804016,0.4867560565471649
1726940899960832800,12.330832763671875,0.13792484998703003,-0.47639742493629456,0.4603971540927887
1726940899970818800,12.34081884765625,0.1643516570329666,-0.48306387662887573,0.44029295444488525
1726940899980804900,12.350804931640624,0.1450735628604889,-0.4335405230522156,0.397125780582428
1726940899990791000,12.360791015625,0.15289686620235443,-0.2927621006965637,0.38910433650016785
1726940900000776700,12.370776611328125,0.1561882644891739,-0.17451295256614685,0.3744753301143646
1726940900010763000,12.380762939453126,0.142130509018898,-0.1717645674943924,0.31624293327331543
1726940900020748800,12.390748779296874,0.12239249050617218,-0.177734836935997,0.31823256611824036
1726940900030733800,12.40073388671875,0.09516007453203201,-0.13667023181915283,0.40634962916374207
