time,seconds_elapsed,z,y,x
1726995767949339400,0.01033935546875,-0.8190155029296875,-0.5315399169921875,-0.1822052001953125
1726995767959325400,0.020325439453125,-0.8071136474609375,-0.5310211181640625,-0.1700592041015625
1726995767969312500,0.0303125,-0.814971923828125,-0.49853515625,-0.14666748046875
1726995767979298300,0.04029833984375,-0.861846923828125,-0.44049072265625,-0.1133880615234375
1726995767989284400,0.050284423828125,-0.912567138671875,-0.372314453125,-0.08648681640625
1726995767999271400,0.060271484375,-0.9496307373046875,-0.3158721923828125,-0.079071044921875
1726995768009257000,0.070257080078125,-0.8972625732421875,-0.2509002685546875,-0.0949249267578125
1726995768019243300,0.0802431640625,-0.8769989013671875,-0.29449462890625,-0.1206817626953125
1726995768029230000,0.09022998046875,-0.8495941162109375,-0.361907958984375,-0.1425018310546875
1726995768039216400,0.10021630859375,-0.7889862060546875,-0.3726959228515625,-0.14501953125
1726995768049203200,0.110203125,-0.74993896484375,-0.3357696533203125,-0.1350860595703125
1726995768059189000,0.12018896484375,-0.72052001953125,-0.2596282958984375,-0.1255645751953125
1726995768069175300,0.13017529296875,-0.6582489013671875,-0.1693267822265625,-0.0948638916015625
1726995768079162000,0.140162109375,-0.6391448974609375,-0.11004638671875,-0.071990966796875
1726995768089148200,0.150148193359375,-0.669036865234375,-0.12054443359375,-0.0885772705078125
1726995768099134200,0.16013427734375,-0.7161407470703125,-0.1214141845703125,-0.126708984375
1726995768109121000,0.17012109375,-0.71954345703125,-0.1179656982421875,-0.20068359375
1726995768119107300,0.180107421875,-0.69720458984375,-0.1449737548828125,-0.3084716796875
1726995768129093000,0.190093017578125,-0.6748199462890625,-0.1993560791015625,-0.4109039306640625
1726995768139080200,0.200080078125,-0.67291259765625,-0.2434844970703125,-0.4598236083984375
1726995768149066200,0.210066162109375,-0.6705780029296875,-0.2903594970703125,-0.4493865966796875
1726995768159052000,0.220052001953125,-0.61932373046875,-0.3009490966796875,-0.4105377197265625
1726995768169039400,0.230039306640625,-0.5091552734375,-0.264129638671875,-0.3604583740234375
1726995768179025200,0.240025146484375,-0.414581298828125,-0.2459869384765625,-0.33184814453125
1726995768189012000,0.250011962890625,-0.3543853759765625,-0.2964324951171875,-0.3370513916015625
1726995768198998300,0.259998291015625,-0.3102264404296875,-0.3847503662109375,-0.346710205078125
1726995768208984000,0.269984130859375,-0.2715301513671875,-0.454071044921875,-0.3526153564453125
1726995768218971100,0.27997119140625,-0.2396697998046875,-0.5034942626953125,-0.3971405029296875
1726995768228957200,0.289957275390625,-0.21234130859375,-0.60601806640625,-0.48162841796875
1726995768238943000,0.29994287109375,-0.1749114990234375,-0.606231689453125,-0.5769195556640625
1726995768248930300,0.309930419921875,-0.06884765625,-0.6059722900390625,-0.7021026611328125
1726995768258916000,0.319916015625,0.0383758544921875,-0.6234893798828125,-0.882110595703125
1726995768268902100,0.329902099609375,0.102996826171875,-0.4755859375,-0.9581756591796875
1726995768278889200,0.33988916015625,0.1212005615234375,-0.497528076171875,-0.99615478515625
1726995768288875000,0.349875,0.1570892333984375,-0.5561981201171875,-1.0505218505859375
1726995768298861300,0.359861328125,0.23980712890625,-0.5449371337890625,-1.0645294189453125
1726995768308848000,0.36984814453125,0.3270416259765625,-0.574432373046875,-1.2917633056640625
1726995768318834200,0.379834228515625,0.3821563720703125,-0.5938873291015625,-1.90264892578125
1726995768328821200,0.3898212890625,0.2457733154296875,-0.444793701171875,-1.291778564453125
1726995768338807000,0.39980712890625,0.2868804931640625,-0.3565673828125,-0.859283447265625
1726995768348793300,0.40979345703125,0.3160858154296875,-0.472869873046875,-0.7236480712890625
1726995768358780200,0.4197802734375,0.3814544677734375,-0.518707275390625,-0.8043670654296875
1726995768368766000,0.429765869140625,0.466033935546875,-0.307708740234375,-0.9780731201171875
1726995768378752300,0.439752197265625,0.4506378173828125,-0.185302734375,-1.1711578369140625
1726995768388739000,0.449739013671875,0.3665008544921875,-0.124114990234375,-1.29583740234375
1726995768398725400,0.459725341796875,0.2428131103515625,-0.0470428466796875,-1.3939361572265625
1726995768408711200,0.469711181640625,0.1673583984375,0.0168304443359375,-1.396331787109375
1726995768418698000,0.479697998046875,0.1749114990234375,-0.044586181640625,-1.4019012451171875
1726995768428684300,0.489684326171875,0.228363037109375,-0.0137786865234375,-1.354461669921875
1726995768438671000,0.499671142578125,0.3368072509765625,-0.183837890625,-1.4091644287109375
1726995768448657200,0.5096572265625,0.4670257568359375,-0.32476806640625,-1.583099365234375
1726995768458643200,0.519643310546875,0.4886932373046875,-0.3376617431640625,-1.8319244384765625
1726995768468630000,0.529630126953125,0.379302978515625,-0.35992431640625,-2.0142974853515625
1726995768478616300,0.5396162109375,0.2151947021484375,-0.2641754150390625,-1.8235931396484375
1726995768488602000,0.54960205078125,0.0791015625,-0.20880126953125,-1.47064208984375
1726995768498589200,0.559589111328125,0.0413970947265625,-0.229034423828125,-1.1879119873046875
1726995768508575200,0.5695751953125,0.01947021484375,-0.2433013916015625,-0.9367828369140625
1726995768518561000,0.57956103515625,-0.029022216796875,-0.193206787109375,-0.8000030517578125
1726995768528548400,0.58954833984375,-0.0343475341796875,-0.1299591064453125,-0.8521728515625
1726995768538534100,0.5995341796875,-0.0005035400390625,-0.1123046875,-1.0506439208984375
1726995768548521200,0.609521240234375,-0.0173187255859375,-0.15423583984375,-1.204986572265625
1726995768558507300,0.61950732421875,0.016876220703125,-0.112396240234375,-1.282867431640625
1726995768568493000,0.6294931640625,0.0600738525390625,-0.0533905029296875,-1.2119903564453125
1726995768578480000,0.639480224609375,0.1535797119140625,-0.0584564208984375,-1.0371246337890625
1726995768588466200,0.649466064453125,0.2995147705078125,-0.0639495849609375,-0.7366943359375
1726995768598452000,0.659451904296875,0.5278472900390625,-0.085601806640625,-0.3917236328125
1726995768608439300,0.669439208984375,0.7822418212890625,-0.09759521484375,-0.1733856201171875
1726995768618425000,0.679425048828125,0.97906494140625,-0.056549072265625,-0.133941650390625
1726995768628412200,0.689412109375,1.1425933837890625,0.05609130859375,-0.188720703125
1726995768638398200,0.699398193359375,1.1370849609375,0.1129150390625,-0.21527099609375
1726995768648384000,0.709384033203125,0.8943023681640625,0.021270751953125,-0.19073486328125
1726995768658371300,0.719371337890625,0.5902862548828125,-0.0519561767578125,-0.18975830078125
1726995768668357000,0.729357177734375,0.320159912109375,-0.08905029296875,-0.3393707275390625
1726995768678343200,0.73934326171875,0.1243743896484375,0.02197265625,-0.530487060546875
1726995768688330200,0.749330322265625,0.106109619140625,0.19561767578125,-0.50616455078125
1726995768698316000,0.75931591796875,0.2952880859375,0.3548431396484375,-0.479644775390625
1726995768708302300,0.76930224609375,0.49615478515625,0.45849609375,-0.6158905029296875
1726995768718289200,0.7792890625,0.608154296875,0.4769287109375,-0.856781005859375
1726995768728275000,0.78927490234375,0.7342376708984375,0.4698638916015625,-1.061798095703125
1726995768738262300,0.79926220703125,0.72943115234375,0.484466552734375,-1.229156494140625
1726995768748248000,0.809248046875,0.63006591796875,0.3846893310546875,-1.4285125732421875
1726995768758234400,0.819234375,0.487884521484375,0.28497314453125,-1.4960174560546875
1726995768768221200,0.82922119140625,0.33984375,0.3007659912109375,-1.3736419677734375
1726995768778207000,0.83920703125,0.2870025634765625,0.34014892578125,-1.218017578125
1726995768788193300,0.849193359375,0.256683349609375,0.4853515625,-0.9957122802734375
1726995768798180000,0.85918017578125,0.2705535888671875,0.7498931884765625,-0.582794189453125
1726995768808166100,0.869166259765625,0.48284912109375,0.9377593994140625,-0.4046783447265625
1726995768818153200,0.8791533203125,0.752410888671875,1.0298919677734375,-0.38262939453125
1726995768828139000,0.889138916015625,1.0295257568359375,0.9419097900390625,-0.5271453857421875
1726995768838125300,0.899125244140625,1.1609039306640625,0.7852935791015625,-0.7205657958984375
1726995768848112000,0.909112060546875,1.1218414306640625,0.54437255859375,-0.8397064208984375
1726995768858098200,0.91909814453125,0.78460693359375,0.17694091796875,-0.825225830078125
1726995768868084200,0.929084228515625,0.4077606201171875,-0.0867156982421875,-0.7084503173828125
1726995768878071000,0.939071044921875,0.45172119140625,-0.128448486328125,-0.8910369873046875
1726995768888057300,0.949057373046875,0.4810638427734375,-0.298370361328125,-1.04510498046875
1726995768898044200,0.959044189453125,0.4139862060546875,-0.5294647216796875,-1.2426300048828125
1726995768908030200,0.9690302734375,0.3236236572265625,-0.259918212890625,-1.4835968017578125
1726995768918016300,0.979016357421875,0.194061279296875,0.0215301513671875,-1.931304931640625
1726995768928003000,0.989003173828125,0.1991729736328125,0.1264801025390625,-1.9054107666015625
1726995768937989000,0.998989013671875,0.2470703125,0.0399627685546875,-1.4304962158203125
1726995768947975200,1.00897509765625,0.237335205078125,0.0068359375,-1.0390777587890625
1726995768957962200,1.018962158203125,0.1661834716796875,0.032989501953125,-0.8517608642578125
1726995768967948300,1.0289482421875,0.121307373046875,0.016265869140625,-0.682769775390625
1726995768977934000,1.03893408203125,-0.0687408447265625,-0.0240325927734375,-0.6689910888671875
1726995768987921200,1.048921142578125,-0.1774444580078125,-0.101776123046875,-0.725860595703125
1726995768997907200,1.0589072265625,0.1946868896484375,-0.18243408203125,-0.5808258056640625
1726995769007893800,1.068893798828125,0.063720703125,-0.196136474609375,-0.6355438232421875
1726995769017880000,1.078880126953125,-0.0021514892578125,-0.19659423828125,-0.6668853759765625
1726995769027865900,1.088865966796875,0.1498870849609375,-0.1227874755859375,-0.6759033203125
1726995769037852700,1.098852783203125,0.3153839111328125,-0.0830078125,-0.6838836669921875
1726995769047839000,1.1088388671875,0.3834991455078125,-0.083831787109375,-0.7994384765625
1726995769057824800,1.11882470703125,0.345794677734375,-0.1230010986328125,-0.9987945556640625
1726995769067811800,1.128811767578125,0.3524932861328125,-0.077972412109375,-1.150665283203125
1726995769077798000,1.1387978515625,0.4949493408203125,0.0198974609375,-1.20587158203125
1726995769087784700,1.14878466796875,0.538421630859375,0.0543212890625,-1.1817474365234375
1726995769097771000,1.15877099609375,0.6012420654296875,0.045928955078125,-1.264404296875
1726995769107756800,1.1687568359375,0.526885986328125,0.05865478515625,-1.3108367919921875
1726995769117743900,1.178743896484375,0.5533294677734375,0.0196075439453125,-1.2758636474609375
1726995769127730000,1.18872998046875,0.6173095703125,-0.04913330078125,-1.118072509765625
1726995769137715700,1.1987158203125,0.54791259765625,-0.0743865966796875,-1.0273590087890625
1726995769147703000,1.208703125,0.456573486328125,-0.049224853515625,-0.960540771484375
1726995769157688800,1.218688720703125,0.3763427734375,-0.0275115966796875,-0.935546875
1726995769167676000,1.228676025390625,0.3057708740234375,-0.0052337646484375,-0.90478515625
1726995769177662000,1.238661865234375,0.2581329345703125,0.0081634521484375,-0.8900299072265625
1726995769187647700,1.248647705078125,0.2255401611328125,0.0159149169921875,-0.893402099609375
1726995769197634800,1.258634765625,0.200103759765625,0.0291900634765625,-0.9117431640625
1726995769207620900,1.268620849609375,0.1867218017578125,0.02044677734375,-0.9425048828125
1726995769217606700,1.278606689453125,0.187835693359375,0.0034942626953125,-0.9621429443359375
1726995769227594000,1.288593994140625,0.1956787109375,-0.019073486328125,-0.9716796875
1726995769237579800,1.298579833984375,0.1971435546875,-0.0400390625,-0.96429443359375
1726995769247566000,1.308566162109375,0.192657470703125,-0.0484771728515625,-0.9371490478515625
1726995769257553000,1.318552978515625,0.1876220703125,-0.046478271484375,-0.9062957763671875
1726995769267538700,1.32853857421875,0.1743011474609375,-0.035308837890625,-0.8874053955078125
1726995769277526000,1.338526123046875,0.1605224609375,-0.0160980224609375,-0.8902740478515625
1726995769287511800,1.34851171875,0.1586456298828125,-0.005462646484375,-0.8943328857421875
1726995769297498000,1.358498046875,0.1660919189453125,0.0018310546875,-0.90545654296875
1726995769307485000,1.36848486328125,0.17645263671875,0.0020904541015625,-0.9131622314453125
1726995769317470700,1.378470703125,0.19580078125,-0.00347900390625,-0.90972900390625
1726995769327457000,1.38845703125,0.228424072265625,-0.0208282470703125,-0.9103851318359375
1726995769337443800,1.39844384765625,0.2619476318359375,-0.037689208984375,-0.91241455078125
1726995769347430000,1.408429931640625,0.2770538330078125,-0.049468994140625,-0.92138671875
1726995769357417000,1.4184169921875,0.2706756591796875,-0.0573577880859375,-0.94805908203125
1726995769367402800,1.42840283203125,0.2585906982421875,-0.0573272705078125,-0.991119384765625
1726995769377389000,1.43838916015625,0.2428741455078125,-0.0594329833984375,-1.0235748291015625
1726995769387375900,1.4483759765625,0.225341796875,-0.055908203125,-1.0366973876953125
1726995769397362000,1.45836181640625,0.196563720703125,-0.0509185791015625,-1.039154052734375
1726995769407348000,1.468347900390625,0.1695709228515625,-0.037811279296875,-1.0186309814453125
1726995769417334800,1.478334716796875,0.1387481689453125,-0.0261077880859375,-0.9940948486328125
1726995769427320800,1.48832080078125,0.106231689453125,-0.0143585205078125,-0.973052978515625
1726995769437307000,1.498306884765625,0.0839691162109375,0.000762939453125,-0.961090087890625
1726995769447293700,1.508293701171875,0.075103759765625,0.015533447265625,-0.9627838134765625
1726995769457280000,1.518280029296875,0.0805816650390625,0.0260162353515625,-0.9797821044921875
1726995769467266800,1.528266845703125,0.089935302734375,0.0235137939453125,-1.0142669677734375
1726995769477252900,1.5382529296875,0.1001434326171875,0.0047760009765625,-1.050567626953125
1726995769487239000,1.548239013671875,0.111663818359375,-0.015960693359375,-1.0831756591796875
1726995769497225700,1.558225830078125,0.1219024658203125,-0.029449462890625,-1.1147613525390625
1726995769507212000,1.5682119140625,0.1325836181640625,-0.0391693115234375,-1.1198883056640625
1726995769517197800,1.57819775390625,0.1562042236328125,-0.051727294921875,-1.1080474853515625
1726995769527185000,1.588184814453125,0.159576416015625,-0.048980712890625,-1.06549072265625
1726995769537171000,1.5981708984375,0.158843994140625,-0.0333709716796875,-1.021026611328125
1726995769547156700,1.60815673828125,0.1465301513671875,-0.017303466796875,-1.0023956298828125
1726995769557143800,1.618143798828125,0.118560791015625,0.007720947265625,-1.006805419921875
1726995769567129900,1.6281298828125,0.0886383056640625,0.0386505126953125,-1.0196685791015625
1726995769577117000,1.638116943359375,0.066619873046875,0.057830810546875,-1.0367279052734375
1726995769587103000,1.64810302734375,0.05426025390625,0.069549560546875,-1.0559539794921875
1726995769597088800,1.6580888671875,0.0518798828125,0.073455810546875,-1.068572998046875
1726995769607075800,1.668075927734375,0.0601806640625,0.0642242431640625,-1.0540313720703125
1726995769617062000,1.678061767578125,0.063812255859375,0.044921875,-1.0189361572265625
1726995769627047700,1.688047607421875,0.066192626953125,0.02191162109375,-0.9983367919921875
1726995769637035000,1.698034912109375,0.0648040771484375,0.0033416748046875,-1.006622314453125
1726995769647020800,1.708020751953125,0.0576934814453125,0.0062103271484375,-1.0526580810546875
1726995769657007000,1.718007080078125,0.048614501953125,0.0116729736328125,-1.1007232666015625
1726995769666994000,1.727993896484375,0.035369873046875,0.0106658935546875,-1.118743896484375
1726995769676979700,1.737979736328125,0.0244293212890625,0.011749267578125,-1.099212646484375
1726995769686966800,1.747966796875,0.0117034912109375,0.0087432861328125,-1.06134033203125
1726995769696952800,1.757952880859375,-0.003509521484375,0.0105438232421875,-1.029541015625
1726995769706939000,1.76793896484375,-0.02557373046875,0.011810302734375,-1.0120849609375
1726995769716926000,1.777926025390625,-0.0357208251953125,0.0068511962890625,-0.9716949462890625
1726995769726911700,1.787911865234375,-0.0319671630859375,0.0059814453125,-0.916046142578125
1726995769736898000,1.79789794921875,-0.024261474609375,0.00494384765625,-0.86175537109375
1726995769746884900,1.807884765625,-0.0127410888671875,0.0075225830078125,-0.8449554443359375
1726995769756871000,1.817870849609375,0.012359619140625,0.00787353515625,-0.8574981689453125
1726995769766857000,1.82785693359375,0.0357818603515625,0.016448974609375,-0.9275054931640625
1726995769776843800,1.83784375,0.0524444580078125,0.03076171875,-1.02337646484375
1726995769786829800,1.847829833984375,0.07647705078125,0.0475006103515625,-1.0977783203125
1726995769796817000,1.85781689453125,0.1201019287109375,0.0672454833984375,-1.1107177734375
1726995769806803000,1.867802978515625,0.1784515380859375,0.0716552734375,-1.0947265625
1726995769816789000,1.8777890625,0.2379302978515625,0.0559234619140625,-1.078277587890625
1726995769826775800,1.88777587890625,0.27447509765625,0.0412445068359375,-1.045501708984375
1726995769836761900,1.897761962890625,0.263519287109375,0.0508880615234375,-1.0095367431640625
1726995769846748000,1.907747802734375,0.2196044921875,0.0750885009765625,-0.9830474853515625
1726995769856735000,1.91773486328125,0.1638031005859375,0.10626220703125,-1.0041351318359375
1726995769866721000,1.927720947265625,0.1094818115234375,0.1384735107421875,-1.0567626953125
1726995769876706800,1.937706787109375,0.0634002685546875,0.1617431640625,-1.10089111328125
1726995769886694000,1.94769384765625,0.0311279296875,0.171966552734375,-1.089324951171875
1726995769896680000,1.957679931640625,0.0182037353515625,0.1706085205078125,-1.0040740966796875
1726995769906667000,1.9676669921875,0.01226806640625,0.1689300537109375,-0.922027587890625
1726995769916652800,1.97765283203125,0.0153656005859375,0.161529541015625,-0.8755035400390625
1726995769926638800,1.987638916015625,0.0301971435546875,0.144805908203125,-0.87042236328125
1726995769936626000,1.9976259765625,0.0549774169921875,0.1098785400390625,-0.9149932861328125
1726995769946612000,2.007612060546875,0.0731658935546875,0.0641937255859375,-0.996124267578125
1726995769956597800,2.01759765625,0.0790557861328125,0.0455169677734375,-1.0440521240234375
1726995769966584800,2.027584716796875,0.0806121826171875,0.022125244140625,-1.0739593505859375
1726995769976571000,2.03757080078125,0.1009674072265625,-0.006256103515625,-1.0666656494140625
1726995769986556700,2.047556640625,0.093048095703125,-0.0305023193359375,-1.048553466796875
1726995769996544000,2.0575439453125,0.0966033935546875,-0.0602264404296875,-1.02001953125
1726995770006529500,2.067529541015625,0.0775299072265625,-0.06646728515625,-0.986846923828125
1726995770016516600,2.0775166015625,0.01080322265625,-0.023223876953125,-0.9265289306640625
1726995770026502700,2.087502685546875,-0.0593109130859375,0.04779052734375,-0.880218505859375
1726995770036488400,2.097488525390625,-0.099029541015625,0.0987548828125,-0.855682373046875
1726995770046475800,2.107475830078125,-0.1181793212890625,0.1253814697265625,-0.847381591796875
1726995770056461600,2.117461669921875,-0.118011474609375,0.149658203125,-0.840850830078125
1726995770066447600,2.127447509765625,-0.1416473388671875,0.1799163818359375,-0.879547119140625
1726995770076434700,2.1374345703125,-0.1547393798828125,0.204803466796875,-0.9588165283203125
1726995770086420500,2.14742041015625,-0.144775390625,0.2326812744140625,-1.0370941162109375
1726995770096406800,2.15740673828125,-0.1127777099609375,0.2812652587890625,-1.1077880859375
1726995770106393600,2.1673935546875,-0.0515594482421875,0.3247222900390625,-1.149566650390625
1726995770116379600,2.177379638671875,-0.0235595703125,0.3491058349609375,-1.100982666015625
1726995770126365700,2.18736572265625,-0.004180908203125,0.3725738525390625,-1.052886962890625
1726995770136352500,2.1973525390625,0.0187225341796875,0.3851318359375,-1.0353240966796875
1726995770146338800,2.2073388671875,0.051483154296875,0.362335205078125,-1.0575714111328125
1726995770156325600,2.21732568359375,0.1010284423828125,0.2801361083984375,-1.082672119140625
1726995770166311700,2.227311767578125,0.1653594970703125,0.1588592529296875,-1.0452728271484375
1726995770176297700,2.237297607421875,0.2089080810546875,0.10284423828125,-0.988861083984375
1726995770186284500,2.247284423828125,0.2058563232421875,0.0858612060546875,-0.9470977783203125
1726995770196270600,2.2572705078125,0.1902618408203125,0.0988006591796875,-0.912750244140625
1726995770206256600,2.267256591796875,0.1547698974609375,0.15765380859375,-0.93804931640625
1726995770216243700,2.27724365234375,0.085723876953125,0.2168121337890625,-1.0055999755859375
1726995770226229800,2.287229736328125,0.0234375,0.2674560546875,-1.0691680908203125
1726995770236215600,2.297215576171875,-0.009063720703125,0.2899322509765625,-1.0945892333984375
1726995770246202600,2.30720263671875,0.0025787353515625,0.243896484375,-1.060302734375
1726995770256188700,2.317188720703125,-0.0025482177734375,0.1806182861328125,-1.007171630859375
1726995770266175500,2.327175537109375,-0.0244140625,0.132781982421875,-0.974639892578125
1726995770276161800,2.337161865234375,-0.0310821533203125,0.080902099609375,-0.9788055419921875
1726995770286147600,2.347147705078125,-0.0308074951171875,0.03387451171875,-1.021514892578125
1726995770296134700,2.357134765625,-0.02276611328125,-0.0016937255859375,-1.07794189453125
1726995770306120700,2.36712060546875,-0.021728515625,-0.0273895263671875,-1.1169586181640625
1726995770316106500,2.3771064453125,-0.029541015625,-0.03900146484375,-1.112060546875
1726995770326093600,2.387093505859375,-0.0290069580078125,-0.0515594482421875,-1.061676025390625
1726995770336079600,2.39707958984375,-0.0137176513671875,-0.0546722412109375,-0.9722442626953125
1726995770346065400,2.4070654296875,-0.001007080078125,-0.048309326171875,-0.903961181640625
1726995770356052700,2.417052734375,-0.005859375,-0.019989013671875,-0.90380859375
1726995770366038500,2.42703857421875,-0.0139617919921875,0.0228424072265625,-0.926727294921875
1726995770376024800,2.43702490234375,-0.0267486572265625,0.0699005126953125,-0.949981689453125
1726995770386011600,2.44701171875,-0.0396575927734375,0.1042633056640625,-0.9780731201171875
1726995770395997400,2.45699755859375,-0.0347747802734375,0.119659423828125,-1.016021728515625
1726995770405983700,2.466983642578125,-0.005706787109375,0.10107421875,-1.061492919921875
1726995770415970600,2.476970458984375,0.0387420654296875,0.0652008056640625,-1.0741119384765625
1726995770425956600,2.48695654296875,0.0648651123046875,0.040679931640625,-1.046234130859375
1726995770435943700,2.496943603515625,0.06549072265625,0.03851318359375,-1.0344696044921875
1726995770445929500,2.506929443359375,0.0687713623046875,0.0494842529296875,-1.008636474609375
1726995770455915800,2.516915771484375,0.055816650390625,0.0755767822265625,-0.9847259521484375
1726995770465902600,2.526902587890625,0.0407562255859375,0.1048583984375,-0.9857635498046875
1726995770475888600,2.536888671875,0.028289794921875,0.1274261474609375,-0.9731292724609375
1726995770485874700,2.546874755859375,0.01995849609375,0.1498870849609375,-0.9414215087890625
1726995770495861500,2.556861572265625,0.0223846435546875,0.1501007080078125,-0.909637451171875
1726995770505847800,2.566847900390625,0.0272674560546875,0.1301727294921875,-0.874908447265625
1726995770515833600,2.57683349609375,0.026123046875,0.088592529296875,-0.8781890869140625
1726995770525820700,2.586820556640625,0.01708984375,0.05511474609375,-0.9051971435546875
1726995770535806700,2.596806640625,-0.00537109375,0.0257415771484375,-0.92462158203125
1726995770545793500,2.60679345703125,-0.0186004638671875,0.003875732421875,-0.9593353271484375
1726995770555779600,2.616779541015625,-0.0276336669921875,-0.01593017578125,-1.028533935546875
1726995770565765600,2.626765625,-0.0357208251953125,-0.0331878662109375,-1.095367431640625
1726995770575752700,2.636752685546875,-0.04345703125,-0.0449981689453125,-1.11962890625
1726995770585738800,2.64673876953125,-0.044921875,-0.0675048828125,-1.1035919189453125
1726995770595724500,2.656724609375,-0.0520782470703125,-0.0831146240234375,-1.082427978515625
1726995770605711600,2.666711669921875,-0.039825439453125,-0.1151580810546875,-1.039886474609375
1726995770615697700,2.67669775390625,-0.03271484375,-0.148773193359375,-1.0048675537109375
1726995770625683500,2.686683349609375,-0.029510498046875,-0.1821441650390625,-0.992279052734375
1726995770635670800,2.6966708984375,-0.02069091796875,-0.2057037353515625,-0.99932861328125
1726995770645656600,2.706656494140625,-0.0291290283203125,-0.2050933837890625,-1.034454345703125
1726995770655642600,2.716642578125,-0.032989501953125,-0.2004241943359375,-1.083740234375
1726995770665629700,2.726629638671875,-0.025482177734375,-0.1900634765625,-1.1396331787109375
1726995770675615500,2.736615478515625,-0.02923583984375,-0.1666107177734375,-1.1504669189453125
1726995770685601800,2.746601806640625,-0.0222930908203125,-0.146820068359375,-1.140594482421875
1726995770695588600,2.756588623046875,-0.0179901123046875,-0.128173828125,-1.1209259033203125
1726995770705574400,2.766574462890625,-0.0352325439453125,-0.0884552001953125,-1.099945068359375
1726995770715561700,2.776561767578125,-0.0521087646484375,-0.04052734375,-1.084442138671875
1726995770725547500,2.786547607421875,-0.0657806396484375,0.00360107421875,-1.017120361328125
1726995770735533800,2.796533935546875,-0.0762481689453125,0.0455169677734375,-0.926300048828125
1726995770745520600,2.806520751953125,-0.0774078369140625,0.0898590087890625,-0.874267578125
1726995770755506400,2.81650634765625,-0.0522613525390625,0.13427734375,-0.8697357177734375
1726995770765492700,2.82649267578125,0.0121612548828125,0.1826171875,-0.8952789306640625
1726995770775479600,2.8364794921875,0.09271240234375,0.220855712890625,-0.9432525634765625
1726995770785465600,2.846465576171875,0.1613311767578125,0.25238037109375,-1.0158538818359375
1726995770795451600,2.85645166015625,0.2122650146484375,0.2818603515625,-1.0663299560546875
1726995770805438500,2.8664384765625,0.250152587890625,0.3001861572265625,-1.0812835693359375
1726995770815424800,2.8764248046875,0.2874755859375,0.295654296875,-1.068206787109375
1726995770825410600,2.88641064453125,0.3250579833984375,0.264007568359375,-1.035797119140625
1726995770835397600,2.896397705078125,0.3573455810546875,0.2303924560546875,-1.00372314453125
1726995770845383700,2.9063837890625,0.3758392333984375,0.1704864501953125,-0.9683074951171875
1726995770855369500,2.916369384765625,0.3673858642578125,0.106964111328125,-0.952606201171875
1726995770865356800,2.926356689453125,0.309600830078125,0.057952880859375,-0.963623046875
1726995770875342600,2.936342529296875,0.2510223388671875,0.03668212890625,-0.964080810546875
1726995770885329700,2.94632958984375,0.1993865966796875,0.0298919677734375,-0.9527587890625
1726995770895315700,2.956315673828125,0.1443023681640625,0.029296875,-0.8978729248046875
1726995770905301500,2.966301513671875,0.061859130859375,0.034088134765625,-0.845428466796875
1726995770915288600,2.97628857421875,0.000213623046875,0.04376220703125,-0.827606201171875
1726995770925274600,2.986274658203125,-0.0292510986328125,0.062103271484375,-0.814178466796875
1726995770935260400,2.996260498046875,-0.0654144287109375,0.079833984375,-0.8132171630859375
1726995770945247700,3.006247802734375,-0.109619140625,0.1080474853515625,-0.851715087890625
1726995770955233500,3.016233642578125,-0.144134521484375,0.1370391845703125,-0.938568115234375
1726995770965219800,3.0262197265625,-0.1621856689453125,0.1502227783203125,-1.025543212890625
1726995770975206700,3.03620654296875,-0.1637420654296875,0.1428680419921875,-1.0956573486328125
1726995770985192400,3.0461923828125,-0.15850830078125,0.108642578125,-1.147186279296875
1726995770995178800,3.0561787109375,-0.15521240234375,0.058258056640625,-1.158233642578125
1726995771005166000,3.066166015625,-0.15240478515625,0.0144500732421875,-1.151763916015625
1726995771015152000,3.076152099609375,-0.1608123779296875,-0.0335235595703125,-1.121246337890625
1726995771025139200,3.08613916015625,-0.1729736328125,-0.0651092529296875,-1.0955963134765625
1726995771035125200,3.096125244140625,-0.1889190673828125,-0.07452392578125,-1.09002685546875
1726995771045111300,3.106111328125,-0.202667236328125,-0.069732666015625,-1.0630950927734375
1726995771055098000,3.11609814453125,-0.2118682861328125,-0.0600128173828125,-1.0462646484375
1726995771065084200,3.126084228515625,-0.2267608642578125,-0.051239013671875,-1.0452728271484375
1726995771075070200,3.1360703125,-0.2230377197265625,-0.06060791015625,-1.02862548828125
1726995771085057300,3.146057373046875,-0.2090911865234375,-0.0720672607421875,-1.0139923095703125
1726995771095043000,3.15604296875,-0.2159423828125,-0.0875396728515625,-1.0015716552734375
1726995771105029000,3.166029052734375,-0.2297515869140625,-0.1064300537109375,-1.0100555419921875
1726995771115016200,3.17601611328125,-0.2060394287109375,-0.1312713623046875,-1.0103302001953125
1726995771125002200,3.186002197265625,-0.1914825439453125,-0.1350860595703125,-0.9812469482421875
1726995771134988000,3.195988037109375,-0.1374053955078125,-0.0898590087890625,-0.9301605224609375
1726995771144975000,3.20597509765625,-0.0440216064453125,-0.0380401611328125,-0.9096221923828125
1726995771154961200,3.215961181640625,0.0113372802734375,-0.03021240234375,-0.9143524169921875
1726995771164947200,3.225947265625,0.1546478271484375,0.0016021728515625,-0.8759307861328125
1726995771174934300,3.235934326171875,0.3039398193359375,0.03076171875,-0.9140777587890625
1726995771184920000,3.245920166015625,0.39056396484375,0.005615234375,-0.9842376708984375
1726995771194907100,3.2559072265625,0.3338165283203125,-0.0244140625,-1.022491455078125
1726995771204893200,3.26589306640625,0.25048828125,-0.06097412109375,-1.131591796875
1726995771214879200,3.275879150390625,0.11138916015625,-0.092742919921875,-1.1497955322265625
1726995771224866000,3.285865966796875,-0.0047760009765625,-0.1273193359375,-1.0947723388671875
1726995771234852000,3.29585205078125,-0.1002197265625,-0.15765380859375,-0.9858856201171875
1726995771244838100,3.305838134765625,-0.1620330810546875,-0.1895294189453125,-0.8993988037109375
1726995771254825200,3.3158251953125,-0.1082000732421875,-0.14971923828125,-0.8653106689453125
1726995771264811300,3.325811279296875,-0.0979766845703125,-0.058929443359375,-0.9238128662109375
1726995771274797300,3.33579736328125,-0.1048126220703125,-0.00445556640625,-0.9640350341796875
1726995771284784000,3.3457841796875,-0.0778961181640625,0.015045166015625,-0.961029052734375
1726995771294770200,3.355770263671875,-0.0511016845703125,-0.000213623046875,-0.97802734375
1726995771304756200,3.365756103515625,-0.04345703125,-0.0202789306640625,-1.02569580078125
1726995771314743300,3.375743408203125,-0.04754638671875,-0.016448974609375,-1.05657958984375
1726995771324729000,3.38572900390625,-0.057708740234375,0.0180206298828125,-1.0389862060546875
1726995771334715100,3.395715087890625,-0.0557098388671875,0.0614776611328125,-0.97174072265625
1726995771344702200,3.4057021484375,-0.040496826171875,0.0966033935546875,-0.890106201171875
1726995771354688300,3.415688232421875,-0.033172607421875,0.0994415283203125,-0.8830413818359375
1726995771364674000,3.425674072265625,-0.0007476806640625,0.078521728515625,-0.9151763916015625
1726995771374661000,3.4356611328125,0.024688720703125,0.05328369140625,-0.9986419677734375
1726995771384647200,3.445647216796875,0.05267333984375,0.025634765625,-1.0945281982421875
1726995771394634200,3.45563427734375,0.0855255126953125,0.0094757080078125,-1.1730804443359375
1726995771404620300,3.465620361328125,0.112030029296875,-0.010284423828125,-1.19195556640625
1726995771414606000,3.475606201171875,0.14300537109375,-0.04052734375,-1.12353515625
1726995771424593200,3.48559326171875,0.1720123291015625,-0.0762939453125,-1.0119781494140625
1726995771434579200,3.4955791015625,0.1898193359375,-0.1037139892578125,-0.9174957275390625
1726995771444565000,3.50556494140625,0.1838836669921875,-0.09271240234375,-0.857513427734375
1726995771454552000,3.515552001953125,0.1699676513671875,-0.034942626953125,-0.8342132568359375
1726995771464538000,3.5255380859375,0.1111602783203125,0.0185546875,-0.912261962890625
1726995771474524200,3.535524169921875,0.080169677734375,0.0511474609375,-0.9730377197265625
1726995771484511200,3.54551123046875,0.061065673828125,0.0718994140625,-1.0496978759765625
1726995771494497000,3.5554970703125,0.03955078125,0.084686279296875,-1.1111297607421875
1726995771504483300,3.5654833984375,0.06011962890625,0.0797119140625,-1.1197662353515625
1726995771514470100,3.57547021484375,0.0944671630859375,0.041778564453125,-1.088104248046875
1726995771524456200,3.585456298828125,0.109466552734375,0.006195068359375,-1.037841796875
1726995771534442200,3.595442138671875,0.118896484375,-0.03179931640625,-0.9667205810546875
1726995771544429000,3.605428955078125,0.1235504150390625,-0.0663909912109375,-0.9159698486328125
1726995771554415000,3.6154150390625,0.1203765869140625,-0.0833282470703125,-0.9068450927734375
1726995771564401200,3.625401123046875,0.094757080078125,-0.075408935546875,-0.961456298828125
1726995771574388200,3.63538818359375,0.0535736083984375,-0.0380706787109375,-1.0416717529296875
1726995771584374300,3.645374267578125,0.032196044921875,-0.00439453125,-1.0929107666015625
1726995771594361000,3.655361083984375,0.0223846435546875,0.0172271728515625,-1.0766754150390625
1726995771604347100,3.66534716796875,0.03228759765625,0.01708984375,-0.996185302734375
1726995771614333200,3.675333251953125,0.0372772216796875,-0.0027923583984375,-0.91741943359375
1726995771624320300,3.6853203125,0.03082275390625,-0.0230712890625,-0.8585357666015625
1726995771634306300,3.695306396484375,0.0131988525390625,-0.0235748291015625,-0.838470458984375
1726995771644292000,3.7052919921875,0.0016632080078125,-0.011016845703125,-0.853424072265625
1726995771654279200,3.715279052734375,-0.0070648193359375,0.0023040771484375,-0.8957366943359375
1726995771664265200,3.72526513671875,-0.0106964111328125,0.0185546875,-0.9616851806640625
1726995771674251000,3.7352509765625,0.0120697021484375,0.02728271484375,-1.0263671875
1726995771684238000,3.745238037109375,0.042724609375,0.00848388671875,-1.064666748046875
1726995771694224100,3.75522412109375,0.08282470703125,-0.04022216796875,-1.06207275390625
1726995771704210200,3.765210205078125,0.125823974609375,-0.10302734375,-1.0477294921875
1726995771714197200,3.775197265625,0.1674957275390625,-0.160980224609375,-1.0570526123046875
1726995771724183000,3.78518310546875,0.20574951171875,-0.2022705078125,-1.0725555419921875
1726995771734169300,3.79516943359375,0.2136688232421875,-0.2130584716796875,-1.102813720703125
1726995771744156200,3.80515625,0.1962127685546875,-0.1789093017578125,-1.131195068359375
1726995771754142200,3.81514208984375,0.1671142578125,-0.1171112060546875,-1.1523284912109375
1726995771764128300,3.825128173828125,0.1468353271484375,-0.0643157958984375,-1.1646728515625
1726995771774115000,3.835114990234375,0.1680755615234375,-0.0279693603515625,-1.1834259033203125
1726995771784101000,3.84510107421875,0.1926116943359375,-0.01611328125,-1.179840087890625
1726995771794088200,3.855088134765625,0.2213134765625,-0.0295257568359375,-1.11981201171875
1726995771804074200,3.86507421875,0.2534332275390625,-0.0641326904296875,-1.0396575927734375
1726995771814060300,3.875060302734375,0.27496337890625,-0.092498779296875,-0.976409912109375
1726995771824047000,3.885047119140625,0.2611846923828125,-0.0941314697265625,-0.94384765625
1726995771834033200,3.895033203125,0.203887939453125,-0.0758209228515625,-0.966644287109375
1726995771844019200,3.905019287109375,0.1703643798828125,-0.048187255859375,-0.9773712158203125
1726995771854006000,3.915006103515625,0.1336212158203125,-0.018829345703125,-0.9887237548828125
1726995771863992300,3.924992431640625,0.11651611328125,-0.00592041015625,-0.985321044921875
1726995771873978000,3.93497802734375,0.1233673095703125,-0.0131988525390625,-0.9672698974609375
1726995771883965200,3.944965087890625,0.1432342529296875,-0.0286712646484375,-0.926666259765625
1726995771893951200,3.954951171875,0.165283203125,-0.050933837890625,-0.900665283203125
1726995771903937000,3.96493701171875,0.1742095947265625,-0.06500244140625,-0.9077301025390625
1726995771913924000,3.974924072265625,0.177642822265625,-0.07281494140625,-0.9374542236328125
1726995771923910100,3.98491015625,0.1827239990234375,-0.076416015625,-0.9710845947265625
1726995771933896200,3.994896240234375,0.1916351318359375,-0.078460693359375,-0.9985504150390625
1726995771943883300,4.00488330078125,0.207305908203125,-0.0815582275390625,-1.0186309814453125
1726995771953869000,4.014869140625,0.2084197998046875,-0.0868072509765625,-1.020782470703125
1726995771963855400,4.02485546875,0.21044921875,-0.0955047607421875,-1.0123748779296875
1726995771973842200,4.03484228515625,0.2238922119140625,-0.1053314208984375,-0.9978179931640625
1726995771983828000,4.044827880859375,0.23193359375,-0.119903564453125,-1
1726995771993814300,4.054814208984375,0.2268218994140625,-0.1263275146484375,-1.012725830078125
1726995772003801000,4.064801025390625,0.218170166015625,-0.1273956298828125,-1.00799560546875
1726995772013787100,4.074787109375,0.2042388916015625,-0.115875244140625,-0.9859771728515625
1726995772023774200,4.084774169921875,0.1829986572265625,-0.0946502685546875,-0.9493255615234375
1726995772033760000,4.094760009765625,0.1719512939453125,-0.0757904052734375,-0.92755126953125
1726995772043746300,4.104746337890625,0.16827392578125,-0.0453033447265625,-0.937530517578125
1726995772053733000,4.114733154296875,0.1670989990234375,-0.015045166015625,-0.963897705078125
1726995772063719000,4.124718994140625,0.1704254150390625,0.003814697265625,-1.016082763671875
1726995772073705200,4.134705322265625,0.18524169921875,0.01275634765625,-1.066253662109375
1726995772083692000,4.144692138671875,0.213897705078125,0.010894775390625,-1.086181640625
1726995772093678300,4.15467822265625,0.249603271484375,0.0006561279296875,-1.0583953857421875
1726995772103664000,4.1646640625,0.265960693359375,-0.005859375,-1.0254364013671875
1726995772113651000,4.17465087890625,0.273162841796875,-0.0097503662109375,-0.9858551025390625
1726995772123637200,4.18463720703125,0.2831268310546875,-0.0113677978515625,-0.96917724609375
1726995772133623000,4.194623046875,0.2717437744140625,-0.014404296875,-0.9727325439453125
1726995772143610000,4.204610107421875,0.2507171630859375,-0.01385498046875,-0.9993743896484375
1726995772153596200,4.21459619140625,0.2512054443359375,-0.0198211669921875,-1.0045318603515625
1726995772163582200,4.224582275390625,0.2340087890625,-0.0159149169921875,-0.9944610595703125
1726995772173569300,4.2345693359375,0.2191925048828125,-0.0133819580078125,-0.9788360595703125
1726995772183555000,4.24455517578125,0.21038818359375,-0.02081298828125,-0.966522216796875
1726995772193541000,4.254541015625,0.196075439453125,-0.021484375,-0.964691162109375
1726995772203528200,4.264528076171875,0.182342529296875,-0.0235748291015625,-0.98504638671875
1726995772213514000,4.274513916015625,0.1722412109375,-0.02618408203125,-0.9998931884765625
1726995772223500000,4.2845,0.1753692626953125,-0.033447265625,-1.0194854736328125
1726995772233487000,4.294487060546875,0.1798248291015625,-0.0331573486328125,-1.0137481689453125
1726995772243473200,4.30447314453125,0.186187744140625,-0.039764404296875,-1.0093994140625
1726995772253459200,4.314459228515625,0.1938629150390625,-0.035247802734375,-0.9959259033203125
1726995772263446000,4.324446044921875,0.1993255615234375,-0.038055419921875,-0.985748291015625
1726995772273432000,4.33443212890625,0.211639404296875,-0.0457305908203125,-0.9833831787109375
1726995772283419100,4.344419189453125,0.220550537109375,-0.0526885986328125,-1.0026397705078125
1726995772293405000,4.354405029296875,0.220245361328125,-0.0624542236328125,-1.0403594970703125
1726995772303391200,4.36439111328125,0.2151641845703125,-0.06854248046875,-1.09075927734375
1726995772313378000,4.3743779296875,0.1989288330078125,-0.070953369140625,-1.1295013427734375
1726995772323364000,4.384364013671875,0.1879425048828125,-0.0650482177734375,-1.14111328125
1726995772333350100,4.39435009765625,0.153533935546875,-0.034942626953125,-1.1201934814453125
1726995772343337000,4.4043369140625,0.1146087646484375,-0.0150146484375,-1.03753662109375
1726995772353323300,4.4143232421875,0.0660858154296875,0.0279388427734375,-0.9483795166015625
1726995772363309000,4.42430908203125,0.036407470703125,0.080108642578125,-0.9075927734375
1726995772373296000,4.434296142578125,0.0369720458984375,0.11163330078125,-0.9155120849609375
1726995772383282200,4.4442822265625,0.0313720703125,0.135467529296875,-0.91290283203125
1726995772393268200,4.454268310546875,0.040496826171875,0.125885009765625,-0.9056243896484375
1726995772403255300,4.46425537109375,0.0299530029296875,0.1331024169921875,-0.8856964111328125
1726995772413241000,4.474240966796875,0.0133209228515625,0.141326904296875,-0.896148681640625
1726995772423227100,4.48422705078125,-0.0211029052734375,0.1498260498046875,-0.9136810302734375
1726995772433214200,4.494214111328125,-0.0891876220703125,0.153778076171875,-0.914093017578125
1726995772443200000,4.504199951171875,-0.0509185791015625,0.136688232421875,-0.9185333251953125
1726995772453186000,4.51418603515625,0.023101806640625,0.146575927734375,-0.9280548095703125
1726995772463173000,4.524173095703125,0.030120849609375,0.173828125,-0.917327880859375
1726995772473159200,4.5341591796875,0.0360107421875,0.19915771484375,-0.9006805419921875
1726995772483145200,4.544145263671875,0.055908203125,0.209136962890625,-0.8990631103515625
1726995772493132000,4.554132080078125,0.091094970703125,0.1983184814453125,-0.9095916748046875
1726995772503118000,4.5641181640625,0.1147003173828125,0.1912384033203125,-0.9126434326171875
1726995772513104100,4.574104248046875,0.148284912109375,0.1921539306640625,-0.912261962890625
1726995772523091200,4.58409130859375,0.185943603515625,0.19635009765625,-0.9107208251953125
1726995772533077200,4.5940771484375,0.2144317626953125,0.2153778076171875,-0.889617919921875
1726995772543064000,4.60406396484375,0.22308349609375,0.2339324951171875,-0.8670501708984375
1726995772553050000,4.614050048828125,0.238922119140625,0.2581939697265625,-0.8456268310546875
1726995772563036200,4.6240361328125,0.259552001953125,0.273040771484375,-0.8702545166015625
1726995772573023000,4.63402294921875,0.273712158203125,0.289794921875,-0.9027252197265625
1726995772583009300,4.64400927734375,0.29083251953125,0.308624267578125,-0.9263458251953125
1726995772592995000,4.6539951171875,0.3214111328125,0.316986083984375,-0.9519195556640625
1726995772602982100,4.663982177734375,0.342926025390625,0.3239593505859375,-0.9657745361328125
1726995772612968200,4.67396826171875,0.3699951171875,0.327056884765625,-0.9727783203125
1726995772622954200,4.683954345703125,0.3827667236328125,0.317413330078125,-0.9675445556640625
1726995772632941300,4.69394140625,0.34619140625,0.3104095458984375,-0.958038330078125
1726995772642927000,4.703927001953125,0.283599853515625,0.3020782470703125,-0.93603515625
1726995772652913200,4.7139130859375,0.2249908447265625,0.3044891357421875,-0.8997344970703125
1726995772662900200,4.723900146484375,0.1865692138671875,0.341339111328125,-0.8606719970703125
1726995772672886000,4.733885986328125,0.1774444580078125,0.3705596923828125,-0.8671112060546875
1726995772682872000,4.7438720703125,0.1916961669921875,0.384490966796875,-0.896514892578125
1726995772692859100,4.753859130859375,0.2281341552734375,0.3832855224609375,-0.956817626953125
1726995772702845200,4.76384521484375,0.2663726806640625,0.3595123291015625,-1.011138916015625
1726995772712831000,4.7738310546875,0.297760009765625,0.3312835693359375,-1.0337982177734375
1726995772722818000,4.783818115234375,0.3146209716796875,0.302276611328125,-1.0503997802734375
1726995772732804000,4.79380419921875,0.313323974609375,0.283966064453125,-1.0621337890625
1726995772742790100,4.8037900390625,0.29693603515625,0.27691650390625,-1.0652008056640625
1726995772752777200,4.813777099609375,0.282318115234375,0.285614013671875,-1.0292510986328125
1726995772762763000,4.823762939453125,0.25665283203125,0.30682373046875,-0.97125244140625
1726995772772749300,4.833749267578125,0.233367919921875,0.3265228271484375,-0.8950042724609375
1726995772782736100,4.843736083984375,0.2219085693359375,0.3578033447265625,-0.8238067626953125
1726995772792722200,4.85372216796875,0.2131195068359375,0.3820953369140625,-0.7829437255859375
1726995772802709000,4.863708984375,0.2039031982421875,0.4111175537109375,-0.7643890380859375
1726995772812695000,4.873695068359375,0.2120361328125,0.4293670654296875,-0.781097412109375
1726995772822681000,4.88368115234375,0.23388671875,0.4288787841796875,-0.80670166015625
1726995772832668200,4.893668212890625,0.269134521484375,0.410858154296875,-0.82647705078125
1726995772842654200,4.903654296875,0.310638427734375,0.37420654296875,-0.8360443115234375
1726995772852640300,4.91364013671875,0.3287200927734375,0.3387298583984375,-0.8409271240234375
1726995772862627000,4.923626953125,0.3411102294921875,0.29541015625,-0.846466064453125
1726995772872613000,4.933613037109375,0.3415679931640625,0.2525634765625,-0.8458099365234375
1726995772882599200,4.94359912109375,0.3224945068359375,0.2196044921875,-0.857391357421875
1726995772892586200,4.953586181640625,0.30157470703125,0.1844635009765625,-0.8820343017578125
1726995772902572000,4.963572021484375,0.27362060546875,0.168548583984375,-0.921234130859375
1726995772912558000,4.97355810546875,0.2273712158203125,0.18719482421875,-0.9793243408203125
1726995772922545200,4.983545166015625,0.16656494140625,0.2194671630859375,-1.0568084716796875
1726995772932531200,4.99353125,0.1082000732421875,0.2548370361328125,-1.150299072265625
1726995772942517000,5.00351708984375,0.078277587890625,0.2550201416015625,-1.2156524658203125
1726995772952504000,5.013504150390625,0.050628662109375,0.2428131103515625,-1.2342987060546875
1726995772962490000,5.023489990234375,0.0308990478515625,0.2201080322265625,-1.2391510009765625
1726995772972476200,5.03347607421875,0.008453369140625,0.184173583984375,-1.2256622314453125
1726995772982463200,5.043463134765625,0.0009613037109375,0.13995361328125,-1.1920166015625
1726995772992449000,5.053448974609375,-0.0189971923828125,0.0960693359375,-1.1448516845703125
1726995773002435300,5.063435302734375,-0.0236053466796875,0.0605621337890625,-1.0830230712890625
1726995773012422400,5.07342236328125,-0.034088134765625,0.026214599609375,-1.0393218994140625
1726995773022408200,5.083408203125,-0.048553466796875,-0.00225830078125,-1.019134521484375
1726995773032394200,5.093394287109375,-0.0576019287109375,-0.011322021484375,-0.9909820556640625
1726995773042381300,5.10338134765625,-0.0352325439453125,-0.0220489501953125,-0.9603424072265625
1726995773052367000,5.1133671875,-0.0314178466796875,-0.0242919921875,-0.9586639404296875
1726995773062353200,5.123353271484375,-0.033538818359375,-0.0090179443359375,-0.9829559326171875
1726995773072340200,5.13334033203125,-0.0283355712890625,-0.000885009765625,-0.994232177734375
1726995773082326300,5.143326171875,-0.022857666015625,0.01519775390625,-0.987030029296875
1726995773092313300,5.153313232421875,-0.0174560546875,0.0231170654296875,-0.9589385986328125
1726995773102299100,5.163299072265625,-0.0143890380859375,0.014495849609375,-0.95440673828125
1726995773112285200,5.17328515625,0.012054443359375,0.006561279296875,-0.9665069580078125
1726995773122272300,5.183272216796875,0.0296478271484375,0.0028533935546875,-0.9590606689453125
1726995773132258300,5.19325830078125,0.035125732421875,0.0117950439453125,-0.9642791748046875
1726995773142244400,5.203244384765625,0.0306396484375,0.03497314453125,-0.995330810546875
1726995773152231200,5.213231201171875,0.0309906005859375,0.0611114501953125,-1.048095703125
1726995773162217200,5.22321728515625,0.0491180419921875,0.0901947021484375,-1.08282470703125
1726995773172203300,5.233203369140625,0.08245849609375,0.129119873046875,-1.1058197021484375
1726995773182190000,5.243190185546875,0.10107421875,0.1829376220703125,-1.123504638671875
1726995773192176400,5.25317626953125,0.1227874755859375,0.2509918212890625,-1.1121368408203125
1726995773202162200,5.263162109375,0.1502838134765625,0.3079833984375,-1.0847015380859375
1726995773212149200,5.273149169921875,0.1801605224609375,0.35113525390625,-1.048614501953125
1726995773222135300,5.28313525390625,0.1591033935546875,0.3920745849609375,-1.0073089599609375
1726995773232121300,5.293121337890625,0.10888671875,0.4128570556640625,-0.973541259765625
1726995773242108400,5.3031083984375,0.0242156982421875,0.4021759033203125,-0.9365234375
1726995773252094200,5.31309423828125,-0.040130615234375,0.3483123779296875,-0.922149658203125
1726995773262080300,5.323080322265625,-0.062957763671875,0.2792205810546875,-0.9103240966796875
1726995773272067300,5.3330673828125,-0.0465545654296875,0.2034149169921875,-0.8963165283203125
1726995773282053000,5.34305322265625,-0.0291900634765625,0.140655517578125,-0.888824462890625
1726995773292039200,5.3530390625,-0.02362060546875,0.0885772705078125,-0.8711700439453125
1726995773302026200,5.363026123046875,-0.0307464599609375,0.0462799072265625,-0.87335205078125
1726995773312012300,5.37301220703125,-0.056121826171875,0.009002685546875,-0.881500244140625
1726995773321998300,5.382998291015625,-0.083740234375,-0.0337371826171875,-0.893035888671875
1726995773331985200,5.392985107421875,-0.10302734375,-0.0757293701171875,-0.903472900390625
1726995773341971200,5.40297119140625,-0.110748291015625,-0.1125335693359375,-0.914581298828125
1726995773351957200,5.412957275390625,-0.1169891357421875,-0.124786376953125,-0.9255828857421875
1726995773361944300,5.4229443359375,-0.0972747802734375,-0.12921142578125,-0.93804931640625
1726995773371930400,5.432930419921875,-0.1244964599609375,-0.146087646484375,-0.9808502197265625
1726995773381917200,5.442917236328125,-0.14178466796875,-0.158935546875,-1.01898193359375
1726995773391903200,5.4529033203125,-0.085540771484375,-0.178375244140625,-1.010894775390625
1726995773401889300,5.46288916015625,-0.0673980712890625,-0.1854248046875,-1.0125732421875
1726995773411876000,5.4728759765625,-0.0575714111328125,-0.181304931640625,-1.0156707763671875
1726995773421862400,5.4828623046875,-0.050018310546875,-0.173248291015625,-1.0053863525390625
1726995773431848200,5.49284814453125,-0.0536651611328125,-0.1479644775390625,-1.0236053466796875
1726995773441835300,5.502835205078125,-0.073089599609375,-0.1030120849609375,-1.0606689453125
1726995773451821300,5.5128212890625,-0.09051513671875,-0.053192138671875,-1.09515380859375
1726995773461807400,5.522807373046875,-0.0915374755859375,-0.004241943359375,-1.0837249755859375
1726995773471794400,5.53279443359375,-0.0888671875,0.03070068359375,-1.0473175048828125
1726995773481780200,5.5427802734375,-0.0793609619140625,0.05511474609375,-1.0269775390625
1726995773491766300,5.552766357421875,-0.0480804443359375,0.0890045166015625,-1.0209503173828125
1726995773501753300,5.56275341796875,-0.003570556640625,0.108856201171875,-1.0342864990234375
1726995773511739100,5.5727392578125,0.04931640625,0.1162567138671875,-1.0443267822265625
1726995773521725200,5.58272509765625,0.0901947021484375,0.1241607666015625,-1.063568115234375
1726995773531712300,5.592712158203125,0.1197357177734375,0.1275787353515625,-1.0775604248046875
1726995773541698300,5.6026982421875,0.1542205810546875,0.1335296630859375,-1.071746826171875
1726995773551684000,5.61268408203125,0.1824188232421875,0.144287109375,-1.05279541015625
1726995773561671200,5.622671142578125,0.2066802978515625,0.1493682861328125,-1.0455169677734375
1726995773571657200,5.6326572265625,0.2200775146484375,0.1507720947265625,-1.03924560546875
1726995773581643300,5.642643310546875,0.2148590087890625,0.1475982666015625,-1.0274658203125
1726995773591630300,5.65263037109375,0.1945037841796875,0.1385498046875,-1.02313232421875
1726995773601616100,5.6626162109375,0.193450927734375,0.1396484375,-1.01092529296875
1726995773611602400,5.6726025390625,0.2021026611328125,0.137542724609375,-1.0265960693359375
1726995773621589200,5.68258935546875,0.20477294921875,0.1303253173828125,-1.0519256591796875
1726995773631575300,5.6925751953125,0.204803466796875,0.1157379150390625,-1.0819244384765625
1726995773641561300,5.702561279296875,0.195465087890625,0.09967041015625,-1.112823486328125
1726995773651548200,5.712548095703125,0.1838531494140625,0.086090087890625,-1.1234893798828125
1726995773661534200,5.7225341796875,0.1665496826171875,0.0808868408203125,-1.114593505859375
1726995773671520300,5.732520263671875,0.1464385986328125,0.0868072509765625,-1.10162353515625
1726995773681507300,5.74250732421875,0.125732421875,0.08355712890625,-1.1016693115234375
1726995773691493400,5.752493408203125,0.107421875,0.1058197021484375,-1.0751495361328125
1726995773701479200,5.762479248046875,0.0871429443359375,0.13446044921875,-1.0488739013671875
1726995773711466200,5.77246630859375,0.0803070068359375,0.15789794921875,-1.0705718994140625
1726995773721452300,5.782452392578125,0.061859130859375,0.1576995849609375,-1.0991973876953125
1726995773731438000,5.79243798828125,0.021728515625,0.1553802490234375,-1.1075286865234375
1726995773741425200,5.802425048828125,-0.006256103515625,0.164642333984375,-1.0975189208984375
1726995773751411200,5.8124111328125,-0.02154541015625,0.21148681640625,-1.063446044921875
1726995773761398300,5.822398193359375,-0.0637054443359375,0.253173828125,-1.032562255859375
1726995773771384300,5.83238427734375,-0.101959228515625,0.2708587646484375,-1.0057220458984375
1726995773781370000,5.8423701171875,-0.11138916015625,0.2955322265625,-0.99468994140625
1726995773791357200,5.852357177734375,-0.132415771484375,0.32574462890625,-0.977935791015625
1726995773801343200,5.86234326171875,-0.135528564453125,0.32879638671875,-0.9225006103515625
1726995773811329300,5.872329345703125,-0.1875457763671875,0.3359375,-0.8635101318359375
1726995773821316400,5.88231640625,-0.18572998046875,0.3151397705078125,-0.807342529296875
1726995773831302100,5.89230224609375,-0.155609130859375,0.2826080322265625,-0.773651123046875
1726995773841288400,5.902288330078125,-0.0936431884765625,0.2766571044921875,-0.77239990234375
1726995773851275300,5.912275146484375,-0.0245513916015625,0.2839202880859375,-0.7884674072265625
1726995773861261300,5.92226123046875,0.018157958984375,0.2834320068359375,-0.8216094970703125
1726995773871247400,5.932247314453125,0.0479736328125,0.2855224609375,-0.8320465087890625
1726995773881234200,5.942234130859375,0.0945587158203125,0.28955078125,-0.8275299072265625
1726995773891220200,5.95222021484375,0.126861572265625,0.30804443359375,-0.809906005859375
1726995773901206300,5.962206298828125,0.1486663818359375,0.3368377685546875,-0.79962158203125
1726995773911193300,5.972193359375,0.172393798828125,0.37646484375,-0.7809295654296875
1726995773921179400,5.982179443359375,0.2101898193359375,0.4223175048828125,-0.747406005859375
1726995773931165200,5.992165283203125,0.2486572265625,0.4608612060546875,-0.73175048828125
1726995773941152300,6.00215234375,0.2641754150390625,0.4831085205078125,-0.7183837890625
1726995773951138300,6.01213818359375,0.28204345703125,0.513092041015625,-0.6923828125
1726995773961124000,6.0221240234375,0.304229736328125,0.5160980224609375,-0.6722869873046875
1726995773971111400,6.032111328125,0.32568359375,0.5033111572265625,-0.6684417724609375
1726995773981097200,6.04209716796875,0.3529052734375,0.473175048828125,-0.6828460693359375
1726995773991083300,6.052083251953125,0.367828369140625,0.43499755859375,-0.68658447265625
1726995774001070300,6.0620703125,0.3563232421875,0.409637451171875,-0.705230712890625
1726995774011056000,6.07205615234375,0.3329620361328125,0.3928985595703125,-0.7264556884765625
1726995774021042400,6.08204248046875,0.3157196044921875,0.3822479248046875,-0.73858642578125
1726995774031029200,6.092029296875,0.3067626953125,0.3659515380859375,-0.7618255615234375
1726995774041015000,6.10201513671875,0.2763824462890625,0.368896484375,-0.7950439453125
1726995774051001300,6.11200146484375,0.25885009765625,0.3864288330078125,-0.8378753662109375
1726995774060988200,6.12198828125,0.2537384033203125,0.412567138671875,-0.8918609619140625
1726995774070974500,6.131974365234375,0.246734619140625,0.430145263671875,-0.933807373046875
1726995774080960300,6.141960205078125,0.230316162109375,0.44854736328125,-0.955047607421875
1726995774090947000,6.151947021484375,0.2261810302734375,0.4740447998046875,-0.9879608154296875
1726995774100933400,6.161933349609375,0.224090576171875,0.483642578125,-1.0207366943359375
1726995774110920200,6.171920166015625,0.2178802490234375,0.4669952392578125,-1.04248046875
1726995774120906200,6.18190625,0.19036865234375,0.4450531005859375,-1.07427978515625
1726995774130892300,6.191892333984375,0.163726806640625,0.406097412109375,-1.0850982666015625
1726995774140879000,6.201879150390625,0.134307861328125,0.3624420166015625,-1.081878662109375
1726995774150865400,6.211865478515625,0.10211181640625,0.3166961669921875,-1.063232421875
1726995774160851200,6.221851318359375,0.0695648193359375,0.299957275390625,-1.045928955078125
1726995774170838300,6.23183837890625,0.0513763427734375,0.2588348388671875,-1.0345001220703125
1726995774180824300,6.24182421875,0.052001953125,0.206298828125,-1.03729248046875
1726995774190810000,6.25181005859375,0.0721435546875,0.15740966796875,-1.04705810546875
1726995774200797400,6.26179736328125,0.079833984375,0.1171417236328125,-1.0714874267578125
1726995774210783200,6.271783203125,0.0965728759765625,0.091339111328125,-1.09625244140625
1726995774220769300,6.281769287109375,0.1060638427734375,0.0886383056640625,-1.1058807373046875
1726995774230756400,6.29175634765625,0.1191253662109375,0.0839996337890625,-1.09112548828125
1726995774240742100,6.3017421875,0.1219024658203125,0.086639404296875,-1.0692291259765625
1726995774250728400,6.311728515625,0.142730712890625,0.09344482421875,-1.0622711181640625
1726995774260715300,6.32171533203125,0.1185760498046875,0.10009765625,-1.045654296875
1726995774270701000,6.331701171875,0.092987060546875,0.090087890625,-1.015228271484375
1726995774280687400,6.341687255859375,0.09368896484375,0.0778350830078125,-0.9939422607421875
1726995774290674200,6.351674072265625,0.090179443359375,0.0659027099609375,-0.98614501953125
1726995774300660200,6.36166015625,0.0870208740234375,0.0638580322265625,-0.9972381591796875
1726995774310646300,6.371646240234375,0.083526611328125,0.06170654296875,-1.0027618408203125
1726995774320633000,6.381633056640625,0.0812530517578125,0.064453125,-1.001708984375
1726995774330619400,6.391619384765625,0.077056884765625,0.0713348388671875,-1.0128936767578125
1726995774340605200,6.401605224609375,0.0551605224609375,0.0871429443359375,-1.040771484375
1726995774350592300,6.41159228515625,0.0285797119140625,0.1162567138671875,-1.04693603515625
1726995774360578300,6.421578369140625,0.02410888671875,0.1349334716796875,-1.030914306640625
1726995774370564000,6.431564208984375,0.025482177734375,0.145965576171875,-1.0227203369140625
1726995774380551400,6.441551513671875,0.020263671875,0.1679534912109375,-1.01629638671875
1726995774390537200,6.451537109375,0.0286407470703125,0.1828765869140625,-1.005584716796875
1726995774400523300,6.461523193359375,0.0391845703125,0.210113525390625,-0.9971923828125
1726995774410510300,6.47151025390625,0.0547027587890625,0.24822998046875,-1.000030517578125
1726995774420496100,6.48149609375,0.08154296875,0.275299072265625,-0.992401123046875
1726995774430482200,6.491482177734375,0.1215972900390625,0.3023834228515625,-0.9744415283203125
1726995774440469200,6.50146923828125,0.147186279296875,0.3280487060546875,-0.9548492431640625
1726995774450455300,6.511455322265625,0.1536102294921875,0.341583251953125,-0.9390716552734375
1726995774460441300,6.52144140625,0.12872314453125,0.34149169921875,-0.9394683837890625
1726995774470428200,6.53142822265625,0.0926361083984375,0.323638916015625,-0.930999755859375
1726995774480414200,6.541414306640625,0.059814453125,0.292510986328125,-0.9117889404296875
1726995774490400300,6.551400146484375,0.0258331298828125,0.2439727783203125,-0.8917083740234375
1726995774500387000,6.561386962890625,-0.003875732421875,0.197845458984375,-0.898223876953125
1726995774510373400,6.571373291015625,-0.009552001953125,0.154510498046875,-0.9136505126953125
1726995774520359200,6.581359130859375,-0.008453369140625,0.11334228515625,-0.9282989501953125
1726995774530346200,6.59134619140625,-0.0142822265625,0.07525634765625,-0.9361114501953125
1726995774540332300,6.601332275390625,-0.034271240234375,0.0383758544921875,-0.940338134765625
1726995774550318300,6.611318359375,-0.055908203125,0.0132598876953125,-0.95074462890625
1726995774560305400,6.621305419921875,-0.0722198486328125,-0.00128173828125,-0.9639892578125
1726995774570291200,6.631291259765625,-0.0557403564453125,-0.0125579833984375,-0.9778289794921875
1726995774580278300,6.6412783203125,-0.033599853515625,-0.01751708984375,-0.999542236328125
1726995774590264300,6.651264404296875,-0.02392578125,-0.0095977783203125,-1.0066680908203125
1726995774600250400,6.66125048828125,-0.011016845703125,-0.0017242431640625,-1.0398101806640625
1726995774610237400,6.671237548828125,-0.0034332275390625,0.01312255859375,-1.0711822509765625
1726995774620223200,6.68122314453125,-0.0032958984375,0.0259246826171875,-1.0668182373046875
1726995774630209300,6.691209228515625,0.020904541015625,0.047576904296875,-1.048828125
1726995774640196400,6.7011962890625,0.0517578125,0.0726776123046875,-1.03094482421875
1726995774650182100,6.71118212890625,0.0780181884765625,0.0930328369140625,-1.0244903564453125
1726995774660168200,6.721168212890625,0.1010894775390625,0.110076904296875,-1.0228118896484375
1726995774670155300,6.7311552734375,0.11737060546875,0.11334228515625,-1.005828857421875
1726995774680141300,6.741141357421875,0.136688232421875,0.1146697998046875,-0.9944610595703125
1726995774690127000,6.751127197265625,0.147064208984375,0.1143035888671875,-1.0022735595703125
1726995774700114200,6.7611142578125,0.15869140625,0.1156158447265625,-1.015167236328125
1726995774710100200,6.771100341796875,0.1772613525390625,0.1189117431640625,-1.038818359375
1726995774720086300,6.781086181640625,0.1973419189453125,0.122283935546875,-1.04736328125
1726995774730073000,6.791072998046875,0.203948974609375,0.1278839111328125,-1.0398712158203125
1726995774740059100,6.80105908203125,0.196319580078125,0.130523681640625,-1.0362091064453125
1726995774750045200,6.811045166015625,0.1865692138671875,0.12744140625,-1.0425567626953125
1726995774760032300,6.8210322265625,0.173004150390625,0.1261138916015625,-1.060791015625
1726995774770018300,6.831018310546875,0.1601715087890625,0.1237030029296875,-1.0906219482421875
1726995774780004400,6.84100439453125,0.149017333984375,0.1219024658203125,-1.0962371826171875
1726995774789991200,6.8509912109375,0.136932373046875,0.1115570068359375,-1.072723388671875
1726995774799977200,6.860977294921875,0.128326416015625,0.102203369140625,-1.050079345703125
1726995774809963300,6.87096337890625,0.121490478515625,0.0941162109375,-1.03509521484375
1726995774819950300,6.880950439453125,0.13519287109375,0.0925750732421875,-1.0382843017578125
1726995774829936400,6.890936279296875,0.135528564453125,0.0992279052734375,-1.04705810546875
1726995774839922200,6.900922119140625,0.1197509765625,0.1060943603515625,-1.05108642578125
1726995774849909200,6.9109091796875,0.09539794921875,0.1212005615234375,-1.0479583740234375
1726995774859895300,6.920895263671875,0.0799102783203125,0.14569091796875,-1.0386962890625
1726995774869881000,6.930881103515625,0.0756072998046875,0.163787841796875,-1.0442657470703125
1726995774879868200,6.9408681640625,0.053192138671875,0.2029876708984375,-1.098663330078125
1726995774889854200,6.950854248046875,0.04559326171875,0.236114501953125,-1.1275177001953125
1726995774899840300,6.96084033203125,0.03948974609375,0.2678375244140625,-1.1677703857421875
1726995774909827300,6.970827392578125,0.0182037353515625,0.2794342041015625,-1.19525146484375
1726995774919813000,6.980813232421875,0.0068817138671875,0.2782745361328125,-1.1693267822265625
1726995774929799400,6.99079931640625,-0.02178955078125,0.2789459228515625,-1.1313934326171875
1726995774939786200,7.0007861328125,-0.05389404296875,0.2906951904296875,-1.1032257080078125
1726995774949772300,7.010772216796875,-0.0821380615234375,0.287933349609375,-1.0564117431640625
1726995774959758300,7.02075830078125,-0.0993194580078125,0.272796630859375,-0.9563751220703125
1726995774969745200,7.0307451171875,-0.09417724609375,0.2553863525390625,-0.8397674560546875
1726995774979731200,7.040731201171875,-0.0828399658203125,0.241790771484375,-0.7321014404296875
1726995774989717200,7.05071728515625,-0.07122802734375,0.2378082275390625,-0.656341552734375
1726995774999704300,7.060704345703125,-0.044403076171875,0.23382568359375,-0.622314453125
1726995775009690000,7.070690185546875,-0.0212554931640625,0.2258758544921875,-0.60321044921875
1726995775019676200,7.08067626953125,-0.0006561279296875,0.2282562255859375,-0.587615966796875
1726995775029663000,7.0906630859375,0.0572967529296875,0.257049560546875,-0.5749359130859375
1726995775039649000,7.10064892578125,0.1220703125,0.2837677001953125,-0.5793609619140625
1726995775049635000,7.110635009765625,0.1883697509765625,0.3049163818359375,-0.608642578125
1726995775059622100,7.1206220703125,0.227294921875,0.3332977294921875,-0.6510009765625
1726995775069608200,7.130608154296875,0.2653045654296875,0.35345458984375,-0.68084716796875
1726995775079595000,7.140594970703125,0.2741241455078125,0.3707122802734375,-0.6919708251953125
1726995775089581000,7.1505810546875,0.19305419921875,0.365234375,-0.70697021484375
1726995775099567000,7.160567138671875,0.228302001953125,0.3773193359375,-0.697418212890625
1726995775109554200,7.17055419921875,0.3007354736328125,0.398101806640625,-0.7586822509765625
1726995775119540200,7.180540283203125,0.3523712158203125,0.4162445068359375,-0.8063812255859375
1726995775129526000,7.190526123046875,0.396820068359375,0.4563751220703125,-0.8611297607421875
1726995775139513000,7.20051318359375,0.400726318359375,0.487030029296875,-0.902587890625
1726995775149499100,7.2104990234375,0.40802001953125,0.539031982421875,-0.93377685546875
1726995775159485200,7.220485107421875,0.39910888671875,0.58453369140625,-0.9702606201171875
1726995775169472300,7.23047216796875,0.3765411376953125,0.6112518310546875,-0.9819488525390625
1726995775179458000,7.2404580078125,0.351287841796875,0.6188201904296875,-0.9896240234375
1726995775189444000,7.250444091796875,0.3203125,0.599884033203125,-0.969024658203125
1726995775199431200,7.26043115234375,0.288818359375,0.562530517578125,-0.9617767333984375
1726995775209417200,7.270417236328125,0.2593231201171875,0.519195556640625,-0.943389892578125
1726995775219403000,7.280403076171875,0.225433349609375,0.46820068359375,-0.9232025146484375
1726995775229390000,7.29039013671875,0.189422607421875,0.43084716796875,-0.902587890625
1726995775239376100,7.300376220703125,0.1560211181640625,0.40240478515625,-0.8934478759765625
1726995775249362200,7.310362060546875,0.1514434814453125,0.3543243408203125,-0.9019012451171875
1726995775259349000,7.320348876953125,0.1629638671875,0.311126708984375,-0.9338836669921875
1726995775269335000,7.3303349609375,0.173919677734375,0.278717041015625,-0.962005615234375
1726995775279321000,7.340321044921875,0.18182373046875,0.2586517333984375,-0.9811859130859375
1726995775289308200,7.35030810546875,0.174102783203125,0.2479095458984375,-1.0127716064453125
1726995775299294200,7.360294189453125,0.1518096923828125,0.244171142578125,-1.0478515625
1726995775309280300,7.3702802734375,0.11993408203125,0.2531585693359375,-1.0860137939453125
1726995775319267000,7.38026708984375,0.0756072998046875,0.2559814453125,-1.1218109130859375
1726995775329253000,7.390253173828125,0.0473785400390625,0.2508544921875,-1.14837646484375
1726995775339239200,7.4002392578125,0.0197296142578125,0.246337890625,-1.1605682373046875
1726995775349226200,7.410226318359375,0.0059356689453125,0.226531982421875,-1.1349334716796875
1726995775359212300,7.42021240234375,0.0265655517578125,0.19659423828125,-1.096954345703125
1726995775369198000,7.430197998046875,0.018585205078125,0.1788330078125,-1.0799407958984375
1726995775379185200,7.44018505859375,-0.023895263671875,0.15887451171875,-1.048919677734375
1726995775389171200,7.450171142578125,-0.0221405029296875,0.13018798828125,-0.99261474609375
1726995775399157000,7.460156982421875,-0.02008056640625,0.0986175537109375,-0.9239044189453125
1726995775409144000,7.47014404296875,-0.0289306640625,0.076629638671875,-0.90362548828125
1726995775419130000,7.480130126953125,-0.0502471923828125,0.072265625,-0.91961669921875
1726995775429116000,7.490115966796875,-0.0343780517578125,0.0804290771484375,-0.9506378173828125
1726995775439103200,7.500103271484375,-0.0285491943359375,0.10235595703125,-0.992095947265625
1726995775449089000,7.510089111328125,-0.0139617919921875,0.132659912109375,-1.0432586669921875
1726995775459075300,7.520075439453125,0.0012359619140625,0.1514434814453125,-1.0361328125
1726995775469062100,7.530062255859375,0.029083251953125,0.169281005859375,-1.0115814208984375
1726995775479048000,7.5400478515625,0.006591796875,0.1813201904296875,-0.997650146484375
1726995775489034200,7.5500341796875,-0.0129852294921875,0.1925506591796875,-0.9845733642578125
1726995775499021000,7.56002099609375,-0.0197296142578125,0.2117919921875,-0.965850830078125
1726995775509007000,7.570007080078125,-0.0160675048828125,0.2299346923828125,-0.9525299072265625
1726995775518993200,7.5799931640625,-0.0118408203125,0.2571258544921875,-0.9523162841796875
1726995775528980000,7.58997998046875,-0.011810302734375,0.2827606201171875,-0.945098876953125
1726995775538966300,7.59996630859375,0.0016021728515625,0.2895965576171875,-0.9208984375
1726995775548952000,7.6099521484375,0.0132904052734375,0.2816162109375,-0.8879241943359375
1726995775558939100,7.619939208984375,0.032684326171875,0.2441253662109375,-0.8705291748046875
1726995775568925200,7.62992529296875,0.0185089111328125,0.1932525634765625,-0.8912353515625
1726995775578911000,7.639910888671875,0.017822265625,0.1447906494140625,-0.928985595703125
1726995775588898300,7.649898193359375,-0.01422119140625,0.101837158203125,-0.9553070068359375
1726995775598884000,7.659884033203125,-0.045196533203125,0.0616912841796875,-0.9694366455078125
1726995775608870100,7.6698701171875,-0.0696563720703125,0.035919189453125,-0.9911346435546875
1726995775618857200,7.679857177734375,-0.0926513671875,0.011993408203125,-0.997222900390625
1726995775628843000,7.689843017578125,-0.076171875,0.005615234375,-1.0077972412109375
1726995775638829300,7.699829345703125,-0.0838470458984375,0.0117950439453125,-1.0196990966796875
1726995775648816000,7.709816162109375,-0.074951171875,0.013275146484375,-1.0649261474609375
1726995775658802000,7.719802001953125,-0.0649871826171875,0.03173828125,-1.08282470703125
1726995775668788200,7.729788330078125,-0.04052734375,0.0553741455078125,-1.07232666015625
1726995775678775000,7.739775146484375,-0.0225982666015625,0.0880279541015625,-1.0612030029296875
1726995775688761300,7.74976123046875,-0.0134429931640625,0.1173248291015625,-1.0418548583984375
1726995775698748200,7.759748046875,0.0094451904296875,0.144561767578125,-1.0231170654296875
1726995775708734000,7.76973388671875,0.0110321044921875,0.1690673828125,-1.009552001953125
1726995775718720300,7.77972021484375,0.007354736328125,0.1898651123046875,-0.998046875
1726995775728707000,7.78970703125,0.00244140625,0.201171875,-0.991302490234375
1726995775738693000,7.799693115234375,0.0274810791015625,0.2031097412109375,-0.9927215576171875
1726995775748679200,7.80967919921875,0.046661376953125,0.204803466796875,-0.9926910400390625
1726995775758666000,7.819666015625,0.0736083984375,0.2065277099609375,-0.9809722900390625
1726995775768652300,7.82965234375,0.145721435546875,0.21441650390625,-0.97174072265625
1726995775778638000,7.83963818359375,0.19110107421875,0.2236328125,-0.97491455078125
1726995775788625200,7.849625244140625,0.2187042236328125,0.224090576171875,-0.986846923828125
1726995775798611200,7.859611083984375,0.2318572998046875,0.2181396484375,-1.0124664306640625
1726995775808597000,7.869596923828125,0.2295379638671875,0.21038818359375,-1.040924072265625
1726995775818584300,7.879584228515625,0.2100677490234375,0.2014312744140625,-1.0614013671875
1726995775828570000,7.889570068359375,0.18115234375,0.19091796875,-1.053375244140625
1726995775838556200,7.89955615234375,0.161895751953125,0.17694091796875,-1.033050537109375
1726995775848543200,7.909543212890625,0.14593505859375,0.168670654296875,-1.0284576416015625
1726995775858529000,7.919529052734375,0.1315460205078125,0.1597747802734375,-1.0374603271484375
1726995775868515000,7.92951513671875,0.110137939453125,0.1507415771484375,-1.0742950439453125
1726995775878502100,7.939502197265625,0.0644683837890625,0.1266937255859375,-1.118560791015625
1726995775888488000,7.949488037109375,0.0290374755859375,0.10943603515625,-1.13848876953125
1726995775898474200,7.95947412109375,0.0200958251953125,0.1033782958984375,-1.158172607421875
1726995775908461000,7.9694609375,0.0067138671875,0.12469482421875,-1.1847381591796875
1726995775918447000,7.979447021484375,-0.029083251953125,0.1714630126953125,-1.2307586669921875
1726995775928433200,7.98943310546875,-0.073089599609375,0.217529296875,-1.235321044921875
1726995775938420000,7.999419921875,-0.1312408447265625,0.2713623046875,-1.23712158203125
1726995775948406300,8.00940625,-0.1797027587890625,0.301300048828125,-1.23675537109375
1726995775958392000,8.01939208984375,-0.200592041015625,0.3355255126953125,-1.2174224853515625
1726995775968379100,8.029379150390625,-0.219879150390625,0.3639068603515625,-1.1502227783203125
1726995775978365200,8.039365234375,-0.2225494384765625,0.353851318359375,-1.04327392578125
1726995775988351200,8.049351318359374,-0.2224884033203125,0.307525634765625,-0.90411376953125
1726995775998338300,8.05933837890625,-0.2197418212890625,0.2642974853515625,-0.787811279296875
1726995776008324000,8.069323974609375,-0.1983489990234375,0.2459564208984375,-0.7081298828125
1726995776018310400,8.079310302734376,-0.1566619873046875,0.23834228515625,-0.651702880859375
1726995776028297200,8.089297119140625,-0.13885498046875,0.2341461181640625,-0.5831146240234375
1726995776038283300,8.099283203125,-0.1193695068359375,0.2165374755859375,-0.532379150390625
1726995776048269300,8.109269287109376,-0.0985107421875,0.213897705078125,-0.4864654541015625
1726995776058256100,8.119256103515625,-0.064056396484375,0.2411041259765625,-0.4542083740234375
1726995776068242400,8.129242431640625,-0.0223541259765625,0.280426025390625,-0.4648284912109375
1726995776078228200,8.139228271484376,0.067352294921875,0.3027191162109375,-0.52935791015625
1726995776088215300,8.14921533203125,0.16998291015625,0.3021240234375,-0.5388031005859375
1726995776098201300,8.159201416015625,0.2198944091796875,0.364349365234375,-0.5468902587890625
1726995776108187100,8.169187255859375,0.2413482666015625,0.414337158203125,-0.6342926025390625
1726995776118174200,8.17917431640625,0.292938232421875,0.434600830078125,-0.6914825439453125
1726995776128160300,8.18916015625,0.362060546875,0.4483184814453125,-0.7384185791015625
1726995776138146000,8.19914599609375,0.391937255859375,0.4680328369140625,-0.76629638671875
1726995776148133400,8.20913330078125,0.4235687255859375,0.50616455078125,-0.7737884521484375
1726995776158119200,8.219119140625,0.47174072265625,0.5576019287109375,-0.792999267578125
1726995776168105500,8.22910546875,0.47198486328125,0.63616943359375,-0.8734893798828125
1726995776178092300,8.23909228515625,0.4361724853515625,0.722747802734375,-0.988006591796875
1726995776188078000,8.249078125,0.3623504638671875,0.802703857421875,-1.075042724609375
1726995776198064400,8.259064453125,0.2796783447265625,0.86102294921875,-1.091217041015625
1726995776208051200,8.26905126953125,0.1941375732421875,0.83905029296875,-1.052459716796875
1726995776218037200,8.279037353515625,0.13958740234375,0.767547607421875,-1.000244140625
1726995776228023300,8.289023193359375,0.1058197021484375,0.7053985595703125,-0.952972412109375
1726995776238010000,8.299010009765626,0.0735626220703125,0.62744140625,-0.8830413818359375
1726995776247996400,8.308996337890624,0.05255126953125,0.551116943359375,-0.81610107421875
1726995776257982200,8.318982177734375,0.0584869384765625,0.4817657470703125,-0.7917938232421875
1726995776267969300,8.32896923828125,0.082916259765625,0.4150543212890625,-0.8218231201171875
1726995776277955300,8.338955322265624,0.11474609375,0.35272216796875,-0.8875885009765625
1726995776287941000,8.348941162109375,0.1444091796875,0.3128204345703125,-0.9436492919921875
1726995776297928400,8.358928466796876,0.160308837890625,0.29376220703125,-0.9857025146484375
1726995776307914200,8.368914306640624,0.15380859375,0.283782958984375,-1.0190887451171875
1726995776317901000,8.378901123046875,0.130401611328125,0.279632568359375,-1.04107666015625
1726995776327887400,8.388887451171875,0.093719482421875,0.2852020263671875,-1.0756683349609375
1726995776337873200,8.398873046875,0.0531463623046875,0.2953033447265625,-1.1024169921875
1726995776347859200,8.408859130859375,0.0114898681640625,0.29986572265625,-1.1124725341796875
1726995776357846300,8.41884619140625,-0.0271759033203125,0.288238525390625,-1.1024322509765625
1726995776367832000,8.42883203125,-0.06268310546875,0.270263671875,-1.079681396484375
1726995776377819400,8.4388193359375,-0.097503662109375,0.248748779296875,-1.04815673828125
1726995776387805200,8.44880517578125,-0.1325836181640625,0.217864990234375,-1.0334930419921875
1726995776397791200,8.458791259765626,-0.115875244140625,0.172760009765625,-1.0159912109375
1726995776407778300,8.4687783203125,-0.0298004150390625,0.1530914306640625,-1.025177001953125
1726995776417764000,8.47876416015625,-0.092071533203125,0.14617919921875,-1.060394287109375
1726995776427750400,8.48875048828125,-0.182220458984375,0.15093994140625,-1.0738983154296875
1726995776437737200,8.4987373046875,-0.1478729248046875,0.1435394287109375,-1.0345458984375
1726995776447723300,8.50872314453125,-0.150177001953125,0.128265380859375,-0.989044189453125
1726995776457709300,8.518709228515625,-0.161651611328125,0.120330810546875,-0.9679718017578125
1726995776467696000,8.528696044921874,-0.1307373046875,0.1121368408203125,-0.9648284912109375
1726995776477682400,8.538682373046875,-0.1192779541015625,0.1071014404296875,-0.9478912353515625
1726995776487668200,8.548668212890625,-0.1215667724609375,0.1075439453125,-0.9499053955078125
1726995776497655000,8.558655029296874,-0.117523193359375,0.112762451171875,-0.9702301025390625
1726995776507641300,8.568641357421875,-0.1382293701171875,0.12054443359375,-0.99261474609375
1726995776517627100,8.578627197265625,-0.161865234375,0.127716064453125,-1.0180816650390625
1726995776527614500,8.588614501953124,-0.1450958251953125,0.1287078857421875,-1.029937744140625
1726995776537600300,8.598600341796875,-0.1616363525390625,0.110809326171875,-0.9907989501953125
1726995776547586300,8.60858642578125,-0.1790313720703125,0.087127685546875,-0.96826171875
1726995776557573400,8.618573486328126,-0.1546173095703125,0.05517578125,-0.942779541015625
1726995776567559200,8.62855908203125,-0.1219329833984375,0.0368194580078125,-0.912353515625
1726995776577545200,8.638545166015625,-0.0864715576171875,0.030609130859375,-0.910003662109375
1726995776587532300,8.6485322265625,-0.046417236328125,0.0555419921875,-0.934967041015625
1726995776597518000,8.65851806640625,-0.0244293212890625,0.100494384765625,-0.9901275634765625
1726995776607504400,8.66850439453125,-0.0291290283203125,0.1376800537109375,-1.021209716796875
1726995776617491200,8.6784912109375,-0.0419158935546875,0.167205810546875,-1.0404205322265625
1726995776627477200,8.688477294921874,-0.029754638671875,0.1744537353515625,-0.9951629638671875
1726995776637463300,8.69846337890625,0.000518798828125,0.18182373046875,-0.9483489990234375
1726995776647450000,8.7084501953125,0.0212249755859375,0.1918792724609375,-0.944854736328125
1726995776657436400,8.7184365234375,0.01654052734375,0.2064208984375,-0.9638671875
1726995776667422200,8.728422119140625,0.0202484130859375,0.2160797119140625,-0.994171142578125
1726995776677409300,8.7384091796875,0.018402099609375,0.2244720458984375,-1.01104736328125
1726995776687395300,8.748395263671876,0.0189666748046875,0.2199859619140625,-1.008148193359375
1726995776697381400,8.75838134765625,0.03082275390625,0.209381103515625,-0.9940032958984375
1726995776707368200,8.7683681640625,0.04119873046875,0.198974609375,-0.980194091796875
1726995776717354200,8.778354248046876,0.0516510009765625,0.194580078125,-0.982879638671875
1726995776727340300,8.78834033203125,0.0640106201171875,0.1964874267578125,-1.0137481689453125
1726995776737327400,8.798327392578125,0.0771942138671875,0.206085205078125,-1.058746337890625
1726995776747313200,8.808313232421876,0.0959625244140625,0.2147216796875,-1.0663604736328125
1726995776757299200,8.81829931640625,0.1078338623046875,0.2135467529296875,-1.0278472900390625
1726995776767286300,8.828286376953125,0.1200714111328125,0.2001190185546875,-0.9736328125
1726995776777272300,8.838272216796875,0.12322998046875,0.1770172119140625,-0.9520263671875
1726995776787258000,8.848258056640624,0.1160736083984375,0.1608734130859375,-0.969940185546875
1726995776797245200,8.8582451171875,0.113128662109375,0.1564483642578125,-1.01025390625
1726995776807231200,8.868231201171875,0.1148223876953125,0.1439056396484375,-1.0496673583984375
1726995776817217300,8.87821728515625,0.11761474609375,0.137481689453125,-1.0528717041015625
1726995776827204400,8.888204345703125,0.1283721923828125,0.1337127685546875,-1.04736328125
1726995776837190100,8.898190185546875,0.122650146484375,0.1268768310546875,-1.0740509033203125
1726995776847176200,8.90817626953125,0.07952880859375,0.10833740234375,-1.1262359619140625
1726995776857163300,8.918163330078125,0.0366973876953125,0.0930023193359375,-1.1556243896484375
1726995776867149300,8.9281494140625,-0.0194549560546875,0.077667236328125,-1.162994384765625
1726995776877135400,8.93813525390625,-0.0312957763671875,0.0586395263671875,-1.130615234375
1726995776887122200,8.9481220703125,-0.0207061767578125,0.076690673828125,-1.1226806640625
1726995776897108200,8.958108154296875,-0.047637939453125,0.114959716796875,-1.1303253173828125
1726995776907094300,8.96809423828125,-0.095306396484375,0.1478729248046875,-1.146087646484375
1726995776917081300,8.978081298828124,-0.1150970458984375,0.1939849853515625,-1.1520538330078125
1726995776927067400,8.9880673828125,-0.15020751953125,0.23419189453125,-1.149627685546875
1726995776937053200,8.99805322265625,-0.1672210693359375,0.263031005859375,-1.11785888671875
1726995776947040300,9.008040283203124,-0.1874542236328125,0.283355712890625,-1.0644989013671875
1726995776957026300,9.0180263671875,-0.21282958984375,0.3073577880859375,-1.017333984375
1726995776967012000,9.02801220703125,-0.2235260009765625,0.3134765625,-0.9647674560546875
1726995776976999200,9.037999267578124,-0.2337493896484375,0.30718994140625,-0.894012451171875
1726995776986985200,9.047985107421875,-0.2310791015625,0.3017425537109375,-0.8264007568359375
1726995776996971300,9.05797119140625,-0.2087249755859375,0.2830352783203125,-0.7632293701171875
1726995777006958300,9.067958251953126,-0.1908721923828125,0.2655029296875,-0.6963958740234375
1726995777016944400,9.0779443359375,-0.157745361328125,0.2548980712890625,-0.633819580078125
1726995777026930400,9.087930419921875,-0.11907958984375,0.2458038330078125,-0.5896759033203125
1726995777036917500,9.09791748046875,-0.0755615234375,0.242095947265625,-0.5548858642578125
1726995777046903300,9.1079033203125,-0.039154052734375,0.2519073486328125,-0.5475616455078125
1726995777056890400,9.117890380859375,-0.0072021484375,0.2920074462890625,-0.53466796875
1726995777066876400,9.12787646484375,0.0677032470703125,0.3055877685546875,-0.556915283203125
1726995777076862200,9.1378623046875,0.1564788818359375,0.3072967529296875,-0.5882415771484375
1726995777086849500,9.147849609375,0.2159423828125,0.3537750244140625,-0.6485748291015625
1726995777096835300,9.15783544921875,0.2493743896484375,0.399749755859375,-0.7229461669921875
1726995777106821600,9.167821533203124,0.3216552734375,0.427154541015625,-0.6923980712890625
1726995777116808400,9.177808349609375,0.3546295166015625,0.4650421142578125,-0.713714599609375
1726995777126794200,9.187794189453125,0.383575439453125,0.5089111328125,-0.7284393310546875
1726995777136780500,9.197780517578124,0.3992919921875,0.58966064453125,-0.8015289306640625
1726995777146767400,9.207767333984375,0.396209716796875,0.674072265625,-0.8799591064453125
1726995777156753400,9.21775341796875,0.4007415771484375,0.7545013427734375,-0.9481964111328125
1726995777166739500,9.227739501953126,0.3619232177734375,0.824981689453125,-0.9705657958984375
1726995777176726300,9.237726318359375,0.2760467529296875,0.8709564208984375,-0.9575042724609375
1726995777186712600,9.247712646484375,0.215362548828125,0.861053466796875,-0.946868896484375
1726995777196698400,9.257698486328126,0.1788177490234375,0.8000335693359375,-0.9326629638671875
1726995777206685200,9.267685302734375,0.1365203857421875,0.711700439453125,-0.9043121337890625
1726995777216671500,9.27767138671875,0.0952301025390625,0.6431732177734375,-0.8910369873046875
1726995777226657300,9.2876572265625,0.0601348876953125,0.58544921875,-0.8905792236328125
1726995777236644600,9.29764453125,0.033905029296875,0.5276031494140625,-0.903289794921875
1726995777246630400,9.30763037109375,0.0465850830078125,0.4502716064453125,-0.91009521484375
1726995777256616400,9.317616455078126,0.04107666015625,0.3834381103515625,-0.9496002197265625
1726995777266603500,9.327603515625,0.0332183837890625,0.334930419921875,-0.9965057373046875
1726995777276589300,9.33758935546875,0.0228271484375,0.2938995361328125,-1.047027587890625
1726995777286575400,9.347575439453125,0.0122222900390625,0.2663116455078125,-1.0700225830078125
1726995777296562400,9.3575625,-0.0004119873046875,0.2347412109375,-1.0758819580078125
1726995777306548500,9.367548583984375,-0.0138702392578125,0.203155517578125,-1.0894012451171875
1726995777316534500,9.377534423828125,-0.034393310546875,0.176055908203125,-1.08489990234375
1726995777326521300,9.387521240234374,-0.0510711669921875,0.14935302734375,-1.0734710693359375
1726995777336507400,9.39750732421875,-0.061370849609375,0.12554931640625,-1.0660247802734375
1726995777346493400,9.407493408203125,-0.0710601806640625,0.1041259765625,-1.0567169189453125
1726995777356480300,9.417480224609376,-0.059600830078125,0.0871734619140625,-1.05316162109375
1726995777366466600,9.427466552734375,-0.063629150390625,0.08038330078125,-1.04595947265625
1726995777376452400,9.437452392578125,-0.0722198486328125,0.0846099853515625,-1.051727294921875
1726995777386439400,9.447439453125,-0.0920257568359375,0.08502197265625,-1.0312042236328125
1726995777396425500,9.457425537109375,-0.126708984375,0.0898284912109375,-1.0130767822265625
1726995777406411500,9.46741162109375,-0.1375732421875,0.103057861328125,-0.9962921142578125
1726995777416398600,9.477398681640626,-0.161407470703125,0.1223602294921875,-0.9797210693359375
1726995777426384400,9.48738427734375,-0.1750946044921875,0.146575927734375,-0.9768829345703125
1726995777436370400,9.497370361328125,-0.1631622314453125,0.178802490234375,-0.989349365234375
1726995777446357500,9.507357421875,-0.1413421630859375,0.204193115234375,-0.992279052734375
1726995777456343300,9.51734326171875,-0.1056976318359375,0.220184326171875,-0.9737396240234375
1726995777466329300,9.527329345703125,-0.0863037109375,0.22796630859375,-0.9748992919921875
1726995777476316400,9.53731640625,-0.051513671875,0.2471923828125,-0.9708251953125
1726995777486302500,9.547302490234374,-0.063812255859375,0.250579833984375,-0.946044921875
1726995777496288300,9.557288330078125,-0.048187255859375,0.227813720703125,-0.9339447021484375
1726995777506275300,9.567275390625,-0.03167724609375,0.2238006591796875,-0.918212890625
1726995777516261400,9.577261474609376,-0.03607177734375,0.22052001953125,-0.9152374267578125
1726995777526247400,9.587247314453125,-0.042694091796875,0.2181243896484375,-0.9172210693359375
1726995777536234500,9.597234375,-0.03857421875,0.21929931640625,-0.9068145751953125
1726995777546220300,9.60722021484375,-0.0302734375,0.194732666015625,-0.893707275390625
1726995777556206600,9.61720654296875,-0.029541015625,0.1743621826171875,-0.909149169921875
1726995777566193400,9.627193359375,-0.050689697265625,0.1636199951171875,-0.973114013671875
1726995777576179500,9.637179443359376,-0.06414794921875,0.1764373779296875,-1.0055694580078125
1726995777586165500,9.64716552734375,-0.0795440673828125,0.1973876953125,-1.03717041015625
1726995777596152300,9.65715234375,-0.0789337158203125,0.1977386474609375,-1.0391082763671875
1726995777606138400,9.667138427734375,-0.07366943359375,0.189910888671875,-1.011260986328125
1726995777616124400,9.67712451171875,-0.0638580322265625,0.194793701171875,-0.98974609375
1726995777626111500,9.687111572265625,-0.05828857421875,0.19622802734375,-0.9717559814453125
1726995777636097500,9.69709765625,-0.04302978515625,0.2016143798828125,-0.9723968505859375
1726995777646083300,9.707083251953126,-0.0324554443359375,0.2132568359375,-0.9920501708984375
1726995777656070400,9.7170703125,-0.0248565673828125,0.2243194580078125,-1.0157623291015625
1726995777666056400,9.727056396484375,-0.025299072265625,0.232086181640625,-1.0188751220703125
1726995777676042200,9.737042236328126,-0.00872802734375,0.228729248046875,-0.9990234375
1726995777686029300,9.747029296875,0.0108642578125,0.225250244140625,-0.968505859375
1726995777696015400,9.757015380859375,0.030792236328125,0.2203826904296875,-0.9608154296875
1726995777706001400,9.76700146484375,0.0364837646484375,0.2193603515625,-0.9666290283203125
1726995777715988500,9.776988525390625,0.025238037109375,0.2154998779296875,-0.96746826171875
1726995777725974300,9.786974365234375,0.0210113525390625,0.2108917236328125,-0.948516845703125
1726995777735960600,9.796960693359376,0.0162506103515625,0.203460693359375,-0.9235382080078125
1726995777745947400,9.806947509765624,0.0316162109375,0.1968231201171875,-0.9248199462890625
1726995777755933400,9.816933349609375,0.0370330810546875,0.190673828125,-0.9700164794921875
1726995777765920500,9.82692041015625,0.05218505859375,0.1847686767578125,-1.05621337890625
1726995777775906300,9.83690625,0.0623626708984375,0.1866912841796875,-1.153778076171875
1726995777785892600,9.846892578125,0.0763397216796875,0.190338134765625,-1.1940155029296875
1726995777795878400,9.85687841796875,0.0793304443359375,0.191131591796875,-1.1793060302734375
1726995777805865500,9.866865478515624,0.085296630859375,0.1683807373046875,-1.1327362060546875
1726995777815851500,9.8768515625,0.0734100341796875,0.148834228515625,-1.1038665771484375
1726995777825838300,9.88683837890625,0.0482177734375,0.1291046142578125,-1.07635498046875
1726995777835824400,9.896824462890624,0.0217132568359375,0.114959716796875,-1.0572662353515625
1726995777845810400,9.906810546875,0.002532958984375,0.12744140625,-1.09332275390625
1726995777855797500,9.916797607421875,-0.011962890625,0.1457366943359375,-1.1530303955078125
1726995777865783600,9.926783447265626,-0.04315185546875,0.1875457763671875,-1.2017822265625
1726995777875769300,9.936769287109374,-0.0855560302734375,0.228668212890625,-1.2192840576171875
1726995777885756400,9.94675634765625,-0.097808837890625,0.2612152099609375,-1.2281494140625
1726995777895742500,9.956742431640626,-0.158172607421875,0.2862548828125,-1.192962646484375
1726995777905728300,9.966728271484374,-0.21533203125,0.293304443359375,-1.133544921875
1726995777915715600,9.976715576171875,-0.265289306640625,0.3007354736328125,-1.0709075927734375
1726995777925701400,9.986701416015626,-0.2747039794921875,0.3004302978515625,-1.0186309814453125
1726995777935687400,9.9966875,-0.263824462890625,0.286468505859375,-0.9519195556640625
1726995777945674500,10.006674560546875,-0.252838134765625,0.26690673828125,-0.867584228515625
1726995777955660300,10.016660400390625,-0.2222442626953125,0.2428741455078125,-0.7886962890625
1726995777965646600,10.026646484375,-0.1996002197265625,0.2230224609375,-0.6910552978515625
1726995777975633400,10.03663330078125,-0.17144775390625,0.2279510498046875,-0.6185455322265625
1726995777985619200,10.046619140625,-0.152862548828125,0.2436981201171875,-0.5833892822265625
1726995777995605500,10.05660546875,-0.100982666015625,0.2510528564453125,-0.5596160888671875
1726995778005592300,10.06659228515625,-0.0721282958984375,0.27093505859375,-0.5555267333984375
1726995778015578600,10.07657861328125,-0.020660400390625,0.3119049072265625,-0.5456085205078125
1726995778025564400,10.086564453125,0.0404815673828125,0.346588134765625,-0.5747222900390625
1726995778035551200,10.09655126953125,0.2198333740234375,0.3271026611328125,-0.595672607421875
1726995778045537500,10.10653759765625,0.2960662841796875,0.3670806884765625,-0.58941650390625
1726995778055523300,10.1165234375,0.3019561767578125,0.422027587890625,-0.630767822265625
1726995778065510400,10.126510498046875,0.321533203125,0.4380340576171875,-0.67474365234375
1726995778075496400,10.136496337890625,0.3226318359375,0.4378204345703125,-0.679840087890625
1726995778085482200,10.146482177734375,0.3249053955078125,0.4673004150390625,-0.68670654296875
1726995778095469600,10.156469482421874,0.338470458984375,0.4977874755859375,-0.6922607421875
1726995778105455400,10.166455322265625,0.3520050048828125,0.5521087646484375,-0.71405029296875
1726995778115441400,10.17644140625,0.3310089111328125,0.63543701171875,-0.81890869140625
1726995778125428500,10.186428466796874,0.2796783447265625,0.7501068115234375,-0.9329986572265625
1726995778135414300,10.196414306640625,0.2129669189453125,0.8303985595703125,-1.03070068359375
1726995778145400600,10.206400634765625,0.149566650390625,0.8579559326171875,-1.0969696044921875
1726995778155387400,10.216387451171874,0.0982208251953125,0.829986572265625,-1.12744140625
1726995778165373400,10.22637353515625,0.0805511474609375,0.718719482421875,-1.0914459228515625
1726995778175359500,10.236359375,0.050506591796875,0.6127166748046875,-1.033538818359375
1726995778185346300,10.24634619140625,0.050323486328125,0.5136260986328125,-0.97991943359375
1726995778195332600,10.25633251953125,0.0568084716796875,0.4272613525390625,-0.9418792724609375
1726995778205318400,10.266318359375,0.0676727294921875,0.3547821044921875,-0.9357452392578125
1726995778215305200,10.27630517578125,0.080657958984375,0.295562744140625,-0.9546661376953125
1726995778225291500,10.28629150390625,0.0848846435546875,0.26678466796875,-0.97100830078125
1726995778235277300,10.29627734375,0.063934326171875,0.2613677978515625,-0.9794769287109375
1726995778245264600,10.3062646484375,0.0401458740234375,0.2539520263671875,-0.983489990234375
1726995778255250400,10.31625048828125,0.011993408203125,0.237274169921875,-0.9957275390625
1726995778265236500,10.326236572265625,-0.011505126953125,0.2220306396484375,-1.00225830078125
1726995778275223600,10.3362236328125,-0.035430908203125,0.217529296875,-1.0262603759765625
1726995778285209300,10.346209228515624,-0.0585174560546875,0.209075927734375,-1.0580902099609375
1726995778295195400,10.3561953125,-0.08349609375,0.196685791015625,-1.093231201171875
1726995778305182500,10.366182373046875,-0.0944366455078125,0.1737823486328125,-1.1023712158203125
1726995778315168300,10.376168212890626,-0.1058502197265625,0.1440277099609375,-1.0641326904296875
1726995778325154300,10.386154296875,-0.11688232421875,0.111572265625,-1.0220489501953125
1726995778335141400,10.396141357421875,-0.1176300048828125,0.10479736328125,-1.031280517578125
1726995778345127400,10.40612744140625,-0.1259307861328125,0.1109619140625,-1.056427001953125
1726995778355113500,10.416113525390625,-0.1240386962890625,0.123260498046875,-1.093902587890625
1726995778365100300,10.426100341796875,-0.15618896484375,0.1271514892578125,-1.10772705078125
1726995778375086300,10.43608642578125,-0.1724395751953125,0.1189117431640625,-1.0415191650390625
1726995778385072400,10.446072265625,-0.17828369140625,0.1425933837890625,-0.99267578125
1726995778395059500,10.4560595703125,-0.1787872314453125,0.1732330322265625,-0.9905242919921875
1726995778405045500,10.46604541015625,-0.1725006103515625,0.20599365234375,-1.006683349609375
1726995778415031600,10.476031494140624,-0.16534423828125,0.22332763671875,-0.9824676513671875
1726995778425018400,10.486018310546875,-0.135894775390625,0.2222747802734375,-0.918701171875
1726995778435004400,10.49600439453125,-0.1111907958984375,0.223358154296875,-0.8638763427734375
1726995778444990500,10.505990478515624,-0.07965087890625,0.227264404296875,-0.8535003662109375
1726995778454977500,10.5159775390625,-0.0782470703125,0.24310302734375,-0.89111328125
1726995778464963300,10.52596337890625,-0.06927490234375,0.2537841796875,-0.937591552734375
1726995778474949400,10.535949462890626,-0.046112060546875,0.2467041015625,-0.9482269287109375
1726995778484936400,10.5459365234375,-0.0301055908203125,0.225311279296875,-0.9161529541015625
1726995778494922500,10.555922607421875,-0.0279541015625,0.1861572265625,-0.8645477294921875
1726995778504909600,10.56590966796875,-0.03375244140625,0.1433563232421875,-0.8615570068359375
1726995778514895400,10.575895263671875,-0.0445098876953125,0.1298065185546875,-0.9285736083984375
1726995778524881400,10.58588134765625,-0.0714874267578125,0.137664794921875,-1.0077362060546875
1726995778534868500,10.595868408203126,-0.103912353515625,0.147674560546875,-1.0395965576171875
1726995778544854500,10.6058544921875,-0.1039886474609375,0.1556549072265625,-1.02532958984375
1726995778554840300,10.61584033203125,-0.097442626953125,0.1436309814453125,-0.9921417236328125
1726995778564827400,10.625827392578126,-0.10443115234375,0.133026123046875,-0.9573211669921875
1726995778574813400,10.6358134765625,-0.092041015625,0.143218994140625,-0.96649169921875
1726995778584799500,10.645799560546875,-0.0914306640625,0.1669921875,-1.0176239013671875
1726995778594786300,10.655786376953126,-0.101654052734375,0.200164794921875,-1.059417724609375
1726995778604772400,10.6657724609375,-0.1021728515625,0.2382354736328125,-1.0572509765625
1726995778614758400,10.67575830078125,-0.084503173828125,0.2491912841796875,-1.0042266845703125
1726995778624745500,10.685745361328125,-0.0660552978515625,0.24249267578125,-0.97869873046875
1726995778634731500,10.6957314453125,-0.0455780029296875,0.2353057861328125,-0.9891510009765625
1726995778644717600,10.705717529296875,-0.04376220703125,0.2420806884765625,-0.9968719482421875
1726995778654704400,10.715704345703125,-0.0889129638671875,0.23651123046875,-0.978790283203125
1726995778664690400,10.7256904296875,-0.1024169921875,0.21343994140625,-0.9355926513671875
1726995778674676500,10.735676513671875,-0.0677490234375,0.19781494140625,-0.8998870849609375
1726995778684663600,10.74566357421875,-0.0357513427734375,0.1902313232421875,-0.8991851806640625
1726995778694649300,10.7556494140625,-0.0021820068359375,0.19793701171875,-0.947784423828125
1726995778704635400,10.765635498046874,0.0171966552734375,0.2100677490234375,-1.009124755859375
1726995778714622500,10.77562255859375,0.033447265625,0.21600341796875,-1.0625762939453125
1726995778724608500,10.7856083984375,0.0488739013671875,0.205352783203125,-1.095550537109375
1726995778734594300,10.79559423828125,0.065643310546875,0.178985595703125,-1.1190032958984375
1726995778744581400,10.805581298828125,0.0797119140625,0.1529083251953125,-1.1338958740234375
1726995778754567400,10.8155673828125,0.0762176513671875,0.144805908203125,-1.140869140625
1726995778764553200,10.82555322265625,0.0576171875,0.149444580078125,-1.1522979736328125
1726995778774540500,10.83554052734375,0.02801513671875,0.166534423828125,-1.163482666015625
1726995778784526300,10.8455263671875,-0.004608154296875,0.174957275390625,-1.15118408203125
1726995778794512400,10.855512451171874,-0.0270538330078125,0.1819610595703125,-1.157867431640625
1726995778804499500,10.86549951171875,-0.0440826416015625,0.18701171875,-1.1717681884765625
1726995778814485200,10.8754853515625,-0.0757293701171875,0.2007293701171875,-1.174102783203125
1726995778824471600,10.885471435546876,-0.119537353515625,0.2122344970703125,-1.1622467041015625
1726995778834458400,10.895458251953125,-0.1375885009765625,0.2293853759765625,-1.1524505615234375
1726995778844444400,10.9054443359375,-0.1869049072265625,0.2336273193359375,-1.1192474365234375
1726995778854430500,10.915430419921876,-0.2333221435546875,0.2535247802734375,-1.0676116943359375
1726995778864417300,10.925417236328125,-0.252288818359375,0.269744873046875,-1.04010009765625
1726995778874403600,10.935403564453125,-0.2703704833984375,0.298492431640625,-1.0272369384765625
1726995778884389400,10.945389404296876,-0.273223876953125,0.3217010498046875,-1.0319671630859375
1726995778894376400,10.95537646484375,-0.2829437255859375,0.3314208984375,-0.9871673583984375
1726995778904362500,10.965362548828125,-0.276611328125,0.3204193115234375,-0.8938751220703125
1726995778914348300,10.975348388671875,-0.2718353271484375,0.272918701171875,-0.7487335205078125
1726995778924335400,10.98533544921875,-0.2472686767578125,0.2262725830078125,-0.6318511962890625
1726995778934321400,10.9953212890625,-0.183929443359375,0.202728271484375,-0.567626953125
1726995778944307200,11.00530712890625,-0.08905029296875,0.2098388671875,-0.550628662109375
1726995778954294500,11.01529443359375,-0.010406494140625,0.232147216796875,-0.5385284423828125
1726995778964280300,11.0252802734375,0.0658111572265625,0.2905120849609375,-0.5176239013671875
1726995778974266600,11.0352666015625,0.1457672119140625,0.3190765380859375,-0.572967529296875
1726995778984253400,11.04525341796875,0.2282257080078125,0.352996826171875,-0.5982513427734375
1726995778994239200,11.0552392578125,0.2738494873046875,0.4100494384765625,-0.6087646484375
1726995779004225500,11.0652255859375,0.300018310546875,0.4551849365234375,-0.6610870361328125
1726995779014212400,11.07521240234375,0.28912353515625,0.4889984130859375,-0.6674652099609375
1726995779024198400,11.085198486328125,0.263671875,0.475799560546875,-0.652099609375
1726995779034184200,11.09518408203125,0.244171142578125,0.4659576416015625,-0.6416168212890625
1726995779044171300,11.105171142578126,0.25140380859375,0.4942779541015625,-0.660552978515625
1726995779054157300,11.1151572265625,0.2671356201171875,0.5404205322265625,-0.7262420654296875
1726995779064143000,11.12514306640625,0.2630157470703125,0.6091156005859375,-0.83746337890625
1726995779074130200,11.135130126953126,0.2488861083984375,0.6875152587890625,-0.9204254150390625
1726995779084116200,11.1451162109375,0.208587646484375,0.7586669921875,-0.9486236572265625
1726995779094102300,11.155102294921875,0.1617889404296875,0.7610015869140625,-0.9384002685546875
1726995779104089300,11.16508935546875,0.1346435546875,0.7072601318359375,-0.9275360107421875
1726995779114075100,11.1750751953125,0.0382080078125,0.6699371337890625,-0.9633026123046875
1726995779124061400,11.1850615234375,-0.0319366455078125,0.599151611328125,-1.0049285888671875
1726995779134048300,11.19504833984375,-0.0385894775390625,0.52691650390625,-1.00030517578125
1726995779144034000,11.205033935546876,-0.02545166015625,0.48394775390625,-0.9744873046875
1726995779154021400,11.215021484375,-0.0233612060546875,0.4502410888671875,-0.974151611328125
1726995779164007200,11.225007080078125,-0.0088043212890625,0.3979034423828125,-0.9882049560546875
1726995779173993500,11.234993408203126,0.0050048828125,0.3331756591796875,-1.0010833740234375
1726995779183980300,11.244980224609375,0.0069732666015625,0.2793426513671875,-1.0195159912109375
1726995779193966000,11.254966064453125,-0.001434326171875,0.2361297607421875,-1.0471649169921875
1726995779203952400,11.264952392578126,-0.0164337158203125,0.1999664306640625,-1.0692596435546875
1726995779213939200,11.274939208984375,-0.0218658447265625,0.1762542724609375,-1.107666015625
1726995779223925200,11.28492529296875,-0.0211029052734375,0.16094970703125,-1.1113128662109375
1726995779233911300,11.294911376953126,-0.0307159423828125,0.1474151611328125,-1.1090240478515625
1726995779243898000,11.304898193359374,-0.0478515625,0.1440887451171875,-1.11456298828125
1726995779253884400,11.314884521484375,-0.0725250244140625,0.1312408447265625,-1.0986328125
1726995779263870200,11.3248701171875,-0.0971221923828125,0.108184814453125,-1.0787506103515625
1726995779273857300,11.334857177734374,-0.1435089111328125,0.094635009765625,-1.0875091552734375
1726995779283843300,11.34484326171875,-0.1755523681640625,0.083251953125,-1.089569091796875
1726995779293829000,11.3548291015625,-0.181365966796875,0.0708770751953125,-1.07550048828125
1726995779303816200,11.364816162109374,-0.1672210693359375,0.0606689453125,-1.0469512939453125
1726995779313802200,11.37480224609375,-0.154998779296875,0.054931640625,-1.016387939453125
1726995779323788300,11.384788330078125,-0.174957275390625,0.0580902099609375,-0.9929656982421875
1726995779333775400,11.394775390625,-0.2191619873046875,0.0948638916015625,-0.9961700439453125
1726995779343761200,11.40476123046875,-0.2248992919921875,0.1420745849609375,-0.9969482421875
1726995779353747500,11.41474755859375,-0.2223358154296875,0.1795501708984375,-1.000030517578125
1726995779363734300,11.424734375,-0.1963958740234375,0.21307373046875,-0.98126220703125
1726995779373720000,11.434719970703124,-0.1559295654296875,0.2320404052734375,-0.9296112060546875
1726995779383706400,11.444706298828125,-0.1130218505859375,0.2397308349609375,-0.890411376953125
1726995779393693200,11.454693115234376,-0.0838470458984375,0.2461700439453125,-0.874664306640625
1726995779403679500,11.464679443359374,-0.0849761962890625,0.251678466796875,-0.8814544677734375
1726995779413665300,11.474665283203125,-0.073486328125,0.250030517578125,-0.906097412109375
1726995779423652000,11.484652099609375,-0.0666046142578125,0.2489471435546875,-0.9320526123046875
1726995779433638400,11.494638427734374,-0.0645904541015625,0.23248291015625,-0.9210357666015625
1726995779443624200,11.504624267578125,-0.0768890380859375,0.2056427001953125,-0.9250640869140625
1726995779453611000,11.514611083984375,-0.1027679443359375,0.1793212890625,-0.9338226318359375
1726995779463597300,11.524597412109374,-0.1389617919921875,0.1566009521484375,-0.943817138671875
1726995779473583000,11.5345830078125,-0.1565399169921875,0.1265716552734375,-0.9444732666015625
1726995779483570400,11.5445703125,-0.1535186767578125,0.106658935546875,-0.9588470458984375
1726995779493556200,11.55455615234375,-0.1510467529296875,0.1118621826171875,-0.98797607421875
1726995779503542300,11.564542236328125,-0.1784515380859375,0.134552001953125,-1.025909423828125
1726995779513529300,11.574529296875,-0.189239501953125,0.1631317138671875,-1.042510986328125
1726995779523515100,11.58451513671875,-0.146209716796875,0.1669158935546875,-1.0057373046875
1726995779533501200,11.594501220703124,-0.1025848388671875,0.17108154296875,-0.9518585205078125
1726995779543488300,11.60448828125,-0.06878662109375,0.177703857421875,-0.910736083984375
1726995779553474300,11.614474365234376,-0.0676727294921875,0.2108001708984375,-0.949554443359375
1726995779563460400,11.62446044921875,-0.07293701171875,0.256072998046875,-1.0533447265625
1726995779573447200,11.634447265625,-0.099853515625,0.293975830078125,-1.11767578125
1726995779583433200,11.64443310546875,-0.104522705078125,0.3011322021484375,-1.0986175537109375
1726995779593419300,11.654419189453124,-0.0941162109375,0.2645721435546875,-0.9554901123046875
1726995779603406000,11.664406005859375,-0.0832366943359375,0.2090911865234375,-0.8346099853515625
1726995779613392400,11.674392333984375,-0.0491790771484375,0.1807861328125,-0.8029632568359375
1726995779623378200,11.684378173828126,-0.0413055419921875,0.1863250732421875,-0.88238525390625
1726995779633365200,11.694365234375,-0.046295166015625,0.207305908203125,-0.98016357421875
1726995779643351300,11.704351318359375,-0.0320281982421875,0.236724853515625,-1.0414581298828125
1726995779653337300,11.71433740234375,-0.013885498046875,0.233001708984375,-1.050201416015625
1726995779663324400,11.724324462890625,0.014068603515625,0.20819091796875,-1.027252197265625
1726995779673310200,11.734310302734375,0.039825439453125,0.186676025390625,-1.034210205078125
1726995779683296300,11.744296142578126,0.0562286376953125,0.1757354736328125,-1.0995025634765625
1726995779693283300,11.754283447265625,0.07269287109375,0.16632080078125,-1.1805419921875
1726995779703269000,11.76426904296875,0.080322265625,0.1572113037109375,-1.23614501953125
1726995779713255200,11.774255126953125,0.069915771484375,0.14532470703125,-1.256744384765625
1726995779723242200,11.7842421875,0.0441741943359375,0.1393280029296875,-1.2293853759765625
1726995779733228300,11.794228271484375,-0.007598876953125,0.1461181640625,-1.1932220458984375
1726995779743215400,11.80421533203125,-0.068817138671875,0.1644287109375,-1.1817779541015625
1726995779753201200,11.814201171875,-0.11871337890625,0.1862945556640625,-1.183502197265625
1726995779763187200,11.824187255859375,-0.16864013671875,0.20428466796875,-1.16595458984375
1726995779773174300,11.83417431640625,-0.2217559814453125,0.224822998046875,-1.1324462890625
1726995779783160300,11.844160400390624,-0.23675537109375,0.239105224609375,-1.100738525390625
1726995779793146000,11.85414599609375,-0.3034820556640625,0.259429931640625,-1.0810089111328125
1726995779803133200,11.86413330078125,-0.32012939453125,0.2830047607421875,-1.08489990234375
1726995779813119200,11.874119140625,-0.3302459716796875,0.3176727294921875,-1.0726470947265625
1726995779823105300,11.884105224609375,-0.3294525146484375,0.34393310546875,-1.0168609619140625
1726995779833092000,11.894092041015625,-0.297271728515625,0.330230712890625,-0.920440673828125
1726995779843078100,11.904078125,-0.262969970703125,0.2892608642578125,-0.798187255859375
1726995779853064200,11.914064208984374,-0.2217559814453125,0.237030029296875,-0.6888275146484375
1726995779863051300,11.92405126953125,-0.1730499267578125,0.2225799560546875,-0.6139068603515625
1726995779873037300,11.934037353515626,-0.148193359375,0.2175140380859375,-0.5755157470703125
1726995779883023400,11.9440234375,-0.12109375,0.2111968994140625,-0.5401153564453125
1726995779893010200,11.95401025390625,-0.1400604248046875,0.220672607421875,-0.494049072265625
1726995779902996200,11.963996337890626,-0.095794677734375,0.239349365234375,-0.4879302978515625
1726995779912982300,11.973982177734374,0.0525970458984375,0.263336181640625,-0.5269622802734375
1726995779922969300,11.98396923828125,0.1566009521484375,0.3307342529296875,-0.5794525146484375
1726995779932955400,11.993955322265625,0.2101593017578125,0.3580322265625,-0.63458251953125
1726995779942941200,12.003941162109374,0.2548980712890625,0.4525299072265625,-0.6711883544921875
1726995779952928300,12.01392822265625,0.2204742431640625,0.485504150390625,-0.6994781494140625
1726995779962914300,12.023914306640625,0.213104248046875,0.4803314208984375,-0.7448577880859375
1726995779972900000,12.033900146484376,0.2049560546875,0.48052978515625,-0.721160888671875
1726995779982887200,12.04388720703125,0.2139739990234375,0.4814453125,-0.7278900146484375
1726995779992873200,12.053873291015625,0.2540740966796875,0.5323333740234375,-0.76873779296875
1726995780002859300,12.063859375,0.2586669921875,0.616241455078125,-0.8284149169921875
1726995780012846300,12.073846435546875,0.250335693359375,0.6918487548828125,-0.892822265625
1726995780022832000,12.08383203125,0.2371826171875,0.7680816650390625,-0.9226226806640625
1726995780032818200,12.093818115234376,0.19378662109375,0.8414306640625,-0.9346160888671875
1726995780042805200,12.10380517578125,0.133056640625,0.8488311767578125,-0.91656494140625
1726995780052791000,12.113791015625,0.089996337890625,0.7917022705078125,-0.8768157958984375
1726995780062777000,12.123777099609375,0.0572052001953125,0.72100830078125,-0.8623504638671875
1726995780072764200,12.13376416015625,0.018463134765625,0.6578216552734375,-0.9156036376953125
1726995780082750200,12.143750244140625,-0.05767822265625,0.640594482421875,-1.0001220703125
1726995780092736300,12.153736328125,-0.0590362548828125,0.5819854736328125,-1.032379150390625
1726995780102723000,12.16372314453125,0.0079193115234375,0.4799957275390625,-1.0016632080078125
1726995780112709000,12.173709228515625,0.020751953125,0.40411376953125,-1.0011138916015625
1726995780122695200,12.183695068359375,0.0215301513671875,0.3154754638671875,-1.01849365234375
1726995780132682000,12.193681884765626,0.0045318603515625,0.249664306640625,-1.040130615234375
1726995780142668000,12.20366796875,-0.0030975341796875,0.19683837890625,-1.0481719970703125
1726995780152654000,12.213654052734375,0.0079345703125,0.151885986328125,-1.0474395751953125
1726995780162641200,12.22364111328125,0.0092620849609375,0.1288299560546875,-1.04473876953125
1726995780172627200,12.233627197265625,-0.0190277099609375,0.1361846923828125,-1.0572509765625
1726995780182613200,12.24361328125,-0.0551910400390625,0.1455841064453125,-1.086517333984375
1726995780192600000,12.25360009765625,-0.0960693359375,0.1566314697265625,-1.1176910400390625
1726995780202586000,12.263586181640624,-0.138671875,0.165740966796875,-1.135986328125
1726995780212572200,12.273572265625,-0.179718017578125,0.151458740234375,-1.1129150390625
1726995780222559200,12.283559326171876,-0.2034759521484375,0.135589599609375,-1.0689239501953125
1726995780232545000,12.293544921875,-0.2260589599609375,0.11712646484375,-1.0262298583984375
1726995780242532000,12.303531982421875,-0.2137451171875,0.0973358154296875,-1.0042266845703125
1726995780252518100,12.31351806640625,-0.2068328857421875,0.092254638671875,-0.99395751953125
1726995780262504200,12.323504150390624,-0.2103271484375,0.1006317138671875,-0.9864959716796875
1726995780272491300,12.3334912109375,-0.2147369384765625,0.1252288818359375,-0.974945068359375
1726995780282477000,12.34347705078125,-0.22442626953125,0.16015625,-0.9788818359375
1726995780292463000,12.353463134765626,-0.2400360107421875,0.18572998046875,-0.9675750732421875
1726995780302450200,12.3634501953125,-0.248260498046875,0.210174560546875,-0.944000244140625
1726995780312436200,12.373436279296875,-0.24981689453125,0.226898193359375,-0.9402618408203125
1726995780322422000,12.383422119140626,-0.2292327880859375,0.234588623046875,-0.925048828125
1726995780332409000,12.3934091796875,-0.174835205078125,0.2345428466796875,-0.91278076171875
1726995780342395100,12.40339501953125,-0.13275146484375,0.2321624755859375,-0.8936004638671875
1726995780352381200,12.413381103515626,-0.11138916015625,0.234588623046875,-0.8902435302734375
1726995780362368000,12.423367919921875,-0.0917205810546875,0.242706298828125,-0.88134765625
1726995780372354000,12.43335400390625,-0.09942626953125,0.2530975341796875,-0.858795166015625
1726995780382340000,12.443340087890626,-0.0952301025390625,0.2565765380859375,-0.8349761962890625
1726995780392327200,12.4533271484375,-0.0871429443359375,0.245086669921875,-0.8437652587890625
1726995780402313200,12.463313232421875,-0.0482330322265625,0.224395751953125,-0.90875244140625
1726995780412299300,12.47329931640625,-0.0315399169921875,0.2771148681640625,-1.0093841552734375
1726995780422286000,12.4832861328125,-0.0623931884765625,0.292694091796875,-1.064178466796875
1726995780432272100,12.493272216796875,-0.114166259765625,0.2892913818359375,-1.093353271484375
1726995780442258200,12.503258056640625,-0.204742431640625,0.269287109375,-1.074615478515625
1726995780452245200,12.513245361328124,-0.2196807861328125,0.2209930419921875,-1.011962890625
1726995780462231000,12.52323095703125,-0.1953582763671875,0.1893768310546875,-0.9525146484375
1726995780472217000,12.533217041015625,-0.1642608642578125,0.168487548828125,-0.9226226806640625
1726995780482204200,12.5432041015625,-0.1408843994140625,0.1578369140625,-0.9278411865234375
1726995780492190200,12.553190185546875,-0.144775390625,0.1494293212890625,-0.94342041015625
1726995780502176000,12.563176025390625,-0.1471710205078125,0.1373443603515625,-0.9384765625
1726995780512163000,12.5731630859375,-0.1503448486328125,0.133056640625,-0.947235107421875
1726995780522149000,12.583149169921874,-0.149658203125,0.1434326171875,-0.962738037109375
1726995780532135000,12.593135009765625,-0.1423797607421875,0.158935546875,-0.975677490234375
1726995780542122200,12.603122314453126,-0.1302947998046875,0.1708831787109375,-0.9937744140625
1726995780552108000,12.61310791015625,-0.1165771484375,0.181396484375,-1.0172882080078125
1726995780562094300,12.62309423828125,-0.1035919189453125,0.1841583251953125,-1.007904052734375
1726995780572081200,12.6330810546875,-0.09423828125,0.1738433837890625,-1.0012664794921875
1726995780582067000,12.64306689453125,-0.08380126953125,0.1622314453125,-0.9889678955078125
1726995780592053200,12.65305322265625,-0.071044921875,0.1524505615234375,-0.994873046875
1726995780602040000,12.6630400390625,-0.054473876953125,0.1459197998046875,-1.02081298828125
1726995780612026000,12.673026123046874,-0.0337677001953125,0.14666748046875,-1.0711822509765625
1726995780622012200,12.68301220703125,-0.01519775390625,0.1536712646484375,-1.120147705078125
1726995780631999000,12.6929990234375,-0.003631591796875,0.161376953125,-1.15203857421875
1726995780641985300,12.7029853515625,0.0093994140625,0.165008544921875,-1.1688690185546875
1726995780651971000,12.71297119140625,0.0106658935546875,0.163299560546875,-1.1851348876953125
1726995780661958100,12.722958251953125,-0.0021820068359375,0.16845703125,-1.194427490234375
1726995780671944200,12.732944091796876,-0.0314788818359375,0.1793365478515625,-1.1941986083984375
1726995780681930000,12.742929931640624,-0.0718841552734375,0.1990509033203125,-1.1880340576171875
1726995780691917000,12.7529169921875,-0.120330810546875,0.2212371826171875,-1.17388916015625
1726995780701903000,12.762903076171876,-0.1839141845703125,0.2565155029296875,-1.1757049560546875
1726995780711889200,12.77288916015625,-0.2590179443359375,0.2919921875,-1.1614990234375
1726995780721876200,12.782876220703125,-0.282318115234375,0.3029937744140625,-1.1194915771484375
1726995780731862000,12.792862060546875,-0.3356475830078125,0.3291015625,-1.0894775390625
1726995780741848300,12.802848388671874,-0.349151611328125,0.3355712890625,-1.0318450927734375
1726995780751835100,12.812835205078125,-0.3409576416015625,0.3085174560546875,-0.958465576171875
1726995780761821000,12.822821044921875,-0.305328369140625,0.2773590087890625,-0.890350341796875
1726995780771807200,12.83280712890625,-0.2778472900390625,0.2572784423828125,-0.8230743408203125
1726995780781794000,12.8427939453125,-0.2564544677734375,0.2443695068359375,-0.7384185791015625
1726995780791780400,12.8527802734375,-0.2494964599609375,0.2277984619140625,-0.6557159423828125
1726995780801766100,12.86276611328125,-0.242828369140625,0.2057647705078125,-0.5900726318359375
1726995780811753000,12.8727529296875,-0.2050628662109375,0.207794189453125,-0.531524658203125
1726995780821739300,12.8827392578125,-0.1716766357421875,0.242919921875,-0.4953460693359375
1726995780831726000,12.89272607421875,-0.092071533203125,0.3036346435546875,-0.48297119140625
