time,seconds_elapsed,z,y,x
1726995767956828400,0.017828369140625,-0.42473703622817993,-0.9533802270889282,0.7449033260345459
1726995767966815500,0.0278154296875,-0.4081740379333496,-1.158441424369812,0.7469952702522278
1726995767976801300,0.03780126953125,-0.26206347346305847,-1.3582721948623657,0.7851873636245728
1726995767986787300,0.047787353515625,0.04613029584288597,-1.4598486423492432,0.9144185781478882
1726995767996774400,0.0577744140625,0.4093838036060333,-1.4083819389343262,1.1320929527282715
1726995768006760200,0.06776025390625,0.6585853695869446,-1.4895862340927124,1.2693171501159668
1726995768016746200,0.077746337890625,0.6715096831321716,-1.4039798974990845,1.3103454113006592
1726995768026733000,0.087733154296875,0.5397982597351074,-1.2761143445968628,1.299983263015747
1726995768036719000,0.097718994140625,0.4443075358867645,-1.2228566408157349,1.2296925783157349
1726995768046705200,0.107705078125,0.5000200867652893,-1.119881510734558,1.117189645767212
1726995768056692200,0.117692138671875,0.6805015802383423,-1.056074619293213,1.0147128105163574
1726995768066678300,0.12767822265625,0.9357516765594482,-1.2156671285629272,0.8652064204216003
1726995768076664300,0.137664306640625,1.2458597421646118,-1.5176231861114502,0.7633318901062012
1726995768086651100,0.147651123046875,1.555857539176941,-1.786913514137268,0.7428868412971497
1726995768096637200,0.15763720703125,1.835896611213684,-1.8147937059402466,0.818734347820282
1726995768106623200,0.167623291015625,2.0314717292785645,-1.7994574308395386,0.9575151801109314
1726995768116610000,0.177610107421875,2.0730605125427246,-1.7521753311157227,1.1577858924865723
1726995768126596000,0.18759619140625,1.9627996683120728,-1.7294650077819824,1.3962743282318115
1726995768136583200,0.197583251953125,1.746488094329834,-1.679254412651062,1.7029340267181396
1726995768146569200,0.2075693359375,1.5236539840698242,-1.6161553859710693,2.040449857711792
1726995768156555300,0.21755517578125,1.504042148590088,-1.587783694267273,2.2918381690979004
1726995768166542000,0.2275419921875,1.6707535982131958,-1.6200050115585327,2.4071691036224365
1726995768176528100,0.237528076171875,1.9124287366867065,-1.5617189407348633,2.410804033279419
1726995768186514200,0.24751416015625,2.162569284439087,-1.3775813579559326,2.274050712585449
1726995768196501200,0.257501220703125,2.4106576442718506,-1.3116580247879028,2.05194091796875
1726995768206487300,0.2674873046875,2.6889002323150635,-1.5276696681976318,1.928918480873108
1726995768216473000,0.27747314453125,3.0247068405151367,-1.9597417116165161,1.9590281248092651
1726995768226460200,0.287460205078125,3.3522324562072754,-2.327204704284668,2.076782464981079
1726995768236446200,0.2974462890625,3.6804864406585693,-2.4617955684661865,2.184558868408203
1726995768246432000,0.307431884765625,3.809870958328247,-2.2952768802642822,1.9370808601379395
1726995768256419000,0.317419189453125,3.741820812225342,-2.0631277561187744,1.4631149768829346
1726995768266405000,0.327405029296875,3.7092909812927246,-2.054429292678833,1.1374006271362305
1726995768276392200,0.33739208984375,3.7145237922668457,-1.8619927167892456,0.7271960377693176
1726995768286378200,0.347378173828125,3.6825456619262695,-1.9358378648757935,0.4076489210128784
1726995768296364000,0.357364013671875,3.649717092514038,-2.425783634185791,0.21793515980243683
1726995768306351000,0.36735107421875,3.2523555755615234,-2.954939842224121,0.008127070032060146
1726995768316337200,0.377337158203125,2.499257802963257,-2.8795721530914307,-0.15918463468551636
1726995768326323200,0.3873232421875,2.574413299560547,-2.8319272994995117,-0.3294421136379242
1726995768336310300,0.397310302734375,3.0374128818511963,-3.2509994506835938,-0.4165741205215454
1726995768346296000,0.407296142578125,3.486898899078369,-3.1605942249298096,-0.498980313539505
1726995768356282000,0.4172822265625,3.8246304988861084,-3.00535249710083,-0.6931477785110474
1726995768366269200,0.427269287109375,3.986508846282959,-3.7592649459838867,-0.8681712746620178
1726995768376255200,0.437255126953125,3.869624137878418,-4.574069499969482,-0.8576250076293945
1726995768386242000,0.447241943359375,3.662773609161377,-4.9556803703308105,-0.6794422268867493
1726995768396228000,0.45722802734375,3.4266018867492676,-4.797192096710205,-0.37753212451934814
1726995768406214100,0.467214111328125,3.213365077972412,-4.143204689025879,-0.10086992383003235
1726995768416201200,0.477201171875,2.990955114364624,-3.181324005126953,-0.009101806208491325
1726995768426187300,0.487187255859375,2.923232078552246,-2.463290214538574,0.026901202276349068
1726995768436173300,0.49717333984375,2.7920892238616943,-2.1402194499969482,-0.016603663563728333
1726995768446160100,0.50716015625,2.458913564682007,-2.332165479660034,-0.20948709547519684
1726995768456146200,0.517146240234375,1.8382169008255005,-2.8284764289855957,-0.45717403292655945
1726995768466132200,0.52713232421875,1.0618170499801636,-3.2442831993103027,-0.5933656692504883
1726995768476119300,0.537119384765625,0.5401732325553894,-3.107693672180176,-0.6221677660942078
1726995768486105000,0.54710498046875,0.36772772669792175,-2.703754186630249,-0.555645763874054
1726995768496092200,0.557092041015625,0.37606123089790344,-2.54734468460083,-0.4954701066017151
1726995768506078200,0.567078125,0.5322535037994385,-2.492722272872925,-0.345408171415329
1726995768516064300,0.577064208984375,0.6707131862640381,-2.59769868850708,-0.00027063675224781036
1726995768526051300,0.58705126953125,0.7927935719490051,-2.8579554557800293,0.5044612288475037
1726995768536037000,0.597037109375,0.8539342284202576,-2.958521604537964,1.061235785484314
1726995768546023200,0.607023193359375,0.5815096497535706,-2.86508846282959,1.5522204637527466
1726995768556010200,0.61701025390625,0.2635462284088135,-2.7456295490264893,1.9293700456619263
1726995768565996300,0.626996337890625,-0.006265271455049515,-2.5381922721862793,2.2411718368530273
1726995768575982000,0.636982177734375,-0.08691757917404175,-2.222364664077759,2.4332704544067383
1726995768585969200,0.64696923828125,-0.02435033954679966,-1.7970741987228394,2.454256772994995
1726995768595955200,0.656955078125,0.08573851734399796,-1.5067687034606934,2.304924964904785
1726995768605942300,0.6669423828125,0.22897423803806305,-1.405241847038269,1.9797160625457764
1726995768615928000,0.676927978515625,0.3138836920261383,-1.262995719909668,1.513663649559021
1726995768625914000,0.6869140625,0.30234473943710327,-1.1816915273666382,0.8693749308586121
1726995768635901200,0.696901123046875,0.2999979257583618,-0.9217607975006104,0.09903781116008759
1726995768645887200,0.70688720703125,0.468959242105484,-0.4840143322944641,-0.6011877059936523
1726995768655873000,0.716873046875,0.8755099773406982,-0.03415484353899956,-1.0529216527938843
1726995768665860000,0.726860107421875,1.065850019454956,0.229909285902977,-1.1286287307739258
1726995768675846100,0.73684619140625,0.9220819473266602,0.2800091505050659,-0.8474001288414001
1726995768685833200,0.746833251953125,0.7471774816513062,0.33371952176094055,-0.41060709953308105
1726995768695819300,0.7568193359375,0.8150049448013306,0.1913043111562729,0.017603665590286255
1726995768705805000,0.76680517578125,1.088862419128418,-0.022549131885170937,0.5358939170837402
1726995768715792100,0.776792236328125,1.352639079093933,-0.2642683684825897,0.9542353749275208
1726995768725778200,0.786778076171875,1.4786300659179688,-0.2931487262248993,0.9935630559921265
1726995768735764200,0.79676416015625,1.4879194498062134,-0.07035432010889053,0.7875917553901672
1726995768745751000,0.8067509765625,1.2348835468292236,0.3010932505130768,0.5670827627182007
1726995768755737000,0.816737060546875,0.8832982778549194,0.6757280230522156,0.44685104489326477
1726995768765724200,0.82672412109375,0.34173035621643066,1.0027906894683838,0.46933186054229736
1726995768775710200,0.836710205078125,-0.2977510690689087,0.9608393907546997,0.6212283968925476
1726995768785696300,0.8466962890625,-1.4529134035110474,1.471336007118225,0.491068035364151
1726995768795683000,0.85668310546875,-2.2863826751708984,1.9218584299087524,0.4991242289543152
1726995768805669000,0.866669189453125,-2.8406081199645996,1.862155795097351,0.5450869202613831
1726995768815655200,0.8766552734375,-2.7755963802337646,1.8871889114379883,0.16037054359912872
1726995768825642000,0.88664208984375,-3.0402348041534424,2.128549575805664,-0.42499038577079773
1726995768835628300,0.896628173828125,-3.4596498012542725,2.7737762928009033,-1.1008877754211426
1726995768845615000,0.906614990234375,-3.7768235206604004,3.000659704208374,-1.666835904121399
1726995768855601200,0.91660107421875,-3.658764123916626,2.992013931274414,-1.8030421733856201
1726995768865587200,0.926587158203125,-3.3260996341705322,2.9138455390930176,-1.7866560220718384
1726995768875574000,0.936573974609375,-3.132006883621216,1.7288857698440552,-1.760743498802185
1726995768885560300,0.946560302734375,-2.479274272918701,0.4443962872028351,-1.780539870262146
1726995768895546000,0.956546142578125,-1.6906945705413818,-0.5260601043701172,-1.565125584602356
1726995768905533200,0.966533203125,-0.8937227129936218,-1.0720429420471191,-1.2268435955047607
1726995768915519200,0.976519287109375,-0.5670509934425354,-0.7034159898757935,-0.8682775497436523
1726995768925505300,0.98650537109375,-0.31256383657455444,-0.4777093529701233,-0.5515545010566711
1726995768935492400,0.996492431640625,-0.08505858480930328,-0.3851242661476135,-0.36009681224823
1726995768945478100,1.00647802734375,-0.01764092780649662,-0.28351029753685,-0.26693758368492126
1726995768955465000,1.01646484375,0.041716061532497406,-0.0913843959569931,-0.1847497969865799
1726995768965451300,1.026451171875,0.1235765740275383,0.22137750685214996,-0.14107182621955872
1726995768975437000,1.03643701171875,0.07957154512405396,-0.476051926612854,0.23649810254573822
1726995768985424400,1.04642431640625,0.0754375234246254,-0.7659152150154114,0.5010213851928711
1726995768995410200,1.05641015625,0.20642685890197754,0.048088204115629196,0.4830430746078491
1726995769005396000,1.06639599609375,0.31420737504959106,0.4444635212421417,0.6547532677650452
1726995769015382800,1.0763828125,0.35762694478034973,0.25746604800224304,0.9513013362884521
1726995769025368800,1.086368896484375,0.3250700831413269,0.5745305418968201,0.9466530680656433
1726995769035356000,1.09635595703125,0.27283722162246704,1.7305412292480469,0.7975848913192749
1726995769045342000,1.106342041015625,0.17086318135261536,2.364719867706299,0.8012099862098694
1726995769055328000,1.116327880859375,0.03301608934998512,2.3207032680511475,0.9754169583320618
1726995769065314800,1.126314697265625,-0.05703284218907356,2.075497627258301,1.1212903261184692
1726995769075300900,1.13630078125,-0.08912814408540726,1.8750356435775757,0.9635918736457825
1726995769085287000,1.146286865234375,-0.03981119766831398,1.6795768737792969,0.6685620546340942
1726995769095274000,1.15627392578125,-0.03991914168000221,1.3376624584197998,0.3859398663043976
1726995769105259800,1.166259765625,-0.10913815349340439,0.6191908717155457,0.24836337566375732
1726995769115245800,1.176245849609375,-0.0913119688630104,0.18558980524539948,0.24769647419452667
1726995769125233000,1.18623291015625,-0.05363010615110397,-0.044679611921310425,0.15083996951580048
1726995769135219000,1.196218994140625,-0.01577184349298477,-0.09731577336788177,0.029266415163874626
1726995769145206000,1.2062060546875,0.012277900241315365,-0.09811099618673325,-0.056661009788513184
1726995769155191800,1.21619189453125,0.006847001146525145,-0.05201507732272148,-0.11940070241689682
1726995769165177900,1.226177734375,-0.005558535922318697,0.06962267309427261,-0.16457031667232513
1726995769175165000,1.2361650390625,-0.023865455761551857,0.18662993609905243,-0.21004736423492432
1726995769185151000,1.24615087890625,-0.03008873015642166,0.26299020648002625,-0.24458110332489014
1726995769195136800,1.25613671875,-0.02430366724729538,0.3144325613975525,-0.2847856283187866
1726995769205123800,1.266123779296875,-0.019586142152547836,0.33021658658981323,-0.3198575973510742
1726995769215110000,1.27610986328125,-0.012655067257583141,0.3184165954589844,-0.3385312557220459
1726995769225097000,1.286096923828125,-0.0043856860138475895,0.2996051013469696,-0.3404111862182617
1726995769235082800,1.296082763671875,0.02071336656808853,0.28549617528915405,-0.314217209815979
1726995769245068800,1.30606884765625,0.07348417490720749,0.30337902903556824,-0.260875403881073
1726995769255056000,1.316055908203125,0.1558072865009308,0.34007394313812256,-0.18453511595726013
1726995769265042000,1.3260419921875,0.23196090757846832,0.3645893931388855,-0.09285792708396912
1726995769275028000,1.336028076171875,0.26550155878067017,0.3919336795806885,0.001452600583434105
1726995769285014800,1.346014892578125,0.2685639262199402,0.4469340741634369,0.06832697242498398
1726995769295000800,1.356000732421875,0.23878221213817596,0.5064199566841125,0.10105764120817184
1726995769304988000,1.36598779296875,0.18945807218551636,0.5764051675796509,0.1083536371588707
1726995769314974000,1.375973876953125,0.14392149448394775,0.6437686681747437,0.09120562672615051
1726995769324960000,1.3859599609375,0.11192388832569122,0.774875819683075,0.030149726197123528
1726995769334946800,1.39594677734375,0.09496728330850601,0.8704632520675659,-0.047702375799417496
1726995769344932900,1.405932861328125,0.0996089056134224,0.9389733672142029,-0.11515971273183823
1726995769354919000,1.4159189453125,0.13152286410331726,0.9356873035430908,-0.1417255401611328
1726995769364905700,1.42590576171875,0.18018360435962677,0.8590231537818909,-0.13711746037006378
1726995769374891800,1.435891845703125,0.2375023365020752,0.7683765292167664,-0.1258823126554489
1726995769384877800,1.4458779296875,0.28985369205474854,0.6849889755249023,-0.11434256285429001
1726995769394865000,1.455864990234375,0.3119201064109802,0.5857830047607422,-0.10735496133565903
1726995769404851000,1.465850830078125,0.30727291107177734,0.5234450697898865,-0.10108428448438644
1726995769414837800,1.475837646484375,0.2764642834663391,0.5144683718681335,-0.07546435296535492
1726995769424823800,1.48582373046875,0.2259201556444168,0.5328736901283264,-0.022239476442337036
1726995769434809900,1.495809814453125,0.17648760974407196,0.5641381144523621,0.03996158391237259
1726995769444797000,1.505796875,0.15480761229991913,0.5974593162536621,0.09059040993452072
1726995769454783000,1.515782958984375,0.17070001363754272,0.6180715560913086,0.105930395424366
1726995769464768800,1.525768798828125,0.20304544270038605,0.6149702668190002,0.0771956816315651
1726995769474755800,1.535755859375,0.23558247089385986,0.5916921496391296,0.04813245311379433
1726995769484742000,1.545741943359375,0.24767589569091797,0.5476307272911072,0.01801369898021221
1726995769494728000,1.55572802734375,0.2236587405204773,0.48447468876838684,-0.014581399038434029
1726995769504715000,1.565715087890625,0.21203164756298065,0.40052491426467896,-0.04577447101473808
1726995769514700800,1.57570068359375,0.19376689195632935,0.30593129992485046,-0.0710582584142685
1726995769524688000,1.58568798828125,0.1673688441514969,0.23826225101947784,-0.04889250174164772
1726995769534674000,1.595673828125,0.1417972594499588,0.21899282932281494,-0.012156032025814056
1726995769544660000,1.605659912109375,0.10356146097183228,0.21921920776367188,0.02952430211007595
1726995769554647000,1.61564697265625,0.059073787182569504,0.22648212313652039,0.08171895146369934
1726995769564632800,1.6256328125,0.01385544240474701,0.22790823876857758,0.13823522627353668
1726995769574619000,1.635618896484375,-0.03828701376914978,0.20742210745811462,0.18683545291423798
1726995769584606000,1.64560595703125,-0.08941251784563065,0.18928465247154236,0.21298129856586456
1726995769594591700,1.655591796875,-0.13169413805007935,0.16581673920154572,0.20089603960514069
1726995769604579000,1.6655791015625,-0.12438961118459702,0.17919619381427765,0.14191049337387085
1726995769614564900,1.67556494140625,-0.06043078377842903,0.14715167880058289,0.06603910773992538
1726995769624551000,1.685551025390625,0.012357935309410095,0.11022615432739258,-0.0012350073084235191
1726995769634538000,1.6955380859375,0.03949444368481636,0.07520946860313416,-0.010499257594347
1726995769644523800,1.705523681640625,0.031278859823942184,0.04078570753335953,0.04800266772508621
1726995769654509800,1.715509765625,0.006680995225906372,0.005430134944617748,0.12005721777677536
1726995769664497000,1.725496826171875,-0.00628513703122735,-0.027701452374458313,0.18526312708854675
1726995769674483000,1.73548291015625,0.010849695652723312,-0.051286812871694565,0.23679518699645996
1726995769684469000,1.745468994140625,0.0493353009223938,-0.06670279055833817,0.2757638990879059
1726995769694455800,1.755455810546875,0.09870442748069763,-0.0587284192442894,0.3094911277294159
1726995769704441900,1.76544189453125,0.12236900627613068,-0.05333631858229637,0.3534596562385559
1726995769714428000,1.775427978515625,0.13061930239200592,-0.06803646683692932,0.39546966552734375
1726995769724414700,1.785414794921875,0.15302181243896484,-0.0781887024641037,0.4264262318611145
1726995769734401000,1.795401123046875,0.18027876317501068,-0.09591776877641678,0.4352322816848755
1726995769744387800,1.805387939453125,0.20699720084667206,-0.10435838997364044,0.4318431317806244
1726995769754374000,1.815373779296875,0.2354825884103775,-0.09039459377527237,0.3964647054672241
1726995769764360000,1.82535986328125,0.24931557476520538,-0.07629422098398209,0.3633898198604584
1726995769774346800,1.8353466796875,0.2206815630197525,-0.09304770827293396,0.3490266799926758
1726995769784333000,1.8453330078125,0.17766858637332916,-0.13893690705299377,0.35356417298316956
1726995769794318800,1.85531884765625,0.15532749891281128,-0.20067808032035828,0.36524391174316406
1726995769804305700,1.8653056640625,0.14667436480522156,-0.22241054475307465,0.3576562702655792
1726995769814292000,1.8752919921875,0.12725113332271576,-0.17433950304985046,0.28802749514579773
1726995769824278800,1.88527880859375,0.12466441839933395,-0.08097467571496964,0.16440701484680176
1726995769834265000,1.89526513671875,0.16488657891750336,0.06415858119726181,0.021737271919846535
1726995769844251000,1.9052509765625,0.2395714670419693,0.21001271903514862,-0.09918995201587677
1726995769854237700,1.91523779296875,0.29870790243148804,0.3252655565738678,-0.19833751022815704
1726995769864224000,1.92522412109375,0.3244694471359253,0.38965144753456116,-0.2623966336250305
1726995769874209800,1.935209716796875,0.32360756397247314,0.3934595584869385,-0.271450012922287
1726995769884196900,1.94519677734375,0.3242168724536896,0.3627546429634094,-0.23869206011295319
1726995769894183000,1.955182861328125,0.3473644554615021,0.31803274154663086,-0.17319715023040771
1726995769904169000,1.9651689453125,0.3990793228149414,0.2845733165740967,-0.0713120624423027
1726995769914156000,1.975156005859375,0.47737428545951843,0.2987862229347229,0.04622684046626091
1726995769924141800,1.985141845703125,0.559109091758728,0.3451918065547943,0.15629687905311584
1726995769934127900,1.9951279296875,0.6304252743721008,0.4578944742679596,0.22932307422161102
1726995769944115000,2.005114990234375,0.6762662529945374,0.5596439838409424,0.26865556836128235
1726995769954100700,2.015100830078125,0.745453417301178,0.6922368407249451,0.29087361693382263
1726995769964088000,2.025088134765625,0.84108567237854,0.8885493874549866,0.2775932252407074
1726995769974073900,2.035073974609375,0.9404776692390442,0.9958069324493408,0.24854245781898499
1726995769984060000,2.045059814453125,1.0547221899032593,1.0196949243545532,0.2299187034368515
1726995769994047000,2.055046875,1.13564932346344,0.9594507217407227,0.1812102198600769
1726995770004032800,2.06503271484375,1.1561181545257568,0.8313526511192322,0.11085164546966553
1726995770014018600,2.0750185546875,1.1433966159820557,0.760659396648407,0.055562879890203476
1726995770024005600,2.085005615234375,1.089656949043274,0.6790377497673035,0.021016087383031845
1726995770033991700,2.09499169921875,0.9843584299087524,0.5174020528793335,0.030144043266773224
1726995770043977700,2.104977783203125,0.7901493310928345,0.38404348492622375,0.03958361595869064
1726995770053964500,2.114964599609375,0.5249911546707153,0.26956310868263245,0.043184515088796616
1726995770063950600,2.12495068359375,0.1946185827255249,0.1363949179649353,0.08195801079273224
1726995770073937700,2.134937744140625,-0.1280597299337387,0.025775911286473274,0.12657371163368225
1726995770083923500,2.14492333984375,-0.41552454233169556,-0.06604668498039246,0.15474888682365417
1726995770093909800,2.15490966796875,-0.6967267394065857,-0.18641717731952667,0.11348050832748413
1726995770103896600,2.164896484375,-0.9025917053222656,-0.3820261061191559,-0.038627270609140396
1726995770113882600,2.174882568359375,-0.9082701802253723,-0.5022966861724854,-0.2687770128250122
1726995770123868700,2.18486865234375,-0.8083896636962891,-0.6132099032402039,-0.4587258994579315
1726995770133855500,2.19485546875,-0.6921133399009705,-0.6775978803634644,-0.5553584694862366
1726995770143841800,2.204841796875,-0.6239238977432251,-0.5971435308456421,-0.5388468503952026
1726995770153827600,2.21482763671875,-0.6342192888259888,-0.3576972484588623,-0.43180400133132935
1726995770163814700,2.224814697265625,-0.6769459843635559,-0.10420400649309158,-0.32552042603492737
1726995770173800700,2.23480078125,-0.7344520092010498,0.05651184543967247,-0.3391072154045105
1726995770183786800,2.244786865234375,-0.7710062861442566,0.056123290210962296,-0.4443787634372711
1726995770193773600,2.254773681640625,-0.7431349754333496,0.11237502843141556,-0.5968374609947205
1726995770203759600,2.264759521484375,-0.644852876663208,0.21384094655513763,-0.7068494558334351
1726995770213746400,2.274746337890625,-0.5277312994003296,0.3338484764099121,-0.7123650312423706
1726995770223732700,2.284732666015625,-0.38399651646614075,0.43680280447006226,-0.6452435255050659
1726995770233718500,2.294718505859375,-0.19543111324310303,0.5312691330909729,-0.5830563306808472
1726995770243705600,2.30470556640625,-0.029695410281419754,0.5629618167877197,-0.6186710596084595
1726995770253691600,2.314691650390625,0.05699380859732628,0.532889723777771,-0.6869509816169739
1726995770263677700,2.324677734375,0.08665263652801514,0.4817971885204315,-0.7008763551712036
1726995770273664800,2.334664794921875,0.05183698609471321,0.4219183325767517,-0.6521740555763245
1726995770283650600,2.344650634765625,-0.031135130673646927,0.342928946018219,-0.5449658036231995
1726995770293636600,2.35463671875,-0.15266132354736328,0.2610248327255249,-0.40817371010780334
1726995770303623700,2.364623779296875,-0.2907635271549225,0.1585962027311325,-0.2617848217487335
1726995770313609700,2.374609619140625,-0.4144485592842102,0.03200225532054901,-0.14137782156467438
1726995770323595500,2.384595458984375,-0.5254946351051331,-0.11383005231618881,-0.052374180406332016
1726995770333582600,2.39458251953125,-0.5757769346237183,-0.22754347324371338,0.009631576016545296
1726995770343568600,2.404568603515625,-0.5625983476638794,-0.28873544931411743,0.06025640293955803
1726995770353555700,2.4145556640625,-0.5279642939567566,-0.3017175495624542,0.09504293650388718
1726995770363541500,2.42454150390625,-0.4713049829006195,-0.2905738055706024,0.08199051767587662
1726995770373527600,2.434527587890625,-0.36927488446235657,-0.22749380767345428,0.01725011318922043
1726995770383514600,2.4445146484375,-0.25327423214912415,-0.13977833092212677,-0.04828575253486633
1726995770393500700,2.454500732421875,-0.15562273561954498,-0.08364632725715637,-0.08388183265924454
1726995770403486700,2.46448681640625,-0.12374282628297806,-0.057546280324459076,-0.0729929655790329
1726995770413473500,2.4744736328125,-0.13399983942508698,-0.026074713096022606,-0.056245528161525726
1726995770423459600,2.48445947265625,-0.13008391857147217,0.006134089082479477,-0.06185548007488251
1726995770433445600,2.494445556640625,-0.13607007265090942,0.027295906096696854,-0.0922396332025528
1726995770443432400,2.504432373046875,-0.11609342694282532,0.059022143483161926,-0.15844634175300598
1726995770453418800,2.514418701171875,-0.07555363327264786,0.08033991605043411,-0.2249884158372879
1726995770463404500,2.524404541015625,-0.04360635578632355,0.11341797560453415,-0.28338488936424255
1726995770473391600,2.5343916015625,-0.011998040601611137,0.13907019793987274,-0.30008766055107117
1726995770483377700,2.544377685546875,0.03714313730597496,0.1412886083126068,-0.26406174898147583
1726995770493364500,2.554364501953125,0.07273539155721664,0.13361856341362,-0.1954725980758667
1726995770503350800,2.564350830078125,0.0874730572104454,0.12127720564603806,-0.13499221205711365
1726995770513336600,2.574336669921875,0.06904648244380951,0.1333131641149521,-0.1145281046628952
1726995770523323600,2.58432373046875,0.018969468772411346,0.1598382443189621,-0.12544120848178864
1726995770533309700,2.594309814453125,-0.017754103988409042,0.2005431205034256,-0.12658916413784027
1726995770543295700,2.604295654296875,-0.03262999281287193,0.25229552388191223,-0.111038438975811
1726995770553282800,2.61428271484375,-0.0758562758564949,0.2778957188129425,-0.0628322958946228
1726995770563268600,2.6242685546875,-0.14642392098903656,0.2427808791399002,0.002057221019640565
1726995770573254700,2.634254638671875,-0.19727538526058197,0.16299709677696228,0.07594715803861618
1726995770583241700,2.64424169921875,-0.2151888608932495,0.0870187059044838,0.1766687035560608
1726995770593227500,2.6542275390625,-0.19194069504737854,-0.0019899210892617702,0.3181210458278656
1726995770603213600,2.664213623046875,-0.15283164381980896,-0.070400670170784,0.46522581577301025
1726995770613200600,2.67420068359375,-0.12663675844669342,-0.1086658239364624,0.6008129715919495
1726995770623186700,2.684186767578125,-0.11957245320081711,-0.09200668334960938,0.6984444856643677
1726995770633173800,2.694173828125,-0.12940837442874908,-0.04937051981687546,0.7343975901603699
1726995770643159600,2.70415966796875,-0.14026448130607605,0.011745831929147243,0.7163187265396118
1726995770653145600,2.7141455078125,-0.17122788727283478,0.05816791206598282,0.6606397032737732
1726995770663132700,2.724132568359375,-0.2077949494123459,0.08649249374866486,0.5755687952041626
1726995770673118500,2.734118408203125,-0.19246909022331238,0.045939851552248,0.4952709674835205
1726995770683104500,2.7441044921875,-0.15648658573627472,-0.02007804624736309,0.4072071313858032
1726995770693091600,2.754091552734375,-0.15581616759300232,-0.11268939822912216,0.33011379837989807
1726995770703077600,2.76407763671875,-0.1835298091173172,-0.2125755101442337,0.2917661666870117
1726995770713063700,2.774063720703125,-0.20705324411392212,-0.2465810477733612,0.2659994661808014
1726995770723050500,2.784050537109375,-0.17176476120948792,-0.21418529748916626,0.25649383664131165
1726995770733036500,2.79403662109375,-0.07898237556219101,-0.1319543719291687,0.28747302293777466
1726995770743022600,2.804022705078125,0.029086032882332802,-0.04098876565694809,0.37733712792396545
1726995770753009700,2.814009765625,0.12293416261672974,-0.04075835645198822,0.48288044333457947
1726995770762995700,2.82399560546875,0.21820901334285736,-0.14328552782535553,0.5186759233474731
1726995770772981800,2.833981689453125,0.2904825508594513,-0.30141276121139526,0.4321040213108063
1726995770782968600,2.843968505859375,0.30080389976501465,-0.4542268216609955,0.21489153802394867
1726995770792954600,2.85395458984375,0.28115031123161316,-0.5623834133148193,-0.09531362354755402
1726995770802941400,2.86394140625,0.2581943869590759,-0.5855582356452942,-0.44742026925086975
1726995770812927700,2.873927734375,0.21677985787391663,-0.5313355922698975,-0.7647027969360352
1726995770822913500,2.88391357421875,0.132547527551651,-0.3577185273170471,-1.0043859481811523
1726995770832900600,2.893900634765625,0.029839031398296356,-0.1366535872220993,-1.1430284976959229
1726995770842886700,2.90388671875,-0.06929687410593033,0.10030248761177063,-1.2345259189605713
1726995770852872700,2.913872802734375,-0.15794241428375244,0.2744594216346741,-1.351050615310669
1726995770862859800,2.92385986328125,-0.24615083634853363,0.3365637958049774,-1.5218236446380615
1726995770872845600,2.933845458984375,-0.313271164894104,0.3892064690589905,-1.7525628805160522
1726995770882831600,2.94383154296875,-0.3433539867401123,0.4675596058368683,-1.9888827800750732
1726995770892818700,2.953818603515625,-0.32183077931404114,0.5349739789962769,-2.1517083644866943
1726995770902804700,2.9638046875,-0.2833675444126129,0.6666039228439331,-2.215285539627075
1726995770912790500,2.97379052734375,-0.25419139862060547,0.7556167244911194,-2.2283952236175537
1726995770922777600,2.983777587890625,-0.23005355894565582,0.8126068115234375,-2.2317843437194824
1726995770932763600,2.993763671875,-0.23758205771446228,0.8039266467094421,-2.1856613159179688
1726995770942749700,3.003749755859375,-0.27443623542785645,0.7429461479187012,-2.0524580478668213
1726995770952736500,3.013736572265625,-0.325084388256073,0.6956763863563538,-1.8682714700698853
1726995770962722600,3.02372265625,-0.3711722493171692,0.6212112307548523,-1.6834028959274292
1726995770972709600,3.033709716796875,-0.4004588723182678,0.5471218228340149,-1.5379022359848022
1726995770982695700,3.04369580078125,-0.419837087392807,0.4827750027179718,-1.438475251197815
1726995770992681700,3.053681640625,-0.46696966886520386,0.3731461763381958,-1.3525738716125488
1726995771002668500,3.06366845703125,-0.5182445645332336,0.18117673695087433,-1.2500509023666382
1726995771012655400,3.0736552734375,-0.5422755479812622,0.02101161703467369,-1.1220571994781494
1726995771022641200,3.08364111328125,-0.5358807444572449,-0.09905886650085449,-0.9697318077087402
1726995771032628000,3.0936279296875,-0.4949154853820801,-0.23312433063983917,-0.8103141188621521
1726995771042614300,3.1036142578125,-0.39058348536491394,-0.29610490798950195,-0.6760330200195312
1726995771052600000,3.11360009765625,-0.27267345786094666,-0.34117576479911804,-0.5313832759857178
1726995771062587100,3.123587158203125,-0.18313905596733093,-0.39621320366859436,-0.36147943139076233
1726995771072573200,3.1335732421875,-0.10726524889469147,-0.4075620472431183,-0.19161510467529297
1726995771082559200,3.143559326171875,-0.05344570055603981,-0.3684135675430298,-0.04094436764717102
1726995771092546300,3.15354638671875,-0.006219218950718641,-0.380835622549057,0.15503519773483276
1726995771102532000,3.163531982421875,0.005657680332660675,-0.4639819264411926,0.37237364053726196
1726995771112518100,3.17351806640625,-0.04699596390128136,-0.5837206244468689,0.5568462610244751
1726995771122505200,3.183505126953125,-0.10745611041784286,-0.7452977895736694,0.739305317401886
1726995771132491000,3.193490966796875,-0.09007477760314941,-0.8700360655784607,0.873291015625
1726995771142478300,3.203478271484375,-0.044963229447603226,-1.0065950155258179,1.0168514251708984
1726995771152464100,3.213464111328125,-0.0076117017306387424,-1.1128323078155518,1.1093759536743164
1726995771162450200,3.2234501953125,0.09432104974985123,-1.389200210571289,1.0380367040634155
1726995771172437200,3.233437255859375,0.10947222262620926,-1.5227726697921753,0.8080853819847107
1726995771182423000,3.243423095703125,0.0548209585249424,-1.5993074178695679,0.4924088716506958
1726995771192409300,3.253409423828125,-0.03768649324774742,-1.5726072788238525,0.21309836208820343
1726995771202396200,3.263396240234375,-0.24836036562919617,-1.4974545240402222,0.0026537724770605564
1726995771212382000,3.2733818359375,-0.4495653808116913,-1.2573267221450806,-0.09006772935390472
1726995771222368300,3.2833681640625,-0.5508555173873901,-0.8027566075325012,-0.0916358008980751
1726995771232355000,3.29335498046875,-0.5222876071929932,-0.24867965281009674,-0.01983470283448696
1726995771242341400,3.30334130859375,-0.3888283967971802,0.2564586400985718,0.05745182931423187
1726995771252327200,3.3133271484375,-0.2215854972600937,0.39741697907447815,0.05070900171995163
1726995771262314000,3.32331396484375,-0.09896424412727356,0.2641278803348541,0.09701764583587646
1726995771272300300,3.33330029296875,0.04309126362204552,0.012912595644593239,0.15109369158744812
1726995771282286000,3.3432861328125,0.21612615883350372,-0.23095013201236725,0.14119818806648254
1726995771292273400,3.3532734375,0.26498088240623474,-0.4770754873752594,0.12748472392559052
1726995771302259200,3.36325927734375,0.18366368114948273,-0.5367835760116577,0.12864425778388977
1726995771312246000,3.37324609375,0.08489374071359634,-0.3994716703891754,0.09669193625450134
1726995771322232300,3.383232421875,0.06649289280176163,-0.18441209197044373,0.013280671089887619
1726995771332218000,3.393218017578125,0.17217297852039337,0.031176747754216194,-0.0765952467918396
1726995771342205200,3.403205078125,0.3335072696208954,0.15760979056358337,-0.11951501667499542
1726995771352191200,3.413191162109375,0.4388534426689148,0.22613810002803802,-0.09869024157524109
1726995771362177000,3.423177001953125,0.4352104961872101,0.30748888850212097,-0.046877115964889526
1726995771372164400,3.433164306640625,0.34797561168670654,0.34346216917037964,0.042889755219221115
1726995771382150100,3.443150146484375,0.2642018795013428,0.31615808606147766,0.10994069278240204
1726995771392136200,3.45313623046875,0.18970635533332825,0.2252204716205597,0.13411927223205566
1726995771402123300,3.463123291015625,0.11317934095859528,0.05579042434692383,0.1508636325597763
1726995771412109000,3.473109130859375,0.06739436089992523,-0.10363859683275223,0.1744644045829773
1726995771422095000,3.48309521484375,0.04800841584801674,-0.2046578824520111,0.16802728176116943
1726995771432082200,3.493082275390625,0.04620003327727318,-0.23148006200790405,0.1172996312379837
1726995771442068200,3.503068115234375,0.09718305617570877,-0.14410841464996338,0.02225913293659687
1726995771452054300,3.51305419921875,0.18391740322113037,-0.005413741804659367,-0.07254931330680847
1726995771462041000,3.523041015625,0.21936674416065216,0.13997752964496613,-0.07833076268434525
1726995771472027100,3.533027099609375,0.242889404296875,0.14369159936904907,-0.02073351852595806
1726995771482013200,3.54301318359375,0.19002485275268555,0.11438111960887909,0.0775805339217186
1726995771492000000,3.553,0.09045305848121643,0.04091884195804596,0.2150408774614334
1726995771501986300,3.562986328125,0.025440769270062447,-0.07149558514356613,0.2686878442764282
1726995771511973000,3.57297314453125,-0.021937720477581024,-0.15878774225711823,0.21960017085075378
1726995771521959200,3.582959228515625,-0.02108124829828739,-0.18426646292209625,0.1511276364326477
1726995771531945200,3.5929453125,0.019612226635217667,-0.1883237063884735,0.09025135636329651
1726995771541932000,3.60293212890625,0.07811468839645386,-0.15372125804424286,0.056481942534446716
1726995771551918300,3.61291845703125,0.1604863852262497,-0.09039334207773209,0.06791272759437561
1726995771561904000,3.622904052734375,0.20187030732631683,-0.000844024121761322,0.11726243793964386
1726995771571891000,3.632890869140625,0.20379537343978882,0.08342897146940231,0.19176173210144043
1726995771581877200,3.642877197265625,0.1831846386194229,0.1178617775440216,0.22457534074783325
1726995771591863000,3.652863037109375,0.16745927929878235,0.1298208385705948,0.1935306340456009
1726995771601850400,3.662850341796875,0.17462186515331268,0.1664414405822754,0.11818607151508331
1726995771611836200,3.672836181640625,0.1690184623003006,0.22279269993305206,0.03561393916606903
1726995771621822200,3.682822265625,0.15920525789260864,0.2892518937587738,-0.037287432700395584
1726995771631809300,3.692809326171875,0.16170628368854523,0.34653839468955994,-0.037267446517944336
1726995771641795000,3.702795166015625,0.1805281639099121,0.3985176980495453,0.04950260370969772
1726995771651781000,3.712781005859375,0.19291913509368896,0.4146732687950134,0.20550616085529327
1726995771661768200,3.722768310546875,0.19718073308467865,0.36931538581848145,0.39973875880241394
1726995771671754200,3.732754150390625,0.1857895851135254,0.27734702825546265,0.5517781972885132
1726995771681740300,3.742740234375,0.15931695699691772,0.15926805138587952,0.6323880553245544
1726995771691727000,3.75272705078125,0.13155816495418549,0.07644293457269669,0.6466583609580994
1726995771701713200,3.762713134765625,0.0949772447347641,0.060237858444452286,0.6146895289421082
1726995771711700200,3.7727001953125,0.06491418182849884,0.09431293606758118,0.5552873015403748
1726995771721686000,3.78268603515625,0.06591632962226868,0.13198734819889069,0.4692820906639099
1726995771731672300,3.79267236328125,0.10095340013504028,0.14450109004974365,0.4001607298851013
1726995771741659100,3.8026591796875,0.14137698709964752,0.13336189091205597,0.4055784046649933
1726995771751645200,3.812645263671875,0.16510175168514252,0.059195779263973236,0.49745720624923706
1726995771761631200,3.82263134765625,0.1608380377292633,-0.08033468574285507,0.637028694152832
1726995771771618000,3.8326181640625,0.12057169526815414,-0.2600640654563904,0.7521600723266602
1726995771781604000,3.84260400390625,0.06247936934232712,-0.42402875423431396,0.8504195809364319
1726995771791590100,3.852590087890625,0.0217757485806942,-0.5389645099639893,0.8910595178604126
1726995771801577200,3.8625771484375,-0.00627213204279542,-0.5855317115783691,0.8466859459877014
1726995771811563300,3.872563232421875,-0.018076995387673378,-0.5102131366729736,0.7276046872138977
1726995771821549000,3.882549072265625,-0.03312651813030243,-0.40452882647514343,0.6348736882209778
1726995771831536000,3.8925361328125,-0.09308625757694244,-0.29143691062927246,0.5853729844093323
1726995771841522200,3.902522216796875,-0.14557184278964996,-0.16743692755699158,0.5855279564857483
1726995771851508200,3.91250830078125,-0.1737985610961914,-0.11518391221761703,0.6429111361503601
1726995771861495300,3.922495361328125,-0.17091915011405945,-0.13854116201400757,0.7098390460014343
1726995771871481000,3.932481201171875,-0.12178091704845428,-0.19954197108745575,0.7763804793357849
1726995771881467100,3.942467041015625,-0.04605180397629738,-0.2743842303752899,0.8241354823112488
1726995771891454200,3.9524541015625,0.005965914577245712,-0.354220449924469,0.8399097919464111
1726995771901440300,3.962440185546875,0.03603513166308403,-0.3959103524684906,0.8324776887893677
1726995771911426000,3.972426025390625,0.05167250707745552,-0.4149962067604065,0.8166787624359131
1726995771921413000,3.9824130859375,0.06412439048290253,-0.39933815598487854,0.8034386038780212
1726995771931399200,3.992399169921875,0.0765356719493866,-0.37816211581230164,0.7891167402267456
1726995771941386200,4.00238623046875,0.07517240196466446,-0.341595858335495,0.7737199664115906
1726995771951372000,4.0123720703125,0.059171080589294434,-0.3163692057132721,0.7920258641242981
1726995771961358000,4.022358154296875,0.018781045451760292,-0.2753639817237854,0.816536009311676
1726995771971345200,4.03234521484375,-0.02213374339044094,-0.23738011717796326,0.8355135321617126
1726995771981331200,4.042331298828125,-0.06907195597887039,-0.185898557305336,0.822333812713623
1726995771991317200,4.052317138671875,-0.11452686041593552,-0.1405392736196518,0.7884248495101929
1726995772001304000,4.062303955078125,-0.151541605591774,-0.10459219664335251,0.7391148209571838
1726995772011290000,4.0722900390625,-0.13877540826797485,-0.06116017699241638,0.6873685717582703
1726995772021276200,4.082276123046875,-0.07144032418727875,-0.014265641570091248,0.6471399664878845
1726995772031263200,4.09226318359375,0.008426820859313011,0.011081443168222904,0.6108102798461914
1726995772041249000,4.1022490234375,0.07344523817300797,-0.002448214218020439,0.5978140830993652
1726995772051235000,4.112235107421875,0.09156809747219086,-0.04720534011721611,0.6047013401985168
1726995772061222100,4.12222216796875,0.06558682769536972,-0.10856510698795319,0.6178647875785828
1726995772071208200,4.132208251953125,0.011435248889029026,-0.16276021301746368,0.6204956769943237
1726995772081194200,4.1421943359375,-0.04231240227818489,-0.1997523158788681,0.5800076127052307
1726995772091181000,4.15218115234375,-0.07659299671649933,-0.23543167114257812,0.5110200643539429
1726995772101167000,4.1621669921875,-0.09646789729595184,-0.2189064919948578,0.43552979826927185
1726995772111153200,4.172153076171875,-0.09557457268238068,-0.21023303270339966,0.36533379554748535
1726995772121140200,4.18214013671875,-0.09255880862474442,-0.17607931792736053,0.2932489514350891
1726995772131126300,4.192126220703125,-0.07366809993982315,-0.15937882661819458,0.25171467661857605
1726995772141113000,4.202113037109375,-0.06924325972795486,-0.20469997823238373,0.2366638034582138
1726995772151099100,4.21209912109375,-0.05808934196829796,-0.19827939569950104,0.20287783443927765
1726995772161085200,4.222085205078125,-0.04523292928934097,-0.2100636214017868,0.17768990993499756
1726995772171072300,4.232072265625,-0.031093059107661247,-0.20223839581012726,0.14705142378807068
1726995772181058000,4.24205810546875,-0.012401130981743336,-0.15105590224266052,0.11066731810569763
1726995772191044000,4.252044189453125,0.015623609535396099,-0.1084030494093895,0.09372438490390778
1726995772201031200,4.26203125,0.0286019928753376,-0.07529489696025848,0.086514413356781
1726995772211017200,4.272017333984375,0.0473807230591774,-0.08738309144973755,0.09868540614843369
1726995772221003000,4.2820029296875,0.06963489949703217,-0.08022637665271759,0.11848494410514832
1726995772230990000,4.291989990234375,0.09322752803564072,-0.1408991515636444,0.15268418192863464
1726995772240976100,4.30197607421875,0.11533042788505554,-0.17745423316955566,0.18259599804878235
1726995772250962000,4.3119619140625,0.1447521299123764,-0.18465133011341095,0.18293365836143494
1726995772260949200,4.32194921875,0.16201020777225494,-0.17829303443431854,0.1650310903787613
1726995772270935000,4.33193505859375,0.18208731710910797,-0.15399742126464844,0.1355520486831665
1726995772280921300,4.34192138671875,0.20482058823108673,-0.09900980442762375,0.11266909539699554
1726995772290908200,4.351908203125,0.23385362327098846,-0.03613881394267082,0.09717795252799988
1726995772300894000,4.36189404296875,0.2637864947319031,-0.0005571175133809447,0.09072324633598328
1726995772310880300,4.37188037109375,0.3415187895298004,0.05367821455001831,0.09809760749340057
1726995772320867000,4.3818671875,0.4970681667327881,0.13536082208156586,0.09862998127937317
1726995772330853000,4.39185302734375,0.7174047827720642,0.26971662044525146,0.11463591456413269
1726995772340839200,4.401839111328125,0.9224156737327576,0.3603312075138092,0.12367015331983566
1726995772350826000,4.411825927734375,1.0783616304397583,0.3342568874359131,0.14928211271762848
1726995772360812300,4.421812255859375,1.178976058959961,0.2534320652484894,0.1677018702030182
1726995772370798000,4.431798095703125,1.1966365575790405,0.13984845578670502,0.1545741856098175
1726995772380785200,4.44178515625,1.146230936050415,-0.00847975630313158,0.13993105292320251
1726995772390771200,4.451771240234375,1.0566452741622925,-0.17088989913463593,0.10849187523126602
1726995772400758000,4.461758056640625,0.9861766695976257,-0.28181910514831543,0.07883784174919128
1726995772410744000,4.471744140625,0.952290415763855,-0.3205691874027252,0.0728834867477417
1726995772420730000,4.481730224609375,0.9556300044059753,-0.227306067943573,0.12534749507904053
1726995772430717200,4.49171728515625,1.0159056186676025,-0.04817064851522446,0.2744259238243103
1726995772440703200,4.501703125,1.0841944217681885,-0.10859271883964539,0.4078385829925537
1726995772450689000,4.51168896484375,1.1450892686843872,-0.234995499253273,0.5359385013580322
1726995772460676000,4.521676025390625,1.1710609197616577,-0.31562885642051697,0.6750343441963196
1726995772470662100,4.531662109375,1.134253740310669,-0.38306480646133423,0.8198304176330566
1726995772480648000,4.54164794921875,1.0344105958938599,-0.45150646567344666,0.9246593713760376
1726995772490635300,4.55163525390625,0.8628390431404114,-0.5314564108848572,0.9935935139656067
1726995772500621000,4.56162109375,0.6571013331413269,-0.6197481751441956,1.0408811569213867
1726995772510607400,4.571607421875,0.45027920603752136,-0.6995441913604736,1.0619624853134155
1726995772520594200,4.58159423828125,0.27036216855049133,-0.6748899817466736,1.0411360263824463
1726995772530580000,4.591580078125,0.1812407374382019,-0.556930661201477,1.0177412033081055
1726995772540566300,4.601566162109375,0.15296542644500732,-0.44700121879577637,1.0154290199279785
1726995772550553000,4.611552978515625,0.17428767681121826,-0.35706406831741333,1.0163848400115967
1726995772560539100,4.6215390625,0.19579750299453735,-0.2152145355939865,1.0105421543121338
1726995772570525200,4.631525146484375,0.1961933821439743,-0.07360762357711792,1.0197646617889404
1726995772580512000,4.641511962890625,0.18588773906230927,0.0634293258190155,1.0036914348602295
1726995772590498300,4.651498291015625,0.1691613793373108,0.18795841932296753,0.9287293553352356
1726995772600484000,4.661484130859375,0.17157819867134094,0.2671900987625122,0.8145990967750549
1726995772610471000,4.671470947265625,0.18091945350170135,0.2833399176597595,0.6694201231002808
1726995772620457200,4.681457275390625,0.1771090030670166,0.2802985906600952,0.4909723699092865
1726995772630443000,4.691443115234375,0.12523818016052246,0.3011159598827362,0.33732786774635315
1726995772640430300,4.701430419921875,0.04001887887716293,0.31283652782440186,0.2534273862838745
1726995772650416000,4.711416015625,-0.05185771733522415,0.3284884989261627,0.24824684858322144
1726995772660403000,4.72140283203125,-0.1115838959813118,0.34762731194496155,0.3017265796661377
1726995772670389200,4.73138916015625,-0.16547320783138275,0.37113913893699646,0.37787824869155884
1726995772680375000,4.741375,-0.2225673794746399,0.346329927444458,0.4419400691986084
1726995772690362000,4.751362060546875,-0.3038969933986664,0.30418238043785095,0.4579463303089142
1726995772700348200,4.76134814453125,-0.393961638212204,0.27632492780685425,0.41217005252838135
1726995772710334000,4.771333984375,-0.4771493673324585,0.2218376100063324,0.32243213057518005
1726995772720321300,4.7813212890625,-0.5609268546104431,0.17768612504005432,0.20829249918460846
1726995772730307000,4.79130712890625,-0.6332235336303711,0.15145662426948547,0.07453793287277222
1726995772740293000,4.801293212890625,-0.6953361630439758,0.16347680985927582,-0.05293959751725197
1726995772750280200,4.8112802734375,-0.7557247877120972,0.22259066998958588,-0.18952418863773346
1726995772760266000,4.821265869140625,-0.7814716696739197,0.25504767894744873,-0.3304370939731598
1726995772770252300,4.831252197265625,-0.7374786734580994,0.2606165111064911,-0.455331027507782
1726995772780239000,4.841239013671875,-0.6367467045783997,0.2887062132358551,-0.5726091861724854
1726995772790225200,4.85122509765625,-0.5401195883750916,0.3014443516731262,-0.6640222072601318
1726995772800211200,4.861211181640625,-0.4515947699546814,0.35124173760414124,-0.7133585810661316
1726995772810198000,4.871197998046875,-0.40279966592788696,0.4273214340209961,-0.7436175346374512
1726995772820184300,4.881184326171875,-0.3926578164100647,0.53926682472229,-0.7883655428886414
1726995772830170000,4.891170166015625,-0.4149482250213623,0.6340508460998535,-0.8688055276870728
1726995772840157000,4.901156982421875,-0.47698068618774414,0.7079141736030579,-1.0042704343795776
1726995772850143200,4.911143310546875,-0.548914909362793,0.7117574214935303,-1.1528023481369019
1726995772860129000,4.92112890625,-0.5413837432861328,0.7357347011566162,-1.2891732454299927
1726995772870116400,4.931116455078125,-0.5237282514572144,0.8186264634132385,-1.4050558805465698
1726995772880102100,4.94110205078125,-0.5188261866569519,0.8553093671798706,-1.4674899578094482
1726995772890088200,4.951088134765625,-0.5084490776062012,0.9296217560768127,-1.476426124572754
1726995772900075300,4.9610751953125,-0.5015155673027039,1.0619648694992065,-1.4565755128860474
1726995772910061000,4.97106103515625,-0.4967727065086365,1.1595853567123413,-1.410855770111084
1726995772920047000,4.981047119140625,-0.5049552917480469,1.1796149015426636,-1.323055624961853
1726995772930034200,4.9910341796875,-0.5465126633644104,1.0332752466201782,-1.2012722492218018
1726995772940020000,5.00102001953125,-0.5802024602890015,0.8113453984260559,-1.0997998714447021
1726995772950007300,5.01100732421875,-0.5994187593460083,0.5695483088493347,-1.0141910314559937
1726995772959993000,5.0209931640625,-0.5950189828872681,0.31414902210235596,-0.9446676969528198
1726995772969979100,5.030979248046875,-0.5782325267791748,0.03724834695458412,-0.8939173221588135
1726995772979966200,5.04096630859375,-0.5741006135940552,-0.21660949289798737,-0.8489589095115662
1726995772989952000,5.050951904296875,-0.5769001245498657,-0.41965994238853455,-0.7754369974136353
1726995772999938000,5.06093798828125,-0.5613539218902588,-0.5372076034545898,-0.6807512044906616
1726995773009925400,5.07092529296875,-0.5454311966896057,-0.5694301724433899,-0.5569519996643066
1726995773019911200,5.0809111328125,-0.5465294718742371,-0.5399149060249329,-0.4019901156425476
1726995773029897200,5.090897216796875,-0.508570671081543,-0.48534446954727173,-0.24953055381774902
1726995773039884300,5.10088427734375,-0.40659186244010925,-0.4500509202480316,-0.12124580144882202
1726995773049870300,5.110870361328125,-0.27447813749313354,-0.37408462166786194,-0.03070804663002491
1726995773059856100,5.120856201171875,-0.1556771695613861,-0.32002538442611694,0.03589335083961487
1726995773069843200,5.13084326171875,-0.03957192599773407,-0.23712946474552155,0.06678280234336853
1726995773079829200,5.140829345703125,0.06817743927240372,-0.15260951220989227,0.06591221690177917
1726995773089815000,5.15081494140625,0.1569087654352188,-0.07486261427402496,0.05847138538956642
1726995773099802400,5.16080224609375,0.18157336115837097,-0.0038041509687900543,0.04552549496293068
1726995773109788200,5.1707880859375,0.14472606778144836,0.014068457297980785,0.010461494326591492
1726995773119774500,5.1807744140625,0.09694788604974747,0.04993510991334915,-0.03400184214115143
1726995773129761300,5.19076123046875,0.025458313524723053,0.10070031136274338,-0.08199935406446457
1726995773139747000,5.2007470703125,-0.07780682295560837,0.1876503974199295,-0.11895205080509186
1726995773149733400,5.2107333984375,-0.2196979969739914,0.356475293636322,-0.1461888551712036
1726995773159720200,5.22072021484375,-0.3683500587940216,0.559842050075531,-0.17768312990665436
1726995773169706200,5.230706298828125,-0.5158990621566772,0.7610101103782654,-0.21280162036418915
1726995773179692300,5.2406923828125,-0.6502824425697327,0.9597396850585938,-0.2361716628074646
1726995773189679000,5.25067919921875,-0.7411345839500427,1.0650179386138916,-0.23728327453136444
1726995773199665400,5.26066552734375,-0.7928457260131836,1.0731993913650513,-0.22590598464012146
1726995773209651200,5.270651123046875,-0.8116528987884521,0.9982122182846069,-0.20321698486804962
1726995773219638300,5.28063818359375,-0.7772171497344971,0.9546170234680176,-0.16230550408363342
1726995773229624300,5.290624267578125,-0.6865516304969788,0.9069837927818298,-0.08690755814313889
1726995773239611100,5.300611083984375,-0.5671080350875854,0.8996124267578125,0.013122905977070332
1726995773249597200,5.31059716796875,-0.4721677899360657,0.9116083383560181,0.07366976141929626
1726995773259583200,5.320583251953125,-0.41174811124801636,0.862373948097229,0.04848796874284744
1726995773269570300,5.3305703125,-0.37147435545921326,0.7828150391578674,-0.10127520561218262
1726995773279556400,5.340556396484375,-0.34750616550445557,0.6982055902481079,-0.32674506306648254
1726995773289542100,5.350542236328125,-0.3154361844062805,0.5826998353004456,-0.5333195924758911
1726995773299529200,5.360529296875,-0.30108627676963806,0.44020503759384155,-0.6817032098770142
1726995773309515300,5.370515380859375,-0.2912196218967438,0.288641095161438,-0.7637956142425537
1726995773319501000,5.3805009765625,-0.26798275113105774,0.13764065504074097,-0.7758314609527588
1726995773329488400,5.39048828125,-0.21174047887325287,0.019107559695839882,-0.7481400966644287
1726995773339474200,5.40047412109375,-0.11238619685173035,-0.08818721026182175,-0.6758217215538025
1726995773349460500,5.41046044921875,0.009121548384428024,-0.1393066942691803,-0.6129271388053894
1726995773359447300,5.420447265625,0.133065328001976,-0.06399836391210556,-0.5561853051185608
1726995773369433000,5.43043310546875,0.23213399946689606,-0.10473848879337311,-0.4196816086769104
1726995773379419400,5.44041943359375,0.3015857934951782,-0.23967739939689636,-0.2741033732891083
1726995773389406200,5.45040625,0.3671846091747284,-0.36967703700065613,-0.1832735687494278
1726995773399392300,5.460392333984375,0.4258529841899872,-0.4675751030445099,-0.09132233262062073
1726995773409378300,5.47037841796875,0.4776802659034729,-0.5298606753349304,-0.008985456079244614
1726995773419365000,5.480365234375,0.5325025320053101,-0.5746289491653442,0.05946044623851776
1726995773429351400,5.490351318359375,0.5635051727294922,-0.6801179647445679,0.11570180952548981
1726995773439337200,5.500337158203125,0.5660495758056641,-0.8254786133766174,0.17689165472984314
1726995773449324300,5.51032421875,0.529859721660614,-0.9356142282485962,0.2551291286945343
1726995773459310300,5.520310302734375,0.49016690254211426,-0.9415778517723083,0.3371369242668152
1726995773469296000,5.530296142578125,0.4764631390571594,-0.8901069760322571,0.43003857135772705
1726995773479283500,5.540283447265625,0.4693666100502014,-0.7997432351112366,0.5320243239402771
1726995773489269200,5.550269287109375,0.4651748836040497,-0.7234737277030945,0.6216771006584167
1726995773499255300,5.56025537109375,0.4604938328266144,-0.6275586485862732,0.6716577410697937
1726995773509242400,5.570242431640625,0.4517715871334076,-0.5788447260856628,0.643806517124176
1726995773519228200,5.580228271484375,0.4226464629173279,-0.536087691783905,0.5865288376808167
1726995773529214200,5.590214111328125,0.37067121267318726,-0.49822133779525757,0.5137227177619934
1726995773539201300,5.600201171875,0.30643096566200256,-0.4563753604888916,0.427933007478714
1726995773549187000,5.61018701171875,0.2747820317745209,-0.39359620213508606,0.3500189781188965
1726995773559173400,5.62017333984375,0.24843299388885498,-0.3269447386264801,0.27445098757743835
1726995773569160200,5.63016015625,0.24461933970451355,-0.22111186385154724,0.20436331629753113
1726995773579146200,5.640146240234375,0.25069400668144226,-0.10076494514942169,0.13869215548038483
1726995773589133300,5.65013330078125,0.26047828793525696,0.019157705828547478,0.07927457988262177
1726995773599119000,5.660119140625,0.28969690203666687,0.10451148450374603,0.01828046701848507
1726995773609105400,5.67010546875,0.31659331917762756,0.1732916682958603,-0.0463508740067482
1726995773619092200,5.68009228515625,0.34142833948135376,0.2225785255432129,-0.1069692075252533
1726995773629078300,5.690078369140625,0.3546924293041229,0.2514515817165375,-0.17845486104488373
1726995773639064300,5.700064208984375,0.4077377915382385,0.2724202573299408,-0.2400074452161789
1726995773649051100,5.710051025390625,0.4987047016620636,0.2829638719558716,-0.27918219566345215
1726995773659037400,5.720037353515625,0.6208612322807312,0.3003907799720764,-0.3047698438167572
1726995773669023200,5.730023193359375,0.7798235416412354,0.39134281873703003,-0.3212136924266815
1726995773679010000,5.740010009765625,0.9713583588600159,0.4773205816745758,-0.32890304923057556
1726995773688996400,5.749996337890625,1.2063192129135132,0.5616750121116638,-0.3620901107788086
1726995773698982100,5.759982177734375,1.4650439023971558,0.6076992750167847,-0.383016973733902
1726995773708969500,5.769969482421875,1.6394307613372803,0.6254372596740723,-0.4218946397304535
1726995773718955300,5.779955322265625,1.718074917793274,0.5625365972518921,-0.4670453369617462
1726995773728941300,5.78994140625,1.7034450769424438,0.48940086364746094,-0.521462619304657
1726995773738928400,5.799928466796875,1.6298081874847412,0.36624670028686523,-0.5935733318328857
1726995773748914200,5.8099140625,1.5576342344284058,0.17840690910816193,-0.6854552030563354
1726995773758900200,5.819900146484375,1.4796019792556763,0.015303464606404305,-0.7476828694343567
1726995773768887300,5.82988720703125,1.4191330671310425,-0.13303308188915253,-0.7705481648445129
1726995773778873000,5.839873046875,1.3329144716262817,-0.33278241753578186,-0.7856067419052124
1726995773788859400,5.849859375,1.2593822479248047,-0.5819974541664124,-0.7641497850418091
1726995773798846200,5.85984619140625,1.1741571426391602,-0.7407974600791931,-0.7458613514900208
1726995773808832300,5.869832275390625,1.0743789672851562,-0.8301992416381836,-0.6672242879867554
1726995773818818300,5.879818359375,0.9354013800621033,-0.9551020264625549,-0.5238106846809387
1726995773828805000,5.88980517578125,0.7651152610778809,-1.1458728313446045,-0.3272727131843567
1726995773838791400,5.89979150390625,0.5742965936660767,-1.3568735122680664,-0.12393129616975784
1726995773848777200,5.909777099609375,0.37721842527389526,-1.524163842201233,0.036234050989151
1726995773858764300,5.919764404296875,0.1585952490568161,-1.6468197107315063,0.17571444809436798
1726995773868750300,5.929750244140625,-0.007712937891483307,-1.7192482948303223,0.30869588255882263
1726995773878736400,5.939736328125,-0.11772652715444565,-1.6797876358032227,0.4015003740787506
1726995773888723200,5.94972314453125,-0.140031635761261,-1.5063395500183105,0.48965951800346375
1726995773898709200,5.959709228515625,-0.09380421787500381,-1.3119982481002808,0.5993098616600037
1726995773908695300,5.9696953125,0.02183162234723568,-1.1157424449920654,0.7257014513015747
1726995773918682400,5.979682373046875,0.14947959780693054,-0.893773078918457,0.7937148809432983
1726995773928668200,5.989668212890625,0.21475093066692352,-0.7262004017829895,0.8105227947235107
1726995773938655200,5.9996552734375,0.2416456639766693,-0.5487374663352966,0.7759211659431458
1726995773948641300,6.009641357421875,0.2459602653980255,-0.3485802114009857,0.7022473216056824
1726995773958627300,6.01962744140625,0.2371196299791336,-0.15833012759685516,0.6031221151351929
1726995773968614400,6.029614501953125,0.1845942884683609,-0.019872892647981644,0.5004593729972839
1726995773978600200,6.03960009765625,0.08299628645181656,0.09430588036775589,0.3973809480667114
1726995773988586200,6.049586181640625,-0.03708904609084129,0.2086893916130066,0.2906981110572815
1726995773998573300,6.0595732421875,-0.16986705362796783,0.3220100998878479,0.20678003132343292
1726995774008559000,6.06955908203125,-0.3009227216243744,0.38369491696357727,0.1586005687713623
1726995774018545200,6.079545166015625,-0.41680485010147095,0.4042598307132721,0.14186978340148926
1726995774028532200,6.0895322265625,-0.5442773103713989,0.41669124364852905,0.13976962864398956
1726995774038518300,6.099518310546875,-0.6787922382354736,0.41653117537498474,0.18159404397010803
1726995774048504300,6.10950439453125,-0.8309388160705566,0.4468107521533966,0.23829320073127747
1726995774058491100,6.1194912109375,-1.0236324071884155,0.485561341047287,0.265967458486557
1726995774068477200,6.129477294921875,-1.239807367324829,0.4820328652858734,0.24850071966648102
1726995774078463200,6.139463134765625,-1.4342048168182373,0.44251981377601624,0.1813669502735138
1726995774088450300,6.1494501953125,-1.5973014831542969,0.38986894488334656,0.06153324618935585
1726995774098436400,6.159436279296875,-1.6916661262512207,0.3248257637023926,-0.13790902495384216
1726995774108422400,6.16942236328125,-1.694783329963684,0.2790220081806183,-0.4028119742870331
1726995774118409200,6.1794091796875,-1.6236233711242676,0.2640302777290344,-0.7197952270507812
1726995774128395300,6.189395263671875,-1.4739258289337158,0.23251892626285553,-1.0520793199539185
1726995774138381300,6.19938134765625,-1.2727280855178833,0.20156900584697723,-1.3438222408294678
1726995774148368400,6.209368408203125,-1.0579227209091187,0.24259662628173828,-1.4921289682388306
1726995774158354200,6.219354248046875,-0.8691074848175049,0.3839188516139984,-1.4739017486572266
1726995774168340200,6.22934033203125,-0.7024734020233154,0.5328254103660583,-1.351205587387085
1726995774178327300,6.239327392578125,-0.5633706450462341,0.6241915225982666,-1.1695152521133423
1726995774188313300,6.249313232421875,-0.44788604974746704,0.6520581245422363,-0.9815361499786377
1726995774198299100,6.259299072265625,-0.3503882586956024,0.6325305104255676,-0.788878858089447
1726995774208286200,6.2692861328125,-0.2835114300251007,0.5703412890434265,-0.61988365650177
1726995774218272300,6.279272216796875,-0.24651318788528442,0.4917609989643097,-0.4920133054256439
1726995774228258000,6.289258056640625,-0.22313305735588074,0.41479429602622986,-0.4245709478855133
1726995774238245400,6.299245361328125,-0.19788922369480133,0.33915653824806213,-0.3978123068809509
1726995774248231200,6.309231201171875,-0.21554769575595856,0.3464650511741638,-0.4189114272594452
1726995774258217200,6.31921728515625,-0.2121814638376236,0.2949054539203644,-0.41368523240089417
1726995774268204300,6.329204345703125,-0.1912926733493805,0.1969963163137436,-0.40633848309516907
1726995774278190000,6.339190185546875,-0.1749911904335022,0.13904139399528503,-0.4041813015937805
1726995774288176400,6.34917626953125,-0.18837124109268188,0.09457392990589142,-0.3846677243709564
1726995774298163200,6.3591630859375,-0.21400389075279236,0.07573392987251282,-0.3590284287929535
1726995774308149200,6.369149169921875,-0.21805620193481445,0.06787634640932083,-0.3294491469860077
1726995774318136300,6.37913623046875,-0.1919146031141281,0.07505889236927032,-0.3116949200630188
1726995774328122000,6.3891220703125,-0.1703014075756073,0.08301971852779388,-0.29966405034065247
1726995774338108400,6.3991083984375,-0.1746106743812561,0.08501975238323212,-0.2727237939834595
1726995774348095200,6.40909521484375,-0.1873416155576706,0.043300941586494446,-0.22027449309825897
1726995774358081300,6.419081298828125,-0.1841687113046646,-0.002565616276115179,-0.1644437313079834
1726995774368067300,6.4290673828125,-0.17501218616962433,-0.008533045649528503,-0.08848033100366592
1726995774378054100,6.43905419921875,-0.17301002144813538,0.01528227236121893,-0.0019166800193488598
1726995774388040200,6.449040283203125,-0.18195994198322296,0.06763658672571182,0.06779640913009644
1726995774398026200,6.459026123046875,-0.18813182413578033,0.11161975562572479,0.11078568547964096
1726995774408013300,6.469013427734375,-0.20527760684490204,0.1565912514925003,0.14649474620819092
1726995774417999400,6.478999267578125,-0.2451552450656891,0.21545056998729706,0.1519443690776825
1726995774427985200,6.488985107421875,-0.2904493510723114,0.26212164759635925,0.1254877895116806
1726995774437972200,6.49897216796875,-0.3238142132759094,0.30411913990974426,0.09219986945390701
1726995774447958300,6.508958251953125,-0.339959979057312,0.35856327414512634,0.05858311057090759
1726995774457944000,6.518944091796875,-0.35777387022972107,0.4139205515384674,0.03947120159864426
1726995774467931400,6.528931396484375,-0.3555932343006134,0.45436468720436096,0.017378687858581543
1726995774477917200,6.538917236328125,-0.33136728405952454,0.44276127219200134,-0.02049439027905464
1726995774487903200,6.5489033203125,-0.294167697429657,0.39160987734794617,-0.0859108492732048
1726995774497890300,6.558890380859375,-0.27447307109832764,0.34416115283966064,-0.17587216198444366
1726995774507876000,6.5688759765625,-0.26491624116897583,0.31367555260658264,-0.2896575629711151
1726995774517862400,6.5788623046875,-0.253058522939682,0.2719781696796417,-0.4038025140762329
1726995774527849200,6.58884912109375,-0.2300269454717636,0.21117804944515228,-0.5019952058792114
1726995774537835300,6.598835205078125,-0.179729163646698,0.1362939476966858,-0.5389931797981262
1726995774547821300,6.6088212890625,-0.11630365252494812,0.022201061248779297,-0.5136170387268066
1726995774557808000,6.61880810546875,-0.026574833318591118,-0.012448262423276901,-0.4321032166481018
1726995774567794400,6.62879443359375,0.08259853720664978,-0.08223141729831696,-0.34144327044487
1726995774577780200,6.6387802734375,0.18263697624206543,-0.2464778870344162,-0.24300910532474518
1726995774587767300,6.648767333984375,0.2682366371154785,-0.3709894120693207,-0.13723623752593994
1726995774597753300,6.65875341796875,0.3103441298007965,-0.4700179994106293,-0.02771853469312191
1726995774607739100,6.6687392578125,0.29752859473228455,-0.5542858242988586,0.07341957092285156
1726995774617726200,6.678726318359375,0.2929098606109619,-0.5847151279449463,0.1767590045928955
1726995774627712300,6.688712158203125,0.3038041889667511,-0.580329179763794,0.261809766292572
1726995774637698000,6.698697998046875,0.31746432185173035,-0.5877758860588074,0.3213266134262085
1726995774647685400,6.708685302734375,0.3244890570640564,-0.5967200994491577,0.35207614302635193
1726995774657671200,6.718671142578125,0.31637439131736755,-0.5696029663085938,0.37067273259162903
1726995774667657200,6.7286572265625,0.30384254455566406,-0.5259536504745483,0.36502164602279663
1726995774677644300,6.738644287109375,0.28094255924224854,-0.46475470066070557,0.3473864793777466
1726995774687630000,6.748630126953125,0.25087231397628784,-0.3787401616573334,0.3299843966960907
1726995774697616400,6.758616455078125,0.21594388782978058,-0.31847310066223145,0.3089883029460907
1726995774707603200,6.768603271484375,0.16578830778598785,-0.26459842920303345,0.27417251467704773
1726995774717589200,6.77858935546875,0.12540972232818604,-0.21852681040763855,0.2192150056362152
1726995774727575300,6.7885751953125,0.11089859157800674,-0.1922893226146698,0.16000446677207947
1726995774737562000,6.79856201171875,0.11302193254232407,-0.18821947276592255,0.110154889523983
1726995774747548400,6.80854833984375,0.13984455168247223,-0.20587922632694244,0.07254459708929062
1726995774757534200,6.8185341796875,0.16851109266281128,-0.22615520656108856,0.06614582240581512
1726995774767521000,6.82852099609375,0.1842716485261917,-0.22016285359859467,0.06569494307041168
1726995774777507300,6.83850732421875,0.20812346041202545,-0.16410383582115173,0.07030433416366577
1726995774787493000,6.8484931640625,0.26472944021224976,-0.11205413937568665,0.08384978026151657
1726995774797480400,6.85848046875,0.34491297602653503,-0.05423184856772423,0.09679380804300308
1726995774807466200,6.86846630859375,0.433748334646225,-0.012916342355310917,0.11912079155445099
1726995774817453000,6.878453125,0.5235301852226257,-0.0011321211932227015,0.11694952100515366
1726995774827439400,6.888439453125,0.6111629009246826,0.02490299381315708,0.11744125932455063
1726995774837425200,6.898425048828125,0.6921070218086243,0.055016156286001205,0.10849117487668991
1726995774847411200,6.9084111328125,0.7887784242630005,0.1292096972465515,0.10366632044315338
1726995774857398300,6.918398193359375,0.908880352973938,0.19075827300548553,0.08613313734531403
1726995774867384300,6.92838427734375,1.0767264366149902,0.24139904975891113,0.06423869729042053
1726995774877371400,6.938371337890625,1.2841813564300537,0.36333534121513367,0.05905432254076004
1726995774887357200,6.948357177734375,1.5508532524108887,0.4601753056049347,0.029995499178767204
1726995774897343200,6.95834326171875,1.786268711090088,0.48758429288864136,-0.031317926943302155
1726995774907330300,6.968330322265625,1.9185696840286255,0.40393102169036865,-0.14281855523586273
1726995774917316000,6.978316162109375,1.9750494956970215,0.15896601974964142,-0.25347286462783813
1726995774927302400,6.988302490234375,1.9398703575134277,-0.052933525294065475,-0.3701227605342865
1726995774937289200,6.998289306640625,1.8232308626174927,-0.298869788646698,-0.47196418046951294
1726995774947275300,7.008275146484375,1.649489164352417,-0.5631759762763977,-0.5478368997573853
1726995774957261300,7.01826123046875,1.4390027523040771,-0.8071247339248657,-0.5587974190711975
1726995774967248100,7.028248046875,1.1957050561904907,-1.0456475019454956,-0.5236433744430542
1726995774977234400,7.038234375,0.9360060691833496,-1.3138731718063354,-0.426348477602005
1726995774987220200,7.04822021484375,0.6820454597473145,-1.579720139503479,-0.2528455853462219
1726995774997207000,7.05820703125,0.41603508591651917,-1.771454930305481,-0.019677840173244476
1726995775007193300,7.068193359375,0.17678062617778778,-1.8623616695404053,0.3175346851348877
1726995775017179100,7.07817919921875,-0.0014615498948842287,-1.7968262434005737,0.7015628218650818
1726995775027166200,7.088166259765625,-0.10816382616758347,-1.5037027597427368,1.026240587234497
1726995775037152000,7.098152099609375,-0.1226077452301979,-1.2482411861419678,1.2544574737548828
1726995775047138300,7.10813818359375,-0.07564539462327957,-1.10818612575531,1.3554095029830933
1726995775057125000,7.118125,-0.03721943870186806,-1.0081809759140015,1.387274980545044
1726995775067111000,7.12811083984375,-0.021144133061170578,-0.8286468982696533,1.3949145078659058
1726995775077097200,7.13809716796875,-0.02361821010708809,-0.5407264232635498,1.4341961145401
1726995775087084000,7.148083984375,-0.053872350603342056,-0.11877790093421936,1.5796910524368286
1726995775097070300,7.1580703125,-0.09438062459230423,0.14271068572998047,1.6650797128677368
1726995775107056000,7.16805615234375,-0.16766275465488434,0.32938581705093384,1.7030885219573975
1726995775117043000,7.17804296875,-0.28116878867149353,0.4951830208301544,1.6861718893051147
1726995775127029200,7.188029296875,-0.4382893443107605,0.6633201241493225,1.6164672374725342
1726995775137015000,7.19801513671875,-0.6233625411987305,0.7758826017379761,1.472057819366455
1726995775147002000,7.208002197265625,-0.8259367942810059,0.7787208557128906,1.2235726118087769
1726995775156988200,7.21798828125,-1.0300443172454834,0.7067292332649231,0.8514470458030701
1726995775166974000,7.227973876953125,-1.2056105136871338,0.5609303116798401,0.39637473225593567
1726995775176961300,7.237961181640625,-1.344803810119629,0.4101884365081787,-0.09015495330095291
1726995775186947000,7.247947021484375,-1.3993103504180908,0.34714388847351074,-0.5240333080291748
1726995775196933000,7.25793310546875,-1.3991788625717163,0.38357114791870117,-0.8665781021118164
1726995775206920200,7.267920166015625,-1.3323887586593628,0.48480042815208435,-1.119918942451477
1726995775216906000,7.277906005859375,-1.1979156732559204,0.6193464994430542,-1.2833776473999023
1726995775226892300,7.287892333984375,-1.015152096748352,0.8123579025268555,-1.3398562669754028
1726995775236879000,7.297879150390625,-0.8368313312530518,0.9910917282104492,-1.307130217552185
1726995775246865200,7.307865234375,-0.726974368095398,1.0667483806610107,-1.2134878635406494
1726995775256851200,7.317851318359375,-0.6769742965698242,1.0840208530426025,-1.086126685142517
1726995775266838000,7.327838134765625,-0.6524733901023865,1.0764156579971313,-0.9495319724082947
1726995775276824300,7.33782421875,-0.6354784369468689,1.0466034412384033,-0.8227617740631104
1726995775286810000,7.34781005859375,-0.6228947639465332,0.9706894755363464,-0.7299467921257019
1726995775296797000,7.357796875,-0.6052907705307007,0.8969441652297974,-0.6736459732055664
1726995775306783200,7.367783203125,-0.5861899256706238,0.7945484519004822,-0.6375241279602051
1726995775316769000,7.37776904296875,-0.5716168880462646,0.7108631134033203,-0.600307285785675
1726995775326756400,7.38775634765625,-0.572769045829773,0.619618833065033,-0.5937050580978394
1726995775336742100,7.3977421875,-0.5928002595901489,0.5077407360076904,-0.6009946465492249
1726995775346728200,7.407728271484375,-0.5961774587631226,0.39868664741516113,-0.6349450349807739
1726995775356715300,7.41771533203125,-0.6039432287216187,0.3539508581161499,-0.6917332410812378
1726995775366701000,7.427701171875,-0.6346160769462585,0.30095356702804565,-0.6804629564285278
1726995775376687000,7.43768701171875,-0.6366264820098877,0.18228177726268768,-0.6057285070419312
1726995775386674200,7.447674072265625,-0.5802775621414185,0.13321538269519806,-0.5501551628112793
1726995775396660000,7.457659912109375,-0.4726791977882385,0.1325993835926056,-0.495481014251709
1726995775406647300,7.467647216796875,-0.3767581880092621,0.1789090633392334,-0.4208289086818695
1726995775416633000,7.477633056640625,-0.3204538822174072,0.2285061776638031,-0.32351380586624146
1726995775426619100,7.487619140625,-0.30444884300231934,0.22616106271743774,-0.267708420753479
1726995775436606200,7.497606201171875,-0.2984287738800049,0.1890041083097458,-0.22894294559955597
1726995775446592000,7.507592041015625,-0.32008108496665955,0.1139504462480545,-0.21309056878089905
1726995775456578000,7.517578125,-0.30274391174316406,0.0394919253885746,-0.22250591218471527
1726995775466565000,7.527565185546875,-0.26005956530570984,-0.06253164261579514,-0.2393847554922104
1726995775476551200,7.53755126953125,-0.22913092374801636,-0.028110818937420845,-0.18196140229701996
1726995775486537200,7.547537109375,-0.2216310203075409,0.09679575264453888,-0.09822259098291397
1726995775496524000,7.55752392578125,-0.21939370036125183,0.2611149251461029,0.006345094181597233
1726995775506510000,7.567510009765625,-0.22585529088974,0.38008633255958557,0.10777940601110458
1726995775516496100,7.57749609375,-0.2436060607433319,0.46109676361083984,0.17687033116817474
1726995775526483000,7.58748291015625,-0.2607074975967407,0.48188355565071106,0.2245388925075531
1726995775536469200,7.59746923828125,-0.2545659840106964,0.4472968280315399,0.22764919698238373
1726995775546455000,7.607455078125,-0.2083946168422699,0.36215338110923767,0.1844722032546997
1726995775556442000,7.617442138671875,-0.1629168838262558,0.25623786449432373,0.08373761177062988
1726995775566428200,7.62742822265625,-0.13046139478683472,0.11557894200086594,-0.038699161261320114
1726995775576414200,7.637414306640625,-0.13285398483276367,-0.03147362172603607,-0.1741698980331421
1726995775586401300,7.6474013671875,-0.13457143306732178,-0.15756729245185852,-0.2514508366584778
1726995775596387000,7.657386962890625,-0.10479302704334259,-0.23782937228679657,-0.27954480051994324
1726995775606373000,7.667373046875,-0.05012524873018265,-0.2674686312675476,-0.2560657262802124
1726995775616360200,7.677360107421875,0.0355108268558979,-0.26506271958351135,-0.19594727456569672
1726995775626346000,7.687345947265625,0.12850235402584076,-0.32982128858566284,-0.11367136985063553
1726995775636332000,7.69733203125,0.2268395721912384,-0.36480242013931274,-0.012273911386728287
1726995775646319000,7.707319091796875,0.27902817726135254,-0.3474535644054413,0.09860225766897202
1726995775656305200,7.71730517578125,0.28424185514450073,-0.3388350307941437,0.19885562360286713
1726995775666291200,7.727291259765625,0.2763822078704834,-0.3455514907836914,0.2641432583332062
1726995775676278000,7.737278076171875,0.2822425067424774,-0.346293181180954,0.31234434247016907
1726995775686264000,7.74726416015625,0.2962685227394104,-0.38181376457214355,0.35095784068107605
1726995775696250000,7.75725,0.3159130811691284,-0.4314894378185272,0.36448565125465393
1726995775706237200,7.7672373046875,0.33834585547447205,-0.48402565717697144,0.38744595646858215
1726995775716223200,7.77722314453125,0.3573373854160309,-0.5216268301010132,0.418766587972641
1726995775726209300,7.787209228515625,0.36377114057540894,-0.5319684743881226,0.4532209038734436
1726995775736196000,7.797196044921875,0.3385411500930786,-0.49104127287864685,0.47139060497283936
1726995775746182100,7.80718212890625,0.3093191385269165,-0.4151060879230499,0.4685368835926056
1726995775756168200,7.817168212890625,0.2905435860157013,-0.3524320423603058,0.4356154203414917
1726995775766155300,7.8271552734375,0.2927543818950653,-0.34823891520500183,0.34447914361953735
1726995775776141000,7.83714111328125,0.2969920039176941,-0.35823455452919006,0.23072966933250427
1726995775786127000,7.847127197265625,0.29485511779785156,-0.35375651717185974,0.11507800966501236
1726995775796114200,7.8571142578125,0.2852458953857422,-0.31990107893943787,0.01044374331831932
1726995775806100200,7.867100341796875,0.2549039125442505,-0.2640354633331299,-0.0644342452287674
1726995775816086000,7.8770859375,0.213186576962471,-0.17781296372413635,-0.1118536964058876
1726995775826073000,7.887072998046875,0.19119858741760254,-0.054256659001111984,-0.14439347386360168
1726995775836059100,7.89705908203125,0.20323128998279572,0.06195702776312828,-0.16048695147037506
1726995775846045000,7.907044921875,0.2514583468437195,0.2002323567867279,-0.1615019291639328
1726995775856032300,7.9170322265625,0.34496140480041504,0.3243814706802368,-0.1540330946445465
1726995775866018000,7.92701806640625,0.4724820554256439,0.46137410402297974,-0.13927456736564636
1726995775876004000,7.937004150390625,0.6084555983543396,0.6473215818405151,-0.09570978581905365
1726995775885991200,7.9469912109375,0.761146068572998,0.824251651763916,-0.037711020559072495
1726995775895977000,7.95697705078125,0.9373735785484314,0.917413592338562,0.0057325903326272964
1726995775905963300,7.96696337890625,1.1716495752334595,0.9803692102432251,0.04226367175579071
1726995775915950000,7.9769501953125,1.3872060775756836,1.061046838760376,0.0719270333647728
1726995775925936000,7.98693603515625,1.6032429933547974,0.9948095679283142,0.061090756207704544
1726995775935922200,7.996922119140625,1.8084856271743774,0.8573222756385803,0.03628261014819145
1726995775945909000,8.006908935546875,1.9532034397125244,0.6524331569671631,0.005400515161454678
1726995775955895300,8.016895263671875,2.027036190032959,0.3718760311603546,-0.05200685188174248
1726995775965881000,8.026881103515626,2.0302670001983643,0.021013129502534866,-0.1283518373966217
1726995775975868200,8.0368681640625,1.925501823425293,-0.40104544162750244,-0.18419860303401947
1726995775985854200,8.046854248046875,1.7483686208724976,-0.7743172645568848,-0.1895529329776764
1726995775995840000,8.056840087890626,1.5202507972717285,-1.120823860168457,-0.1230977475643158
1726995776005827000,8.0668271484375,1.2462780475616455,-1.475849986076355,-0.005276225041598082
1726995776015813400,8.0768134765625,0.9396300315856934,-1.7720773220062256,0.13247418403625488
1726995776025800200,8.08680029296875,0.6465485692024231,-1.987149953842163,0.31497251987457275
1726995776035786200,8.0967861328125,0.37403368949890137,-2.182760000228882,0.5633583664894104
1726995776045772300,8.106772216796875,0.15403516590595245,-2.3063161373138428,0.8817654252052307
1726995776055759000,8.116759033203126,0.014165673404932022,-2.2973315715789795,1.2239818572998047
1726995776065745400,8.126745361328124,-0.054876819252967834,-2.056354284286499,1.5724023580551147
1726995776075731200,8.136731201171875,-0.07761568576097488,-1.698981761932373,1.802467703819275
1726995776085718300,8.14671826171875,0.0074008675292134285,-1.3404237031936646,1.899570345878601
1726995776095704300,8.156704345703124,0.09202680736780167,-1.0355639457702637,1.9615495204925537
1726995776105690400,8.1666904296875,0.0425330325961113,-0.7469735145568848,2.0470378398895264
1726995776115677400,8.176677490234376,-0.05939359962940216,-0.5391753315925598,2.130432605743408
1726995776125663200,8.186663330078124,-0.1815173476934433,-0.3080529272556305,2.163414716720581
1726995776135649300,8.196649169921875,-0.30054253339767456,-0.01343458890914917,2.1677613258361816
1726995776145636400,8.20663623046875,-0.40542253851890564,0.3115583658218384,2.07662296295166
1726995776155622100,8.2166220703125,-0.5150178074836731,0.6027438640594482,1.8424535989761353
1726995776165608200,8.226608154296875,-0.6639323830604553,0.7872722744941711,1.4646446704864502
1726995776175595300,8.23659521484375,-0.866441547870636,0.8393914103507996,0.9468085169792175
1726995776185581300,8.246581298828126,-1.1018837690353394,0.8009960055351257,0.3343840539455414
1726995776195567400,8.2565673828125,-1.278908371925354,0.6824408769607544,-0.2801326513290405
1726995776205554200,8.26655419921875,-1.375846028327942,0.5109236240386963,-0.8311364650726318
1726995776215540200,8.276540283203126,-1.4056686162948608,0.47724291682243347,-1.2521238327026367
1726995776225526300,8.2865263671875,-1.391237735748291,0.538378894329071,-1.4989427328109741
1726995776235513000,8.29651318359375,-1.3416041135787964,0.5959734916687012,-1.6031508445739746
1726995776245499100,8.3064990234375,-1.2500896453857422,0.703856348991394,-1.618029236793518
1726995776255485200,8.316485107421874,-1.15627121925354,0.8538093566894531,-1.5762101411819458
1726995776265472300,8.32647216796875,-1.1162748336791992,0.9762886762619019,-1.510968565940857
1726995776275458300,8.336458251953125,-1.1181381940841675,1.1005635261535645,-1.4522913694381714
1726995776285444400,8.3464443359375,-1.1272861957550049,1.2244069576263428,-1.40397047996521
1726995776295431200,8.35643115234375,-1.1236557960510254,1.3371782302856445,-1.3920872211456299
1726995776305417200,8.366417236328125,-1.1137129068374634,1.4162168502807617,-1.408616304397583
1726995776315403300,8.3764033203125,-1.0796281099319458,1.4498488903045654,-1.4304611682891846
1726995776325390300,8.386390380859375,-1.065560221672058,1.39508855342865,-1.4364432096481323
1726995776335376400,8.39637646484375,-1.0468502044677734,1.291076421737671,-1.4189398288726807
1726995776345362200,8.406362060546876,-1.0416723489761353,1.092371940612793,-1.3829128742218018
1726995776355349200,8.416349365234375,-1.0328601598739624,0.8610984086990356,-1.325210452079773
1726995776365335300,8.426335205078125,-1.0062212944030762,0.6166989803314209,-1.24831223487854
1726995776375321000,8.436321044921876,-0.950423002243042,0.4173395037651062,-1.1522959470748901
1726995776385308200,8.44630810546875,-0.885790228843689,0.22649265825748444,-1.0286198854446411
1726995776395294200,8.456294189453125,-0.7854804396629333,0.136733740568161,-0.9458091259002686
1726995776405280300,8.4662802734375,-0.7203065156936646,0.43703320622444153,-0.9707662463188171
1726995776415267300,8.476267333984374,-0.6961380243301392,0.4395909011363983,-0.8364928960800171
1726995776425253000,8.486253173828125,-0.6614130735397339,0.3265395164489746,-0.6614298224449158
1726995776435239400,8.496239501953125,-0.5884802937507629,0.2551287114620209,-0.575413703918457
1726995776445226200,8.506226318359374,-0.5049365758895874,0.16791194677352905,-0.522746741771698
1726995776455212300,8.51621240234375,-0.4439874589443207,0.04964469373226166,-0.4659242033958435
1726995776465198300,8.5261982421875,-0.4093729555606842,-0.10821697860956192,-0.43314892053604126
1726995776475185200,8.53618505859375,-0.36057665944099426,-0.18100036680698395,-0.3963538706302643
1726995776485171200,8.546171142578125,-0.29498717188835144,-0.17826436460018158,-0.33702024817466736
1726995776495157200,8.5561572265625,-0.2271234393119812,-0.17684943974018097,-0.2858446538448334
1726995776505144300,8.566144287109376,-0.15950851142406464,-0.09387939423322678,-0.2224123626947403
1726995776515130400,8.57613037109375,-0.1187104806303978,-0.09851115942001343,-0.16217245161533356
1726995776525116200,8.5861162109375,-0.09220658242702484,-0.12586821615695953,-0.1462894231081009
1726995776535103200,8.596103271484376,-0.05294759199023247,-0.16364222764968872,-0.09368665516376495
1726995776545089300,8.60608935546875,-0.029247891157865524,-0.1550913006067276,-0.015822850167751312
1726995776555075000,8.616074951171875,-0.014307024888694286,-0.12968102097511292,0.0405256450176239
1726995776565062400,8.6260625,-0.010757571086287498,-0.10023222863674164,0.10435992479324341
1726995776575048200,8.636048095703124,-0.001195225864648819,-0.09656905382871628,0.16274094581604004
1726995776585034500,8.646034423828125,0.04423157870769501,-0.1351930946111679,0.20642004907131195
1726995776595021300,8.656021240234375,0.10790669918060303,-0.2090686559677124,0.23022684454917908
1726995776605007000,8.666007080078124,0.1854933351278305,-0.2741389274597168,0.251036673784256
1726995776614993400,8.675993408203125,0.2095739096403122,-0.4074104428291321,0.2798275947570801
1726995776624980200,8.685980224609375,0.24077759683132172,-0.5109659433364868,0.31366419792175293
1726995776634966000,8.695966064453126,0.2635553181171417,-0.5858607292175293,0.3361380994319916
1726995776644953300,8.705953369140625,0.25854331254959106,-0.6491169929504395,0.356408029794693
1726995776654939100,8.715939208984375,0.2452264428138733,-0.6941781640052795,0.3782515525817871
1726995776664925400,8.725925537109376,0.23252548277378082,-0.7260531783103943,0.375165730714798
1726995776674912300,8.735912353515625,0.2342192530632019,-0.7183459401130676,0.34778550267219543
1726995776684898000,8.74589794921875,0.23857076466083527,-0.6569018959999084,0.3117506802082062
1726995776694884400,8.75588427734375,0.2269814908504486,-0.5734748840332031,0.2715100347995758
1726995776704870100,8.7658701171875,0.20217308402061462,-0.4843067526817322,0.23774150013923645
1726995776714857200,8.775857177734375,0.16658179461956024,-0.4094724655151367,0.21678295731544495
1726995776724843300,8.78584326171875,0.12461314350366592,-0.35213494300842285,0.19460447132587433
1726995776734830000,8.795830078125,0.0804816335439682,-0.3104918897151947,0.14925962686538696
1726995776744816400,8.80581640625,0.0604279488325119,-0.2735973298549652,0.09025982767343521
1726995776754802200,8.81580224609375,0.09167508035898209,-0.23678259551525116,0.03568659722805023
1726995776764789200,8.825789306640624,0.15500789880752563,-0.19947662949562073,-0.008890216238796711
1726995776774775300,8.835775390625,0.20226383209228516,-0.1756187081336975,-0.03860017657279968
1726995776784761000,8.845760986328125,0.22523489594459534,-0.14659883081912994,-0.04248307645320892
1726995776794748400,8.85574853515625,0.23068425059318542,-0.10965172201395035,-0.02845754288136959
1726995776804734200,8.865734130859375,0.2323259562253952,-0.06334270536899567,-0.018153106793761253
1726995776814720300,8.87572021484375,0.26539599895477295,-0.020973684266209602,-0.021286049857735634
1726995776824707300,8.885707275390626,0.32674410939216614,0.004795542452484369,-0.03785151243209839
1726995776834693000,8.895693115234375,0.3863145112991333,0.03296646103262901,-0.03258431330323219
1726995776844679400,8.905679443359375,0.4542270600795746,0.15350207686424255,0.027467332780361176
1726995776854666200,8.915666259765626,0.5646083950996399,0.282355934381485,0.11344482749700546
1726995776864652000,8.925652099609374,0.7226269245147705,0.48738548159599304,0.226160928606987
1726995776874638300,8.935638427734375,0.9169809222221375,0.6031495928764343,0.3078073263168335
1726995776884625200,8.945625244140626,1.1195791959762573,0.6609230041503906,0.35575905442237854
1726995776894611500,8.955611572265624,1.289243221282959,0.7294602990150452,0.38356325030326843
1726995776904597200,8.96559716796875,1.4081392288208008,0.7170562148094177,0.4012480676174164
1726995776914584000,8.975583984375,1.5090365409851074,0.5996236205101013,0.36625760793685913
1726995776924570400,8.9855703125,1.6042579412460327,0.4593467116355896,0.3101019263267517
1726995776934556200,8.99555615234375,1.689666748046875,0.27891647815704346,0.22885793447494507
1726995776944543500,9.00554345703125,1.7639364004135132,0.07514075934886932,0.1385279893875122
1726995776954529300,9.015529296875,1.8093153238296509,-0.11610642820596695,0.05283811315894127
1726995776964515300,9.025515380859375,1.8035526275634766,-0.3698091506958008,-0.02178480103611946
1726995776974502400,9.03550244140625,1.750022292137146,-0.6462700366973877,-0.052376799285411835
1726995776984488200,9.04548828125,1.6385109424591064,-0.8920089602470398,-0.030660642310976982
1726995776994474200,9.05547412109375,1.4636101722717285,-1.1346479654312134,0.04602082073688507
1726995777004461300,9.06546142578125,1.2376794815063477,-1.3855063915252686,0.1930927038192749
1726995777014447400,9.075447265625,0.97874516248703,-1.6471762657165527,0.38222694396972656
1726995777024433400,9.085433349609374,0.7118443846702576,-1.8839322328567505,0.6289551854133606
1726995777034420500,9.09542041015625,0.4402397871017456,-2.117710590362549,0.9066352844238281
1726995777044406500,9.105406494140626,0.19954383373260498,-2.204805612564087,1.2171791791915894
1726995777054392300,9.115392333984374,0.02907409518957138,-2.0891966819763184,1.5337579250335693
1726995777064379400,9.12537939453125,-0.04918763414025307,-1.8199222087860107,1.8004281520843506
1726995777074365400,9.135365478515626,-0.06368587911128998,-1.4796003103256226,1.9909923076629639
1726995777084351200,9.145351318359374,-0.09616301953792572,-1.1648019552230835,2.1343822479248047
1726995777094338300,9.15533837890625,-0.1854122132062912,-0.8710982799530029,2.2817516326904297
1726995777104324400,9.165324462890625,-0.214772567152977,-0.47346311807632446,2.348362445831299
1726995777114310400,9.175310302734376,-0.2604657709598541,-0.13839325308799744,2.3780159950256348
1726995777124297500,9.18529736328125,-0.35280662775039673,0.16139309108257294,2.281062364578247
1726995777134283300,9.195283203125,-0.520670473575592,0.40199586749076843,2.0065977573394775
1726995777144269600,9.20526953125,-0.7383700609207153,0.5567375421524048,1.4968845844268799
1726995777154256400,9.21525634765625,-0.9663486480712891,0.6876894235610962,0.8033508062362671
1726995777164242400,9.225242431640625,-1.1599522829055786,0.72867751121521,0.011052461341023445
1726995777174228500,9.235228515625,-1.2892204523086548,0.7032813429832458,-0.6767112612724304
1726995777184215300,9.24521533203125,-1.3645784854888916,0.7075275182723999,-1.163487195968628
1726995777194201300,9.255201416015625,-1.3740936517715454,0.785291850566864,-1.4826465845108032
1726995777204187400,9.2651875,-1.3292533159255981,0.9213659763336182,-1.6743953227996826
1726995777214174500,9.275174560546875,-1.292338490486145,1.102656602859497,-1.7346651554107666
1726995777224160500,9.285160400390625,-1.283538818359375,1.160104513168335,-1.6464263200759888
1726995777234146300,9.295146240234375,-1.294147253036499,1.1956909894943237,-1.5236729383468628
1726995777244133400,9.30513330078125,-1.2811028957366943,1.1363706588745117,-1.4478850364685059
1726995777254119400,9.315119384765625,-1.2513973712921143,1.0745429992675781,-1.4156477451324463
1726995777264105200,9.325105224609375,-1.2287524938583374,1.0361393690109253,-1.412312626838684
1726995777274092500,9.335092529296874,-1.2125812768936157,1.000511646270752,-1.426434874534607
1726995777284078300,9.345078369140625,-1.1680275201797485,0.976506233215332,-1.4336357116699219
1726995777294064600,9.355064697265625,-1.1199915409088135,0.9735032916069031,-1.4310190677642822
1726995777304051500,9.365051513671874,-1.0815236568450928,0.9426484704017639,-1.38295316696167
1726995777314037200,9.375037353515625,-1.0322884321212769,0.9143020510673523,-1.2992146015167236
1726995777324023600,9.3850234375,-0.961800754070282,0.873684287071228,-1.1902191638946533
1726995777334010400,9.39501025390625,-0.8887315988540649,0.8158148527145386,-1.074277639389038
1726995777343996400,9.404996337890625,-0.8142933249473572,0.7499691247940063,-0.9575098156929016
1726995777353983500,9.4149833984375,-0.7322469353675842,0.60758376121521,-0.8527354598045349
1726995777363969300,9.42496923828125,-0.636707067489624,0.47833511233329773,-0.7555608153343201
1726995777373955600,9.43495556640625,-0.5422987937927246,0.3157126307487488,-0.6565577983856201
1726995777383941400,9.44494140625,-0.43916112184524536,0.18146362900733948,-0.5491870045661926
1726995777393928400,9.454928466796876,-0.33620622754096985,0.09370262175798416,-0.42187002301216125
1726995777403914500,9.46491455078125,-0.23235832154750824,-0.018906695768237114,-0.3226224482059479
1726995777413901300,9.4749013671875,-0.13077177107334137,-0.10078930854797363,-0.24027563631534576
1726995777423887600,9.4848876953125,-0.047397807240486145,-0.16732583940029144,-0.16652116179466248
1726995777433873400,9.494873291015624,0.014990735799074173,-0.2263939529657364,-0.10153418034315109
1726995777443860500,9.504860595703125,0.06678568571805954,-0.24874094128608704,-0.05464845895767212
1726995777453846500,9.514846435546875,0.08922814577817917,-0.21028222143650055,-0.017143426463007927
1726995777463832300,9.524832275390626,0.057104069739580154,-0.0768342837691307,-0.0006596003659069538
1726995777473819400,9.5348193359375,-0.006378768943250179,0.13163556158542633,-0.014597786590456963
1726995777483805400,9.544805419921875,-0.06349674612283707,0.13644906878471375,0.0014703611377626657
1726995777493791200,9.554791259765626,-0.09855140000581741,0.15280699729919434,-0.038947101682424545
1726995777503778600,9.564778564453125,-0.11325898766517639,0.14856892824172974,-0.08910543471574783
1726995777513764400,9.574764404296875,-0.13774621486663818,0.14429615437984467,-0.12492121756076813
1726995777523750400,9.58475048828125,-0.1601940393447876,0.10504529625177383,-0.15236954391002655
1726995777533737500,9.594737548828125,-0.16303351521492004,0.07428152114152908,-0.1768176257610321
1726995777543723300,9.60472314453125,-0.12872831523418427,0.04835633561015129,-0.20584450662136078
1726995777553709600,9.61470947265625,-0.09151437133550644,0.04111679643392563,-0.21151810884475708
1726995777563696400,9.6246962890625,-0.07156721502542496,0.04072190821170807,-0.20545104146003723
1726995777573682400,9.634682373046875,-0.024177057668566704,0.06082398071885109,-0.1831105798482895
1726995777583668500,9.64466845703125,0.04664510861039162,-0.040213823318481445,-0.16011448204517365
1726995777593655300,9.6546552734375,0.12607787549495697,-0.1373366415500641,-0.13484559953212738
1726995777603641600,9.6646416015625,0.159224271774292,-0.24623489379882812,-0.07585334777832031
1726995777613627400,9.67462744140625,0.13917653262615204,-0.37185779213905334,-0.009613072499632835
1726995777623614200,9.6846142578125,0.13213381171226501,-0.4728924334049225,0.0516589879989624
1726995777633600500,9.6946005859375,0.1462184637784958,-0.5339368581771851,0.07750203460454941
1726995777643586300,9.70458642578125,0.17144227027893066,-0.5454491972923279,0.08210014551877975
1726995777653573600,9.71457373046875,0.18108877539634705,-0.5327248573303223,0.07621748745441437
1726995777663559400,9.724559326171875,0.18472108244895935,-0.5103178024291992,0.08124182373285294
1726995777673545500,9.73454541015625,0.1866806447505951,-0.46841320395469666,0.07985325157642365
1726995777683532500,9.744532470703126,0.19134537875652313,-0.44111236929893494,0.07511989772319794
1726995777693518300,9.754518310546874,0.1741136610507965,-0.40377724170684814,0.06324832141399384
1726995777703504400,9.76450439453125,0.14708735048770905,-0.3516271412372589,0.06389458477497101
1726995777713491500,9.774491455078126,0.12530909478664398,-0.23611493408679962,0.07035008817911148
1726995777723477200,9.784477294921874,0.12494273483753204,-0.09123546630144119,0.07681688666343689
1726995777733463600,9.794463623046875,0.1495564579963684,0.03119085356593132,0.07840226590633392
1726995777743450400,9.804450439453126,0.17942845821380615,0.1322573721408844,0.06878918409347534
1726995777753436400,9.8144365234375,0.17091992497444153,0.198000967502594,0.07285130023956299
1726995777763422500,9.82442236328125,0.13532985746860504,0.1979953795671463,0.05184381082653999
1726995777773409300,9.8344091796875,0.11189911514520645,0.17513906955718994,0.028264980763196945
1726995777783395600,9.8443955078125,0.15580275654792786,0.1480049043893814,0.01310754381120205
1726995777793381400,9.85438134765625,0.2624106705188751,0.11333533376455307,0.01064571738243103
1726995777803368400,9.864368408203125,0.39506620168685913,0.08229770511388779,0.006296600215137005
1726995777813354500,9.8743544921875,0.5394135117530823,0.08287561684846878,0.017625421285629272
1726995777823340300,9.88434033203125,0.6875462532043457,0.1338312029838562,0.05059242621064186
1726995777833327600,9.89432763671875,0.8181450366973877,0.22580720484256744,0.08685455471277237
1726995777843313400,9.9043134765625,0.9305394291877747,0.2956628203392029,0.11854907125234604
1726995777853299500,9.914299560546874,1.0391560792922974,0.35056760907173157,0.12602269649505615
1726995777863286500,9.92428662109375,1.194352626800537,0.4208848178386688,0.11487185955047607
1726995777873272300,9.934272216796876,1.4054979085922241,0.4835631251335144,0.08704821765422821
1726995777883258400,9.94425830078125,1.6212648153305054,0.4198274314403534,0.01716882735490799
1726995777893245400,9.954245361328125,1.796444296836853,0.25106319785118103,-0.05437672883272171
1726995777903231500,9.9642314453125,1.869872808456421,0.03721189126372337,-0.09510950744152069
1726995777913217300,9.97421728515625,1.8540501594543457,-0.13603685796260834,-0.09305967390537262
1726995777923204400,9.984204345703125,1.7573436498641968,-0.327709436416626,-0.10244568437337875
1726995777933190400,9.9941904296875,1.6242727041244507,-0.5919046401977539,-0.11891920119524002
1726995777943176400,10.004176513671876,1.458838701248169,-0.8839339017868042,-0.10698346793651581
1726995777953163300,10.014163330078125,1.2460377216339111,-1.1599527597427368,-0.05631363391876221
1726995777963149300,10.0241494140625,1.0249675512313843,-1.396333932876587,0.047609440982341766
1726995777973135400,10.03413525390625,0.7982478141784668,-1.6691542863845825,0.2242654412984848
1726995777983122400,10.044122314453125,0.5778430700302124,-1.9033725261688232,0.4838344156742096
1726995777993108500,10.0541083984375,0.37732377648353577,-2.1068615913391113,0.7849817276000977
1726995778003094500,10.064094482421876,0.20350901782512665,-2.1065430641174316,1.1456118822097778
1726995778013081300,10.074081298828125,0.11365103721618652,-1.9026864767074585,1.4710732698440552
1726995778023067400,10.0840673828125,0.07679671794176102,-1.6754027605056763,1.7783501148223877
1726995778033053400,10.094053466796876,0.11156295239925385,-1.2929608821868896,1.8469480276107788
1726995778043040500,10.10404052734375,0.10985232144594193,-0.9604471325874329,1.8610557317733765
1726995778053026600,10.114026611328125,0.024980036541819572,-0.7242556214332581,1.9056892395019531
1726995778063012400,10.124012451171875,-0.10918030142784119,-0.4451380670070648,1.9282714128494263
1726995778072999400,10.13399951171875,-0.2304486632347107,-0.14282932877540588,1.9277420043945312
1726995778082985500,10.1439853515625,-0.3837486207485199,0.13238056004047394,1.8519986867904663
1726995778092971300,10.15397119140625,-0.5337176322937012,0.3773050904273987,1.6391535997390747
1726995778102958300,10.163958251953124,-0.6816543340682983,0.563970685005188,1.2675328254699707
1726995778112944400,10.1739443359375,-0.8849683403968811,0.6786775588989258,0.784538745880127
1726995778122930400,10.183930419921875,-1.137160301208496,0.7054324746131897,0.2557809054851532
1726995778132917500,10.19391748046875,-1.3900517225265503,0.7108424305915833,-0.32135194540023804
1726995778142903300,10.2039033203125,-1.5921798944473267,0.6449827551841736,-0.782452404499054
1726995778152890400,10.213890380859375,-1.6772149801254272,0.6641072034835815,-1.1380019187927246
1726995778162876400,10.22387646484375,-1.6233495473861694,0.7341981530189514,-1.3962680101394653
1726995778172862500,10.233862548828125,-1.5094072818756104,0.8175809383392334,-1.508772611618042
1726995778182849300,10.243849365234375,-1.3990458250045776,0.8902039527893066,-1.4996460676193237
1726995778192835300,10.25383544921875,-1.2844151258468628,0.969364583492279,-1.409733772277832
1726995778202821400,10.2638212890625,-1.1998802423477173,1.0377305746078491,-1.2960333824157715
1726995778212808400,10.273808349609375,-1.1442694664001465,1.0732749700546265,-1.1901493072509766
1726995778222794500,10.28379443359375,-1.0864758491516113,1.0997880697250366,-1.1040676832199097
1726995778232780500,10.293780517578124,-1.0170620679855347,1.1115689277648926,-1.0394707918167114
1726995778242767400,10.303767333984375,-0.9328161478042603,1.1035748720169067,-0.9939025044441223
1726995778252753400,10.31375341796875,-0.8373793959617615,1.0418635606765747,-0.9528570771217346
1726995778262739500,10.323739501953124,-0.7571083903312683,0.9580377340316772,-0.9061729311943054
1726995778272726500,10.3337265625,-0.6981867551803589,0.8310174942016602,-0.8535592555999756
1726995778282712600,10.343712646484375,-0.6775848269462585,0.6796886324882507,-0.8048099279403687
1726995778292698400,10.353698486328126,-0.6938687562942505,0.5056343078613281,-0.7469199895858765
1726995778302685400,10.363685546875,-0.7039281129837036,0.3415241539478302,-0.6961905360221863
1726995778312671500,10.37367138671875,-0.6514400839805603,0.20847581326961517,-0.6399714946746826
1726995778322657300,10.3836572265625,-0.560966968536377,0.13724417984485626,-0.5725613832473755
1726995778332644400,10.393644287109375,-0.48791569471359253,0.09639768302440643,-0.49982380867004395
1726995778342630400,10.40363037109375,-0.43040481209754944,0.05584823712706566,-0.41964781284332275
1726995778352616200,10.4136162109375,-0.3953205943107605,-0.04136805981397629,-0.36829859018325806
1726995778362603500,10.423603515625,-0.36241844296455383,-0.12808509171009064,-0.30524852871894836
1726995778372589300,10.43358935546875,-0.2945805490016937,0.00698245270177722,-0.23949697613716125
1726995778382575600,10.44357568359375,-0.26496508717536926,0.18763230741024017,-0.1457979828119278
1726995778392562400,10.4535625,-0.25820356607437134,0.23153798282146454,-0.08027730137109756
1726995778402548200,10.46354833984375,-0.24562786519527435,0.24801667034626007,-0.057383518666028976
1726995778412534500,10.473534423828125,-0.211400106549263,0.27097761631011963,-0.029921799898147583
1726995778422521300,10.483521240234374,-0.164242222905159,0.30903196334838867,-0.004981216974556446
1726995778432507400,10.49350732421875,-0.13447581231594086,0.3352811336517334,0.019117727875709534
1726995778442493400,10.503493408203125,-0.1460382640361786,0.3495717942714691,0.008957208134233952
1726995778452480300,10.513480224609374,-0.18163061141967773,0.4074161946773529,-0.0017284592613577843
1726995778462466600,10.523466552734375,-0.22779464721679688,0.42365312576293945,-0.03633534908294678
1726995778472452400,10.533452392578125,-0.25840020179748535,0.35910290479660034,-0.09624368697404861
1726995778482439400,10.543439453125,-0.25290101766586304,0.26070544123649597,-0.14257194101810455
1726995778492425500,10.553425537109375,-0.19973713159561157,0.14748886227607727,-0.17866815626621246
1726995778502411300,10.563411376953125,-0.11694593727588654,0.06527391076087952,-0.2059101015329361
1726995778512398600,10.573398681640626,-0.05724666267633438,-0.023969152942299843,-0.22716878354549408
1726995778522384400,10.58338427734375,-0.005177565384656191,-0.17677493393421173,-0.23775795102119446
1726995778532370400,10.593370361328125,0.06645694375038147,-0.2976752519607544,-0.2120928019285202
1726995778542357500,10.603357421875,0.1535467803478241,-0.5095847249031067,-0.19109538197517395
1726995778552343300,10.61334326171875,0.21281516551971436,-0.6007252931594849,-0.14563949406147003
1726995778562329600,10.62332958984375,0.2469835728406906,-0.6528308987617493,-0.08101067692041397
1726995778572316400,10.63331640625,0.25313040614128113,-0.6237132549285889,-0.014624465256929398
1726995778582302200,10.64330224609375,0.21523702144622803,-0.5538814067840576,0.019502142444252968
1726995778592288500,10.65328857421875,0.1803613305091858,-0.46353819966316223,0.03402382880449295
1726995778602275300,10.663275390625,0.15571124851703644,-0.4762642979621887,0.03729085996747017
1726995778612261600,10.67326171875,0.17214694619178772,-0.4780992269515991,0.03300370275974274
1726995778622247400,10.683247314453125,0.19610197842121124,-0.499401718378067,0.050002358853816986
1726995778632234200,10.693234130859375,0.2212480753660202,-0.4787667691707611,0.052279628813266754
1726995778642220500,10.703220458984376,0.2500165104866028,-0.40722864866256714,0.07345766574144363
1726995778652206300,10.713206298828124,0.27580228447914124,-0.25939711928367615,0.12464415282011032
1726995778662193700,10.723193603515625,0.28808215260505676,-0.12178490310907364,0.14764827489852905
1726995778672179500,10.733179443359376,0.2613799571990967,-0.017829742282629013,0.14352943003177643
1726995778682165500,10.74316552734375,0.2058345526456833,0.026564355939626694,0.12521520256996155
1726995778692152600,10.753152587890625,0.16941982507705688,0.03208775073289871,0.09293209761381149
1726995778702138400,10.763138427734376,0.1796325147151947,0.01996999979019165,0.052601803094148636
1726995778712124400,10.77312451171875,0.19333474338054657,-0.0005472595221363008,0.004126143641769886
1726995778722111500,10.783111572265625,0.2149747610092163,-0.008706587366759777,-0.03477154299616814
1726995778732097300,10.79309716796875,0.24061088263988495,0.000861085660289973,-0.05279315263032913
1726995778742083300,10.803083251953124,0.2999606132507324,0.03336958587169647,-0.048480045050382614
1726995778752070400,10.8130703125,0.3979042172431946,0.09651126712560654,-0.02715557999908924
1726995778762056400,10.823056396484375,0.5005013942718506,0.16439290344715118,0.00904882699251175
1726995778772042500,10.83304248046875,0.6232084035873413,0.23201854526996613,0.047594621777534485
1726995778782029300,10.843029296875,0.7421672940254211,0.3119233250617981,0.08399595320224762
1726995778792015400,10.853015380859375,0.8622502684593201,0.40714383125305176,0.08630118519067764
1726995778802001400,10.86300146484375,1.0160009860992432,0.4949227571487427,0.06602984666824341
1726995778811988500,10.872988525390625,1.1668694019317627,0.5783755779266357,0.027013204991817474
1726995778821974500,10.882974609375,1.320586085319519,0.6480467915534973,-0.005671178922057152
1726995778831961300,10.89296142578125,1.4394347667694092,0.5710595846176147,-0.05699615180492401
1726995778841947400,10.902947509765625,1.5393418073654175,0.43720442056655884,-0.09784871339797974
1726995778851933400,10.912933349609375,1.601933240890503,0.2774783968925476,-0.12173113971948624
1726995778861920300,10.922920166015626,1.6356223821640015,0.08598113805055618,-0.1623932421207428
1726995778871906600,10.932906494140624,1.6448196172714233,-0.12118323147296906,-0.23002688586711884
1726995778881892400,10.942892333984375,1.6210235357284546,-0.438083678483963,-0.29139333963394165
1726995778891879400,10.95287939453125,1.5509132146835327,-0.748866081237793,-0.3331727385520935
1726995778901865500,10.962865478515624,1.4038448333740234,-1.090895175933838,-0.3178665339946747
1726995778911851500,10.9728515625,1.2272237539291382,-1.3553494215011597,-0.18477265536785126
1726995778921838600,10.982838623046876,1.0036711692810059,-1.613702416419983,0.06612265110015869
1726995778931824400,10.992824462890624,0.7685436606407166,-1.910700798034668,0.3837839663028717
1726995778941810400,11.002810546875,0.5161860585212708,-2.2187492847442627,0.7261559367179871
1726995778951797500,11.012797607421875,0.28957822918891907,-2.30381441116333,1.0854328870773315
1726995778961783300,11.022783203125,0.16492408514022827,-2.132093906402588,1.4264471530914307
1726995778971769300,11.032769287109375,0.13797369599342346,-1.7219074964523315,1.6923542022705078
1726995778981756400,11.04275634765625,0.22164848446846008,-1.3256608247756958,1.848318099975586
1726995778991742500,11.052742431640626,0.26788976788520813,-0.9581139087677002,1.8882285356521606
1726995779001728500,11.062728515625,0.23601095378398895,-0.6641634702682495,1.8774439096450806
1726995779011715300,11.07271533203125,0.13052181899547577,-0.4090723395347595,1.886472225189209
1726995779021701400,11.082701416015626,0.010994830168783665,-0.21847552061080933,1.8950855731964111
1726995779031687200,11.092687255859374,-0.11189247667789459,-0.011228053830564022,1.8482879400253296
1726995779041674200,11.10267431640625,-0.28044337034225464,0.19448243081569672,1.6781761646270752
1726995779051660300,11.112660400390626,-0.5257777571678162,0.37599655985832214,1.3783326148986816
1726995779061646300,11.122646240234374,-0.8533236384391785,0.48497655987739563,0.9836026430130005
1726995779071633400,11.13263330078125,-1.1924413442611694,0.5703538060188293,0.492597758769989
1726995779081619200,11.142619140625,-1.4488145112991333,0.5579032301902771,-0.05002070963382721
1726995779091605200,11.152605224609376,-1.6048022508621216,0.4987823963165283,-0.5633782744407654
1726995779101592300,11.16259228515625,-1.6781617403030396,0.5460674166679382,-1.017655611038208
1726995779111578000,11.172578125,-1.743196964263916,0.5398731827735901,-1.2432993650436401
1726995779121564200,11.182564208984376,-1.8056550025939941,0.6392278671264648,-1.3122833967208862
1726995779131551200,11.19255126953125,-1.7925077676773071,0.8318237066268921,-1.352346420288086
1726995779141537300,11.202537353515625,-1.698462724685669,0.989071786403656,-1.3581044673919678
1726995779151523300,11.2125234375,-1.5672029256820679,1.120544195175171,-1.3373414278030396
1726995779161510100,11.22251025390625,-1.4142009019851685,1.208261489868164,-1.3007407188415527
1726995779171496200,11.23249609375,-1.271539330482483,1.2660409212112427,-1.2586009502410889
1726995779181482200,11.242482177734376,-1.1716099977493286,1.2190061807632446,-1.1906884908676147
1726995779191469300,11.25246923828125,-1.1169723272323608,1.136488676071167,-1.1000680923461914
1726995779201455400,11.262455322265625,-1.0629109144210815,1.0550355911254883,-0.984115719795227
1726995779211441200,11.272441162109375,-1.0269132852554321,0.9109834432601929,-0.8763527870178223
1726995779221428200,11.28242822265625,-0.9489966630935669,0.8066103458404541,-0.8075063824653625
1726995779231414300,11.292414306640625,-0.858650267124176,0.7095064520835876,-0.7483730316162109
1726995779241400300,11.302400390625,-0.7591745257377625,0.5904790759086609,-0.7014256715774536
1726995779251387400,11.312387451171874,-0.6366262435913086,0.4610789716243744,-0.6588633060455322
1726995779261373200,11.322373291015625,-0.5203123688697815,0.330158531665802,-0.6078135967254639
1726995779271359200,11.332359130859375,-0.4410928785800934,0.20376145839691162,-0.5287401080131531
1726995779281346300,11.34234619140625,-0.41536852717399597,0.10798613727092743,-0.4496200680732727
1726995779291332400,11.352332275390625,-0.3852598965167999,0.04534193500876427,-0.3799978494644165
1726995779301318100,11.362318115234375,-0.3488246202468872,0.02444479987025261,-0.31797605752944946
1726995779311305200,11.37230517578125,-0.27961093187332153,0.02685043402016163,-0.272286593914032
1726995779321291300,11.382291259765625,-0.21284756064414978,0.04863109812140465,-0.1980266571044922
1726995779331277300,11.39227734375,-0.1659354418516159,0.15391837060451508,-0.09690617024898529
1726995779341264100,11.40226416015625,-0.15006981790065765,0.22760732471942902,-0.005178253632038832
1726995779351250200,11.412250244140624,-0.14996302127838135,0.21020835638046265,0.05509627237915993
1726995779361236200,11.422236328125,-0.1279616355895996,0.14969675242900848,0.09460505843162537
1726995779371223300,11.432223388671876,-0.09218340367078781,0.07991528511047363,0.11630342900753021
1726995779381209000,11.442208984375,-0.06463590264320374,0.03730864077806473,0.11493838578462601
1726995779391195400,11.4521953125,-0.06309286504983902,0.06955233216285706,0.09384508430957794
1726995779401182200,11.46218212890625,-0.08806506544351578,0.151873379945755,0.0594760999083519
1726995779411168300,11.472168212890624,-0.13584937155246735,0.23273414373397827,-0.028228718787431717
1726995779421154300,11.482154296875,-0.16413971781730652,0.2892961800098419,-0.13315854966640472
1726995779431141000,11.49214111328125,-0.14488719403743744,0.307074636220932,-0.2409380078315735
1726995779441127400,11.50212744140625,-0.12065061926841736,0.27002984285354614,-0.30905991792678833
1726995779451114200,11.5121142578125,-0.09911949187517166,0.18148744106292725,-0.3173900246620178
1726995779461100300,11.522100341796875,-0.07608486711978912,0.06977617740631104,-0.27916011214256287
1726995779471086300,11.53208642578125,-0.019002938643097878,-0.07413838058710098,-0.23177021741867065
1726995779481073200,11.5420732421875,0.06117066368460655,-0.19685368239879608,-0.19102662801742554
1726995779491059200,11.55205908203125,0.13669312000274658,-0.26727646589279175,-0.1376427710056305
1726995779501045200,11.562045166015626,0.1746213138103485,-0.33409571647644043,-0.03964190557599068
1726995779511031000,11.572031005859374,0.19646188616752625,-0.4200066030025482,0.06424321979284286
1726995779521018400,11.582018310546875,0.22551850974559784,-0.5023059844970703,0.12821213901042938
1726995779531004200,11.592004150390625,0.2822915017604828,-0.5339810848236084,0.16192935407161713
1726995779540991200,11.6019912109375,0.3477613925933838,-0.5344868302345276,0.18673813343048096
1726995779550977300,11.611977294921875,0.37091064453125,-0.523549497127533,0.1918759047985077
1726995779560963000,11.621963134765625,0.34160223603248596,-0.5498615503311157,0.15512657165527344
1726995779570950100,11.6319501953125,0.28623032569885254,-0.5736190676689148,0.13024678826332092
1726995779580936200,11.641936279296875,0.2465735673904419,-0.5787221789360046,0.10235598683357239
1726995779590922200,11.651922119140625,0.2637336552143097,-0.4897414743900299,0.12437552958726883
1726995779600909300,11.661909423828124,0.31561633944511414,-0.38840505480766296,0.15362469851970673
1726995779610895000,11.67189501953125,0.32270219922065735,-0.3044874966144562,0.1624096781015396
1726995779620881400,11.68188134765625,0.2572202980518341,-0.18471641838550568,0.18857084214687347
1726995779630868200,11.6918681640625,0.20203375816345215,-0.06339292973279953,0.17894218862056732
1726995779640854300,11.701854248046875,0.18098698556423187,0.041961584240198135,0.12637509405612946
1726995779650840300,11.71184033203125,0.18339289724826813,0.12768740952014923,0.0551547072827816
1726995779660827100,11.7218271484375,0.20945040881633759,0.1585526168346405,0.008916845545172691
1726995779670813400,11.7318134765625,0.2585812211036682,0.16398173570632935,-0.0058130985125899315
1726995779680799200,11.74179931640625,0.3290696442127228,0.1621313989162445,0.010208701714873314
1726995779690786300,11.751786376953126,0.41887062788009644,0.1692577600479126,0.035608600825071335
1726995779700772400,11.7617724609375,0.5321809649467468,0.1758585125207901,0.04223962128162384
1726995779710758100,11.771758056640625,0.6522834300994873,0.1852104663848877,0.02080809883773327
1726995779720745200,11.7817451171875,0.7780711650848389,0.2238590568304062,-0.023199304938316345
1726995779730731300,11.791731201171874,0.9166514277458191,0.29363495111465454,-0.04903250187635422
1726995779740717000,11.801717041015625,1.0697622299194336,0.3845936954021454,-0.061261557042598724
1726995779750704400,11.811704345703125,1.2234591245651245,0.4872513711452484,-0.07882377505302429
1726995779760690200,11.821690185546874,1.3980523347854614,0.5583212971687317,-0.11810949444770813
1726995779770676200,11.83167626953125,1.5741804838180542,0.5923953652381897,-0.13992583751678467
1726995779780663300,11.841663330078125,1.702288031578064,0.502535879611969,-0.1754324734210968
1726995779790649000,11.851649169921876,1.7806286811828613,0.3759251832962036,-0.1786426603794098
1726995779800635400,11.861635498046875,1.8109182119369507,0.1578449010848999,-0.20185233652591705
1726995779810622200,11.871622314453125,1.8052446842193604,-0.07106896489858627,-0.2528737187385559
1726995779820608300,11.881608154296876,1.7442549467086792,-0.3856438398361206,-0.309905081987381
1726995779830594300,11.89159423828125,1.6135432720184326,-0.7612619400024414,-0.3317539095878601
1726995779840581000,11.9015810546875,1.4376341104507446,-1.12187922000885,-0.29646119475364685
1726995779850567400,11.9115673828125,1.223934292793274,-1.488524317741394,-0.19323815405368805
1726995779860553200,11.92155322265625,0.9856621026992798,-1.885158896446228,-0.011518890038132668
1726995779870540000,11.9315400390625,0.7365902066230774,-2.2162551879882812,0.2562768757343292
1726995779880526300,11.9415263671875,0.49684739112854004,-2.4344093799591064,0.5922898650169373
1726995779890512100,11.95151220703125,0.30376768112182617,-2.469947576522827,1.0130738019943237
1726995779900499500,11.96149951171875,0.13607382774353027,-2.3149147033691406,1.4169528484344482
1726995779910485200,11.9714853515625,0.08781521022319794,-1.9985116720199585,1.7177428007125854
1726995779920471300,11.98147119140625,0.11245192587375641,-1.6492644548416138,1.9270625114440918
1726995779930458400,11.991458251953125,0.1599707007408142,-1.3132110834121704,2.075467109680176
1726995779940444200,12.001444091796875,0.16153299808502197,-1.021674394607544,2.1933608055114746
1726995779950431200,12.01143115234375,0.11024212092161179,-0.7770185470581055,2.3105573654174805
1726995779960417300,12.021417236328125,-0.014918819069862366,-0.5515248775482178,2.3795337677001953
1726995779970403000,12.031403076171875,-0.12699474394321442,-0.3587367832660675,2.386164665222168
1726995779980390400,12.041390380859376,-0.30546703934669495,-0.0836167261004448,2.314403772354126
1726995779990376200,12.051376220703125,-0.5441722869873047,0.19087982177734375,2.1396377086639404
1726995780000362200,12.0613623046875,-0.8417623043060303,0.3715410828590393,1.8330227136611938
1726995780010349300,12.071349365234376,-1.1423227787017822,0.4886589050292969,1.3309987783432007
1726995780020335000,12.081335205078124,-1.3981794118881226,0.5863761305809021,0.6269534826278687
1726995780030321200,12.091321044921875,-1.596537470817566,0.6085887551307678,-0.10475053638219833
1726995780040308200,12.10130810546875,-1.687925934791565,0.5861738920211792,-0.733958899974823
1726995780050294300,12.111294189453124,-1.6473819017410278,0.6812335848808289,-1.214704990386963
1726995780060280000,12.121280029296875,-1.5574893951416016,0.8323224782943726,-1.516044020652771
1726995780070267100,12.13126708984375,-1.507616400718689,0.9929550290107727,-1.62930428981781
1726995780080253200,12.141253173828124,-1.552864909172058,1.0916157960891724,-1.5312097072601318
1726995780090239000,12.151239013671875,-1.5762900114059448,1.1906381845474243,-1.4299437999725342
1726995780100226000,12.16122607421875,-1.4601197242736816,1.256056308746338,-1.4222060441970825
1726995780110212000,12.171212158203126,-1.3200558423995972,1.2886803150177002,-1.4296884536743164
1726995780120198000,12.181197998046875,-1.2512338161468506,1.263184905052185,-1.4233872890472412
1726995780130185200,12.191185302734375,-1.2351655960083008,1.2029320001602173,-1.3809924125671387
1726995780140171000,12.2011708984375,-1.2356529235839844,1.110640287399292,-1.3125070333480835
1726995780150157300,12.2111572265625,-1.1974304914474487,1.0419349670410156,-1.2564247846603394
1726995780160144100,12.22114404296875,-1.1226319074630737,0.965107798576355,-1.1964112520217896
1726995780170130000,12.2311298828125,-1.0299519300460815,0.9033304452896118,-1.1184523105621338
1726995780180116200,12.2411162109375,-0.9359979629516602,0.8460254669189453,-1.0484635829925537
1726995780190103000,12.25110302734375,-0.8485240340232849,0.7621257305145264,-0.9917738437652588
1726995780200089300,12.26108935546875,-0.7664992213249207,0.6352453827857971,-0.9429404139518738
1726995780210075100,12.2710751953125,-0.6682029962539673,0.5199629664421082,-0.9015458226203918
1726995780220062000,12.28106201171875,-0.5774635076522827,0.3895820677280426,-0.82928067445755
1726995780230048300,12.29104833984375,-0.49765634536743164,0.31543034315109253,-0.7328550219535828
1726995780240034000,12.301033935546876,-0.4240359365940094,0.2555653750896454,-0.6408088803291321
1726995780250021000,12.311021240234375,-0.34719201922416687,0.21480092406272888,-0.5615633130073547
1726995780260007200,12.321007080078125,-0.26693421602249146,0.15320394933223724,-0.48870012164115906
1726995780269993000,12.330992919921876,-0.16129541397094727,0.0858406201004982,-0.42303428053855896
1726995780279980300,12.340980224609375,-0.07915935665369034,0.03768331930041313,-0.3464743196964264
1726995780289966000,12.350966064453125,-0.009234601631760597,0.030672015622258186,-0.27117398381233215
1726995780299952000,12.3609521484375,0.038266055285930634,0.025122949853539467,-0.2006554901599884
1726995780309939200,12.370939208984375,0.0408964604139328,0.05698767304420471,-0.14516933262348175
1726995780319925000,12.380925048828125,0.019816849380731583,0.13779525458812714,-0.11061656475067139
1726995780329911300,12.390911376953126,-0.02202274277806282,0.20508241653442383,-0.1144789457321167
