time,seconds_elapsed,z,y,x
1726995840947521300,0.020521240234375,-0.24986966383755205,0.10732727903574704,-0.2248241429734975
1726995840957507000,0.030507080078125,-0.034761516779661175,0.09717734868228435,-0.09189334386475384
1726995840967494100,0.040494140625,0.07577566421329975,0.09825696061253547,-0.08239829722344875
1726995840977480200,0.050480224609375,0.08048223446905613,0.1649073613449931,-0.08048617999181151
1726995840987467300,0.06046728515625,0.08584113115370273,0.1844336073309183,0.03410034945718944
1726995840997453300,0.070453369140625,0.08728840735256671,0.1800982084751129,0.055335518252849575
1726995841007440100,0.080440185546875,0.14130992039740084,0.2525710317507386,-0.03228760094679892
1726995841017426200,0.09042626953125,0.22512743676900862,0.14641659588664768,0.038848566897585986
1726995841027413200,0.100413330078125,0.27652327748537064,0.07924655519425869,0.10492752441763878
1726995841037399300,0.1103994140625,0.19311784904599189,0.15152882433384657,0.08216763027273118
1726995841047386000,0.12038623046875,0.009526537758111953,0.3113873778566718,0.09546455341503024
1726995841057372200,0.1303720703125,-0.4464654181271791,0.528947301980853,0.022453166283294558
1726995841067359200,0.140359130859375,-0.9033768269449471,0.8474640933260321,0.0152441847525537
1726995841077344800,0.1503447265625,-1.150235034006834,1.0871782738521694,0.20636033858731387
1726995841087331800,0.160331787109375,-1.1026537831425667,1.3192556758895515,0.4060276092767715
1726995841097317600,0.170317626953125,-1.1258026035398243,1.5603388066813348,0.5666247792724519
1726995841107304700,0.1803046875,-1.3875953448832035,1.753575898192823,0.6458799561645835
1726995841117290800,0.190290771484375,-1.6383429605990647,1.9157538345739245,0.6547162466362119
1726995841127277600,0.200277587890625,-1.7241069348633289,2.069245191152394,0.6748002726353705
1726995841137263900,0.210263916015625,-1.5708324359059334,2.2184014411360025,0.7532590384528041
1726995841147250700,0.220250732421875,-1.1558458596259356,2.392440495702624,0.9369232688464224
1726995841157236700,0.23023681640625,-0.7713146273642778,2.4342115989834068,1.1180724476791917
1726995841167223800,0.240223876953125,-0.7533306423842907,2.4551976883888242,1.1825165705390275
1726995841177211000,0.2502109375,-0.8458844229191541,2.6477479666799306,1.3055588667094706
1726995841187196700,0.26019677734375,-0.3118015116155147,3.157513013806939,1.4671429288506508
1726995841197183500,0.27018359375,0.117875853317976,3.814573485481739,1.4808268785491585
1726995841207169800,0.280169677734375,0.42119595231413837,4.57941161030829,1.2563304331600664
1726995841217156600,0.290156494140625,0.9600362872779369,4.7738791203975675,1.1830784422054885
1726995841227143000,0.300142822265625,1.3165619067609309,4.409708539119363,1.0415633546248078
1726995841237129700,0.310129638671875,1.5420751279771328,3.90724300135076,1.1580834094196557
1726995841247115500,0.320115478515625,1.8434207120299337,3.6450229745060203,1.759728283342719
1726995841257102800,0.330102783203125,2.0704349854588506,3.7407705826461313,2.468719141001999
1726995841267088600,0.340088623046875,0.8435036652624607,4.091366812080144,3.4447397638753054
1726995841277075700,0.35007568359375,-1.0834031392276287,4.580348598897457,4.392705089609325
1726995841287061800,0.360061767578125,-1.5461235265851019,5.0540211729019875,3.419213692952692
1726995841297048800,0.370048828125,-1.1725392202734946,4.7615141443431375,2.658517197975516
1726995841307034600,0.38003466796875,0.10955050804316997,3.7348154736340042,2.084846957170963
1726995841317021700,0.390021728515625,1.7907348315030336,2.71341607837677,1.3566875809222458
1726995841327007700,0.4000078125,2.146228769850731,2.201736137539148,0.6734878748625517
1726995841336994600,0.40999462890625,2.293350591397285,2.02241242056787,0.8440022624343633
1726995841346980900,0.41998095703125,2.4191823721557855,2.371366728013754,1.5815309400528668
1726995841356967700,0.4299677734375,2.5266125270441173,2.752502472618222,2.2004151180684564
1726995841366953700,0.43995361328125,1.9602415033370255,2.928860033260286,1.8279414033472536
1726995841376940800,0.44994091796875,1.3153612987995147,2.4411837760835886,0.44845454611778257
1726995841386927600,0.459927734375,1.205787702141702,1.0013269135653973,-1.3348784846961497
1726995841396913700,0.46991357421875,1.4890554854512215,-0.23808891741186378,-2.9970769526571033
1726995841406900700,0.479900634765625,1.7565286105185747,-0.5548620799601077,-2.7976906908661126
1726995841416886800,0.48988671875,1.5230173762857913,-0.9098825555771589,-2.6465041040986774
1726995841426873600,0.49987353515625,1.6029600970506668,-0.7511381007760762,-2.6849329112142324
1726995841436859600,0.509859619140625,2.460405193904042,-0.32160935053303835,-1.8375667253047228
1726995841446846700,0.5198466796875,3.378534184300899,-0.6094695761993527,-0.871950007545948
1726995841456832800,0.529832763671875,3.6959114502221344,-0.08905044858902693,-0.8155214333593845
1726995841466819800,0.53981982421875,3.383359997022152,0.6698033411309122,-0.7573235114127397
1726995841476805600,0.5498056640625,3.013808891749382,1.223022622320056,-0.5905559091538191
1726995841486792700,0.559792724609375,3.407504258197546,1.2193764478374272,-0.6823772837609052
1726995841496778800,0.56977880859375,3.429637764072418,0.7895015145052224,-1.1469137806296348
1726995841506765600,0.579765625,2.9301825140357014,0.03768105748817324,-1.8472557601481674
1726995841516752000,0.589751953125,2.9912673895955084,-1.7420402125693857,-3.201713390061259
1726995841526738700,0.59973876953125,4.071619324558973,-3.0995173364341255,-4.93532815798223
1726995841536725800,0.609725830078125,4.563714567221701,-4.575854210087657,-6.089917295545339
1726995841546711800,0.6197119140625,5.305728573560715,-5.604629102548957,-7.670268085902928
1726995841556699000,0.629698974609375,5.445867696613073,-4.129913400356472,-7.183577624893188
1726995841566684700,0.6396845703125,5.693074278721213,-2.2677394725397226,-4.414294697865843
1726995841576671500,0.64967138671875,5.745112508994341,-1.9004267938435075,-1.7022744577616453
1726995841586657800,0.65965771484375,5.547170016270876,-1.861835781903565,-0.24048808750808237
1726995841596644600,0.66964453125,4.519457200083136,-2.2250834031179547,-0.30164369021654125
1726995841606631000,0.679630859375,2.458859718027711,-1.9587921813115476,-3.1870839762061833
1726995841616617700,0.68961767578125,1.656244820253551,-2.185048622110486,-5.945338728740811
1726995841626603500,0.699603515625,1.4507427059307694,-3.1272178287863728,-6.621608343276381
1726995841636590600,0.709590576171875,0.9563947159051894,-3.4706636019438504,-6.684594668543339
1726995841646576600,0.71957666015625,0.1226858839482069,-2.5793562752380965,-6.26201982909143
1726995841656563700,0.729563720703125,-0.7817851679742336,-1.6840692312464116,-4.1964878132432695
1726995841666549800,0.7395498046875,-2.148943874028325,-2.121306802301109,-2.004379335749149
1726995841676536800,0.749536865234375,-3.369992565926909,-3.1436694896325466,-0.04690437451601028
1726995841686523600,0.759523681640625,-4.3435733944326635,-3.2656557008787988,1.4945722030460833
1726995841696509700,0.769509765625,-5.632787860062718,-3.0802880275681614,2.0045313114404677
1726995841706496800,0.779496826171875,-6.326973070517182,-4.382864371335506,3.780823776093125
1726995841716482600,0.789482666015625,-5.097217340549826,-5.937595567268133,5.488804921063781
1726995841726469600,0.7994697265625,-2.981768324366212,-3.7569916496068236,6.097652273711562
1726995841736455700,0.80945556640625,-2.957597175183892,1.3961660432212053,4.841621700280904
1726995841746442800,0.81944287109375,-3.5191380022555587,5.617088186627626,5.484524467265605
1726995841756428800,0.8294287109375,-5.742715969246626,6.83574969112873,4.321829180136323
1726995841766415600,0.83941552734375,-6.966479765322804,8.081938669502735,3.972484996590018
1726995841776401700,0.849401611328125,-7.478321034201979,7.946494426268338,2.9340771833866834
1726995841786388700,0.859388671875,-9.665101010149717,5.758619640821218,1.5596826808601616
1726995841796374800,0.869374755859375,-5.403385814714431,1.7614114141240715,-1.5510048688858746
1726995841806361600,0.879361572265625,-1.5693021575987338,0.9978837873741984,-5.0951171534001825
1726995841816348700,0.8893486328125,1.02565997531116,-0.09149082747846841,-7.883294750511646
1726995841826334700,0.899334716796875,3.97434611428678,-3.4843829152166843,-10.147435614037514
1726995841836321500,0.909321533203125,7.33667150658667,-3.7924072463810443,-11.42528814317584
1726995841846307800,0.919307861328125,10.204968934595584,-2.8987556946367024,-11.40317100391388
1726995841856294700,0.929294677734375,8.943736116346717,-1.8885332346931099,-10.769813479387759
1726995841866280700,0.93928076171875,4.647026179897785,-1.923332160873711,-5.480034170109033
1726995841876267800,0.949267822265625,4.063890776133537,-1.700898493233323,-6.54292585170567
1726995841886253600,0.959253662109375,3.682974811759591,-0.9799424724921584,-7.164543838599323
1726995841896240600,0.96924072265625,2.531340432348847,-2.0680591962382198,-5.609886876946687
1726995841906226700,0.979226806640625,1.415056767782569,-3.6669480983272194,-3.311348069256544
1726995841916213800,0.9892138671875,2.387612344893813,-3.481069260624051,-0.7259194883674382
1726995841926199600,0.999199462890625,3.917640476724505,1.191514846639335,1.7343763999432324
1726995841936187000,1.009186767578125,2.47663502869308,5.92743657682538,3.127210230001807
1726995841946173700,1.019173583984375,1.3844313278943299,6.955435224217176,3.5054981839597223
1726995841956159500,1.029159423828125,-1.2283569690853358,4.122402294073999,6.266336523246765
1726995841966146800,1.039146728515625,-4.864191844007372,1.8858309899970889,7.896055447885393
1726995841976132600,1.049132568359375,-4.506896993717551,0.9658937811344861,9.43808615219891
1726995841986119700,1.05911962890625,-3.3836855757147073,0.9104512953758239,10.239539897239208
1726995841996105700,1.069105712890625,-2.8222043698757884,2.0857290007025,12.216633751177786
1726995842006092800,1.0790927734375,-2.7213445332884785,4.517209713417292,14.284572828167676
1726995842016078600,1.08907861328125,-3.0674457893908023,6.3079603270113465,13.166602233427762
1726995842026065700,1.099065673828125,-3.9273727661877866,8.358988016688823,8.439256900668143
1726995842036051700,1.1090517578125,-3.712119657701254,7.5687325420111415,-0.2673649885177612
1726995842046038500,1.11903857421875,0.22049334722757338,3.8250790974050757,-13.1719389182806
1726995842056024800,1.12902490234375,2.9360142889291048,-1.160231235103309,-23.33113277465105
1726995842066011600,1.13901171875,-0.1011228714376688,-1.7296671993389725,-23.214022645008562
1726995842075998700,1.148998779296875,-0.3530097203165293,-1.1151520301878453,-16.10331619505882
1726995842085985500,1.158985595703125,4.616558560919762,-1.0318044694155455,-16.989164964097736
1726995842095972400,1.168972412109375,5.5164539754897355,-1.46844991979599,-14.128674994969368
1726995842105958100,1.178958251953125,5.949323998984694,-3.68297656532526,-5.476346421507
1726995842115945200,1.1889453125,8.879634523314238,-3.966985230129957,1.9574100793033837
1726995842125931300,1.19893115234375,10.47717376435995,-3.356282020482421,5.64559648823142
1726995842135918300,1.20891845703125,10.057706827795505,-4.964482940796017,5.084339154276251
1726995842145904400,1.218904296875,2.181512264677882,-5.264360790383815,5.857591471704841
1726995842155891500,1.228891357421875,-2.8200951226368547,-3.351059317398071,8.836737630873918
1726995842165877200,1.238877197265625,1.2030097618609665,2.840728745342791,13.670483483213186
1726995842175864300,1.2488642578125,7.7381567962586875,7.491087576794624,14.542079270493984
1726995842185850400,1.258850341796875,7.267202833563089,5.408735359048843,10.319528210711479
1726995842195837200,1.268837158203125,4.495394771972299,3.3702903798297044,9.36589477621317
1726995842205824300,1.27882421875,0.061008303192257876,4.477273424348235,11.110535965061187
1726995842215810300,1.288810302734375,-4.644062653917074,5.398615531572699,11.825448321723938
1726995842225797400,1.29879736328125,-7.795629911062121,6.193859316056966,14.271009582239389
1726995842235783400,1.308783447265625,-8.909573149982094,6.917914179596305,17.128693846297264
1726995842245770200,1.318770263671875,-9.341837024277448,7.892623719871044,16.322635822331904
1726995842255756300,1.32875634765625,-7.141184005799889,8.020238876914977,11.238810462796687
1726995842265743400,1.338743408203125,-7.656832850268483,6.645878276658058,3.463578612118959
1726995842275729400,1.3487294921875,-7.922951638117432,8.25895294048786,-4.774871638566255
1726995842285716200,1.35871630859375,0.6994020683199167,12.38322833495736,-19.18546738615036
1726995842295702300,1.368702392578125,2.6635703897118566,9.191882609653472,-17.244941221630572
1726995842305689300,1.378689453125,1.0811404549926518,3.0651930420279503,-12.914503787624835
1726995842315676200,1.38867626953125,0.7485346402794122,-2.0311969077870247,-10.822607496464252
1726995842325662500,1.398662353515625,1.763896508938074,-6.198205820828676,-8.966934036582709
1726995842335649300,1.408649169921875,4.713917695909738,-8.08407451248765,-10.870936935347318
1726995842345635300,1.41863525390625,7.5744427363514895,-7.964660782077908,-13.062327035439013
1726995842355622400,1.428622314453125,8.02143013252616,-8.972926554995775,-12.18496201710701
1726995842365608200,1.438608154296875,6.8996636526346204,-6.464780535751581,-7.548959920048714
1726995842375595300,1.44859521484375,3.7182524613678454,-3.9792870778203007,-3.8090550143212076
1726995842385581300,1.458581298828125,1.3392799345254898,-4.416756119543313,-3.5039416021674867
1726995842395568400,1.468568359375,2.295391157314181,-3.8430075528055427,-2.727621129339933
1726995842405554200,1.47855419921875,1.141708028680086,-3.035938305971026,-1.5541893441408872
1726995842415541500,1.48854150390625,0.24147008428275585,-2.7062586078375577,-0.325827698880434
1726995842425527300,1.49852734375,0.6804021842956542,-2.4844424875736233,3.412586091506481
1726995842435514000,1.50851416015625,1.1190215650975703,-2.0091832288995386,7.621490318730473
1726995842445501400,1.51850146484375,-1.6181769554048775,-1.4608826994121074,7.370636320030689
1726995842455487200,1.5284873046875,-6.564785216814279,-1.546294060846418,6.3781374405652285
1726995842465474300,1.538474365234375,-8.430711190640926,-1.1569371619939803,4.785699322050809
1726995842475460400,1.54846044921875,-3.401906876581907,-0.44354923841953275,4.1411803520411254
1726995842485447400,1.558447509765625,-0.7885662064164877,-0.040010596414282916,3.3862183090627194
1726995842495433200,1.56843310546875,-2.0131962639331817,0.7693469805531203,2.035028741034865
1726995842505420300,1.578420166015625,-3.1442706703960894,1.6645089368604122,0.5963005902856588
1726995842515406300,1.58840625,-2.9329993250221014,2.1876352776028214,-1.8726088125914335
1726995842525393200,1.59839306640625,-2.2183155164182184,2.3524900319777426,-2.8191344609111546
1726995842535379500,1.60837939453125,-1.6520114204674958,2.142651934277266,-3.0242957989722488
1726995842545366300,1.6183662109375,-0.5214964014530181,1.8301476812198758,-2.624104640763998
1726995842555352300,1.628352294921875,0.10341945794224738,1.691959399974346,-1.40073130531013
1726995842565339400,1.63833935546875,0.9851236745223403,1.1059436184681952,-0.309881941729784
1726995842575326200,1.648326171875,1.748849746453762,0.40286271550506353,0.16527473335266113
1726995842585312300,1.658312255859375,2.3159277493864296,-0.19383344996944069,0.2537146488279104
1726995842595299300,1.66829931640625,2.668961435100436,-0.4191099398203194,0.10290040250420569
1726995842605285400,1.678285400390625,2.3930291092455387,-0.44214244036152955,-0.017795184409618376
1726995842615272200,1.688272216796875,1.6580194287106393,-0.17237068296298383,-0.576930119383335
1726995842625258200,1.69825830078125,1.184159223179519,0.045817894453555344,-0.12727613434791565
1726995842635245300,1.708245361328125,0.6451186894685029,0.46859015617370603,0.5028600900441408
1726995842645231400,1.7182314453125,-0.18901304407566785,0.6537662524349988,0.7004939552098512
1726995842655218400,1.728218505859375,-0.40162557492554185,0.4508277049899101,0.817199011182785
1726995842665204200,1.738204345703125,-0.5269879846066237,0.43588498740196224,0.7334715111821889
1726995842675191300,1.74819140625,-0.5844459018409252,0.3518209489233792,0.7401607796877622
1726995842685177300,1.75817724609375,-0.4315972270801663,0.15259426160827277,0.761017689755559
1726995842695164200,1.7681640625,-0.3459729535475373,0.04678542431145906,0.7296703653335571
1726995842705151200,1.778151123046875,-0.16254092447459698,0.008467822485417126,0.6151730485379695
1726995842715137300,1.78813720703125,0.01967062289267778,0.02563318455889821,0.2975210573285818
1726995842725124400,1.798124267578125,0.17336188595741986,0.04065072094872594,-0.07027297514379025
1726995842735110400,1.8081103515625,0.19723259088844058,0.05549129333645105,-0.21707330965101718
1726995842745097500,1.818097412109375,0.2642839736372232,-0.022825725922733544,-0.1224807167649269
1726995842755083300,1.828083251953125,0.19240648590624332,-0.21529753215014932,0.2884761656075716
1726995842765070300,1.8380703125,0.10912439158558845,-0.37607320051789284,0.6314268487244844
1726995842775056400,1.848056396484375,0.394605467030406,-0.8199686220265925,1.264964405992627
1726995842785043200,1.858043212890625,0.328947876727581,-1.1048362417481838,1.7587988935381174
1726995842795029500,1.868029541015625,0.22389906401783227,-1.0653481348380447,1.2678741559594868
1726995842805016300,1.878016357421875,0.21955314376801252,-0.915472776799649,0.5346826307624578
1726995842815002000,1.888002197265625,0.375550637948513,-0.8191160968504846,0.1243459261149168
1726995842824989400,1.897989501953125,0.4175111263215542,-0.6371201649952679,-0.2003068837672472
1726995842834976500,1.9079765625,0.27999738333672286,-0.34243761902824044,-0.3942302039772272
1726995842844962300,1.91796240234375,0.12025573419183493,-0.1560918944656849,-0.25226561906337736
1726995842854949000,1.92794921875,-0.017121522931754587,-0.192327356255427,-0.1317827981173992
1726995842864935400,1.937935302734375,-0.11179682566523551,-0.3781670309919864,-0.035899580898880956
1726995842874922200,1.947922119140625,-0.13645312801599502,-0.6651363722331821,-0.22223405341506003
1726995842884908500,1.957908447265625,0.0819321410164237,-0.8944207825511693,-0.49471302394568917
1726995842894895400,1.967895263671875,0.21648469610810278,-0.9427281557328998,-0.6308043329119682
1726995842904881200,1.977881103515625,0.4710398874133825,-0.9276022635977714,-0.7338514504104853
1726995842914868500,1.987868408203125,0.8113657749846577,-0.6757748898211866,-0.7936655753821135
1726995842924854300,1.997854248046875,1.0761199964821337,-0.28663229130655526,-0.9088128805190324
1726995842934841300,2.00784130859375,1.173961654292047,-0.10228110156208275,-0.9535726442217827
1726995842944827400,2.017827392578125,0.9677522684827446,-0.10958835583552717,-0.8092273016512394
1726995842954814500,2.027814453125,0.6782642954841256,-0.19188202364072202,-0.6788239751935005
1726995842964800300,2.03780029296875,0.4460261499270797,-0.2553441497258842,-0.6937333750337362
1726995842974787300,2.047787353515625,0.37215047411620616,-0.4132056842125952,-0.7883002489566803
1726995842984773400,2.0577734375,0.3191103733241558,-0.5490991325192153,-0.7854232322156429
1726995842994760200,2.06776025390625,0.3521767766237259,-0.709665542050451,-0.7010714628368616
1726995843004747300,2.077747314453125,0.39818654038757084,-0.8243013905338943,-0.6889151610970496
1726995843014733300,2.0877333984375,0.4750865324556827,-0.9312297333799302,-0.8875631717413663
1726995843024720400,2.097720458984375,0.6861489112541079,-1.0290794283658264,-1.2062293084293603
1726995843034706400,2.10770654296875,0.7053600999414921,-1.1447823215588926,-1.4454115740358828
1726995843044693200,2.117693359375,0.6397121542498468,-1.2952356256157158,-1.5062439361393452
1726995843054679300,2.12767919921875,0.5341106760933995,-1.40321683851555,-1.683995873749256
1726995843064666400,2.137666259765625,0.2843327821925282,-1.4711581558413802,-1.6882412562340496
1726995843074652400,2.14765234375,0.1501850085094571,-1.4978494711510837,-1.5275538506716488
1726995843084638200,2.15763818359375,0.4354311061546206,-1.4862971266537903,-1.2991940078526734
1726995843094624000,2.1676240234375,-0.0656584670856595,-1.357915515282005,-1.5504413897842169
1726995843104611000,2.177611083984375,-0.1710553625807166,-1.2901124373830855,-1.46438398553133
1726995843114597000,2.18759716796875,-0.23878859011381864,-1.2739945385359226,-1.158649811130762
1726995843124584200,2.197584228515625,-0.37422991073876616,-1.2033673431269825,-0.8442629591971635
1726995843134570200,2.2075703125,-0.502205133266747,-1.0559873090356588,-0.6159492936074733
1726995843144557000,2.21755712890625,-0.5214563617035747,-0.9009246114872396,-0.5634194804251194
1726995843154544000,2.227544189453125,-0.5554615071579814,-0.8101729119382798,-0.6980044764816761
1726995843164530000,2.237530029296875,-0.6435439874976873,-0.6596839520461857,-1.0110539423316716
1726995843174517200,2.247517333984375,-0.6275009074524045,-0.5133760772310197,-1.401333947378397
1726995843184503000,2.2575029296875,-0.5216685431495308,-0.2975157966315746,-1.4172352808654307
1726995843194490000,2.267489990234375,-0.5101520006179809,-0.1959127404615283,-1.0020680873215198
1726995843204476200,2.27747607421875,-0.6307596169874071,-0.14363602525740862,-0.20800269896686077
1726995843214463000,2.287462890625,-0.8505483230769634,-0.12412088518738745,0.7532400414913892
1726995843224449300,2.29744921875,-0.9406830597713589,-0.09878449161797762,1.6313742906302213
1726995843234436000,2.30743603515625,-0.985433763384819,0.012561521539837122,2.089893719166517
1726995843244422100,2.317422119140625,-0.9024462680965661,0.23434636988267302,2.172775415992737
1726995843254409000,2.327408935546875,-0.570404517006874,0.5340181755043566,1.8026023794293402
1726995843264395000,2.33739501953125,-0.17857026825547218,0.8549166012890637,1.1616168442428112
1726995843274382000,2.347382080078125,0.27169454215466976,1.2143003866821527,0.30921617129743095
1726995843284368100,2.3573681640625,0.5926449903875589,1.5535812952451407,-0.38378304424285886
1726995843294355200,2.367355224609375,0.7740309005856514,1.7663431714378297,-0.44152737720310686
1726995843304342000,2.377342041015625,0.8220563880860805,1.8675319477185606,0.022892215287685393
1726995843314328300,2.387328369140625,0.7933014182448387,1.8877447146639226,0.5143436070889235
1726995843324315100,2.397315185546875,0.6931570364505052,1.88621122148633,0.7360474991500378
1726995843334301000,2.407301025390625,0.6304623876065015,1.7942714811965823,0.8648392987579107
1726995843344288000,2.4172880859375,0.4083768027514219,1.635462728987634,0.9837339737296104
1726995843354274000,2.427274169921875,0.31472470558583737,1.3800040129713713,1.105100007250905
1726995843364261000,2.43726123046875,0.31527240259647366,1.0781661153569817,1.0759978314071894
1726995843374247200,2.4472470703125,0.3501356261849403,0.8996467005059122,0.7542664619296788
1726995843384234200,2.457234130859375,0.6066355218172073,0.7823515696853399,0.23169980089664458
1726995843394220000,2.467219970703125,0.8973048135548829,0.677255556832999,-0.35748832703530786
1726995843404207000,2.47720703125,1.091319319179654,0.6457669242441654,-0.9603414077043533
1726995843414193200,2.487193115234375,1.148093930324912,0.6554623888283968,-1.4401619829446077
1726995843424180000,2.497179931640625,1.1035375802397727,0.5037786661937833,-1.5764134509086607
1726995843434166300,2.507166259765625,1.01084263766855,0.014279723634570836,-1.2003735681384802
1726995843444153000,2.517153076171875,0.8797875693038105,-0.6328267786502838,-0.3916588921844959
1726995843454140200,2.52714013671875,0.7465764919489621,-1.199207008577138,0.043243513920903205
1726995843464126200,2.537126220703125,0.7100801142007112,-1.6820625675991177,-0.20541852769255636
1726995843474113300,2.54711328125,1.0455693753957749,-2.2085952096536756,-0.5706073461025953
1726995843484099000,2.55709912109375,1.1196627856105565,-2.5055004731714723,-0.5515285516232252
1726995843494086100,2.567086181640625,1.0980787303119897,-2.7297213164895773,-1.0414683698177336
1726995843504072200,2.577072265625,0.7337883220463991,-2.844995170615613,-1.1388175679355859
1726995843514059000,2.58705908203125,-0.14148001626729964,-2.5437124226659535,-0.3235539087295532
1726995843524045300,2.59704541015625,-1.146012447875738,-1.9439334887452422,0.6596084025919438
1726995843534032100,2.6070322265625,-2.00293235181123,-1.5591314767181872,1.4275544303059577
1726995843544018000,2.617017822265625,-2.3804814701005816,-1.336966689147055,2.1292542541742323
1726995843554005200,2.627005126953125,-2.5386978093743324,-1.2200495978586374,2.4164690215438602
1726995843563991000,2.636990966796875,-2.7664704999551177,-1.0337510734386741,2.3612626826286314
1726995843573978000,2.64697802734375,-2.808206824183464,-0.5972862403221428,2.2094354598701
1726995843583964200,2.656964111328125,-2.665957577109337,-0.10150061870887875,2.2694261104524136
1726995843593951200,2.666951171875,-2.1320424235880373,0.1718532349601388,2.2769360476911067
1726995843603937000,2.67693701171875,-1.6269871615871787,0.5714217312254011,1.9618045148700474
1726995843613924000,2.686924072265625,-1.1266922458559274,0.9230978648506104,1.431220551598072
1726995843623911200,2.6969111328125,-0.5903939965903758,1.2244935716554521,0.4729992047876119
1726995843633897000,2.70689697265625,0.13839432521164416,1.6097645163685081,-0.6086620592087507
1726995843643884300,2.71688427734375,1.4315706802099943,1.6058666321471333,-1.4327373859018087
1726995843653870000,2.7268701171875,3.0625907505750654,1.1921883619867264,-2.088032601469755
1726995843663857200,2.736857177734375,4.39406556430757,0.7203057401388883,-2.786186715555191
1726995843673843200,2.74684326171875,4.682196277478337,0.8967183919690549,-3.5112060402125116
1726995843683830000,2.756830078125,3.819804664133489,1.4327273028992116,-3.727966046130657
1726995843693816000,2.766816162109375,3.2061078256279227,1.7814286584973333,-2.63303438167274
1726995843703803100,2.77680322265625,2.4342422863826156,2.1719648302622137,-1.5688099901676178
1726995843713789200,2.7867890625,1.4208321363136172,2.58321908814609,-0.9239607652902603
1726995843723776000,2.79677587890625,0.48697278508245945,2.7623604342877863,0.4293856885105371
1726995843733762000,2.806761962890625,-0.3734083652228117,2.877967173629999,1.5678519587904214
1726995843743749000,2.8167490234375,-0.680883830332756,2.6702719331771134,2.075828368934989
1726995843753735200,2.826735107421875,-0.3622217852979898,2.0434626612506808,2.266862397444248
1726995843763722200,2.83672216796875,0.1649997158035636,1.2869056041657925,2.2363486012369393
1726995843773708000,2.8467080078125,0.9346581003934145,0.45656274151057,1.9969459708780049
1726995843783695000,2.856695068359375,1.617598278734088,-0.4027263757742941,1.6730694060653448
1726995843793682200,2.86668212890625,2.105696268454194,-1.1134699953850358,1.347076872012019
1726995843803668000,2.87666796875,2.3042045783668756,-1.5857938581943511,1.1490157213449477
1726995843813655000,2.886655029296875,1.963773184594512,-1.6172423049032687,1.1231856990396976
1726995843823641000,2.89664111328125,1.2355693846821785,-1.0567183267239482,1.0585820017039775
1726995843833628200,2.906628173828125,0.5400783523261546,-0.321809183954075,0.7884463794291019
1726995843843614200,2.9166142578125,-0.14399725978523492,0.44676535092182457,0.1615121659487486
1726995843853601300,2.926601318359375,-0.6536474483609199,0.9222353297371417,-0.37642449817359447
1726995843863587000,2.936587158203125,-0.8691270590797067,1.0766109948694704,-0.6647679773122072
1726995843873574100,2.94657421875,-0.9806441910207271,1.0543237597376107,-0.3437655066311359
1726995843883560200,2.956560302734375,-1.0086486347556114,0.9477135429300367,-0.02158405529856682
1726995843893547000,2.966547119140625,-0.8906827650666236,0.7490755422230809,0.07403203541636466
1726995843903533300,2.976533203125,-0.5415823271483182,0.5381072714488953,-0.005456511840224266
1726995843913520000,2.98652001953125,0.3211512315019965,0.29588772050570694,-0.3378191654473543
1726995843923506000,2.996505859375,0.6969143431574106,0.06145856771040707,-0.7343710903704166
1726995843933493200,3.0064931640625,0.3549281211584806,-0.30607973643522707,-1.0611480527997017
1726995843943479000,3.01647900390625,0.1581631477817893,-0.8049599995955824,-0.35241292346715924
1726995843953466000,3.026466064453125,0.19523937124460936,-1.431611158350855,0.5404851795613765
1726995843963453000,3.036452880859375,0.2762655033320188,-1.941516782992333,0.9045090458452701
1726995843973439200,3.046439208984375,0.2643587924391031,-2.1915660411804914,1.1468839700132607
1726995843983426000,3.056426025390625,0.237336930000782,-2.3056584304369983,1.0298720400482415
1726995843993412000,3.066412109375,0.22072277206927537,-2.298074258918315,0.6603326252132654
1726995844003399200,3.076399169921875,0.260628958261013,-2.348604276585579,0.3474737134993076
1726995844013385000,3.086385009765625,0.09907032282203436,-2.2711210778020323,0.24667700527608394
1726995844023372300,3.096372314453125,-0.12158756731748581,-2.0930514525450765,0.29731647466719147
1726995844033358000,3.106358154296875,-0.4764589898526668,-1.8135662565141915,0.5911638119190931
1726995844043345200,3.11634521484375,-0.5853510339871049,-1.638339599598199,0.9114262778878212
1726995844053331200,3.126331298828125,-0.6077803079381585,-1.4717270417705177,0.9323860638082027
1726995844063318000,3.136318115234375,-0.6683963969424367,-1.2032676821447907,0.6394950043678284
1726995844073304000,3.146303955078125,-0.7759320580318569,-0.7934591660898178,0.08359189092218876
1726995844083291400,3.15629150390625,-0.7220531683281064,-0.46894419377576557,-0.536633180308342
1726995844093277400,3.16627734375,-0.5040387784346938,-0.35337212388813494,-0.6799304751306772
1726995844103264300,3.17626416015625,-0.2089621916487813,-0.38655437211971727,-0.5962877308040857
1726995844113250300,3.186250244140625,0.11661182473152876,-0.5313149078950286,-0.5799351464182139
1726995844123237400,3.1962373046875,0.3491173890531063,-0.6310341961450875,-0.45959962498843665
1726995844133223200,3.20622314453125,0.38177521155178545,-0.6477922925919294,-0.053960722768306726
1726995844143210500,3.21621044921875,0.21549831541925668,-0.5459994129382073,0.2628606628358364
1726995844153197300,3.226197265625,0.030469080282747744,-0.3748166976507753,0.12067863577902316
1726995844163183400,3.236183349609375,-0.033143560189008714,-0.17893051640260962,-0.25642741491794585
1726995844173170400,3.24617041015625,-0.005480184976756572,0.013202413259260356,-0.4989157363325357
1726995844183156200,3.25615625,0.11913754381686448,0.10825838587339967,-0.48195758726894855
1726995844193143300,3.266143310546875,0.3809297006383538,0.05188241865690797,-0.35761984446048733
1726995844203129300,3.27612939453125,0.7508724355772137,-0.10119611933697015,-0.17852876720130442
1726995844213116400,3.286116455078125,1.2124804777786136,-0.26514197870604694,0.0004804769933223724
1726995844223102200,3.296102294921875,1.1432520432516933,-0.36177754866182804,0.16426175691783426
1726995844233089500,3.306089599609375,1.2960127474680543,-0.36877624844275414,0.48553486123383044
1726995844243075300,3.316075439453125,1.1426116995215416,-0.3087071257967502,0.3847960206776857
1726995844253062100,3.326062255859375,0.9064005586802959,-0.20377673356859013,0.5749363152176141
1726995844263048400,3.33604833984375,0.9215677326738834,-0.21163482665782793,0.4904284784942865
1726995844273035300,3.34603515625,1.0370414932861924,-0.18018714713389053,0.2864297544717789
1726995844283021600,3.356021484375,1.1407321693852543,-0.20566070241797715,0.3954536082923412
1726995844293008400,3.36600830078125,1.126126136405766,-0.2586275735770352,0.6175006147027016
1726995844302994200,3.375994140625,1.0944070560619235,-0.2531685592524707,0.3298620689630508
1726995844312981200,3.385981201171875,1.1949880757078528,-0.2569479864596389,-0.15763561677634716
1726995844322967300,3.39596728515625,1.4248454636082053,-0.2770146046662703,-0.40785190209448335
1726995844332954400,3.405954345703125,1.5386051137790082,-0.2616226089408621,-0.2536573656827211
1726995844342941200,3.415941162109375,1.4483409054860472,-0.2575145160349086,0.21530863806605338
1726995844352927500,3.425927490234375,1.3171636720463633,-0.21648464130917563,0.6176870771855115
1726995844362914300,3.435914306640625,1.2336334481835365,-0.21168036456629633,0.7583388259351254
1726995844372900400,3.445900390625,0.9805737561330199,-0.2319422678830102,0.8262024018496275
1726995844382887400,3.455887451171875,0.8114195509985089,-0.3131848192000761,0.6631032589703798
1726995844392873200,3.465873291015625,0.7510533451020717,-0.41018166021630165,0.12585457711219786
1726995844402860300,3.4758603515625,0.5721773718982934,-0.4284484076604247,-0.38636195482015606
1726995844412846300,3.485846435546875,0.4619786290794611,-0.44565695128850635,-0.802075676330924
1726995844422833400,3.49583349609375,0.5617278740763664,-0.43056671498864885,-1.1880290503501891
1726995844432819500,3.5058193359375,0.7802639497563243,-0.3203284438770264,-1.5251432823985813
1726995844442806500,3.515806640625,1.082193763437867,-0.08854479148867539,-1.7124042221099138
1726995844452792300,3.525792236328125,1.139662202066183,0.36692923233658076,-1.7733675171166656
1726995844462779400,3.535779296875,0.9600149522289633,1.2104721336308866,-1.4789263056248425
1726995844472765400,3.545765380859375,0.523093315255642,2.1091906864412127,-1.4528706578701733
1726995844482752300,3.555752197265625,0.3360588777765631,3.083528324663639,-1.0388748461931943
1726995844492738300,3.56573828125,-0.17602730577439069,3.741218326413631,-0.6236304957598447
1726995844502725400,3.575725341796875,-0.8001055453017354,3.8511540343821045,-0.2651397136837244
1726995844512711200,3.585711181640625,-1.1196984414458273,3.418291317410767,0.49423079338669773
1726995844522698500,3.595698486328125,-0.8153145126104354,2.767345529223978,1.0126415037840604
1726995844532684300,3.605684326171875,-0.19083119941353796,1.776967441304773,1.5933254227429627
1726995844542671400,3.61567138671875,0.488139198513329,0.6518399605475366,2.7579659987211227
1726995844552658400,3.625658447265625,0.34827333944439887,-0.04787815145161003,3.708084703096747
1726995844562644500,3.63564453125,-0.08050824569314718,-0.5694887173362075,3.4631600944459437
1726995844572631300,3.64563134765625,-0.44706367628127336,-1.0204945553719997,3.0346231317192314
1726995844582617300,3.655617431640625,-1.1475716600164771,-1.3885188894689082,1.9937924752831457
1726995844592604400,3.6656044921875,-2.40043997002393,-1.5450155653432012,1.0759095686018467
1726995844602590200,3.675590087890625,-3.0853324514761566,-1.740281824594736,0.02466039400398731
1726995844612577500,3.68557763671875,-3.1270936178848148,-1.951710844748467,-1.3515695072561502
1726995844622563300,3.695563232421875,-2.5242504740878937,-2.337692568079382,-1.8154723823964596
1726995844632550400,3.70555029296875,-1.2958549265578387,-2.6232065228804946,-1.3303127842158078
1726995844642536400,3.715536376953125,0.019335399588942526,-2.780431220768392,-1.0903811615467072
1726995844652523300,3.725523193359375,1.0229536389619112,-2.3549108293838796,-1.7257547020703554
1726995844662509600,3.735509521484375,2.0476801328152416,-0.8067433758810162,-1.628549296337366
1726995844672496400,3.745496337890625,3.5149937420576807,1.1879990936033427,-1.3314812434732912
1726995844682482400,3.755482421875,3.9548096391677854,2.677953135329485,-1.7876339428782462
1726995844692469200,3.76546923828125,2.3889634672418234,3.927152401435375,-2.555776369947195
1726995844702455300,3.775455322265625,0.287867386059463,4.350956490421295,-2.151096668148041
1726995844712442400,3.7854423828125,-0.9287015300765633,3.57364028455466,-1.4386702830821274
1726995844722428400,3.795428466796875,-1.4775269602209329,1.6757365794479846,-0.21528701075613496
1726995844732415500,3.80541552734375,-1.802819237050414,-0.13956753370948136,1.1949433597832917
1726995844742401300,3.8154013671875,-2.107408625330031,-1.1825522994395345,1.9703052167117594
1726995844752388400,3.825388427734375,-2.3070085298717022,-1.6483178266465663,2.4932278515756128
1726995844762375400,3.83537548828125,-2.2446742387726903,-1.9111366961672902,2.280458376598358
1726995844772361200,3.845361328125,-2.201331648391485,-2.30630418099463,1.1705343101918697
1726995844782348300,3.855348388671875,-2.3380881432682274,-2.6473674429297445,0.23828853163719177
1726995844792334300,3.865334228515625,-1.964274704375863,-3.07611220318824,0.43850422998964783
1726995844802321400,3.8753212890625,-1.1366676964253186,-3.5111338517591357,1.1485270610451697
1726995844812307500,3.885307373046875,-0.14380816695392132,-3.7754403294891117,1.3832885875999927
1726995844822294500,3.89529443359375,0.9605980128139257,-3.974969799143076,0.4793897826075554
1726995844832280300,3.9052802734375,1.5028420187413691,-3.835622118729353,-1.1433446899712085
1726995844842267400,3.915267333984375,1.0456097074061632,-3.111869160746038,-2.745833077856898
1726995844852253400,3.92525341796875,-0.6417021590232849,-1.5807431506760417,-1.8622703739285469
1726995844862240300,3.935240234375,-1.4732956062614917,-0.5551687347564846,0.2854313910841942
1726995844872226600,3.9452265625,-1.2542322918370366,0.027371735321916637,1.2685305740416049
1726995844882213400,3.95521337890625,-1.0629849128380418,0.39778289149012414,1.0667711533784865
1726995844892199200,3.96519921875,-1.1888149400308727,0.650986850849539,0.5939426289826631
1726995844902186500,3.9751865234375,-0.7798612141743302,0.9584897884882986,0.5809124670177698
1726995844912172300,3.98517236328125,-0.25380671102553604,0.9945132880277932,0.11741992624402045
1726995844922159400,3.995159423828125,-0.36381256162077186,0.9615600627791135,-0.22858897539973258
1726995844932145400,4.0051455078125,-0.2783344185605645,0.8806370257399976,-0.06427227342426776
1726995844942132500,4.015132568359375,0.044618893927335736,0.7757692686855793,-0.07731412582695484
1726995844952118300,4.0251181640625,0.37279111010730265,0.8234124058049171,0.12011281858980655
1726995844962105300,4.035105224609375,0.6496560406371951,0.978730758614838,0.45603754859268664
1726995844972092400,4.045092529296875,1.0373767165899277,1.100655595062673,0.9454489589989185
1726995844982078200,4.055078125,1.2088900520712136,1.3706510782144963,1.2631868749260902
1726995844992065500,4.0650654296875,1.6896695354714988,1.4948457592904567,1.1898954287439585
1726995845002051300,4.07505126953125,2.577818690407276,1.275618632606417,0.7268512162595987
1726995845012038400,4.085038330078125,3.45638753157109,0.7329732062712311,-0.32694588925540446
1726995845022024400,4.0950244140625,3.6556884531661864,0.22356261687139048,-0.9939853186309338
1726995845032011300,4.10501123046875,2.723032047984004,0.14337423251606524,-0.7962894941449165
1726995845041997300,4.114997314453125,1.3614949812039732,0.5363521714098751,-0.44219899285435676
1726995845051984400,4.124984375,0.30813714388906954,1.1836221936933695,-0.02301613392829895
1726995845061970400,4.134970458984375,-0.1894347766190767,1.7112737567752598,0.4278630089879036
1726995845071957200,4.144957275390625,-0.37966158039867876,1.9439342193976044,0.5175789357483387
1726995845081944300,4.1549443359375,-0.34333705208599563,2.214450657683611,0.3360240987241268
1726995845091931400,4.164931396484375,-0.25680238571017977,2.2961918061725792,-0.08293547284007072
1726995845101917200,4.174917236328125,0.05667085850983858,2.1510509293101725,-0.9348644366204738
1726995845111904300,4.184904296875,0.6655921531766653,1.6183777386739848,-1.7828981465280056
1726995845121890300,4.194890380859375,1.1504343559712171,0.8806577762670814,-2.029479290214181
1726995845131877400,4.20487744140625,1.0525807154625653,0.42395690492745486,-0.97825174292624
1726995845141863400,4.214863525390625,0.5804787517756224,0.21491576629094777,0.11343173339068889
1726995845151850200,4.224850341796875,0.24552082097828387,0.08585177127872594,0.6549608690470456
1726995845161836300,4.234836181640625,0.08616612532436847,-0.017741152667440474,0.9339788859575986
1726995845171823400,4.2448232421875,0.008014379629492759,-0.12148396081253886,1.0861480540215969
1726995845181809400,4.254809326171875,0.15749357795715332,-0.1521114921931643,0.7268716745257378
1726995845191796200,4.264796142578125,0.496136334747076,-0.27713866943735627,0.2722989377886057
1726995845201783300,4.274783203125,0.9108972855776548,-0.47710309644248333,0.0744534756988287
1726995845211769300,4.284769287109375,1.308885380783677,-0.810866812486574,0.07683774048686028
1726995845221756200,4.294756103515625,1.5044912472531198,-1.1612879776146263,0.28949323369562624
1726995845231742500,4.304742431640625,1.5177762607619165,-1.4253113275542855,0.6179886904805898
1726995845241729300,4.314729248046875,1.3378905259937046,-1.5515423367634416,0.9100070587396621
1726995845251715300,4.32471533203125,1.0223787616834044,-1.4948989507824182,1.0256032766878604
1726995845261702400,4.334702392578125,0.6697688543394208,-1.2812158680915833,0.7397457691460847
1726995845271688200,4.344688232421875,0.6005316519841551,-1.010916141296178,0.02362871286869049
1726995845281675300,4.35467529296875,0.4937129069924354,-0.875244519046694,-0.5817904188960791
1726995845291661300,4.364661376953125,0.45427696866095063,-0.8651688229732215,-0.3842880711555481
1726995845301648400,4.3746484375,0.3810474817991257,-0.9293198811706155,0.07776713029146194
1726995845311634200,4.38463427734375,0.31630028433948754,-1.0857965371701865,0.5431371553748846
1726995845321621500,4.39462158203125,0.1603396150380373,-1.1575133544467389,0.2555962247908115
1726995845331607300,4.404607177734375,-0.07421382172405719,-1.0938329094357788,0.049609541821479794
1726995845341594000,4.414593994140625,-0.2508516606122255,-1.0173284194912762,0.14460720837712288
1726995845351580400,4.424580322265625,-0.3430363155737519,-0.8240377711616456,0.10326046798825263
1726995845361567200,4.434567138671875,-0.33528321722894905,-0.6508205543719232,-0.11832184351980686
1726995845371553500,4.444553466796875,-0.24885025766193866,-0.6033401335336268,-0.19744915624856949
1726995845381540400,4.454540283203125,-0.02408522446453571,-0.5926015165720134,-0.1262146425962448
1726995845391526100,4.464526123046875,0.3785013044476509,-0.6733841222271323,0.022775310909748075
1726995845401513200,4.47451318359375,0.7092074230194091,-0.7226717386178672,0.13003858479857444
1726995845411499300,4.484499267578125,0.7361036132514477,-0.7847899758134037,0.27973639431297775
1726995845421486300,4.494486328125,0.6029828445285559,-0.8002716225836426,0.5726181014031172
1726995845431473200,4.50447314453125,0.49585050354301924,-0.7090877421624958,0.7125251692652702
1726995845441459500,4.51445947265625,0.5075155146345496,-0.6054644322112203,0.7414531575858593
1726995845451446300,4.5244462890625,0.5179182507053017,-0.3253200416192412,0.8031962047934532
1726995845461432300,4.534432373046875,0.5596446380615234,-0.1379772049112711,0.8895464545130729
1726995845471419400,4.54441943359375,0.6077911215931177,-0.09775870136735029,0.9452601584285497
1726995845481405200,4.5544052734375,0.6243097101956605,-0.09765687582753597,1.1390192279875277
1726995845491392300,4.564392333984375,0.7115379117935895,-0.14282609711401165,1.238669688785076
1726995845501378300,4.57437841796875,0.9424293189167976,-0.1878616820834577,0.8562222770601511
1726995845511365400,4.584365478515625,1.1779492626234889,-0.15801469748811794,0.2859522000879049
1726995845521351400,4.594351318359375,1.1826847667127847,-0.0038903219694271683,-0.3811497731298208
1726995845531338200,4.604338134765625,1.1043711084544658,0.1757708467952907,-1.0055465770870446
1726995845541324300,4.61432421875,0.8989397212803363,0.3356759794062003,-1.1373901654809713
1726995845551311400,4.624311279296875,0.4684592232704162,0.3475627069570124,-1.1053665492326021
1726995845561297400,4.63429736328125,0.03576660216897726,0.2635505082635209,-0.6914151612192392
1726995845571284200,4.6442841796875,-0.41368543055355544,0.3035617257323116,-0.1391337454020977
1726995845581270300,4.654270263671875,-0.5980746142208576,0.46242761495597656,0.0947697030186653
1726995845591257300,4.66425732421875,-0.4859808514356613,0.6468648024834692,0.09756021052002906
1726995845601243100,4.6742431640625,-0.18292028015851974,0.7785422405302524,-0.25387889947891235
1726995845611230500,4.68423046875,0.14294482812285422,0.8551099319040775,-0.9555050735890864
1726995845621216300,4.69421630859375,0.21713673027604818,0.8274127274874598,-1.371568339189887
1726995845631203300,4.704203369140625,0.14296440960615872,0.8173502562217414,-1.3505723129123448
1726995845641189400,4.714189453125,-0.0724269383072853,0.8316082064159214,-1.1497206547439098
1726995845651176200,4.72417626953125,-0.16396715788543223,0.8242036292478442,-1.0040431867867707
1726995845661162500,4.73416259765625,-0.20872516802251337,0.6506295618444681,-1.0561872155219316
1726995845671149300,4.7441494140625,-0.38527708219289775,0.3269019039832055,-1.091030565366149
1726995845681136400,4.754136474609375,-0.6127256553858518,-0.061951429261267184,-1.2614426616072654
1726995845691122200,4.7641220703125,-0.9141367058902978,-0.48204073550775645,-1.2980986138314008
1726995845701109500,4.774109619140625,-1.1379548136264086,-0.6506441748917102,-1.4316969369381665
1726995845711095300,4.78409521484375,-1.2991656585410236,-0.5291122832842171,-1.280975629594922
1726995845721082000,4.79408203125,-1.2417840214133262,-0.4029929177559912,-1.116185464888811
1726995845731068400,4.804068359375,-0.8570417767494917,-0.37291605166122316,-0.8577794433742761
1726995845741055200,4.81405517578125,-0.32194471996724605,-0.2742166079781949,-0.6800473795086145
1726995845751041500,4.82404150390625,-0.0610550649434328,-0.24008096801191567,-0.5786076972067355
1726995845761028400,4.8340283203125,0.08599310684502125,-0.37739056672677396,-0.26249767474234104
1726995845771014100,4.84401416015625,0.11207564260661601,-0.6167775611251592,0.2786830858677625
1726995845781001200,4.854001220703125,-0.09002806144952774,-0.8818781118422746,0.6883914294838905
1726995845790987300,4.8639873046875,-0.3605284253835678,-1.0211305151879786,0.9010743952214717
1726995845800974300,4.873974365234375,-0.4717430672466755,-1.0402671773344279,0.8375076397180556
1726995845810960400,4.88396044921875,-0.4834007718145847,-0.8240794183462857,0.7169897474586964
1726995845820947500,4.893947509765625,-0.4023836998164654,-0.5288061399444938,0.7350485512405633
1726995845830933200,4.903933349609375,-0.11595628343224525,-0.4593418508350849,0.828860807403922
1726995845840920300,4.91392041015625,-0.05049275439679622,-0.23131460097134113,0.8929588933050632
1726995845850906400,4.92390625,0.098673724719882,0.037895723152160644,0.6798182469278573
1726995845860893200,4.93389306640625,0.004977203890681266,0.08276274662166834,0.5944675296396017
1726995845870879500,4.94387939453125,-0.2887614122897386,0.18897651145756245,0.5035977566689253
1726995845880866300,4.9538662109375,-0.6366676719874144,0.24572072746455667,0.4512473917067051
1726995845890852000,4.96385205078125,-0.7504220614612102,0.37607641538828607,0.5236462729632854
1726995845900839400,4.97383935546875,-0.7200561492919921,0.4840434536322951,0.6061649816960096
1726995845910825200,4.9838251953125,-0.7238748307973146,0.5091892930656671,0.8194926750779151
1726995845920812300,4.993812255859375,-0.742955086581409,0.5945055235624312,1.2240005274415016
1726995845930798300,5.00379833984375,-0.5570113669484853,0.5945008473873138,1.4806559058964253
1726995845940785400,5.013785400390625,-0.45909196772724387,0.61662675447762,1.6245874069690704
1726995845950772200,5.023772216796875,-0.21551438977122306,0.597577770614624,1.6428922944664954
1726995845960758300,5.03375830078125,0.4054644224360585,0.3163730573147535,1.3578425961762666
1726995845970745300,5.043745361328125,0.8783946536406874,-0.058903439867496486,0.8873749556928873
1726995845980731100,5.053731201171875,1.0305337188273667,-0.8424404199451208,0.2348889523267746
1726995845990718500,5.063718505859375,0.8653975171625614,-1.6179025223776697,-0.19315525844693182
1726995846000704300,5.073704345703125,0.7354045250713824,-2.0258988013789057,-0.4243716597408056
1726995846010691300,5.08369140625,0.5721843861609697,-2.3795395130753514,-0.3452718195408582
1726995846020677400,5.093677490234375,0.358278892891109,-2.6909996639072893,0.045188802769780156
1726995846030664200,5.103664306640625,0.13639642939269542,-2.8111712269470095,0.48041503400206564
1726995846040650200,5.113650146484375,0.17706980056464672,-2.6999630148246885,0.8432663493752479
1726995846050637300,5.12363720703125,0.26824966239780185,-2.4117799869447945,0.9786287595450878
1726995846060623400,5.133623291015625,0.31723025866597887,-1.8667972037032246,1.01510409450531
1726995846070610200,5.143610107421875,0.501119676117599,-1.2937407108828425,0.8218518054246902
1726995846080596200,5.15359619140625,0.6843599820107221,-0.6965329426243901,0.5746832172393799
1726995846090582800,5.163582763671875,0.918729878899455,-0.17071049466580152,0.33958032990097997
1726995846100568800,5.17356884765625,1.1351257276803255,0.25111469546258447,0.13355273039937018
1726995846110555600,5.1835556640625,1.3667688299536704,0.6542799010455608,0.07467793210446834
1726995846120541700,5.193541748046875,1.6584481755167244,1.0628946042060852,0.04370294812619686
1726995846130528800,5.20352880859375,1.8289602250009773,1.29669196190387,-0.040498599126935
1726995846140514800,5.213514892578125,2.0512313955560324,1.3135776302531361,-0.028407179316878316
1726995846150501600,5.223501708984375,1.9288623224720358,1.346687580433488,0.10497194808125496
1726995846160487700,5.23348779296875,1.5826421161651612,1.4041022430479526,0.48697979934513563
1726995846170474800,5.243474853515625,1.2244029707625508,1.4581234638318419,1.0086404514491558
1726995846180460800,5.253460693359375,1.128954930090904,1.4980825492545962,1.3119330779165028
1726995846190447900,5.26344775390625,1.213872808919847,1.7369088410302995,1.3910925393491982
1726995846200433700,5.27343359375,1.0753732697680591,1.8717586255028842,1.1744757412940263
1726995846210420700,5.283420654296875,1.0041866869106888,1.949843151180446,1.0425468127042055
1726995846220407800,5.29340771484375,1.1157239848569034,1.6465639687165616,0.8925754469454288
1726995846230393600,5.3033935546875,1.1670286401584744,1.1953665536314249,0.7589350382626057
1726995846240380700,5.313380615234375,1.3378925718203185,0.6665712273418903,0.7348205877035856
1726995846250366700,5.32336669921875,1.411608380894363,0.21680501410365102,0.8465034316003323
1726995846260353800,5.333353759765625,1.398444947938621,0.02741846054047346,0.8913403521925211
1726995846270339800,5.34333984375,1.400231539094448,-0.0475964484333992,0.8361088788360357
1726995846280327000,5.353326904296875,1.4631892227888106,-0.04797784896641969,0.7990344089388847
1726995846290312700,5.363312744140625,1.5263593801900743,0.04814706805348396,0.6099520990192889
1726995846300299500,5.373299560546875,1.5939976229161024,0.21622662969380615,0.3684153792411089
1726995846310285800,5.383285888671875,1.5770596398577093,0.36682986361533404,0.1176835456162691
1726995846320272600,5.393272705078125,1.3433347628742456,0.45314168102070684,0.04731704697012901
1726995846330259000,5.403259033203125,1.0257160894125699,0.4774351414084434,0.14312193825542927
1726995846340245800,5.413245849609375,0.9519181550130248,0.27081483671069145,0.10385141961872577
1726995846350231600,5.4232314453125,0.9152639563545584,-0.03414323875084519,-0.06867839942872524
1726995846360219000,5.433218994140625,0.8763707465976476,-0.41902386897206306,-0.30229484760165215
1726995846370204700,5.44320458984375,0.8613321674197911,-0.5779676457375288,-0.5737292775154114
1726995846380191700,5.453191650390625,0.7824372021421789,-0.5652522488102316,-0.7061538806676865
1726995846390177800,5.463177734375,0.5330731497392058,-0.4184671118721366,-0.8024901023507117
1726995846400164900,5.473164794921875,0.16094342615008353,-0.1777913928374648,-0.7364525728195905
1726995846410150700,5.483150634765625,-0.6460246983975172,0.36358898199796674,-0.06710019032657145
1726995846420137700,5.4931376953125,-1.721850095847249,0.8131858300186693,0.8824053505867719
1726995846430123800,5.503123779296875,-2.4894991864413023,0.9768117001857608,1.6381687730759382
1726995846440110600,5.513110595703125,-2.511003162240982,0.8740535556964576,1.9051736961096524
1726995846450097000,5.523096923828125,-2.1294383785694837,0.5395799012847244,1.461056886935234
1726995846460083700,5.533083740234375,-1.4201882854521273,0.15095672353431583,0.7510200273543596
1726995846470069800,5.54306982421875,-0.7128443182170391,-0.030444895689561963,-0.024846856486797332
1726995846480056800,5.553056884765625,-0.30633740099072454,-0.12754150728583336,-0.599856821462512
1726995846490042600,5.563042724609375,0.30643560066819187,-0.20662227745912967,-1.3399036193817853
1726995846500029700,5.57302978515625,0.7950731040924787,-0.41155568851586427,-2.131966435742378
1726995846510015700,5.583015625,0.9044748513147235,-0.5946911457950249,-2.4356799179702997
1726995846520002800,5.5930029296875,0.9023281946748495,-0.8130655646398663,-2.4226076704293487
1726995846529988900,5.60298876953125,0.7956517807632685,-1.188836494275555,-1.9734552051752805
1726995846539975700,5.6129755859375,0.5626370978757739,-1.5155283357046543,-1.5433154834270477
1726995846549962800,5.622962646484375,0.15758300980627535,-1.6231138272851704,-1.0189549247145653
1726995846559948800,5.63294873046875,-0.32791794915795325,-1.6041289946995674,-0.48617140557169913
1726995846569936000,5.642935791015625,-0.6566513063520193,-1.4662103241756557,-0.33866263053417206
1726995846579921700,5.652921630859375,-1.088374497899413,-1.2292271760486067,-0.4298439536720514
1726995846589908700,5.66290869140625,-1.367629246175289,-0.9336568143963814,-0.7206412557035684
1726995846599894800,5.672894775390625,-1.548540524598956,-0.7285359544761478,-1.155231527119875
1726995846609881600,5.682881591796875,-1.580501012483239,-0.7831170010998845,-1.3833119684755801
1726995846619868000,5.692867919921875,-1.5677581430271268,-0.9443257271226495,-1.1023521698474883
1726995846629854700,5.702854736328125,-1.7113880308046936,-1.2028744450435043,-0.5043950445264578
1726995846639840800,5.7128408203125,-1.7402306789293884,-1.4579603822246192,0.15267828662991523
1726995846649827800,5.722827880859375,-1.8966063587725162,-1.5841922682166099,0.7047855149239302
1726995846659813600,5.732813720703125,-2.029323807391524,-1.547679231594503,1.170339664402604
1726995846669800700,5.74280078125,-2.2322598706185817,-1.360227153225243,1.5187258165717124
1726995846679786800,5.752786865234375,-2.5822026045799253,-1.0483167744077742,1.7483996645987032
1726995846689773800,5.76277392578125,-2.5916449711859224,-0.7719541673768311,1.71146021925807
1726995846699759600,5.772759521484375,-2.276653431357443,-0.6326952612251043,1.3993313753843306
1726995846709747000,5.782746826171875,-1.6825976973891257,-0.6480774662088602,0.8534230017304419
1726995846719732700,5.792732666015625,-0.6823083101779223,-0.5597299051921815,0.1707569641560316
1726995846729719600,5.802719482421875,0.5894897412270307,-0.43804380940366533,-0.2544377024054527
1726995846739705900,5.812705810546875,2.08967423119694,-0.1520355591464322,-0.810000039589405
1726995846749692700,5.822692626953125,3.284980871334672,0.3650130965169519,-1.4329741172671318
1726995846759678700,5.8326787109375,3.4285745187550782,0.9539702652372419,-1.5669307522922753
1726995846769665800,5.842665771484375,2.8399942935883997,1.3937788558237254,-1.3723673806130885
1726995846779651600,5.852651611328125,1.7143091789484024,1.5015195379659532,-1.0639975970119238
1726995846789638700,5.862638671875,0.6754694040685891,1.1966950257562101,-0.4580810371190309
1726995846799624700,5.872624755859375,0.16734218727648256,0.7692988305624574,-0.26419512630999087
1726995846809611800,5.88261181640625,-0.3586901040405035,0.3243206918509677,-0.42845980583727356
1726995846819597800,5.892597900390625,-1.0151724835664033,0.04448986072018742,-0.6234235750108957
1726995846829585000,5.9025849609375,-1.571004577602446,-0.1998846580334939,-0.5421393765091895
1726995846839570700,5.91257080078125,-1.7766770800560712,-0.5299472362710163,-0.15196049374938012
1726995846849557800,5.922557861328125,-1.6490812122344969,-0.6879653130263089,0.15039046795368194
1726995846859543800,5.932543701171875,-1.3800737172067166,-0.7811097529307007,0.39940848339796065
1726995846869530600,5.942530517578125,-1.0089122541278601,-0.9112943951364606,0.5846791260749101
1726995846879517700,5.952517578125,-0.5782677977278828,-0.9536229131042957,0.6603793869644403
1726995846889503700,5.962503662109375,-0.25618571511656046,-0.8188291696678847,0.6494336300581693
1726995846899490800,5.97249072265625,-0.0780693281084299,-0.6172326114162803,0.4221861323952675
1726995846909476900,5.982476806640625,-0.023958675475418568,-0.433978057802096,-0.05616495481431484
1726995846919463700,5.992463623046875,0.041085459104180336,-0.28806480832770465,-0.6229951204657554
1726995846929449700,6.00244970703125,0.15168693750500678,-0.2294770102806389,-1.087423480784893
1726995846939436800,6.012436767578125,0.3362690133959055,-0.2523654809749685,-1.2357248675048351
1726995846949422800,6.0224228515625,0.5112912337809801,-0.37003618537597355,-1.1998556817442179
1726995846959409700,6.03240966796875,0.6605643881425262,-0.5265061193738132,-1.09628775524199
1726995846969395700,6.042395751953125,0.7162982580631971,-0.7365861360713839,-0.7822031011253595
1726995846979382800,6.0523828125,0.7926490918159484,-0.8804306895129382,-0.44617257266044613
1726995846989368600,6.06236865234375,0.743105893228948,-0.7966239867962897,-0.254925778183341
1726995846999356000,6.07235595703125,0.5608236187130212,-0.5970571808066218,-0.04678454752862453
1726995847009341700,6.082341796875,0.48860740054696794,-0.39416729480884966,0.08842880955934523
1726995847019328800,6.092328857421875,0.4566539269253611,-0.257942312992923,0.05543547149598598
1726995847029314800,6.102314697265625,0.4526815161630511,-0.2533467653635889,0.2409317396223545
1726995847039301600,6.112301513671875,0.3989356051892042,-0.3632784547440707,0.7083850007206202
1726995847049287700,6.12228759765625,0.33451573998779055,-0.5195158220950514,1.19591658872962
1726995847059274800,6.132274658203125,0.32468057467192407,-0.632301439601928,1.503107391679287
1726995847069260800,6.1422607421875,0.35202480093240734,-0.7317559394359588,1.4636281987279653
1726995847079247600,6.15224755859375,0.5172662165373564,-0.8556931386195122,1.2724608992278574
1726995847089233400,6.1622333984375,0.7024386595368385,-0.9966131829164921,0.9833213012754917
1726995847099220200,6.17222021484375,0.9335384487137198,-1.178594282528758,0.7717559413909911
1726995847109206500,6.18220654296875,1.181356440718472,-1.4536550862461328,0.5708867475658654
1726995847119193300,6.192193359375,1.3618579692974686,-1.6449261383816598,0.38025428559482094
1726995847129179100,6.20217919921875,1.413959620195627,-1.833885552573949,0.11365151362121105
1726995847139166500,6.21216650390625,1.4600421569347382,-1.972950762784481,-0.3633160102754831
1726995847149152300,6.22215234375,1.4452069913744925,-2.0409112232021984,-0.9516711945146322
1726995847159139300,6.232139404296875,1.1891244443714617,-2.073907045483589,-1.2234095758110284
1726995847169125400,6.24212548828125,1.0620607837304472,-2.1205299727097153,-1.6348557030051947
1726995847179112400,6.252112548828125,0.9211813637048005,-1.9957716664016245,-1.8083634271740912
1726995847189098200,6.26209814453125,0.47003450976312156,-1.8655260147236286,-1.5021587126523255
1726995847199085300,6.272085205078125,0.18244243351370096,-1.7673206381678581,-1.4620990894645451
1726995847209071400,6.2820712890625,-0.15644436116516588,-1.6543734734237192,-1.3708376868277787
1726995847219058200,6.29205810546875,-0.5108256620958447,-1.4041262084454298,-1.2265934665441511
1726995847229044500,6.30204443359375,-0.93480627669245,-1.2072882428977638,-1.1851344979524612
1726995847239031300,6.31203125,-1.582778309765458,-1.1701795784700662,-1.0306441934645176
1726995847249018400,6.322018310546875,-1.700380022317171,-1.0008709134262055,-0.6156482648342847
1726995847259004400,6.33200439453125,-1.4791653750777243,-0.8721331090278923,-0.37899990161955355
1726995847268991200,6.3419912109375,-1.2649796035617589,-0.8500926882639527,-0.20878478925526142
1726995847278977300,6.351977294921875,-1.023507765713334,-0.8214793188504874,-0.07806699002087115
1726995847288964400,6.36196435546875,-0.9557871054008602,-0.7226900049269199,-0.11773206093311309
1726995847298950400,6.371950439453125,-0.8923258560985327,-0.6811386818766594,-0.3424246134161949
1726995847308937200,6.381937255859375,-0.7205266894131899,-0.7153986788749694,-0.5543839410543442
1726995847318923300,6.39192333984375,-0.6545479043319821,-0.8620325707741081,-0.8026040841192007
1726995847328910300,6.401910400390625,-0.6136445237964392,-1.0084782466247677,-1.1892232285708189
1726995847338896400,6.411896484375,-0.6858420372620224,-1.1214930697776377,-1.282467329457402
1726995847348883500,6.421883544921875,-1.1032140473738312,-1.1842018932774663,-1.2196452548414467
1726995847358869200,6.431869140625,-1.539372298759222,-1.247332595451176,-1.0384130739003419
1726995847368856300,6.441856201171875,-1.8908149158895016,-1.2344048709474502,-0.7447153742522001
1726995847378842400,6.45184228515625,-1.9307520817413926,-1.0604090710006653,-0.343972427380085
1726995847388829200,6.4618291015625,-1.916006640291214,-0.854088772162795,-0.11693711116313933
1726995847398815500,6.4718154296875,-2.044695271785557,-0.4638718954801559,-0.04034428534805774
1726995847408802300,6.48180224609375,-1.8779767693653702,-0.3222968944057822,0.0216980370670557
1726995847418788400,6.491788330078125,-1.315886783978343,-0.24323066421449183,-0.004261164575815201
1726995847428775400,6.501775390625,-0.806322227859497,0.055390463310480115,-0.05192074137330055
1726995847438761200,6.51176123046875,-0.4336030139446258,0.35566666456609963,0.1734457648485899
1726995847448748300,6.521748291015625,-0.041437925803661346,0.49502545089572664,0.5748012906610965
1726995847458734300,6.531734375,0.1717068122267723,0.5760539210706949,0.9821043267011642
1726995847468721400,6.541721435546875,0.352909474812448,0.718450467661023,1.3989789086848496
1726995847478707200,6.551707275390625,0.32015053002685306,0.8024135299831628,1.951305332687497
1726995847488694500,6.561694580078125,0.27981588928997514,0.9121265351116656,2.419966216009855
1726995847498680300,6.571680419921875,0.27445231643021106,0.9235045459553599,2.7488988951683044
1726995847508667100,6.581667236328125,0.27788667479306456,0.9468705162346363,3.068063044506311
1726995847518653400,6.5916533203125,0.3790595228523016,0.937368820656836,3.0934903312295674
1726995847528640300,6.60164013671875,0.5512310299813747,0.9250710646197199,2.923182279884815
1726995847538626600,6.61162646484375,0.6923845907732844,1.098725503782928,2.644994284057617
1726995847548613400,6.62161328125,0.8479331721425056,1.0981699157267808,2.4108190329581496
1726995847558599200,6.63159912109375,0.8271294535666703,1.1206330919474363,2.072332343512773
1726995847568586200,6.641586181640625,0.6507131484746933,1.0127975711286068,1.5875906784832476
1726995847578572300,6.651572265625,0.5951882451295852,0.7437602654844522,1.1736889748305082
1726995847588559400,6.661559326171875,0.5210673623859882,0.5152990081176162,0.809970228973031
1726995847598545400,6.67154541015625,0.41107407901138066,0.4033057830974459,0.646010085350275
1726995847608532500,6.681532470703125,0.36567514062225814,0.452325542332232,0.5948527295649051
1726995847618519300,6.691519287109375,0.457437478518486,0.5912307396754622,0.28103052577674387
1726995847628505300,6.70150537109375,0.7072592115610837,0.8096767989844084,-0.05607786105275154
1726995847638492400,6.711492431640625,1.0020037899136542,1.0798588907495141,-0.4477425984561443
1726995847648478200,6.721478271484375,1.3117010227262973,1.3446639656513928,-1.0482365487784147
1726995847658465300,6.73146533203125,1.5992191569566725,1.5301196095064282,-1.5380308210223912
1726995847668451300,6.741451416015625,1.9967866886630654,1.4897250552758574,-2.1243431012570855
1726995847678438400,6.7514384765625,2.2264807026952504,1.2489471910409629,-2.2416560599952935
1726995847688424400,6.761424560546875,2.094582753765583,0.9522408110961318,-2.0608418122053145
1726995847698411300,6.771411376953125,1.784984305152297,0.6883249401189386,-1.4702023164212703
1726995847708397300,6.781397216796875,1.419831142577529,0.3231402133621275,-0.7291963180810213
1726995847718384400,6.79138427734375,1.242875323781371,0.025679069527238606,-0.008393734335899353
1726995847728370400,6.801370361328125,1.0557231051415203,-0.21702187172472476,0.5548176562964916
1726995847738357200,6.811357177734375,0.8686988967955112,-0.3392079894572496,0.9595973113387822
1726995847748343300,6.82134326171875,0.7300514736056327,-0.3686861590065062,1.1975807225495576
1726995847758330400,6.831330322265625,0.49039983692169187,-0.34998321210220457,1.3609230265349148
1726995847768316200,6.841316162109375,0.3084095310896635,-0.41581776640713214,1.4492138889282942
1726995847778303500,6.851303466796875,0.22207681702673435,-0.4058937537640333,1.3623399075955152
1726995847788289300,6.861289306640625,0.2071913825839758,-0.35267815027460453,1.2691145114094018
1726995847798276400,6.8712763671875,0.1884761607199907,-0.23054975407868622,1.1547212395101785
1726995847808262400,6.881262451171875,-0.07983809134662151,-0.1514407076589763,0.9026204556196927
1726995847818249200,6.891249267578125,-0.19060849657356738,-0.08207622566223144,0.6587742898553609
1726995847828235300,6.9012353515625,-0.180898126681149,-0.018771628226339817,0.47281566491425037
1726995847838222300,6.911222412109375,0.02097790609896183,0.010357581754773854,-0.0988783073812723
1726995847848208400,6.92120849609375,0.00073415949344635,0.06674845427945256,-0.5800462055772543
1726995847858195200,6.9311953125,-0.0452870024472475,0.12996924588941036,-0.9106213912457227
1726995847868181200,6.94118115234375,-0.0021197686329483983,0.10802782852053641,-1.4725748907715082
1726995847878168300,6.951168212890625,-0.28772447045743466,-0.05951901448257267,-1.5758692610293625
1726995847888154400,6.961154296875,-0.31061902383267875,-0.28193704616241155,-1.399756322798133
1726995847898141400,6.971141357421875,-0.2645449626609683,-0.4672931751657277,-1.410108789986372
1726995847908127200,6.981127197265625,-0.2153513081640005,-0.6083684830896556,-1.6653449492931365
1726995847918114300,6.9911142578125,-0.3276388399556279,-0.6302893691271543,-1.8392162460774182
1726995847928100400,7.001100341796875,-0.33468466681391,-0.6165201522979885,-1.6382225490897893
1726995847938087200,7.011087158203125,-0.518796202583611,-0.5900980093184858,-1.3982500098884105
1726995847948073500,7.021073486328125,-0.7825099751174449,-0.48944991578571495,-0.8145826912045478
1726995847958060300,7.031060302734375,-1.0279065851941704,-0.3913374782104045,-0.24357787021696567
1726995847968046300,7.04104638671875,-1.3165274199694394,-0.33882892701178785,0.24938567971289155
1726995847978033400,7.051033447265625,-1.5256751973181961,-0.30405827707760036,0.5977221475213765
1726995847988020500,7.0610205078125,-1.6173793752864003,-0.03564487548545003,0.6017150165498256
1726995847998006300,7.07100634765625,-1.5622645140469074,0.19435856982208788,0.5723895533442497
1726995848007993300,7.080993408203125,-1.2525778026282786,0.41323578708991404,0.328929172027111
1726995848017979400,7.0909794921875,-0.4603261856973171,0.921896526236832,-0.01321662444770336
1726995848027966200,7.10096630859375,0.47032910879552364,1.4500485861867665,-0.08144786463081836
1726995848037952500,7.110952392578125,1.355797938606143,1.9948074975445866,-0.025951602858304976
1726995848047939300,7.120939208984375,1.416520410594344,2.4017335169658063,0.18046470369994638
1726995848057925000,7.130925048828125,0.9580904139071702,2.5665777499467133,0.23794892441928386
1726995848067912400,7.140912353515625,0.4222288024932146,2.342570549379289,0.31147827101051806
1726995848077898200,7.150898193359375,-0.09048457304537295,1.858474781037867,0.13370704417824744
1726995848087885000,7.160885009765625,-0.5036585469454526,1.2438650654710828,0.5677858589410781
1726995848097871400,7.170871337890625,-0.5934335104167461,0.6254990661107004,1.145867486447096
1726995848107858200,7.180858154296875,-0.7308034610167146,0.3228335585657507,1.4369243161976337
1726995848117844200,7.19084423828125,-0.8771978450715542,0.021963976260554043,1.3782868337899445
1726995848127831300,7.200831298828125,-0.7575380309462547,-0.20286531781209632,0.9642840078502893
1726995848137817000,7.210817138671875,-0.8396183482617139,-0.44531317935213444,0.3816086228132248
1726995848147804200,7.22080419921875,-1.131066223156452,-0.7688518174473196,-0.0726186614871025
1726995848157790200,7.230790283203125,-1.5311837316066026,-1.0090722669951617,-0.4363280549943447
1726995848167777300,7.24077734375,-1.7089017669469118,-1.3487785613633692,-0.5581237121045589
1726995848177763300,7.250763427734375,-1.4676529241994023,-1.67469116204828,-0.43593759437203405
1726995848187750400,7.26075048828125,-0.8761208634898066,-1.8463930058389901,-0.3239239110857248
1726995848197736200,7.270736083984375,-0.4546300198823213,-1.9965294990316031,-0.28634967497289177
1726995848207723300,7.28072314453125,-0.2401163315862417,-1.9413224294640123,-0.11239946773350239
1726995848217709300,7.290709228515625,-0.052446226552128786,-1.7848690082095562,0.039029695618152616
1726995848227696000,7.300696044921875,0.1869774465948343,-1.4517612353235483,0.05664309372007847
1726995848237682400,7.310682373046875,0.36802316505312915,-1.0601609414584934,-0.08758242186307906
1726995848247669200,7.320669189453125,0.4765338086545467,-0.7594860232088715,-0.23915713116526602
1726995848257655000,7.330655029296875,0.542953615501523,-0.5551543409049511,-0.4076923276185989
1726995848267642400,7.340642333984375,0.505103485056758,-0.4291640085838735,-0.5190653749138117
1726995848277628200,7.350628173828125,0.4801116671413183,-0.287974810223002,-0.5953969194442034
1726995848287615200,7.360615234375,0.5954015956193208,-0.2184732578431256,-0.5036614695549011
1726995848297601300,7.370601318359375,0.8100766119569539,-0.1692322570730932,-0.3065191872984171
1726995848307588400,7.38058837890625,0.9296914178967476,-0.13724133751792833,-0.14358254150450228
1726995848317574100,7.39057421875,0.893628755390644,-0.17748431791597977,-0.009043722677230834
1726995848327561200,7.400561279296875,0.7976222040534019,-0.23876195783521978,0.14224164828956126
1726995848337547300,7.41054736328125,0.6557821223020553,-0.3158475356033072,0.2725198870629072
1726995848347534000,7.4205341796875,0.5501625239670276,-0.32946861266605554,0.261596926510334
1726995848357520400,7.430520263671875,0.4621194988548755,-0.354521038194932,0.181431502905488
1726995848367507200,7.440507080078125,0.438147671636939,-0.38055692180320616,0.032064532780647276
1726995848377493200,7.4504931640625,0.45794542804062366,-0.30720274911578743,-0.09126958594322204
1726995848387480300,7.460480224609375,0.4482496711954474,-0.30004589963108297,-0.0017775310665369033
1726995848397467100,7.470467041015625,0.4987462249845266,-0.3658131243208423,0.13545476462841033
1726995848407453200,7.480453125,0.6515288487717509,-0.4379828364640474,0.07556991250813007
1726995848417440300,7.490440185546875,0.7132330252736806,-0.45184016996808346,-0.14967092150747774
1726995848427426300,7.50042626953125,0.6364975761175156,-0.47206543106883764,-0.265410931840539
1726995848437413000,7.5104130859375,0.45130672067850824,-0.4267076284077018,-0.21409692418873308
1726995848447399200,7.520399169921875,0.4021645041078329,-0.39607605103962124,-0.06245850200057029
1726995848457386200,7.53038623046875,0.4404103558719158,-0.39736952491626143,-0.13859481621980665
1726995848467372300,7.540372314453125,0.6789134070426225,-0.560238146975264,-0.4674222814381122
1726995848477359400,7.550359375,1.0159709404677153,-0.7169529956448822,-0.8241285181850194
1726995848487345200,7.56034521484375,1.067834983217716,-0.8489927641980349,-1.215496902990341
1726995848497332200,7.570332275390625,1.183103576646745,-1.0311834149077534,-1.8830530497163533
1726995848507318300,7.580318359375,1.0682625609800218,-1.1192946098852903,-2.3307693446874618
1726995848517305000,7.59030517578125,0.8799757853522896,-1.1850339601874351,-2.658800691092014
1726995848527291400,7.60029150390625,0.2933697828680277,-1.3245634269088506,-2.918402644392848
1726995848537278200,7.6102783203125,-0.42861148926764725,-1.321858551864326,-2.8475960007637737
1726995848547264300,7.62026416015625,-1.1927858894884587,-1.2014813832499087,-2.4449545267939565
1726995848557251300,7.630251220703125,-1.9620996984243393,-1.0059636334553361,-1.9555887090951203
1726995848567237000,7.640237060546875,-2.5958462222680447,-0.936017552178353,-1.0742512800008057
1726995848577224200,7.65022412109375,-3.002782763083279,-0.8572269240580499,-0.012699322575330733
1726995848587210200,7.660210205078125,-3.1417788535803552,-0.7897453331984579,0.6163245566606521
1726995848597197300,7.670197265625,-3.2187863976761695,-0.8019628636062145,1.1824766769200563
1726995848607183000,7.68018310546875,-2.8803616675511,-0.6932952758774161,1.7606354613155126
1726995848617170400,7.69017041015625,-2.6328932196363803,-0.5623994897276163,2.039877934631705
1726995848627156200,7.70015625,-2.5997318315297364,-0.46218233495801686,2.135351986527443
1726995848637143000,7.71014306640625,-2.1076590929597616,-0.4248120969846844,2.361602874368429
1726995848647129300,7.72012939453125,-1.4124123907536268,-0.28208441874384876,2.4058272160202265
1726995848657116200,7.7301162109375,-0.8058630859151482,0.09600742812007665,1.86347682710886
1726995848667102500,7.7401025390625,-0.20610475639104842,0.189986273021996,1.5427221937090159
1726995848677089300,7.75008935546875,0.510908956465125,0.3697267541006207,1.6888661101341247
1726995848687075000,7.760074951171875,0.9889099150627851,0.549096940562129,1.9365543382793664
1726995848697062100,7.770062255859375,1.323044839039445,0.6953370108380913,2.278257651683688
1726995848707048200,7.780048095703125,1.5881667248055338,0.8252417401239276,2.62137784614861
1726995848717035300,7.79003515625,1.6693740586787462,0.9162555977404117,2.6216023025542494
1726995848727021300,7.800021240234375,1.5750988611787557,0.9966413860976695,2.3554700707018372
1726995848737008400,7.81000830078125,1.4626111306399106,1.1801347899690269,2.2199755585849283
1726995848746994200,7.819994140625,1.5550170271366834,1.2477490672975777,2.256457907807827
1726995848756981200,7.829981201171875,1.5190578250050544,1.559917074137926,1.8892004664301871
1726995848766967300,7.83996728515625,1.4940271363839506,2.0010536984577776,1.1757663656264543
1726995848776954000,7.8499541015625,1.3647034218564629,2.5499972020238637,0.640306905272603
1726995848786941200,7.859941162109375,1.2789920545622706,2.9200480735123158,0.3546557339578867
1726995848796927200,7.86992724609375,1.1379939765930176,3.0791911722421643,-0.03498480414152145
1726995848806914300,7.879914306640625,0.8432052668377756,2.9666861983075736,-0.05964753623306751
1726995848816900400,7.889900390625,0.6153183022275567,2.579148477706313,0.0640092385739088
1726995848826887200,7.89988720703125,0.4863035075187683,2.1701839381948114,0.1079851584225893
1726995848836873200,7.909873291015625,0.502977286683023,1.6060241607964039,0.12436872246861456
1726995848846860300,7.9198603515625,0.35789193940013647,1.08258919249624,0.2188414883673191
1726995848856846300,7.929846435546875,0.24043109662383794,0.6945468833737075,0.36031156776249407
1726995848866833200,7.939833251953125,0.24080051445811987,0.42181729908287524,0.43951369929313655
1726995848876819200,7.949819091796875,0.3234066092133522,0.17828940548747776,0.27001228815615175
1726995848886806300,7.95980615234375,0.4636988770008087,0.06974573639929295,-0.0732680653065443
1726995848896792000,7.9697919921875,0.5536299078166484,0.14200272496715188,-0.40101533407270906
1726995848906779400,7.979779296875,0.5878212234929203,0.17308189997225998,-0.6774556094497441
1726995848916765200,7.98976513671875,0.5960881165787577,0.15568857436180114,-0.8535825762063264
1726995848926752300,7.999752197265625,0.6099672965884209,-0.015463964983075857,-1.0387737239062786
1726995848936738300,8.00973828125,0.7358066761314869,-0.26308226969726384,-1.2154817054212093
1726995848946725000,8.01972509765625,0.8513593471989035,-0.5702645240142941,-1.1741963398307562
1726995848956711200,8.029711181640625,0.9601789106190204,-0.8811269281487911,-1.2104729373484848
1726995848966698200,8.0396982421875,1.2235875627264379,-0.980289970755577,-0.9533435116410255
1726995848976684300,8.049684326171874,1.4696782925471663,-0.8587555949300527,-0.6912637700498103
1726995848986671000,8.059671142578125,0.6125026602849364,-0.7354076668765396,-1.0829507192850112
1726995848996657200,8.0696572265625,0.30709611040353774,-0.7111185904029756,-0.8975801233649253
1726995849006644200,8.079644287109375,0.20253595799356697,-0.7574763638868928,-0.8650994109988213
1726995849016630300,8.08963037109375,-0.1697390192851424,-0.816802559211105,-0.7626432451307773
1726995849026617300,8.099617431640626,-0.3241282014861703,-0.8385624825332313,-0.5646610049188137
1726995849036603100,8.10960302734375,-0.5875593576863408,-0.7037595328770577,-0.5508826549351215
1726995849046590200,8.119590087890625,-1.244106034620106,-0.5384770180767402,-0.5744499930053949
1726995849056576300,8.129576171875,-1.468845348854363,-0.6037426499199122,-0.2649924141675234
1726995849066563000,8.13956298828125,-1.5579799685955047,-0.5762558003183454,-0.27840485344827176
1726995849076549400,8.14954931640625,-1.6140098988533018,-0.4355753003982827,-0.09427519749999046
1726995849086536200,8.1595361328125,-1.5303823520958422,-0.40150739190597085,0.1126642561495304
1726995849096522000,8.16952197265625,-1.2615052054494618,-0.47048532227054235,0.14866028316020966
1726995849106509300,8.17950927734375,-1.0592802131012082,-0.5187513770611957,-0.002423427754640579
1726995849116495000,8.1894951171875,-1.0664590186893939,-0.4972507257297635,-0.23568740922808645
1726995849126482200,8.199482177734374,-1.000161669178307,-0.3436626307785511,-0.2921481321185827
1726995849136468200,8.20946826171875,-0.8153074983477592,-0.05369765138532966,-0.15884148543477059
1726995849146455300,8.219455322265626,-0.7800389088287949,0.49272404208555814,0.01583703607916832
1726995849156441000,8.229441162109374,-0.4798483400300145,1.2318471492886542,0.01125730707347393
1726995849166428200,8.23942822265625,0.1548357569247484,1.9086546700932085,-0.10291443102955818
1726995849176414200,8.249414306640626,1.0997191909953952,2.501452366824448,-0.17816928623914718
1726995849186401000,8.259401123046874,1.1879925177320838,2.892052397605777,-0.04273088822364807
1726995849196387300,8.26938720703125,0.7163166705027222,2.893474831624329,0.23811902028918264
1726995849206374100,8.2793740234375,0.24075725983828306,2.4681840112119913,0.47631110581457614
1726995849216360200,8.289360107421874,0.05959872865527868,1.8044167353749274,0.5488865126818419
1726995849226347300,8.29934716796875,0.013531389485299587,1.068146825645864,0.6082254213571548
1726995849236333000,8.3093330078125,-0.24595365943759678,0.4501199951119721,0.7326859137624502
1726995849246320000,8.319320068359374,-0.6266577346265315,0.15223222336284814,1.0229717591404914
1726995849256306200,8.32930615234375,-0.7629974653959274,-0.1557517757911235,1.174000524997711
1726995849266293200,8.339293212890626,-0.8663821442857385,-0.4620044211078435,0.7836527154117822
1726995849276279300,8.349279296875,-1.028261682242155,-0.6570260579485446,0.44257659399509425
1726995849286266000,8.35926611328125,-1.009330187278986,-0.9166646169327199,-0.060735915991663926
1726995849296253200,8.369253173828126,-1.072753442658484,-1.2364686716094613,-0.3392132501542568
1726995849306239200,8.3792392578125,-0.974640858952701,-1.6260031189858912,-0.37331834885179993
1726995849316226300,8.389226318359375,-0.8172466497167944,-1.935618810994923,-0.3784568807840347
1726995849326212000,8.399212158203126,-0.6186535841301083,-2.0950034633956847,-0.25585633703172206
1726995849336199200,8.40919921875,-0.38105478832274675,-1.9991161545239389,-0.11743804642260074
1726995849346185200,8.419185302734375,-0.16381488993316887,-1.6000041698545218,0.12169044317007065
1726995849356172000,8.429172119140626,-0.19045856670886277,-1.1278680116370319,0.21093699885308742
1726995849366158300,8.439158447265624,-0.2563818222105503,-0.7761003272708505,0.23268647384643554
1726995849376145200,8.449145263671875,-0.2699813084959984,-0.506429874822311,0.20779519369602203
1726995849386131200,8.459131103515626,-0.29946926878690716,-0.31374387785494323,0.06675123075842856
1726995849396118300,8.4691181640625,-0.2649789701640606,-0.2313516450461,-0.12266074950695037
1726995849406104000,8.47910400390625,-0.1452472598463297,-0.2033054627950303,-0.3555044597417116
1726995849416091100,8.489091064453126,0.01445756441950798,-0.17139924411494284,-0.5911854392290115
1726995849426077200,8.4990771484375,0.16393413239866494,-0.1720845777642913,-0.7626543510466813
1726995849436064300,8.509064208984375,0.4974550161302089,-0.13494787455219776,-0.8248159159272909
1726995849446050000,8.519050048828126,0.8561343065157532,-0.11953834317009895,-0.7644283749818801
1726995849456037400,8.529037353515625,1.024620987652242,-0.09889993469119071,-0.8062409793168306
1726995849466023200,8.539023193359375,0.9642182491376996,0.007467668999545276,-0.7719646157056093
1726995849476010000,8.549010009765626,0.8588365512117743,0.11755137060396373,-0.5089841258823872
1726995849485996300,8.558996337890624,0.8096993030771613,0.1739859361398965,-0.13548925141990184
1726995849495983000,8.568983154296875,0.9720584412440657,0.13103822682779281,0.17211305494010448
1726995849505969400,8.578969482421876,1.2570716069161891,0.043138190382905305,0.19248831897079943
1726995849515956200,8.588956298828125,1.4240063824355602,0.00016436024885624646,0.11158522874116897
1726995849525942000,8.59894189453125,1.5018097530841827,-0.07384674197733401,0.009216741156578064
1726995849535929000,8.60892919921875,1.5044652360290287,-0.15243066854439674,0.021510990062355993
1726995849545915100,8.6189150390625,1.55985336125195,-0.32241884028501805,-0.16690788751244545
1726995849555902200,8.628902099609375,1.4893608981385826,-0.6042057373870163,-0.6000087971538305
1726995849565888300,8.63888818359375,1.2765750565484166,-0.9316987391311675,-0.7098702708423137
1726995849575875300,8.648875244140624,0.7970619398221374,-1.198386997431144,-1.0590256538182496
1726995849585861000,8.658861083984375,0.40579350825995203,-1.3740887975782154,-1.3288450497508049
1726995849595848200,8.66884814453125,0.2316276124432683,-1.3678005110889673,-1.6660294244259595
1726995849605834200,8.678834228515624,0.13457564370632172,-1.4763007794268428,-2.391227028259635
1726995849615821000,8.688821044921875,-0.15500409922897815,-1.633154890436679,-2.93855871271491
1726995849625807400,8.698807373046876,-0.8429951312184333,-1.5874265739627182,-3.106370855590701
1726995849635794200,8.708794189453124,-1.6955094936713575,-1.2593383828043936,-2.767690689399838
1726995849645780000,8.718780029296875,-2.412700316660106,-0.8065586669638752,-2.24080499612391
1726995849655767300,8.728767333984376,-2.864613478799164,-0.31702012304663657,-1.4983523061066866
1726995849665753000,8.738753173828124,-3.0266385627061125,-0.12711831343770028,-0.893343508708477
1726995849675740200,8.748740234375,-3.115290367366373,-0.12653452220037578,0.14142740929722786
1726995849685726200,8.758726318359376,-3.2004540376499295,-0.4920452660411596,1.3231336863666772
1726995849695713300,8.76871337890625,-3.371662544965744,-0.7784066314518451,2.301273201090097
1726995849705699300,8.77869921875,-3.1199022450760006,-1.1564990628376604,3.0260090326309204
1726995849715686100,8.78868603515625,-2.6053043709650634,-1.3049752216026187,3.5701796227067706
1726995849725672200,8.798672119140624,-1.4561924957692622,-1.1495818307951091,4.175740208768844
1726995849735659000,8.808658935546875,-0.7079194290354848,-0.7189502338767051,4.318922352778912
1726995849745645300,8.818645263671876,-1.3166077917292713,0.0837967658445239,3.6638738054484126
1726995849755632000,8.828632080078124,-0.887895764696598,0.4002081093430519,3.125401719275117
1726995849765619200,8.838619140625,0.04649871632456779,0.534396799558401,3.175689306488633
1726995849775605200,8.848605224609376,0.7545745049655437,0.6554246871665119,2.8291695327132937
1726995849785592000,8.858592041015624,1.3842656159386038,0.6878782192647457,2.254793773987889
1726995849795578400,8.868578369140625,1.8943483507126568,0.7536357628107071,1.4288941544771194
1726995849805565200,8.878565185546876,2.249734444771707,0.9443930202051997,1.255083647969365
1726995849815551200,8.88855126953125,2.403588204921782,0.8947241494119167,1.054472812819481
1726995849825538000,8.8985380859375,2.300949083702266,0.9906406843781471,0.4112181636571884
1726995849835524000,8.908524169921876,2.56232213832885,1.2694804221123457,0.15916940221488474
1726995849845511200,8.91851123046875,2.5360151461616156,1.8441446423903107,0.22128362082242964
1726995849855497200,8.928497314453125,2.0208304120734333,2.5017627479478715,0.022497663012146948
1726995849865484300,8.938484375,1.3623951449140905,2.9818372979491947,-0.04074585188627243
1726995849875470000,8.948469970703124,0.899757175143063,3.0883725498244163,-0.019960253489017487
1726995849885457200,8.95845703125,0.5412503187149763,2.9052473947435615,0.4661953699916601
1726995849895443200,8.968443115234376,0.3227157043397426,2.5696093727275726,1.0381488700062036
1726995849905430000,8.978429931640624,0.15919336761236189,2.2463506475523114,1.3041326332986354
1726995849915416300,8.988416259765625,0.2800748324871063,1.8070787941910325,1.4975789836466311
1726995849925403100,8.998403076171876,0.4418164232775569,1.2995626950345933,1.5631097326993941
1726995849935389200,9.00838916015625,0.7993944744229317,0.8425596624106169,1.5441899281740188
1726995849945376300,9.018376220703125,1.0354229521736502,0.5170258319102228,1.1892431023150682
1726995849955362000,9.028362060546876,1.3478820509150624,0.4384615598917007,0.7881102793425321
1726995849965349000,9.03834912109375,1.7153049119874835,0.45980961447730656,0.1323702426165342
1726995849975335200,9.048335205078125,1.8182123287543654,0.5017255330562591,-0.5586842685967683
1726995849985322200,9.058322265625,1.8097361768320201,0.756365333905071,-1.1074310805469751
1726995849995308300,9.068308349609374,1.5477134261250496,1.0168659896112977,-1.261497606664896
1726995850005295400,9.07829541015625,1.1910168339893221,1.2348631361089646,-1.4112322410583495
1726995850015281200,9.08828125,0.7555936188802123,1.3143097439199685,-1.8071780167818068
1726995850025268000,9.09826806640625,0.37307986392080783,1.2443904045194387,-2.0140040731847284
1726995850035254300,9.108254150390625,0.03394640100449323,1.11923696141392,-1.9464719211816786
1726995850045241000,9.118240966796876,-0.2702311916038394,0.9011431496087461,-1.7032693140178918
1726995850055227400,9.128227294921874,-0.443272759565711,0.5315423599753528,-1.4007289672225713
1726995850065214200,9.138214111328125,-0.35801278930082914,0.05289024399258196,-0.8426461716502904
1726995850075200000,9.148199951171875,-0.028046529310941693,-0.29780849596783515,0.015581600013375281
1726995850085187000,9.15818701171875,-0.5909852404817938,-0.5193748061891645,0.5519301181614399
1726995850095173400,9.16817333984375,-0.7868515114530921,-0.8497216629944742,1.348414258095622
1726995850105160200,9.17816015625,-0.5744904711462557,-1.1541358408376574,1.8331284505963323
1726995850115146500,9.188146484375,-1.311057025734335,-1.1878270249720662,1.8789134656935929
1726995850125133300,9.19813330078125,-1.349499422983825,-1.0901760674286634,1.7019091315805912
1726995850135119400,9.208119384765626,-1.323992787414044,-0.8070769186843186,0.9793225870281458
1726995850145106400,9.2181064453125,-1.2121078450739382,-0.42769861220642924,0.12672083855271338
1726995850155092200,9.22809228515625,-1.118051404891163,0.05962033769888803,-0.7644611082077026
1726995850165079300,9.238079345703126,-0.6647666621379554,0.4199410568822175,-1.6889117028415201
1726995850175065300,9.2480654296875,-0.2622166658438742,0.6856636119551957,-2.3689894774883986
1726995850185052400,9.258052490234375,0.002247925057262182,0.8831739968717097,-2.999065496125817
1726995850195038200,9.2680380859375,0.045836745284497736,0.9471895190559327,-3.6254216174572704
1726995850205025500,9.278025634765624,0.07797127456143498,0.7239484805554152,-3.9632928053528067
1726995850215011300,9.28801123046875,-0.1391094877436757,0.34630430439375337,-3.3212674057245253
1726995850224998100,9.297998046875,-0.5585165108144283,0.022313520350586622,-2.0645009192347525
1726995850234984400,9.307984375,-0.8875874293997883,-0.06521965554328635,-0.8414280280321836
1726995850244971300,9.31797119140625,-1.1172267906352877,-0.07977437846064567,0.3347790670990944
1726995850254957300,9.327957275390625,-1.3267058457650243,-0.16766805822998285,1.3700403989702463
1726995850264944400,9.3379443359375,-1.58559526688233,-0.251112795766443,2.1187854671299458
1726995850274930200,9.34793017578125,-1.6238307433828711,-0.38029801513869316,2.781046430057287
1726995850284917200,9.357917236328126,-1.7716916928589344,-0.4457099235847592,3.364813701984286
1726995850294904300,9.367904296875,-1.8776878694213925,-0.5334097978150472,3.7459330799758432
1726995850304890400,9.377890380859375,-1.893896807552874,-0.6484304443649948,3.7386107742637393
1726995850314877200,9.387877197265626,-1.6048875579819082,-0.6298247472900896,3.2673996219366788
1726995850324863500,9.397863525390624,-1.1371849982976914,-0.4265785952005535,2.431436289051175
1726995850334850300,9.407850341796875,-0.4748541850045323,-0.16587916551921517,1.716449113586545
1726995850344836400,9.41783642578125,-0.01884936963766813,-0.12751041802782564,1.1857692887246607
1726995850354823400,9.427823486328125,0.4099202328011393,-0.1015205289857462,0.31474282576441764
1726995850364809200,9.437809326171875,0.6453600970089435,0.024635442225821313,-0.2658095757693052
1726995850374796300,9.44779638671875,1.0620385718986391,0.13154897109521552,-1.0016372946888208
1726995850384782300,9.4577822265625,1.5551660802185534,0.18186127262488005,-1.8993173712968825
1726995850394769400,9.467769287109375,1.773730505210161,0.1548869391227141,-2.1388789916098117
1726995850404755500,9.47775537109375,1.968308782197535,0.016035408195480702,-2.1586580433130265
1726995850414742300,9.4877421875,2.0399498308241366,-0.16920746969170866,-1.9565268667280673
1726995850424728300,9.497728271484375,1.866125003530085,-0.23702709686663,-1.7608038036197422
1726995850434715400,9.50771533203125,1.450991127733886,-0.09748137313015759,-1.7128274159580468
1726995850444701400,9.517701416015624,1.0351742381095885,0.16901446787025778,-1.5629600950956344
1726995850454688300,9.527688232421875,0.8275134844481945,0.29582371535878627,-1.3109978428930043
1726995850464674300,9.53767431640625,0.6217264157041907,0.28391897722724824,-1.1335720684975386
1726995850474661400,9.547661376953124,0.25453531756103037,0.15428356640208513,-1.0345745186507702
1726995850484647200,9.557647216796875,-0.658647448605299,-0.1488200037665665,-0.6030962417751551
1726995850494634500,9.567634521484376,-0.7834379036173224,-0.37641368451863527,0.14728782576322555
1726995850504620300,9.577620361328124,-0.194544374717772,-0.45360279572643336,0.5349614477038384
1726995850514607400,9.587607421875,0.164038469555974,-0.6340016676485538,0.6443786847561598
1726995850524593400,9.597593505859376,0.4726829784452915,-0.8111134076587855,0.6662672759592533
1726995850534580200,9.607580322265624,0.6463771650969982,-1.014121586273983,0.5115536841094493
1726995850544566300,9.617566162109375,0.8401283436104655,-1.2141571057539433,0.23036942907571792
1726995850554553300,9.62755322265625,0.9482821365982294,-1.42672966991961,-0.18933657694160938
1726995850564539400,9.637539306640624,0.8671744637072086,-1.4896717176534235,-0.8957353722810745
1726995850574526200,9.647526123046875,0.704245855089277,-1.3987709650225937,-1.5756272689670323
1726995850584512300,9.65751220703125,0.5910229421436787,-1.3261568335801361,-2.2980688520908354
1726995850594499300,9.667499267578124,0.36497181465849277,-1.333281570893526,-2.951772414553165
1726995850604485400,9.6774853515625,0.1753717644751072,-1.2146264037661254,-3.580975157487392
1726995850614472400,9.687472412109376,-0.4269815499782562,-0.8782349330343305,-3.793511992752552
1726995850624458200,9.697458251953124,-1.047353628464043,-0.6767864780165255,-3.87796254633069
1726995850634445300,9.7074453125,-1.6908185593761502,-0.5965989887103438,-3.80142291200757
1726995850644431400,9.717431396484375,-2.436912820766121,-0.3562175764471292,-3.1820576724767684
1726995850654418200,9.727418212890624,-3.063139324368536,-0.2412983809776604,-2.356953002735972
1726995850664404500,9.737404541015625,-3.2373288933217523,-0.10281827717870473,-0.9315624724656343
1726995850674391300,9.747391357421876,-3.222838595676422,-0.13489917657226325,0.7398866389214992
1726995850684377300,9.75737744140625,-3.0132348912537097,-0.19224018942862747,2.0898048718392848
1726995850694364400,9.767364501953125,-2.637893512141704,-0.3755778182163834,2.6955589346468445
1726995850704350200,9.77735009765625,-2.5009552309572696,-0.5969400572329759,2.9972295128703115
1726995850714337300,9.787337158203124,-2.0359413258351386,-0.7295961310535669,3.5313965953260658
1726995850724323300,9.7973232421875,-2.0013633489288387,-0.7106544069573283,3.950445014217496
1726995850734310400,9.807310302734376,-1.391329562975466,-0.8062813113272189,4.46609268964231
1726995850744296200,9.817296142578124,-0.14765549003183842,-1.1287702211737631,5.381261076667904
1726995850754283500,9.827283447265625,-0.24888269862681625,-0.7813426849037408,4.782499649226665
1726995850764269300,9.837269287109375,-0.5412555794119834,-0.5043593886911869,3.8174107547342775
1726995850774256000,9.847256103515624,-0.35612989816367624,-0.8199225909277796,3.343599649041891
1726995850784242400,9.857242431640625,0.5547954444646835,-1.3307362703248857,3.379885598909855
1726995850794229200,9.867229248046876,1.1496066729754209,-1.2775678669780492,3.5453882957994938
1726995850804215600,9.877215576171874,1.1114929231584072,-1.0007561279401183,3.350671194863319
1726995850814202400,9.887202392578125,1.1733934990152717,-0.83774203299582,3.3516555297255515
1726995850824188200,9.897188232421875,1.3165546002373099,-0.5547828772440553,3.2517753518253563
1726995850834175200,9.90717529296875,1.5638333707988261,-0.33399814585447307,3.3738410580486056
1726995850844162300,9.917162353515625,1.7977955636695027,-0.37435090676993127,2.945771128311753
1726995850854148400,9.9271484375,1.8290180926680564,-0.1088803536966443,2.2941934719622132
1726995850864135200,9.93713525390625,1.9423975113496184,0.05039017080515623,1.744403288438916
1726995850874121500,9.94712158203125,1.888449063540995,-0.030685061120986935,1.5497820490926504
1726995850884108300,9.9571083984375,1.7555495363533495,0.02507160515338182,0.9302794469177722
1726995850894094300,9.96709423828125,1.37917179993093,0.6077955055072903,-0.2320043368011713
1726995850904081400,9.977081298828125,1.118160564354062,1.5176386058568954,-1.2473077532708645
1726995850914067200,9.987067138671875,1.4728738737180829,2.4931477720767257,-2.214400388801098
1726995850924054300,9.99705419921875,1.9716250671386717,3.514310728229582,-3.1362843478173015
1726995850934040300,10.007040283203125,1.9080873915992675,4.570369056674838,-3.8731408252626656
1726995850944027400,10.01702734375,1.4936623947247862,4.9436114176809784,-4.326806384027004
1726995850954013400,10.027013427734374,0.8489666068434715,4.925429279780388,-4.297230745452643
1726995850964000300,10.037000244140625,0.310758432303369,4.228613136300444,-3.5627789910614487
1726995850973986300,10.046986328125,0.1621051634058356,3.2051158919811247,-2.5028017356067895
1726995850983973400,10.056973388671874,-0.24895269512310622,2.2549608011178672,-1.3453355813026426
1726995850993959400,10.06695947265625,-0.1797673690855503,1.1778063470214604,-0.6195417651414871
1726995851003946200,10.0769462890625,0.15128361740112303,0.10762494680806994,0.03993395098149776
1726995851013932300,10.086932373046874,0.386365754212439,-0.6128665251612663,0.650946957230568
1726995851023919400,10.09691943359375,0.48954292783141135,-1.1452573917247355,1.0439175165355206
1726995851033905200,10.1069052734375,0.4204676380395889,-1.3791229923531412,1.1833394312292336
1726995851043892500,10.116892578125,0.47852352116703983,-1.3947053230188786,1.262456222563982
1726995851053878300,10.126878173828125,0.323196181333065,-1.3184224399358033,1.0260188717514276
1726995851063865300,10.136865234375,0.045282764663547276,-1.0764955517962573,0.4116150540202856
1726995851073851400,10.146851318359374,-0.28921646258085965,-0.8836222520958632,-0.25451427477300165
1726995851083838200,10.156838134765625,-0.746822867925465,-0.7348577048435807,-0.7715671408206224
1726995851093824500,10.166824462890625,-0.8199792895510792,-0.6269757145345211,-1.1470026279568672
1726995851103811600,10.1768115234375,-0.8829083316728472,-0.5855661380425096,-1.357917999500036
1726995851113797400,10.18679736328125,-0.8881912405118346,-0.5599915883356705,-1.6444161430329083
1726995851123784400,10.196784423828126,-1.215969196677208,-0.5721108460007235,-1.6814350833505392
1726995851133770500,10.2067705078125,-1.4271885196030138,-0.6925467955976724,-1.5672744511634111
1726995851143757300,10.21675732421875,-1.389282275056839,-0.7765334579911083,-1.434409703028202
1726995851153743600,10.22674365234375,-1.4595137491464614,-0.7952019911691546,-1.378073483300209
1726995851163730400,10.23673046875,-1.5827847395062447,-0.7109134232196956,-1.3675748856395482
1726995851173716500,10.246716552734375,-1.5695521868370472,-0.6610926498003303,-1.137444526016712
1726995851183703300,10.256703369140626,-1.4838975181661545,-0.6425101144053041,-0.6552502073824406
1726995851193689300,10.266689453125,-1.3670727813363075,-0.7936102649983018,-0.0314841025441885
1726995851203676400,10.276676513671875,-1.2248926539756357,-0.9269087283756583,0.5347767387866974
1726995851213662500,10.286662353515625,-1.205955021532625,-0.9565510755106806,0.9503022442489862
1726995851223649500,10.2966494140625,-1.210111118298769,-0.9295991365034133,0.9541934064686298
1726995851233635300,10.30663525390625,-0.9082220750190317,-0.8317675616960972,1.048552775120735
1726995851243622700,10.31662255859375,-0.8169631566002965,-0.9273524535551667,1.0175614245295523
1726995851253608400,10.3266083984375,-0.7913703040517867,-0.9923113210041076,0.9798428115099668
1726995851263595300,10.33659521484375,-0.7588334775842726,-0.9156450646266341,0.9771545953392982
1726995851273581600,10.34658154296875,-0.8486090255774557,-0.753368197915703,0.8434674249053001
1726995851283568400,10.356568359375,-0.7063491109788418,-0.638328006415069,0.7200643325984477
1726995851293554400,10.366554443359375,-0.4609302890703082,-0.6606525778826325,0.62583998850286
1726995851303541500,10.37654150390625,-0.30295097342282534,-0.5957881837841122,0.3411982864916324
1726995851313527300,10.38652734375,-0.1756912056878209,-0.43876562087219206,0.1300093587040901
1726995851323514400,10.396514404296875,-0.127714671895653,-0.22075371519681064,-0.0006704466074705124
1726995851333500400,10.40650048828125,-0.23743162254691122,-0.03632560602491721,-0.17520751382410527
1726995851343487500,10.416487548828124,-0.4362978059865534,0.10283720107488334,-0.21763211257755755
1726995851353473500,10.4264736328125,-0.5934513383343816,0.2386317555842921,-0.36662265060544014
1726995851363460600,10.436460693359376,-0.6819336316466331,0.4021225281296298,-0.5117196883261204
1726995851373446400,10.4464462890625,-0.8474854283750056,0.5252651794020087,-0.9338877005428076
1726995851383433200,10.45643310546875,-0.8464370883658527,0.6128334266092628,-0.9747288294970988
1726995851393420500,10.466420654296876,-0.9011711335942149,0.5576946365049108,-0.43092356560230255
1726995851403406300,10.47640625,-0.7729995117112993,0.4649560739876702,0.0004804769933223724
1726995851413392600,10.486392578125,-0.5508297557041049,0.37920309604145586,-0.03204641260206699
1726995851423379500,10.49637939453125,-0.2561328158855438,0.35922749885283406,-0.33766485166847704
1726995851433366500,10.506366455078124,0.17286621139496564,0.37089470190145074,-0.9438625665903091
1726995851443352600,10.5163525390625,0.6206701846495271,0.28968685657158494,-1.2385089452654123
1726995851453339400,10.52633935546875,1.0501181247413158,0.06336714127808808,-1.041995608562231
1726995851463325400,10.536325439453124,1.2586033465281128,-0.2794773780506104,-0.636903234308958
1726995851473312300,10.546312255859375,1.3455392871811984,-0.5925891685470939,-0.32719431105852126
1726995851483298600,10.556298583984375,1.4843965537294745,-0.8299539364028722,-0.346527372559905
1726995851493285400,10.566285400390624,1.6924328627049923,-1.022040396574512,-0.8852508031457662
1726995851503271400,10.576271484375,1.906658966231346,-1.2294509018018842,-1.5288064810812472
1726995851513258500,10.586258544921876,1.9291890702083705,-1.3489534795388578,-1.9091022677302358
1726995851523244300,10.596244384765624,1.6930793439149856,-1.3353591078199445,-1.9465835648626089
1726995851533231600,10.606231689453125,1.1105448286533355,-1.4634746156014502,-2.3313369154423476
1726995851543217400,10.616217529296875,0.34360651667714115,-1.524324221100658,-2.2378788795441387
1726995851553204500,10.62620458984375,-0.4537820247508585,-1.5217561241783202,-1.5823317350417374
1726995851563190500,10.6361904296875,-0.9182768744349479,-1.4673390359446405,-1.0786118132978677
1726995851573177300,10.64617724609375,-1.217870207992941,-1.347470255243778,-0.9434504786580801
1726995851583163400,10.656163330078124,-1.4628352947846055,-1.1879384494572878,-1.189480418202281
1726995851593150500,10.666150390625,-1.7808090652942656,-1.009104269568622,-1.6447557502508163
1726995851603136500,10.676136474609375,-2.1450562189400193,-0.8340659748315811,-2.0716274101138112
1726995851613123300,10.686123291015624,-2.4567539779201146,-0.530407729922235,-2.397075754287839
1726995851623109400,10.696109375,-2.7437036646127697,-0.3933993061110377,-2.2350375186383724
1726995851633096400,10.706096435546876,-2.8070681755423545,-0.5599374835282563,-1.448444073599577
1726995851643082500,10.71608251953125,-2.9422645814955235,-1.0519599532157182,-0.29772739355564115
1726995851653069600,10.726069580078125,-2.8736712300017473,-1.6655001398548483,0.9422796813130379
1726995851663055400,10.736055419921875,-2.6605636091113087,-1.890970690973103,2.036688783201575
1726995851673042400,10.74604248046875,-2.5277859547376633,-2.0093340355470777,2.8340491214483974
1726995851683028500,10.756028564453125,-2.2710537116542455,-2.064369401809573,3.340454921275377
1726995851693015300,10.766015380859375,-1.7121476170003413,-1.8130913324788211,4.0163019264847035
1726995851703001600,10.776001708984374,-1.48516023157835,-1.2443734533846378,3.5550825913399455
1726995851712988400,10.785988525390625,-0.09606149639487266,-0.5282207412719726,3.637765550723672
1726995851722974500,10.795974365234375,0.4093906559690833,-0.18090718677043913,2.9975387249499557
1726995851732961500,10.80596142578125,0.2603326056629419,0.19516572148650885,2.900932454153895
1726995851742947300,10.815947265625,-0.09076222094297408,0.033116964443027974,2.912529368445277
1726995851752934400,10.825934326171875,0.22670944526344536,0.25002485439926386,2.4506226355582474
1726995851762920400,10.83592041015625,0.6954001392021775,0.48007016608715053,2.477466218820214
1726995851772907500,10.845907470703125,1.1620169494763015,0.6572139086708426,2.4014818802922964
1726995851782893300,10.855893310546875,1.8224214708819984,0.916616832268238,2.3139719391435385
1726995851792880600,10.865880615234374,2.40065478181839,1.4854597990468144,1.7421306673318147
1726995851802866400,10.875866455078125,2.7261639162689444,2.1675985978767276,1.1286492251425981
1726995851812853200,10.885853271484375,2.6761700513049957,2.901980209641158,0.7853150956660508
1726995851822839600,10.895839599609374,2.419598551741242,3.303300664140284,0.20155542252361774
1726995851832826400,10.905826416015625,1.9986136118292808,3.439649162738025,-0.3701993400484323
1726995851842812400,10.9158125,1.4711059872627257,3.445958199754357,-0.5065881706565618
1726995851852799500,10.925799560546874,1.0794143618524075,3.3935476290374993,-0.44589375571906564
1726995851862785300,10.935785400390625,0.5852192243009805,3.219740629661083,-0.27315467783510683
1726995851872772400,10.9457724609375,0.060251347345113754,2.9855326453357933,-0.19770166970491407
1726995851882758400,10.95575830078125,-0.1927405401661992,2.6294074233472347,-0.14281623330712317
1726995851892745500,10.965745361328125,-0.24834376944452521,2.246780271141231,-0.16702303832471369
1726995851902731500,10.9757314453125,-0.36007527478858825,1.8069804483830927,-0.24024667996764182
1726995851912718600,10.985718505859374,-0.15788754571080207,1.228875878392905,-0.22043781764805315
1726995851922704400,10.995704345703125,0.19314473705291746,0.6582735007263719,-0.19684417609274385
1726995851932691500,11.00569140625,0.5884910855785012,0.17327493832632898,-0.3754337335705757
1726995851942677500,11.015677490234374,0.8919090919911861,-0.16368921772688627,-0.5132242476701736
1726995851952664300,11.025664306640625,0.9113291011236607,-0.25952669610753654,-0.5462140786021947
1726995851962650600,11.035650634765625,0.760995916315168,-0.2544812492862344,-0.7772843494236469
1726995851972637400,11.045637451171874,0.6425123063623904,-0.3177482911907136,-1.1286433799237012
1726995851982623200,11.055623291015625,0.4096493069052696,-0.3730548756100237,-1.4966396569699048
1726995851992610600,11.065610595703125,0.10543810428828,-0.516560114094615,-1.4366945990949869
1726995852002597400,11.075597412109374,-0.12324191039577126,-0.7200259002842009,-1.3668115000516174
1726995852012583400,11.08558349609375,-0.36006767600402234,-0.9303432328689842,-1.1063058759093285
1726995852022569500,11.095569580078125,-0.6326843014396727,-1.118725431695208,-0.9058750735014677
1726995852032556500,11.105556640625,-0.8093386530712247,-1.28977297629565,-0.8654536312639712
1726995852042543400,11.11554345703125,-0.7739115119896829,-1.3202632454968988,-0.7664818003803491
1726995852052529400,11.125529296875,-0.7684976702474057,-1.2048660572521388,-0.5337433040857315
1726995852062516500,11.1355166015625,-1.3263489951513707,-1.128619414526224,-0.21127076085209845
1726995852072502300,11.145502197265625,-1.8395770422138273,-1.1786437476936726,0.05425473727881908
1726995852082489600,11.155489501953125,-1.5759259596526622,-1.0226366089019925,0.2731160993903875
1726995852092476000,11.165475830078124,-1.8056931850515305,-0.5164662983313203,0.2376373742520809
1726995852102462700,11.175462646484375,-1.9502036550559103,-0.2115235300367698,0.2734212198168039
1726995852112449000,11.185448974609375,-1.4679191739201545,0.04294416564814746,0.40663551204204557
1726995852122435800,11.195435791015624,-1.3651004583500326,0.22390695506334304,0.4395142838150263
1726995852132421600,11.205421630859375,-1.436897428190708,0.2950900673219934,0.2904477579414844
1726995852142409000,11.215408935546876,-1.5396609064422546,0.4422053860625252,0.10312135177850723
1726995852152394800,11.225394775390624,-1.2757786454737186,0.6171577926144004,-0.10336918905973434
1726995852162381800,11.2353818359375,-0.9846563492715358,0.7056240115746856,-0.3691857790917158
1726995852172368000,11.245367919921875,-0.5360930820822716,0.5719154695590958,-0.61847325912714
1726995852182355000,11.25535498046875,-0.08861249556317925,0.3097254725264385,-0.604396218457818
1726995852192340700,11.2653408203125,0.17725626304745673,-0.03348459217902273,-0.3692161742299795
1726995852202327800,11.275327880859376,0.04120762417912483,-0.3774818252068013,-0.1349766257226467
1726995852212313900,11.28531396484375,-0.0025369711317121983,-0.5252380356667563,0.1724959167778492
1726995852222300700,11.29530078125,-0.03623100481033325,-0.5060269200446084,0.33813889892101284
1726995852232287000,11.305286865234375,-0.23816812012791633,-0.4302865828730166,0.34787294194996354
1726995852242273800,11.315273681640624,-0.4300928138665855,-0.3708330348420888,0.24321254403591155
1726995852252259800,11.325259765625,-0.5985271802939475,-0.3358153148116544,0.40249358993172646
1726995852262247000,11.335246826171876,-0.6429520129539072,-0.4283925858199596,0.714476303333044
1726995852272232700,11.345232666015624,-0.7003412488661706,-0.5468775840122252,1.0276046796381473
1726995852282219800,11.3552197265625,-0.5140938701115548,-0.702102997841686,1.1333943738430738
1726995852292205800,11.365205810546875,-0.41760348078012466,-0.740383190266788,0.8753361428529024
1726995852302193000,11.37519287109375,-0.2338271683141589,-0.7200187398910523,0.48110593887567515
1726995852312179000,11.385178955078125,0.042426936841011044,-0.6127749744202942,-0.13255728962123392
1726995852322165800,11.395165771484375,0.33629911627322434,-0.5139322498090565,-0.8905752130389213
1726995852332151800,11.40515185546875,0.3753171214535832,-0.3332016617145389,-1.433525905930996
1726995852342139000,11.415138916015625,0.28267624715715645,-0.19938648098669945,-1.7203677483350037
1726995852352125000,11.425125,0.2543397949889302,-0.1085678536813706,-1.4714923562318085
1726995852362111700,11.43511181640625,0.3207924811922014,-0.10059285621419549,-1.1590203980088234
1726995852372097800,11.445097900390625,0.4021875927224755,-0.15256182064339519,-0.929364085638523
1726995852382084900,11.4550849609375,0.4331844962716102,-0.26876068065986036,-0.7295721656560897
1726995852392070700,11.465070556640624,0.5312263528287411,-0.3064110507488251,-0.4957622407376766
1726995852402058000,11.47505810546875,0.6518107344530523,-0.24296865227743983,-0.45253333986401556
1726995852412043800,11.485043701171875,0.7427160171285271,-0.19238113226927817,-0.520534278422594
1726995852422030800,11.49503076171875,0.8549170396804809,-0.2752289268258959,-0.9567506897360086
1726995852432017000,11.505016845703125,0.9503478369563817,-0.4608109735395759,-1.5244623143970966
1726995852442003700,11.515003662109375,0.9880430691003799,-0.5999803017117082,-1.824410306611657
1726995852451990000,11.524989990234374,0.9024544514030217,-0.6889202756635844,-1.8745161075174808
1726995852461976800,11.534976806640625,0.6279365223906934,-0.6999902434714138,-1.9264257429748772
1726995852471963000,11.544962890625,0.3568868540108204,-0.708776922647655,-2.217161670207977
1726995852481949700,11.55494970703125,0.08506649351939559,-0.8172505952395498,-2.3171043919503687
1726995852491935700,11.564935791015625,-0.31250615275353194,-0.8073426569484173,-2.286835510414839
1726995852501922800,11.5749228515625,-0.48272272642254827,-0.8125739817306399,-2.345571192499995
1726995852511908900,11.584908935546874,-0.8573577108308672,-0.7316805361121892,-2.6524919463366268
1726995852521896000,11.59489599609375,-1.4426897478565572,-0.5677113324001432,-2.8044495174765585
1726995852531881700,11.6048818359375,-2.1070696026340126,-0.5015682966679335,-2.5015759932041166
1726995852541868800,11.614868896484374,-2.6546111304476856,-0.6233996096134186,-1.636369030177593
1726995852551854800,11.624854736328125,-3.2458143975943323,-0.8985761486649513,-0.41016953138709067
1726995852561841700,11.634841552734375,-3.391261563926935,-1.5107538147792219,0.9455611872017383
1726995852571828000,11.644827880859374,-3.2344509997978803,-2.03588711142987,2.1464497191250325
1726995852581814800,11.654814697265625,-2.7960929002806543,-2.2674770222112537,3.1036633501976727
1726995852591800800,11.66480078125,-2.816495052318275,-2.450714990016818,3.8743770890593527
1726995852601788000,11.674787841796874,-2.736570159471035,-2.382468552264571,4.362418380156159
1726995852611773700,11.684773681640625,-2.5048127831682563,-2.053788678823411,4.753868013504147
1726995852621760800,11.6947607421875,-2.269244031883776,-1.4281275540187954,4.9171495272129775
1726995852631747800,11.704747802734374,-1.7060437471672891,-1.014097255550325,4.851517655873298
1726995852641734000,11.71473388671875,-0.3816404792562127,-0.661935384234786,4.3792420891851185
1726995852651720700,11.724720703125,0.25440409239679573,0.12313655032515525,2.970256165748834
1726995852661707000,11.73470703125,0.9391463517233729,0.4545379576846957,3.3897616807579993
1726995852671693800,11.74469384765625,1.1347951805517076,0.7965455147325992,2.901908605709672
1726995852681679600,11.7546796875,1.560653863979876,1.19660632455945,2.2237281891167164
1726995852691667000,11.7646669921875,2.0535881878152487,1.47367145383656,1.4710609790772198
1726995852701652700,11.77465283203125,2.4699451756656168,1.8505135929003358,0.888197962513566
1726995852711639800,11.784639892578125,3.0317391007155177,2.7236539792746304,0.1815571751117706
1726995852721625900,11.7946259765625,3.115190414123237,3.9141260388627646,-0.18674188427329064
1726995852731613000,11.804613037109375,2.6923589695617554,4.646381159992516,-0.48589434219598765
1726995852741598700,11.8145986328125,1.9292191730856894,4.98021885458827,-1.0197171412587165
1726995852751585800,11.824585693359374,1.0323717479094863,5.242633527222275,-1.2523989389300345
1726995852761571800,11.83457177734375,0.3758066585361957,5.215299530094861,-1.0593488944232463
1726995852771558700,11.84455859375,0.015732114399969577,4.584841234141588,-0.5788531964004039
1726995852781545000,11.854544921875,-0.05817483333200216,3.6885035120531913,0.05296937364339828
1726995852791531800,11.86453173828125,-0.008114625133574008,2.8193866821065545,0.43827451288700103
1726995852801517800,11.874517822265625,0.2199555870890617,1.9367307177595794,0.7320692431688308
1726995852811505000,11.8845048828125,0.5025160989120603,1.1837630634687841,0.7838496992886066
1726995852821490700,11.89449072265625,0.9147732502281666,0.5580996005766093,0.8179957145184278
1726995852831477800,11.904477783203125,1.126152147629857,0.12519406737685204,0.47843642740547654
1726995852841463800,11.9144638671875,1.3660276561975477,-0.19658187189474702,0.3242658563911915
1726995852851451000,11.924450927734375,1.5052476185783743,-0.3865396494746208,0.2856868271499872
1726995852861437000,11.93443701171875,1.5121895466707647,-0.4144863716728985,0.12118132460415362
1726995852871423700,11.944423828125,1.3333715872645377,-0.3813029178649187,-0.22449030790925026
1726995852881409800,11.954409912109375,1.1290776796877384,-0.3015044278763234,-0.6993143900364637
1726995852891396900,11.96439697265625,0.8176153368987142,-0.14235548392757771,-1.2232961785644292
1726995852901383000,11.9743828125,0.33587577629461884,0.04048435140587389,-1.525502178838849
1726995852911369700,11.98436962890625,0.05022445884943008,0.03340644890889525,-1.5400667107641697
1726995852921355800,11.994355712890625,-0.2885363713622093,-0.07667714309766888,-1.282851944860816
1726995852931342800,12.0043427734375,-0.8407296705044806,-0.28338987531922755,-1.0067921932339667
1726995852941328600,12.01432861328125,-0.9756827692210673,-0.4745954610031098,-0.7339706928759813
1726995852951316000,12.02431591796875,-0.8952664395950735,-0.5163482979748398,-0.5385287847965955
1726995852961301800,12.0343017578125,-1.6466449249982833,-0.5542209325123578,-0.3956804027855396
1726995852971288800,12.044288818359375,-1.968236009222269,-0.6604026217095553,-0.18160978208184242
1726995852981275000,12.05427490234375,-1.714344396392256,-0.6579914689145981,0.05061667303740978
1726995852991261700,12.06426171875,-1.4921420532897114,-0.5117963337589055,0.11466273649036883
1726995853001248000,12.074248046875,-1.0807799511171876,-0.29548074714001266,-0.080038582354784
1726995853011234800,12.08423486328125,-0.9573322890162468,0.007782835895940661,-0.32095161727666854
1726995853021220900,12.094220947265624,-1.2119498780332505,0.18771639186125247,-0.2685983297049999
1726995853031207700,12.104207763671875,-1.3825579352378845,0.2084093435389921,-0.15422902320325374
1726995853041193700,12.11419384765625,-1.3661644343197346,0.24535244214143603,0.2952916908413172
1726995853051180800,12.124180908203124,-1.2834827901102601,0.25162743075769395,0.6622533641427755
1726995853061166800,12.134166748046875,-1.350854783115536,0.35932368923630564,0.7849246350437402
1726995853071154000,12.14415380859375,-1.4979004706859589,0.38370007866714145,0.8717693902820348
1726995853081139700,12.1541396484375,-1.3981227302469312,0.2601824566025287,0.7593775213330983
1726995853091127000,12.164126953125,-1.0396470726747065,0.29913492226600646,0.26171266184449193
1726995853101113000,12.174113037109375,-0.5738952817320824,0.4381305013064295,-0.19286533558964727
1726995853111100200,12.18410009765625,-0.3053143415533006,0.5238719714779406,-0.7803606881290673
1726995853121086200,12.194086181640625,-0.28491949603930117,0.4671324316460639,-0.9271721285521983
1726995853131073300,12.2040732421875,-0.11005129717215895,0.0649266456797719,-0.5385977583795786
1726995853141059000,12.21405908203125,0.035534400848299265,-0.19644582442492245,-0.11097907954156398
1726995853151046400,12.22404638671875,0.1574725351691246,-0.3434541025944054,0.28692542903423307
1726995853161032200,12.2340322265625,0.13229820029363035,-0.3320317776849493,0.42412557602524753
1726995853171019000,12.24401904296875,-0.023550240805000067,-0.17778152903057634,0.4874170217186212
1726995853181005300,12.25400537109375,-0.10326616707667707,-0.04461067408826202,0.2717056480705738
1726995853190992100,12.2639921875,-0.10146014056801796,0.10872454208042472,-0.05775543887615203
1726995853200978200,12.273978271484374,-0.08696648192182183,0.23121044647712258,-0.19275895260572432
1726995853210965200,12.28396533203125,-0.043005613511800767,0.2756934755977243,-0.44998482442498206
1726995853220951000,12.293950927734375,-0.13730667610540986,0.22299152071885764,-0.7577285850822925
1726995853230938000,12.303938232421874,-0.31254823832958933,0.12439097083304076,-1.0267594609856605
1726995853240924200,12.313924072265625,-0.30832243732810016,0.05490216833688318,-0.8540566234588622
1726995853250911200,12.3239111328125,-0.17773703230172394,-0.1587004695288837,-0.40642216155231
1726995853260897300,12.333897216796874,0.05322188709974288,-0.3703961047295481,-0.07956979579925537
1726995853270884400,12.34388427734375,0.2806114235818386,-0.4900874830368906,-0.07911737585663794
1726995853280871200,12.35387109375,0.564736992764473,-0.5249200922913849,-0.3867471547454595
1726995853290857200,12.363857177734374,0.8653542625427245,-0.538757332855463,-0.6027595571666956
1726995853300844300,12.37384423828125,1.0497042832434176,-0.6287003463700414,-0.7265653850555419
1726995853310830000,12.383830078125,1.3470504223965107,-0.7091902526888996,-0.9020242432922124
1726995853320817200,12.393817138671874,1.555017903919518,-0.8471743165992199,-1.0196657033324241
1726995853330803200,12.40380322265625,1.5466110178411006,-0.8063416632123291,-1.276147478786111
1726995853340790300,12.413790283203125,1.2431155622780323,-0.6918907428417355,-1.4188000459641217
1726995853350776300,12.4237763671875,0.9257949949800968,-0.6226749486006796,-1.5896692383229731
1726995853360763400,12.433763427734375,0.5732981926217675,-0.47817120059803125,-2.2601865729421378
1726995853370749200,12.443749267578125,0.4562905004404485,-0.5536641023471951,-2.8130893355280158
1726995853380736000,12.453736083984374,0.04680047575011849,-0.6805019914083182,-3.3693484228044746
1726995853390722300,12.463722412109375,-0.5179119670949875,-0.6815864256441593,-3.559976793122291
1726995853400709000,12.473709228515625,-1.342544050887972,-0.7177725683994591,-3.228498521134257
1726995853410695400,12.4836953125,-1.9693920473895965,-0.8025953162908553,-2.8761680152535436
1726995853420682200,12.49368212890625,-2.513184597933292,-0.7302269763030111,-2.2242221101135016
1726995853430668000,12.50366796875,-2.673674435096979,-0.8241244265317916,-1.2764309719026088
