time,seconds_elapsed,z,y,x
1726995840947521300,0.020521240234375,-0.08586202561855316,-0.06764009594917297,0.47248923778533936
1726995840957507000,0.030507080078125,-0.06083223596215248,-0.05539212375879288,0.47053924202919006
1726995840967494100,0.040494140625,-0.042251359671354294,-0.06305137276649475,0.4626975655555725
1726995840977480200,0.050480224609375,-0.027290498837828636,-0.0866648331284523,0.46334460377693176
1726995840987467300,0.06046728515625,-0.015524386428296566,-0.10669872909784317,0.47167283296585083
1726995840997453300,0.070453369140625,-0.03750740364193916,-0.12817634642124176,0.4702330231666565
1726995841007440100,0.080440185546875,-0.050042636692523956,-0.1518225520849228,0.45671454071998596
1726995841017426200,0.09042626953125,-0.052160173654556274,-0.244034081697464,0.43657857179641724
1726995841027413200,0.100413330078125,-0.06547784060239792,-0.3597218096256256,0.4143505096435547
1726995841037399300,0.1103994140625,-0.0855708047747612,-0.4913335144519806,0.3997841477394104
1726995841047386000,0.12038623046875,-0.09942349791526794,-0.5652711391448975,0.43662258982658386
1726995841057372200,0.1303720703125,-0.08003643900156021,-0.5809828639030457,0.5310838222503662
1726995841067359200,0.140359130859375,-0.03307265788316727,-0.5891981720924377,0.6594138145446777
1726995841077344800,0.1503447265625,0.04019663855433464,-0.6474041938781738,0.7871976494789124
1726995841087331800,0.160331787109375,0.14045506715774536,-0.672415554523468,0.9328504800796509
1726995841097317600,0.170317626953125,0.26273277401924133,-0.6666737198829651,1.1324903964996338
1726995841107304700,0.1803046875,0.3784649670124054,-0.6646771430969238,1.3783513307571411
1726995841117290800,0.190290771484375,0.4713844358921051,-0.6879872679710388,1.6417865753173828
1726995841127277600,0.200277587890625,0.5554090738296509,-0.7969592809677124,1.8652665615081787
1726995841137263900,0.210263916015625,0.6414287090301514,-0.9227425456047058,2.0482418537139893
1726995841147250700,0.220250732421875,0.7316734194755554,-1.0420897006988525,2.19984769821167
1726995841157236700,0.23023681640625,0.8214452862739563,-1.1020551919937134,2.3776369094848633
1726995841167223800,0.240223876953125,0.9411882162094116,-1.1072161197662354,2.5304975509643555
1726995841177211000,0.2502109375,1.1155544519424438,-1.1819756031036377,2.527012348175049
1726995841187196700,0.26019677734375,1.339837670326233,-1.2608991861343384,2.3973770141601562
1726995841197183500,0.27018359375,1.5624268054962158,-1.3264055252075195,2.1809163093566895
1726995841207169800,0.280169677734375,1.7540364265441895,-1.2961264848709106,1.9156826734542847
1726995841217156600,0.290156494140625,1.9053207635879517,-1.2180463075637817,1.6140525341033936
1726995841227143000,0.300142822265625,1.9792988300323486,-1.2746193408966064,1.2975866794586182
1726995841237129700,0.310129638671875,2.0149033069610596,-1.5209211111068726,1.019688606262207
1726995841247115500,0.320115478515625,2.0616109371185303,-1.9654258489608765,0.8386290669441223
1726995841257102800,0.330102783203125,2.2610108852386475,-2.372506618499756,0.9521105885505676
1726995841267088600,0.340088623046875,2.7012274265289307,-2.538273572921753,1.3673045635223389
1726995841277075700,0.35007568359375,3.272261142730713,-2.5130796432495117,1.9035658836364746
1726995841287061800,0.360061767578125,3.7450239658355713,-2.639691114425659,2.3786587715148926
1726995841297048800,0.370048828125,3.9402618408203125,-3.1581687927246094,2.5957417488098145
1726995841307034600,0.38003466796875,3.911865711212158,-3.7929420471191406,2.6941144466400146
1726995841317021700,0.390021728515625,3.8179469108581543,-4.212351322174072,2.7426350116729736
1726995841327007700,0.4000078125,3.8134281635284424,-4.421060562133789,2.68404221534729
1726995841336994600,0.40999462890625,3.9341423511505127,-4.573476791381836,2.5917911529541016
1726995841346980900,0.41998095703125,4.233551979064941,-4.747618198394775,2.4851319789886475
1726995841356967700,0.4299677734375,4.630915641784668,-4.659266948699951,2.4015095233917236
1726995841366953700,0.43995361328125,4.92050313949585,-4.20206880569458,2.405327320098877
1726995841376940800,0.44994091796875,4.867419719696045,-3.6076390743255615,2.437203884124756
1726995841386927600,0.459927734375,4.695169448852539,-3.090362071990967,2.3999948501586914
1726995841396913700,0.46991357421875,4.714033603668213,-2.6177520751953125,2.2671258449554443
1726995841406900700,0.479900634765625,4.560571193695068,-1.9448418617248535,2.0641186237335205
1726995841416886800,0.48988671875,4.418264865875244,-1.3848395347595215,1.796173095703125
1726995841426873600,0.49987353515625,4.482510089874268,-1.3082754611968994,1.4985216856002808
1726995841436859600,0.509859619140625,4.576974868774414,-1.6777397394180298,1.2236456871032715
1726995841446846700,0.5198466796875,4.737388610839844,-2.1226375102996826,1.0738649368286133
1726995841456832800,0.529832763671875,4.890872478485107,-2.330216884613037,0.9542955756187439
1726995841466819800,0.53981982421875,5.091584205627441,-2.479253053665161,0.8735594153404236
1726995841476805600,0.5498056640625,5.307939052581787,-2.6807286739349365,0.8069968819618225
1726995841486792700,0.559792724609375,5.316665172576904,-2.7831788063049316,0.7337863445281982
1726995841496778800,0.56977880859375,5.291395664215088,-2.9339356422424316,0.7233396768569946
1726995841506765600,0.579765625,5.138284206390381,-3.511929750442505,0.7476186752319336
1726995841516752000,0.589751953125,4.635437488555908,-4.2704949378967285,0.8455462455749512
1726995841526738700,0.59973876953125,3.6459672451019287,-4.58378791809082,1.0088335275650024
1726995841536725800,0.609725830078125,2.211331605911255,-4.321492671966553,1.020856499671936
1726995841546711800,0.6197119140625,1.2311450242996216,-4.012853622436523,0.7618260979652405
1726995841556699000,0.629698974609375,0.9003478288650513,-3.649139165878296,0.1978541910648346
1726995841566684700,0.6396845703125,0.9340088367462158,-3.1991255283355713,-0.5244401097297668
1726995841576671500,0.64967138671875,1.2004516124725342,-2.581291437149048,-1.1679490804672241
1726995841586657800,0.65965771484375,1.4413926601409912,-1.947882056236267,-1.6385691165924072
1726995841596644600,0.66964453125,1.3893859386444092,-1.6898739337921143,-1.9134953022003174
1726995841606631000,0.679630859375,1.064963698387146,-1.5716264247894287,-1.9872909784317017
1726995841616617700,0.68961767578125,0.6318705677986145,-1.8166203498840332,-1.933642029762268
1726995841626603500,0.699603515625,0.22911591827869415,-2.1583404541015625,-1.8099353313446045
1726995841636590600,0.709590576171875,-0.07249849289655685,-2.3756651878356934,-1.5206706523895264
1726995841646576600,0.71957666015625,-0.26767516136169434,-2.228210210800171,-1.264875054359436
1726995841656563700,0.729563720703125,-0.42997458577156067,-2.172887086868286,-0.897378146648407
1726995841666549800,0.7395498046875,-0.5516069531440735,-2.0787246227264404,-0.7000997066497803
1726995841676536800,0.749536865234375,-0.4669296443462372,-1.9556236267089844,-0.5721917152404785
1726995841686523600,0.759523681640625,-0.4172123968601227,-1.9607744216918945,-0.44396525621414185
1726995841696509700,0.769509765625,-0.33516576886177063,-1.7645987272262573,-0.20751985907554626
1726995841706496800,0.779496826171875,-0.15529747307300568,-1.8716447353363037,-0.09779655188322067
1726995841716482600,0.789482666015625,0.04928765445947647,-1.9500861167907715,-0.2032594382762909
1726995841726469600,0.7994697265625,0.1219746395945549,-1.3853808641433716,-0.385341614484787
1726995841736455700,0.80945556640625,0.2518656551837921,-0.7223694324493408,-0.7184916734695435
1726995841746442800,0.81944287109375,0.4615531265735626,-0.6242737174034119,-0.6244597434997559
1726995841756428800,0.8294287109375,0.7766036987304688,-0.9436807632446289,-0.44397324323654175
1726995841766415600,0.83941552734375,1.0905879735946655,-1.0555773973464966,-0.26791486144065857
1726995841776401700,0.849401611328125,1.6314839124679565,-0.24875317513942719,-0.05240775644779205
1726995841786388700,0.859388671875,1.8948137760162354,-0.3515394926071167,0.29740139842033386
1726995841796374800,0.869374755859375,1.7655078172683716,-0.6543091535568237,0.7821000218391418
1726995841806361600,0.879361572265625,1.429642677307129,-0.5243974924087524,1.1121312379837036
1726995841816348700,0.8893486328125,0.9742776155471802,-0.16324898600578308,1.3504843711853027
1726995841826334700,0.899334716796875,0.4792785048484802,0.3598776161670685,1.4176077842712402
1726995841836321500,0.909321533203125,-0.046060409396886826,0.08448545634746552,1.2465142011642456
1726995841846307800,0.919307861328125,-0.3662956655025482,-0.48293882608413696,1.1380343437194824
1726995841856294700,0.929294677734375,-0.25620466470718384,-1.2036817073822021,1.3136279582977295
1726995841866280700,0.93928076171875,-0.5371004939079285,-1.804377555847168,1.2227989435195923
1726995841876267800,0.949267822265625,-0.8188271522521973,-1.928452730178833,0.8784195780754089
1726995841886253600,0.959253662109375,-0.9720345139503479,-1.5015159845352173,0.5416660308837891
1726995841896240600,0.96924072265625,-0.9634629487991333,-0.6416793465614319,0.3295639753341675
1726995841906226700,0.979226806640625,-0.9910343885421753,0.3936176002025604,0.05806640908122063
1726995841916213800,0.9892138671875,-0.988283634185791,0.6625027656555176,-0.47994911670684814
1726995841926199600,0.999199462890625,-0.921190619468689,0.8542735576629639,-0.7402006387710571
1726995841936187000,1.009186767578125,-0.8463179469108582,0.7487170100212097,-0.897578775882721
1726995841946173700,1.019173583984375,-0.7019035220146179,0.5293732285499573,-0.8390437960624695
1726995841956159500,1.029159423828125,-0.5338593125343323,0.889431357383728,-0.5783058404922485
1726995841966146800,1.039146728515625,-0.2861587107181549,1.266310453414917,-0.43228015303611755
1726995841976132600,1.049132568359375,-0.3235819637775421,1.9208993911743164,-0.488707959651947
1726995841986119700,1.05911962890625,-0.018976546823978424,2.2737836837768555,-0.5086957812309265
1726995841996105700,1.069105712890625,0.7883938550949097,1.8524997234344482,-0.3772279620170593
1726995842006092800,1.0790927734375,1.5169215202331543,1.0649374723434448,-0.022130854427814484
1726995842016078600,1.08907861328125,2.650113821029663,-0.5200150609016418,0.6747994422912598
1726995842026065700,1.099065673828125,3.5910727977752686,-2.433934450149536,1.279232382774353
1726995842036051700,1.1090517578125,2.9061477184295654,-3.0022950172424316,1.0454365015029907
1726995842046038500,1.11903857421875,2.287107467651367,-1.9211204051971436,1.0034973621368408
1726995842056024800,1.12902490234375,1.9603095054626465,0.28844746947288513,1.0684149265289307
1726995842066011600,1.13901171875,1.7782588005065918,2.911710262298584,1.454986572265625
1726995842075998700,1.148998779296875,0.6077056527137756,4.350658893585205,2.0191469192504883
1726995842085985500,1.158985595703125,-0.9815407395362854,4.565775394439697,2.6231064796447754
1726995842095972400,1.168972412109375,-2.000286817550659,4.136828899383545,2.7637460231781006
1726995842105958100,1.178958251953125,-2.291576623916626,2.4176254272460938,2.240262031555176
1726995842115945200,1.1889453125,-2.0446395874023438,1.308213472366333,0.577856719493866
1726995842125931300,1.19893115234375,-1.9535473585128784,1.73703932762146,-1.4262428283691406
1726995842135918300,1.20891845703125,-2.0156075954437256,2.1505792140960693,-2.0464107990264893
1726995842145904400,1.218904296875,-2.2495696544647217,2.7827110290527344,-1.8756769895553589
1726995842155891500,1.228891357421875,-2.059835195541382,1.6848376989364624,-1.4442310333251953
1726995842165877200,1.238877197265625,-1.7437292337417603,-0.6198587417602539,-1.7119495868682861
1726995842175864300,1.2488642578125,-1.8012773990631104,-2.562119483947754,-1.9720182418823242
1726995842185850400,1.258850341796875,-1.8572473526000977,-4.073348045349121,-2.209833860397339
1726995842195837200,1.268837158203125,-1.8493582010269165,-4.984601020812988,-2.176046133041382
1726995842205824300,1.27882421875,-1.8973956108093262,-5.060135841369629,-1.6864374876022339
1726995842215810300,1.288810302734375,-1.6058217287063599,-4.819643497467041,-1.1197642087936401
1726995842225797400,1.29879736328125,-0.7259238958358765,-4.438413143157959,-0.5300012826919556
1726995842235783400,1.308783447265625,0.22190353274345398,-3.050157308578491,0.09734318405389786
1726995842245770200,1.318770263671875,1.2496610879898071,-1.3645461797714233,0.6576374173164368
1726995842255756300,1.32875634765625,1.574390172958374,-0.15104593336582184,1.0262709856033325
1726995842265743400,1.338743408203125,1.199473261833191,0.3862742483615875,1.138088583946228
1726995842275729400,1.3487294921875,-0.47464534640312195,1.2977349758148193,0.3529174327850342
1726995842285716200,1.35871630859375,-1.1910475492477417,1.6938412189483643,-0.5344630479812622
1726995842295702300,1.368702392578125,-1.2319650650024414,2.1275970935821533,-1.0521118640899658
1726995842305689300,1.378689453125,-0.677488386631012,2.3351528644561768,-1.2529256343841553
1726995842315676200,1.38867626953125,0.1632174253463745,1.9811760187149048,-0.9449067115783691
1726995842325662500,1.398662353515625,0.687176525592804,1.359730839729309,-0.5914535522460938
1726995842335649300,1.408649169921875,0.5047013163566589,0.6962162256240845,-0.46558845043182373
1726995842345635300,1.41863525390625,0.04781950265169144,0.1990027129650116,-0.5815488696098328
1726995842355622400,1.428622314453125,-0.2505618929862976,0.3587096929550171,-0.757382333278656
1726995842365608200,1.438608154296875,-0.49474847316741943,1.370418667793274,-0.7034226655960083
1726995842375595300,1.44859521484375,-0.8926653861999512,1.9568758010864258,-0.5452576279640198
1726995842385581300,1.458581298828125,-1.1898664236068726,2.1695737838745117,-0.5839560031890869
1726995842395568400,1.468568359375,-1.4309104681015015,1.880632758140564,-0.5829183459281921
1726995842405554200,1.47855419921875,-1.6533304452896118,1.3938729763031006,-0.5881999135017395
1726995842415541500,1.48854150390625,-1.5717902183532715,0.026884255930781364,-0.6190551519393921
1726995842425527300,1.49852734375,-1.1753405332565308,-1.8474234342575073,-0.6470167636871338
1726995842435514000,1.50851416015625,-0.7566289901733398,-2.6737704277038574,-0.5299844741821289
1726995842445501400,1.51850146484375,-0.38949862122535706,-1.329473614692688,-0.012711215764284134
1726995842455487200,1.5284873046875,-0.15444262325763702,0.5831453204154968,0.4935350716114044
1726995842465474300,1.538474365234375,0.10805370658636093,1.2812854051589966,0.4145366847515106
1726995842475460400,1.54846044921875,0.3260171115398407,1.3554705381393433,0.16979999840259552
1726995842485447400,1.558447509765625,0.5309585332870483,1.413997769355774,0.16570726037025452
1726995842495433200,1.56843310546875,0.6125321388244629,1.5909541845321655,0.36369049549102783
1726995842505420300,1.578420166015625,0.5068240761756897,1.5896940231323242,0.533502459526062
1726995842515406300,1.58840625,0.3533421754837036,1.4266730546951294,0.5594828128814697
1726995842525393200,1.59839306640625,0.1472337543964386,1.0409594774246216,0.49795714020729065
1726995842535379500,1.60837939453125,-0.04027457907795906,0.5326682329177856,0.35057902336120605
1726995842545366300,1.6183662109375,-0.15616150200366974,0.37279656529426575,0.2242327779531479
1726995842555352300,1.628352294921875,-0.21384423971176147,0.3922552168369293,0.13916368782520294
1726995842565339400,1.63833935546875,-0.22839519381523132,0.4196658134460449,0.10101674497127533
1726995842575326200,1.648326171875,-0.21857011318206787,0.4050825238227844,0.05681781470775604
1726995842585312300,1.658312255859375,-0.15115033090114594,0.43386438488960266,0.0038014680612832308
1726995842595299300,1.66829931640625,-0.05606301501393318,0.5229586958885193,-0.057029664516448975
1726995842605285400,1.678285400390625,0.03666292503476143,0.47417518496513367,-0.08729089796543121
1726995842615272200,1.688272216796875,0.14707453548908234,0.567565381526947,-0.16643424332141876
1726995842625258200,1.69825830078125,0.20659537613391876,0.6765981316566467,-0.1955505907535553
1726995842635245300,1.708245361328125,0.23379775881767273,0.6292815804481506,-0.16633756458759308
1726995842645231400,1.7182314453125,0.2431345283985138,0.6246277093887329,-0.17436273396015167
1726995842655218400,1.728218505859375,0.21433211863040924,0.6416186094284058,-0.19502058625221252
1726995842665204200,1.738204345703125,0.18328417837619781,0.640112578868866,-0.21872910857200623
1726995842675191300,1.74819140625,0.16593164205551147,0.6633743047714233,-0.2489355206489563
1726995842685177300,1.75817724609375,0.15432985126972198,0.6837407946586609,-0.26129046082496643
1726995842695164200,1.7681640625,0.12082257121801376,0.69026118516922,-0.27323296666145325
1726995842705151200,1.778151123046875,0.05922338739037514,0.6866859197616577,-0.2642882168292999
1726995842715137300,1.78813720703125,-0.01726381666958332,0.6588934063911438,-0.24266323447227478
1726995842725124400,1.798124267578125,-0.0844321995973587,0.6276939511299133,-0.2111537754535675
1726995842735110400,1.8081103515625,-0.11517801135778427,0.6261720657348633,-0.19278113543987274
1726995842745097500,1.818097412109375,-0.10311149060726166,0.6661767363548279,-0.18435914814472198
1726995842755083300,1.828083251953125,-0.09295757114887238,0.7744123339653015,-0.18436986207962036
1726995842765070300,1.8380703125,-0.05630955100059509,0.9853189587593079,-0.22657990455627441
1726995842775056400,1.848056396484375,-0.018089566379785538,1.051170825958252,-0.23391194641590118
1726995842785043200,1.858043212890625,-0.08359507471323013,0.941422700881958,-0.22685670852661133
1726995842795029500,1.868029541015625,-0.20726452767848969,0.8762087821960449,-0.23295944929122925
1726995842805016300,1.878016357421875,-0.31496304273605347,0.7923514246940613,-0.24872350692749023
1726995842815002000,1.888002197265625,-0.4081733822822571,0.6248906850814819,-0.2812016010284424
1726995842824989400,1.897989501953125,-0.4154091775417328,0.3615008294582367,-0.2946572005748749
1726995842834976500,1.9079765625,-0.30418434739112854,0.1623874455690384,-0.28976067900657654
1726995842844962300,1.91796240234375,-0.13433672487735748,0.07907684892416,-0.2636276185512543
1726995842854949000,1.92794921875,0.06678563356399536,0.048865724354982376,-0.21703438460826874
1726995842864935400,1.937935302734375,0.21029140055179596,0.1051737368106842,-0.189386785030365
1726995842874922200,1.947922119140625,0.295518159866333,0.31092050671577454,-0.18830269575119019
1726995842884908500,1.957908447265625,0.3655342757701874,0.5352271199226379,-0.1996573507785797
1726995842894895400,1.967895263671875,0.42590469121932983,0.6666969656944275,-0.23607592284679413
1726995842904881200,1.977881103515625,0.5008271336555481,0.6680128574371338,-0.2823507487773895
1726995842914868500,1.987868408203125,0.5685119032859802,0.6161904335021973,-0.3002907633781433
1726995842924854300,1.997854248046875,0.6014381647109985,0.5396354794502258,-0.29469627141952515
1726995842934841300,2.00784130859375,0.5884057283401489,0.4587308466434479,-0.2788233160972595
1726995842944827400,2.017827392578125,0.524516761302948,0.4339059293270111,-0.26564517617225647
1726995842954814500,2.027814453125,0.42540985345840454,0.44016358256340027,-0.25073736906051636
1726995842964800300,2.03780029296875,0.3104739487171173,0.4493855834007263,-0.250019907951355
1726995842974787300,2.047787353515625,0.22129088640213013,0.45365044474601746,-0.2474460005760193
1726995842984773400,2.0577734375,0.16538900136947632,0.4131038188934326,-0.2342393696308136
1726995842994760200,2.06776025390625,0.12771978974342346,0.3404829800128937,-0.20266808569431305
1726995843004747300,2.077747314453125,0.09394317120313644,0.2116544097661972,-0.14813214540481567
1726995843014733300,2.0877333984375,0.04719514027237892,0.008768509142100811,-0.09643600881099701
1726995843024720400,2.097720458984375,0.015247596427798271,-0.16636042296886444,-0.026186615228652954
1726995843034706400,2.10770654296875,0.0033638577442616224,-0.2893487215042114,0.04253938049077988
1726995843044693200,2.117693359375,-0.00447968440130353,-0.3588055372238159,0.104136161506176
1726995843054679300,2.12767919921875,-0.007122338749468327,-0.416032612323761,0.16985498368740082
1726995843064666400,2.137666259765625,-0.0037401244044303894,-0.4557022750377655,0.21201708912849426
1726995843074652400,2.14765234375,-0.018600592389702797,-0.4371880888938904,0.1961042582988739
1726995843084638200,2.15763818359375,-0.07662927359342575,-0.4526727795600891,0.26539838314056396
1726995843094624000,2.1676240234375,-0.12230905890464783,-0.5606309175491333,0.3358418643474579
1726995843104611000,2.177611083984375,-0.12985806167125702,-0.6302070617675781,0.39456507563591003
1726995843114597000,2.18759716796875,-0.10700055211782455,-0.6740303039550781,0.4560742974281311
1726995843124584200,2.197584228515625,-0.07526525855064392,-0.7006994485855103,0.519959032535553
1726995843134570200,2.2075703125,-0.03660137951374054,-0.71670001745224,0.5705211162567139
1726995843144557000,2.21755712890625,-0.008887461386620998,-0.7175676822662354,0.6223017573356628
1726995843154544000,2.227544189453125,-0.05161738768219948,-0.7643312215805054,0.6632780432701111
1726995843164530000,2.237530029296875,-0.1501588672399521,-0.8399652242660522,0.6783424615859985
1726995843174517200,2.247517333984375,-0.2182849794626236,-0.9009250402450562,0.6693452000617981
1726995843184503000,2.2575029296875,-0.25356972217559814,-0.893837034702301,0.6418775916099548
1726995843194490000,2.267489990234375,-0.25161367654800415,-0.845604419708252,0.6325838565826416
1726995843204476200,2.27747607421875,-0.21838781237602234,-0.7639255523681641,0.6365224123001099
1726995843214463000,2.287462890625,-0.15387769043445587,-0.707862377166748,0.6436412334442139
1726995843224449300,2.29744921875,-0.06400053203105927,-0.6995487809181213,0.6582614183425903
1726995843234436000,2.30743603515625,0.03426235169172287,-0.7214874625205994,0.6635224223136902
1726995843244422100,2.317422119140625,0.12165611237287521,-0.7725165486335754,0.6451359391212463
1726995843254409000,2.327408935546875,0.16837745904922485,-0.7917799353599548,0.6056115031242371
1726995843264395000,2.33739501953125,0.131043940782547,-0.7599812746047974,0.5322811007499695
1726995843274382000,2.347382080078125,0.030058585107326508,-0.6994087100028992,0.44812870025634766
1726995843284368100,2.3573681640625,-0.03974286466836929,-0.6016517877578735,0.34760183095932007
1726995843294355200,2.367355224609375,-0.026115084066987038,-0.4476623833179474,0.23116427659988403
1726995843304342000,2.377342041015625,0.07873276621103287,-0.3086903989315033,0.09997482597827911
1726995843314328300,2.387328369140625,0.20843732357025146,-0.20190511643886566,-0.05043693259358406
1726995843324315100,2.397315185546875,0.2983996868133545,-0.07512959092855453,-0.21316538751125336
1726995843334301000,2.407301025390625,0.33457931876182556,0.12321368604898453,-0.3486405611038208
1726995843344288000,2.4172880859375,0.32711368799209595,0.3449482321739197,-0.4838268756866455
1726995843354274000,2.427274169921875,0.27287110686302185,0.4691459834575653,-0.6046721339225769
1726995843364261000,2.43726123046875,0.1966375857591629,0.4887505769729614,-0.708291232585907
1726995843374247200,2.4472470703125,0.11612125486135483,0.450605571269989,-0.7885701656341553
1726995843384234200,2.457234130859375,0.038070131093263626,0.36062613129615784,-0.833789587020874
1726995843394220000,2.467219970703125,-0.041138906031847,0.2041892260313034,-0.8062757849693298
1726995843404207000,2.47720703125,-0.07404199242591858,0.04878499358892441,-0.6888951063156128
1726995843414193200,2.487193115234375,-0.05792905017733574,-0.06006000190973282,-0.4714081585407257
1726995843424180000,2.497179931640625,0.033436547964811325,-0.07201946526765823,-0.20194604992866516
1726995843434166300,2.507166259765625,0.1836155652999878,-0.011200003325939178,0.05040488392114639
1726995843444153000,2.517153076171875,0.2986406683921814,0.10212548822164536,0.21982666850090027
1726995843454140200,2.52714013671875,0.33412423729896545,0.22930800914764404,0.31526729464530945
1726995843464126200,2.537126220703125,0.3422175645828247,0.230582594871521,0.3726360499858856
1726995843474113300,2.54711328125,0.4718727767467499,0.31249916553497314,0.4257599413394928
1726995843484099000,2.55709912109375,0.6055793762207031,0.5063040852546692,0.414126455783844
1726995843494086100,2.567086181640625,0.704962432384491,0.6668021082878113,0.3678823709487915
1726995843504072200,2.577072265625,0.7416133880615234,0.6575729250907898,0.3554542064666748
1726995843514059000,2.58705908203125,0.6876324415206909,0.6004011631011963,0.4122943580150604
1726995843524045300,2.59704541015625,0.5570725798606873,0.48462316393852234,0.5239503383636475
1726995843534032100,2.6070322265625,0.4011525809764862,0.3934810757637024,0.6497752070426941
1726995843544018000,2.617017822265625,0.15959854423999786,0.273102730512619,0.7913515567779541
1726995843554005200,2.627005126953125,-0.16434574127197266,0.11219950765371323,0.9582889080047607
1726995843563991000,2.636990966796875,-0.5587537288665771,-0.09636808186769485,1.1234416961669922
1726995843573978000,2.64697802734375,-0.8965691328048706,-0.3171581029891968,1.1990344524383545
1726995843583964200,2.656964111328125,-1.1166563034057617,-0.5575003623962402,1.1726624965667725
1726995843593951200,2.666951171875,-1.1958656311035156,-0.6858852505683899,1.1089527606964111
1726995843603937000,2.67693701171875,-1.1412878036499023,-0.7409903407096863,1.0315378904342651
1726995843613924000,2.686924072265625,-1.0017889738082886,-0.8262015581130981,0.9422323107719421
1726995843623911200,2.6969111328125,-0.8022982478141785,-0.9250482320785522,0.817618727684021
1726995843633897000,2.70689697265625,-0.5609843134880066,-0.9489878416061401,0.6189782619476318
1726995843643884300,2.71688427734375,-0.3238598704338074,-0.811223030090332,0.27047303318977356
1726995843653870000,2.7268701171875,-0.17278766632080078,-0.5292314887046814,-0.13630415499210358
1726995843663857200,2.736857177734375,-0.16385196149349213,-0.14735953509807587,-0.4432028532028198
1726995843673843200,2.74684326171875,-0.2590406835079193,0.08130662888288498,-0.6127033829689026
1726995843683830000,2.756830078125,-0.3569307327270508,0.06965450197458267,-0.8231167793273926
1726995843693816000,2.766816162109375,-0.43572404980659485,0.05686461925506592,-0.9638883471488953
1726995843703803100,2.77680322265625,-0.4660837948322296,0.198522686958313,-1.0695860385894775
1726995843713789200,2.7867890625,-0.37343254685401917,0.37794843316078186,-1.1390575170516968
1726995843723776000,2.79677587890625,-0.1987994909286499,0.5224297046661377,-1.1751686334609985
1726995843733762000,2.806761962890625,-0.048251066356897354,0.6105005741119385,-1.1956111192703247
1726995843743749000,2.8167490234375,0.02420768514275551,0.6638538241386414,-1.212790846824646
1726995843753735200,2.826735107421875,0.0656660944223404,0.6693868637084961,-1.225721001625061
1726995843763722200,2.83672216796875,0.08250819146633148,0.5802351832389832,-1.2640100717544556
1726995843773708000,2.8467080078125,0.06158178672194481,0.47033295035362244,-1.3373037576675415
1726995843783695000,2.856695068359375,0.01842445880174637,0.37271586060523987,-1.43137788772583
1726995843793682200,2.86668212890625,-0.022455252707004547,0.31037986278533936,-1.4970831871032715
1726995843803668000,2.87666796875,-0.0075689819641411304,0.3589306175708771,-1.5041695833206177
1726995843813655000,2.886655029296875,0.05891099572181702,0.3857521116733551,-1.4442434310913086
1726995843823641000,2.89664111328125,0.08847181499004364,0.36959126591682434,-1.3195222616195679
1726995843833628200,2.906628173828125,0.03777075931429863,0.3036324977874756,-1.1013176441192627
1726995843843614200,2.9166142578125,-0.08557461202144623,0.18192924559116364,-0.7979931235313416
1726995843853601300,2.926601318359375,-0.2692141532897949,0.09674639999866486,-0.48654162883758545
1726995843863587000,2.936587158203125,-0.4221762716770172,0.07201335579156876,-0.20305797457695007
1726995843873574100,2.94657421875,-0.5088412761688232,0.058530647307634354,0.014068948104977608
1726995843883560200,2.956560302734375,-0.5694942474365234,-0.01599258929491043,0.13536661863327026
1726995843893547000,2.966547119140625,-0.6080042123794556,-0.16143639385700226,0.1293378472328186
1726995843903533300,2.976533203125,-0.6611502766609192,-0.2247522473335266,-0.031995125114917755
1726995843913520000,2.98652001953125,-0.7212743759155273,-0.15189120173454285,-0.2076815664768219
1726995843923506000,2.996505859375,-0.770393431186676,-0.08829785138368607,-0.24183501303195953
1726995843933493200,3.0064931640625,-0.7610399127006531,-0.07388908416032791,-0.19822894036769867
1726995843943479000,3.01647900390625,-0.6937567591667175,-0.05185462534427643,-0.09592974185943604
1726995843953466000,3.026466064453125,-0.6152034997940063,0.015456195920705795,0.03527480736374855
1726995843963453000,3.036452880859375,-0.518915593624115,0.12473848462104797,0.1586015373468399
1726995843973439200,3.046439208984375,-0.40420228242874146,0.238535076379776,0.2677934169769287
1726995843983426000,3.056426025390625,-0.27438491582870483,0.3595547080039978,0.33744868636131287
1726995843993412000,3.066412109375,-0.1395612210035324,0.42672744393348694,0.35483047366142273
1726995844003399200,3.076399169921875,-0.04022983834147453,0.41040468215942383,0.3428798019886017
1726995844013385000,3.086385009765625,-0.018650470301508904,0.3322347402572632,0.33707505464553833
1726995844023372300,3.096372314453125,-0.04810236766934395,0.25246188044548035,0.3754272162914276
1726995844033358000,3.106358154296875,-0.0814812034368515,0.2105604112148285,0.41990926861763
1726995844043345200,3.11634521484375,-0.1293666958808899,0.1786714643239975,0.4647563695907593
1726995844053331200,3.126331298828125,-0.176058828830719,0.14870741963386536,0.5235084295272827
1726995844063318000,3.136318115234375,-0.19647276401519775,0.14055147767066956,0.6211535334587097
1726995844073304000,3.146303955078125,-0.20596708357334137,0.1365073025226593,0.7035815715789795
1726995844083291400,3.15629150390625,-0.1901516318321228,0.08741485327482224,0.7311658263206482
1726995844093277400,3.16627734375,-0.17104169726371765,0.034492168575525284,0.6779906749725342
1726995844103264300,3.17626416015625,-0.17549051344394684,0.008544189855456352,0.5434022545814514
1726995844113250300,3.186250244140625,-0.17385916411876678,0.05468565970659256,0.3502507209777832
1726995844123237400,3.1962373046875,-0.11669734120368958,0.1849035769701004,0.13631020486354828
1726995844133223200,3.20622314453125,-0.0471937395632267,0.3045237958431244,-0.027996530756354332
1726995844143210500,3.21621044921875,-0.033740781247615814,0.3609793484210968,-0.10060016065835953
1726995844153197300,3.226197265625,-0.07251638174057007,0.355631947517395,-0.0781974121928215
1726995844163183400,3.236183349609375,-0.10124789923429489,0.31336385011672974,0.014107486233115196
1726995844173170400,3.24617041015625,-0.09570015966892242,0.23369532823562622,0.14394840598106384
1726995844183156200,3.25615625,-0.08992669731378555,0.14130200445652008,0.24838319420814514
1726995844193143300,3.266143310546875,-0.09129949659109116,0.05553236976265907,0.29598772525787354
1726995844203129300,3.27612939453125,-0.0749085396528244,0.04878152161836624,0.2584611475467682
1726995844213116400,3.286116455078125,-0.04941980168223381,0.046641718596220016,0.2315271645784378
1726995844223102200,3.296102294921875,-0.029177648946642876,0.042295973747968674,0.1558971107006073
1726995844233089500,3.306089599609375,-0.026495078578591347,0.08137907087802887,0.1359536498785019
1726995844243075300,3.316075439453125,-0.027694033458828926,0.04988505691289902,0.11798691004514694
1726995844253062100,3.326062255859375,-0.02930890955030918,0.020349234342575073,0.08380606770515442
1726995844263048400,3.33604833984375,-0.025736277922987938,0.046887367963790894,0.00518236355856061
1726995844273035300,3.34603515625,0.013637342490255833,0.08216474205255508,-0.1009213924407959
1726995844283021600,3.356021484375,0.0775713175535202,0.07990558445453644,-0.18899932503700256
1726995844293008400,3.36600830078125,0.06446235626935959,0.07851971685886383,-0.23531723022460938
1726995844302994200,3.375994140625,-0.01234614010900259,0.0630752444267273,-0.23769275844097137
1726995844312981200,3.385981201171875,-0.08575601875782013,0.04867185652256012,-0.2083434760570526
1726995844322967300,3.39596728515625,-0.12405653297901154,0.013989511877298355,-0.15567733347415924
1726995844332954400,3.405954345703125,-0.10040860623121262,0.0054730698466300964,-0.1016489565372467
1726995844342941200,3.415941162109375,-0.016346730291843414,-0.0197830181568861,-0.07209159433841705
1726995844352927500,3.425927490234375,0.06271737813949585,0.013776317238807678,-0.11487147957086563
1726995844362914300,3.435914306640625,0.11255017668008804,0.09286767989397049,-0.20846614241600037
1726995844372900400,3.445900390625,0.09528296440839767,0.18026240170001984,-0.33823052048683167
1726995844382887400,3.455887451171875,0.004646009765565395,0.28223615884780884,-0.4641261100769043
1726995844392873200,3.465873291015625,-0.12703579664230347,0.35290539264678955,-0.5018361210823059
1726995844402860300,3.4758603515625,-0.24458400905132294,0.3941705524921417,-0.48056840896606445
1726995844412846300,3.485846435546875,-0.3409298360347748,0.3520490825176239,-0.4358476996421814
1726995844422833400,3.49583349609375,-0.3931392729282379,0.2912065088748932,-0.4000990390777588
1726995844432819500,3.5058193359375,-0.4164535105228424,0.22626249492168427,-0.38455361127853394
1726995844442806500,3.515806640625,-0.4147365689277649,0.14203870296478271,-0.3715381920337677
1726995844452792300,3.525792236328125,-0.3887092173099518,0.15971769392490387,-0.3090165853500366
1726995844462779400,3.535779296875,-0.40143832564353943,0.3653036057949066,-0.16942350566387177
1726995844472765400,3.545765380859375,-0.41672927141189575,0.6344776153564453,0.05089859664440155
1726995844482752300,3.555752197265625,-0.45146888494491577,0.9760532975196838,0.3636074960231781
1726995844492738300,3.56573828125,-0.50319504737854,1.1713865995407104,0.7222661375999451
1726995844502725400,3.575725341796875,-0.5448703169822693,1.063923954963684,0.9661831855773926
1726995844512711200,3.585711181640625,-0.5815301537513733,0.7492741346359253,1.0244107246398926
1726995844522698500,3.595698486328125,-0.6277687549591064,0.31065255403518677,0.8860872983932495
1726995844532684300,3.605684326171875,-0.5546861290931702,-0.18139201402664185,0.5975423455238342
1726995844542671400,3.61567138671875,-0.393552303314209,-0.5804365873336792,0.3153061270713806
1726995844552658400,3.625658447265625,-0.26421746611595154,-0.9019675254821777,0.09057649970054626
1726995844562644500,3.63564453125,-0.15036147832870483,-1.1164672374725342,-0.08194494247436523
1726995844572631300,3.64563134765625,-0.11570101976394653,-1.307218074798584,-0.12406498938798904
1726995844582617300,3.655617431640625,-0.12025103718042374,-1.4702485799789429,0.04406622424721718
1726995844592604400,3.6656044921875,-0.1661205142736435,-1.5719153881072998,0.34003499150276184
1726995844602590200,3.675590087890625,-0.296852171421051,-1.588038444519043,0.6759453415870667
1726995844612577500,3.68557763671875,-0.3744802176952362,-1.5359467267990112,0.9013697504997253
1726995844622563300,3.695563232421875,-0.3396444618701935,-1.4214646816253662,0.9294695854187012
1726995844632550400,3.70555029296875,-0.3126409649848938,-1.0570353269577026,0.7630586624145508
1726995844642536400,3.715536376953125,-0.3318295478820801,-0.5182585716247559,0.5374119281768799
1726995844652523300,3.725523193359375,-0.2917388379573822,-0.08863828331232071,0.35018593072891235
1726995844662509600,3.735509521484375,-0.23407472670078278,0.27486881613731384,0.09597494453191757
1726995844672496400,3.745496337890625,-0.2045951932668686,0.5301700234413147,-0.1314588338136673
1726995844682482400,3.755482421875,-0.2408173829317093,0.5753359198570251,-0.11969538778066635
1726995844692469200,3.76546923828125,-0.25735825300216675,0.36048054695129395,0.12234307825565338
1726995844702455300,3.775455322265625,-0.2966872751712799,-0.061190247535705566,0.35418933629989624
1726995844712442400,3.7854423828125,-0.2956486940383911,-0.31922003626823425,0.3988139033317566
1726995844722428400,3.795428466796875,-0.21549953520298004,-0.3724723160266876,0.3050194978713989
1726995844732415500,3.80541552734375,-0.11446516215801239,-0.33103057742118835,0.1504932940006256
1726995844742401300,3.8154013671875,0.037491340190172195,-0.33880382776260376,-0.015827776864171028
1726995844752388400,3.825388427734375,0.1481061726808548,-0.4690452814102173,-0.1610940396785736
1726995844762375400,3.83537548828125,0.16574029624462128,-0.5738798379898071,-0.26107949018478394
1726995844772361200,3.845361328125,0.11884873360395432,-0.5466311573982239,-0.21505388617515564
1726995844782348300,3.855348388671875,0.07626451551914215,-0.36817142367362976,-0.10069002211093903
1726995844792334300,3.865334228515625,0.0462091900408268,-0.15216723084449768,0.025295745581388474
1726995844802321400,3.8753212890625,0.013688796199858189,-0.0003742390836123377,0.15288513898849487
1726995844812307500,3.885307373046875,-0.07220357656478882,0.11312176287174225,0.1725606471300125
1726995844822294500,3.89529443359375,-0.18800048530101776,0.17623494565486908,0.12237738817930222
1726995844832280300,3.9052802734375,-0.28191637992858887,0.07938671857118607,0.13595865666866302
1726995844842267400,3.915267333984375,-0.11593752354383469,-0.024717049673199654,0.34633320569992065
1726995844852253400,3.92525341796875,0.16368655860424042,-0.18083083629608154,0.5243047475814819
1726995844862240300,3.935240234375,0.4108228385448456,-0.3593427836894989,0.5856338739395142
1726995844872226600,3.9452265625,0.5156267881393433,-0.4430154860019684,0.5562185049057007
1726995844882213400,3.95521337890625,0.5566397309303284,-0.3238334357738495,0.5443083047866821
1726995844892199200,3.96519921875,0.5664808750152588,-0.1506737321615219,0.4836209714412689
1726995844902186500,3.9751865234375,0.5240409970283508,0.018479343503713608,0.4101124107837677
1726995844912172300,3.98517236328125,0.4591795802116394,0.15808777511119843,0.37062036991119385
1726995844922159400,3.995159423828125,0.41717591881752014,0.2035609930753708,0.32522547245025635
1726995844932145400,4.0051455078125,0.3621254861354828,0.1595993936061859,0.2690163850784302
1726995844942132500,4.015132568359375,0.31266525387763977,0.13067640364170074,0.22463484108448029
1726995844952118300,4.0251181640625,0.3128606081008911,0.05218430235981941,0.1807994842529297
1726995844962105300,4.035105224609375,0.3794596195220947,-0.09620863199234009,0.11184411495923996
1726995844972092400,4.045092529296875,0.5264062881469727,-0.29688066244125366,0.07834259420633316
1726995844982078200,4.055078125,0.693900465965271,-0.48452460765838623,0.03308510035276413
1726995844992065500,4.0650654296875,0.8104577660560608,-0.4466482400894165,-0.10903578251600266
1726995845002051300,4.07505126953125,0.7665755748748779,-0.1410779356956482,-0.404114305973053
1726995845012038400,4.085038330078125,0.6141301989555359,0.18524233996868134,-0.7751837372779846
1726995845022024400,4.0950244140625,0.42438825964927673,0.25746381282806396,-1.0153212547302246
1726995845032011300,4.10501123046875,0.22609178721904755,0.16315054893493652,-1.0566993951797485
1726995845041997300,4.114997314453125,0.09754153341054916,0.06888663023710251,-0.9691245555877686
1726995845051984400,4.124984375,0.08988204598426819,-0.03656589984893799,-0.8490419983863831
1726995845061970400,4.134970458984375,0.18821127712726593,-0.10484003275632858,-0.7433461546897888
1726995845071957200,4.144957275390625,0.366611510515213,-0.1940740942955017,-0.6285658478736877
1726995845081944300,4.1549443359375,0.536655604839325,-0.26355278491973877,-0.4866500198841095
1726995845091931400,4.164931396484375,0.6159269213676453,-0.22482898831367493,-0.34925782680511475
1726995845101917200,4.174917236328125,0.46760666370391846,-0.07797268778085709,-0.3071631193161011
1726995845111904300,4.184904296875,0.18487775325775146,0.0032862096559256315,-0.36083486676216125
1726995845121890300,4.194890380859375,-0.02872195839881897,-0.015404630452394485,-0.4228144586086273
1726995845131877400,4.20487744140625,-0.14674463868141174,0.033710673451423645,-0.42339271306991577
1726995845141863400,4.214863525390625,-0.21766701340675354,0.1261282116174698,-0.406223326921463
1726995845151850200,4.224850341796875,-0.22642162442207336,0.2037138193845749,-0.39880242943763733
1726995845161836300,4.234836181640625,-0.17079085111618042,0.19208300113677979,-0.3821544647216797
1726995845171823400,4.2448232421875,-0.10508432239294052,0.09607940167188644,-0.32678326964378357
1726995845181809400,4.254809326171875,-0.05020961910486221,-0.000046331260818988085,-0.24452035129070282
1726995845191796200,4.264796142578125,-0.020922839641571045,-0.07110559195280075,-0.17451250553131104
1726995845201783300,4.274783203125,-0.0035702146124094725,-0.13079608976840973,-0.16061267256736755
1726995845211769300,4.284769287109375,-0.0019836947321891785,-0.14630970358848572,-0.20082110166549683
1726995845221756200,4.294756103515625,0.005313100293278694,-0.10218565911054611,-0.2876385748386383
1726995845231742500,4.304742431640625,0.022702615708112717,-0.054100606590509415,-0.3875393867492676
1726995845241729300,4.314729248046875,0.059944260865449905,-0.045328155159950256,-0.4520736336708069
1726995845251715300,4.32471533203125,0.06302571296691895,-0.08666611462831497,-0.4497128129005432
1726995845261702400,4.334702392578125,0.011551599949598312,-0.14163482189178467,-0.4009290039539337
1726995845271688200,4.344688232421875,-0.05777014046907425,-0.20597323775291443,-0.3094675540924072
1726995845281675300,4.35467529296875,-0.057085972279310226,-0.31393057107925415,-0.21025443077087402
1726995845291661300,4.364661376953125,-0.01483861356973648,-0.4048256278038025,-0.10948382318019867
1726995845301648400,4.3746484375,0.04594670608639717,-0.42823293805122375,-0.04984232410788536
1726995845311634200,4.38463427734375,0.056966688483953476,-0.4220387637615204,-0.016656480729579926
1726995845321621500,4.39462158203125,0.058812256902456284,-0.34616395831108093,-0.0063034421764314175
1726995845331607300,4.404607177734375,0.0848364382982254,-0.21253013610839844,-0.012215815484523773
1726995845341594000,4.414593994140625,0.10383489727973938,-0.07442793250083923,-0.016788464039564133
1726995845351580400,4.424580322265625,0.09870317578315735,0.01992562972009182,-0.005964207928627729
1726995845361567200,4.434567138671875,0.09325035661458969,0.05187211185693741,0.030691009014844894
1726995845371553500,4.444553466796875,0.11501810699701309,0.03571411222219467,0.06476416438817978
1726995845381540400,4.454540283203125,0.1645856648683548,-0.003777104429900646,0.06283044815063477
1726995845391526100,4.464526123046875,0.21676668524742126,-0.03200133517384529,0.030626527965068817
1726995845401513200,4.47451318359375,0.26753556728363037,0.005636854562908411,0.0014502666890621185
1726995845411499300,4.484499267578125,0.2990863025188446,0.06704988330602646,0.0005937942769378424
1726995845421486300,4.494486328125,0.3035638928413391,0.10979175567626953,0.023569682613015175
1726995845431473200,4.50447314453125,0.2811996638774872,0.14122027158737183,0.04110771417617798
1726995845441459500,4.51445947265625,0.25638991594314575,0.1276962161064148,0.047350961714982986
1726995845451446300,4.5244462890625,0.24762442708015442,0.09368976205587387,0.05543195456266403
1726995845461432300,4.534432373046875,0.26876407861709595,0.07145210355520248,0.06468749791383743
1726995845471419400,4.54441943359375,0.33536970615386963,0.05816428363323212,0.0683365911245346
1726995845481405200,4.5544052734375,0.42114371061325073,-0.006601396482437849,0.06582922488451004
1726995845491392300,4.564392333984375,0.48069894313812256,-0.07435354590415955,0.061995334923267365
1726995845501378300,4.57437841796875,0.5196606516838074,-0.08949893712997437,0.03969375789165497
1726995845511365400,4.584365478515625,0.5438855886459351,-0.027419043704867363,-0.0019148895516991615
1726995845521351400,4.594351318359375,0.5597231388092041,0.10290993750095367,-0.08908761292695999
1726995845531338200,4.604338134765625,0.6129289269447327,0.30049315094947815,-0.19350910186767578
1726995845541324300,4.61432421875,0.6886681318283081,0.5876511931419373,-0.26664748787879944
1726995845551311400,4.624311279296875,0.7737218737602234,0.8962357044219971,-0.2877241373062134
1726995845561297400,4.63429736328125,0.8771233558654785,1.0613330602645874,-0.20869217813014984
1726995845571284200,4.6442841796875,0.9809999465942383,0.9815418124198914,-0.07111780345439911
1726995845581270300,4.654270263671875,1.054084300994873,0.7615053057670593,0.045521192252635956
1726995845591257300,4.66425732421875,1.0956226587295532,0.5547352433204651,0.09569189697504044
1726995845601243100,4.6742431640625,1.1131736040115356,0.45493245124816895,0.053222738206386566
1726995845611230500,4.68423046875,1.1328760385513306,0.42173951864242554,-0.02543221414089203
1726995845621216300,4.69421630859375,1.1764826774597168,0.3855716586112976,-0.09429144114255905
1726995845631203300,4.704203369140625,1.2638918161392212,0.3159111738204956,-0.1158541738986969
1726995845641189400,4.714189453125,1.3942012786865234,0.21142953634262085,-0.09288068115711212
1726995845651176200,4.72417626953125,1.528412938117981,0.11577585339546204,-0.08618373423814774
1726995845661162500,4.73416259765625,1.6001561880111694,0.09504075348377228,-0.10622082650661469
1726995845671149300,4.7441494140625,1.5774950981140137,0.09674204885959625,-0.16953516006469727
1726995845681136400,4.754136474609375,1.4716453552246094,0.15378934144973755,-0.27180346846580505
1726995845691122200,4.7641220703125,1.2916806936264038,0.14346708357334137,-0.36687108874320984
1726995845701109500,4.774109619140625,1.0926694869995117,-0.01834286004304886,-0.3697555661201477
1726995845711095300,4.78409521484375,0.8920389413833618,-0.24422401189804077,-0.2783021926879883
1726995845721082000,4.79408203125,0.710466742515564,-0.4040922522544861,-0.15353229641914368
1726995845731068400,4.804068359375,0.5817427635192871,-0.5348460674285889,-0.028465185314416885
1726995845741055200,4.81405517578125,0.5100720524787903,-0.606853187084198,0.06364157795906067
1726995845751041500,4.82404150390625,0.4986327886581421,-0.5766633749008179,0.08063806593418121
1726995845761028400,4.8340283203125,0.5233405232429504,-0.44787368178367615,0.05057843029499054
1726995845771014100,4.84401416015625,0.5566272139549255,-0.29980477690696716,0.032782357186079025
1726995845781001200,4.854001220703125,0.5737816691398621,-0.2456589937210083,0.07378305494785309
1726995845790987300,4.8639873046875,0.5594984292984009,-0.2952338755130768,0.1719687432050705
1726995845800974300,4.873974365234375,0.5526676774024963,-0.38217782974243164,0.3156561553478241
1726995845810960400,4.88396044921875,0.5391551852226257,-0.3212513029575348,0.4510309398174286
1726995845820947500,4.893947509765625,0.49529772996902466,-0.25282299518585205,0.5654893517494202
1726995845830933200,4.903933349609375,0.4612734615802765,-0.2745823562145233,0.6809288263320923
1726995845840920300,4.91392041015625,0.39822128415107727,-0.3735558092594147,0.771439254283905
1726995845850906400,4.92390625,0.3444921672344208,-0.4220540523529053,0.8138989210128784
1726995845860893200,4.93389306640625,0.29950234293937683,-0.36426106095314026,0.8079555630683899
1726995845870879500,4.94387939453125,0.27843502163887024,-0.26647838950157166,0.7597442865371704
1726995845880866300,4.9538662109375,0.24963878095149994,-0.21617579460144043,0.6929404735565186
1726995845890852000,4.96385205078125,0.23050419986248016,-0.20782756805419922,0.6100015640258789
1726995845900839400,4.97383935546875,0.18179072439670563,-0.22719646990299225,0.5372040271759033
1726995845910825200,4.9838251953125,0.10819614678621292,-0.21222977340221405,0.5061509609222412
1726995845920812300,4.993812255859375,0.019991187378764153,-0.20910774171352386,0.5035407543182373
1726995845930798300,5.00379833984375,-0.032924309372901917,-0.23260878026485443,0.5642300248146057
1726995845940785400,5.013785400390625,-0.01089384313672781,-0.19734613597393036,0.6143491268157959
1726995845950772200,5.023772216796875,0.046334195882081985,-0.12284454703330994,0.5698180198669434
1726995845960758300,5.03375830078125,0.09153496474027634,-0.05945731699466705,0.4483861029148102
1726995845970745300,5.043745361328125,0.04123698174953461,-0.04158288612961769,0.3243136703968048
1726995845980731100,5.053731201171875,-0.05194436013698578,-0.042317651212215424,0.2753269672393799
1726995845990718500,5.063718505859375,-0.14044104516506195,-0.05044196546077728,0.29189738631248474
1726995846000704300,5.073704345703125,-0.21577921509742737,-0.07195844501256943,0.3310660719871521
1726995846010691300,5.08369140625,-0.28272804617881775,-0.09900981932878494,0.3878873586654663
1726995846020677400,5.093677490234375,-0.3288380205631256,-0.14856672286987305,0.4737098813056946
1726995846030664200,5.103664306640625,-0.32930052280426025,-0.19215844571590424,0.5817774534225464
1726995846040650200,5.113650146484375,-0.2628863453865051,-0.22943763434886932,0.6990159153938293
1726995846050637300,5.12363720703125,-0.14644940197467804,-0.19397783279418945,0.82308429479599
1726995846060623400,5.133623291015625,-0.03599826619029045,-0.12052065879106522,0.9480720162391663
1726995846070610200,5.143610107421875,0.04424178972840309,-0.04927606135606766,1.0609885454177856
1726995846080596200,5.15359619140625,0.07251018285751343,-0.0013892324641346931,1.1437119245529175
1726995846090582800,5.163582763671875,0.06001120060682297,0.06211714446544647,1.1610785722732544
1726995846100568800,5.17356884765625,0.028842896223068237,0.13684304058551788,1.1079901456832886
1726995846110555600,5.1835556640625,-0.0074043674394488335,0.19535832107067108,1.0094412565231323
1726995846120541700,5.193541748046875,-0.06766877323389053,0.2308124452829361,0.894992470741272
1726995846130528800,5.20352880859375,-0.15705403685569763,0.2617981731891632,0.7317084074020386
1726995846140514800,5.213514892578125,-0.2744387090206146,0.2867245674133301,0.5400114059448242
1726995846150501600,5.223501708984375,-0.38437825441360474,0.29175370931625366,0.3466213643550873
1726995846160487700,5.23348779296875,-0.46181660890579224,0.26877009868621826,0.16857735812664032
1726995846170474800,5.243474853515625,-0.5137358903884888,0.2261073738336563,-0.010693307965993881
1726995846180460800,5.253460693359375,-0.5288591384887695,0.1727522760629654,-0.20718052983283997
1726995846190447900,5.26344775390625,-0.5406467318534851,0.13929079473018646,-0.35982251167297363
1726995846200433700,5.27343359375,-0.535426139831543,0.11053025722503662,-0.5106858015060425
1726995846210420700,5.283420654296875,-0.5402129888534546,0.10984279960393906,-0.6623486876487732
1726995846220407800,5.29340771484375,-0.5589472651481628,0.16335369646549225,-0.7816124558448792
1726995846230393600,5.3033935546875,-0.5816634297370911,0.2488373965024948,-0.8842275738716125
1726995846240380700,5.313380615234375,-0.5885646939277649,0.3273913264274597,-0.9563281536102295
1726995846250366700,5.32336669921875,-0.5908234715461731,0.3737320005893707,-1.0084844827651978
1726995846260353800,5.333353759765625,-0.5905025601387024,0.38352176547050476,-1.0474820137023926
1726995846270339800,5.34333984375,-0.598701536655426,0.36566442251205444,-1.0960299968719482
1726995846280327000,5.353326904296875,-0.6203109622001648,0.32839053869247437,-1.1591850519180298
1726995846290312700,5.363312744140625,-0.6530524492263794,0.27032050490379333,-1.2477997541427612
1726995846300299500,5.373299560546875,-0.6972771883010864,0.1978367120027542,-1.3499391078948975
1726995846310285800,5.383285888671875,-0.7187985777854919,0.09266027808189392,-1.4241933822631836
1726995846320272600,5.393272705078125,-0.6898941993713379,-0.008191235363483429,-1.4228721857070923
1726995846330259000,5.403259033203125,-0.6376753449440002,-0.030068889260292053,-1.3791601657867432
1726995846340245800,5.413245849609375,-0.5898165106773376,0.0029029096476733685,-1.3207833766937256
1726995846350231600,5.4232314453125,-0.5605327486991882,0.075808085501194,-1.2944555282592773
1726995846360219000,5.433218994140625,-0.5643588900566101,0.12584993243217468,-1.3066598176956177
1726995846370204700,5.44320458984375,-0.5751473903656006,0.16581304371356964,-1.347306489944458
1726995846380191700,5.453191650390625,-0.5998122096061707,0.20269596576690674,-1.4242039918899536
1726995846390177800,5.463177734375,-0.6473148465156555,0.12999409437179565,-1.5529206991195679
1726995846400164900,5.473164794921875,-0.6732319593429565,-0.0642630010843277,-1.6484171152114868
1726995846410150700,5.483150634765625,-0.6451178193092346,-0.22829292714595795,-1.59748375415802
1726995846420137700,5.4931376953125,-0.5893120765686035,-0.26270973682403564,-1.4424598217010498
1726995846430123800,5.503123779296875,-0.5492811799049377,-0.2512566149234772,-1.2294143438339233
1726995846440110600,5.513110595703125,-0.5426133871078491,-0.14564816653728485,-1.0174731016159058
1726995846450097000,5.523096923828125,-0.5731621384620667,0.04171781241893768,-0.8821107149124146
1726995846460083700,5.533083740234375,-0.6221451163291931,0.17214800417423248,-0.8682257533073425
1726995846470069800,5.54306982421875,-0.6323023438453674,0.28526145219802856,-0.9332868456840515
1726995846480056800,5.553056884765625,-0.6165119409561157,0.40859296917915344,-1.0508755445480347
1726995846490042600,5.563042724609375,-0.5953497886657715,0.4912235736846924,-1.1515268087387085
1726995846500029700,5.57302978515625,-0.5491556525230408,0.4986359477043152,-1.232323169708252
1726995846510015700,5.583015625,-0.5278949737548828,0.4479554295539856,-1.2799067497253418
1726995846520002800,5.5930029296875,-0.5402810573577881,0.36042770743370056,-1.2571585178375244
1726995846529988900,5.60298876953125,-0.5878357291221619,0.23089419305324554,-1.1523761749267578
1726995846539975700,5.6129755859375,-0.6387811899185181,0.08627895265817642,-0.9616897106170654
1726995846549962800,5.622962646484375,-0.6553148031234741,-0.0012327132280915976,-0.707774817943573
1726995846559948800,5.63294873046875,-0.6385614275932312,-0.058531422168016434,-0.42984917759895325
1726995846569936000,5.642935791015625,-0.5882984399795532,-0.11292345821857452,-0.13148169219493866
1726995846579921700,5.652921630859375,-0.5208735466003418,-0.18179361522197723,0.18357372283935547
1726995846589908700,5.66290869140625,-0.4531760513782501,-0.2716354727745056,0.49658259749412537
1726995846599894800,5.672894775390625,-0.40420612692832947,-0.2913431227207184,0.7258070111274719
1726995846609881600,5.682881591796875,-0.35972902178764343,-0.293101966381073,0.870309054851532
1726995846619868000,5.692867919921875,-0.3415159285068512,-0.2628580331802368,0.9397152662277222
1726995846629854700,5.702854736328125,-0.3643907606601715,-0.20178888738155365,0.9748246073722839
1726995846639840800,5.7128408203125,-0.3976173996925354,-0.1362849771976471,1.0150628089904785
1726995846649827800,5.722827880859375,-0.42368021607398987,-0.0931800976395607,1.0617233514785767
1726995846659813600,5.732813720703125,-0.411080002784729,-0.0997980535030365,1.1332225799560547
1726995846669800700,5.74280078125,-0.35415300726890564,-0.11183064430952072,1.2885537147521973
1726995846679786800,5.752786865234375,-0.2889164984226227,-0.15519650280475616,1.4760082960128784
1726995846689773800,5.76277392578125,-0.24887233972549438,-0.20071008801460266,1.6237523555755615
1726995846699759600,5.772759521484375,-0.24464696645736694,-0.24761341512203217,1.6718686819076538
1726995846709747000,5.782746826171875,-0.2529911696910858,-0.2873058319091797,1.5921076536178589
1726995846719732700,5.792732666015625,-0.2421579509973526,-0.2670418322086334,1.3742146492004395
1726995846729719600,5.802719482421875,-0.21910037100315094,-0.20229196548461914,1.016261339187622
1726995846739705900,5.812705810546875,-0.1571246087551117,-0.013913013972342014,0.5641849040985107
1726995846749692700,5.822692626953125,-0.05282660201191902,0.2715670168399811,0.16979046165943146
1726995846759678700,5.8326787109375,0.04544217884540558,0.5274277925491333,-0.09389632195234299
1726995846769665800,5.842665771484375,0.08691419661045074,0.634326696395874,-0.1842057853937149
1726995846779651600,5.852651611328125,0.08191411197185516,0.5716867446899414,-0.2193712294101715
1726995846789638700,5.862638671875,0.05694564804434776,0.3692622780799866,-0.2781298756599426
1726995846799624700,5.872624755859375,0.047745492309331894,0.18273423612117767,-0.3252939283847809
1726995846809611800,5.88261181640625,0.06169801205396652,0.07197698205709457,-0.28197577595710754
1726995846819597800,5.892597900390625,0.07703861594200134,-0.050691407173871994,-0.1590069681406021
1726995846829585000,5.9025849609375,0.08443813025951385,-0.13834546506404877,-0.02420812100172043
1726995846839570700,5.91257080078125,0.07330558449029922,-0.10686236619949341,0.0919528380036354
1726995846849557800,5.922557861328125,0.06296174228191376,0.03691164776682854,0.1774764508008957
1726995846859543800,5.932543701171875,0.054641228169202805,0.1680355668067932,0.21543395519256592
1726995846869530600,5.942530517578125,0.04360354319214821,0.23686109483242035,0.21988818049430847
1726995846879517700,5.952517578125,0.026870636269450188,0.24491289258003235,0.22528454661369324
1726995846889503700,5.962503662109375,0.009865458123385906,0.17891567945480347,0.2536340355873108
1726995846899490800,5.97249072265625,0.004044853150844574,0.05611598491668701,0.3084440231323242
1726995846909476900,5.982476806640625,0.009449567645788193,-0.09702394902706146,0.37581145763397217
1726995846919463700,5.992463623046875,0.027947351336479187,-0.26665452122688293,0.44422194361686707
1726995846929449700,6.00244970703125,0.07163561135530472,-0.3964986503124237,0.4869362711906433
1726995846939436800,6.012436767578125,0.11296866834163666,-0.47304561734199524,0.5007436871528625
1726995846949422800,6.0224228515625,0.12624117732048035,-0.4921325147151947,0.4836803674697876
1726995846959409700,6.03240966796875,0.10533669590950012,-0.47336068749427795,0.4383251368999481
1726995846969395700,6.042395751953125,0.06494294852018356,-0.4182756245136261,0.37469518184661865
1726995846979382800,6.0523828125,0.021016238257288933,-0.3231693506240845,0.3258059322834015
1726995846989368600,6.06236865234375,-0.005820169113576412,-0.22244273126125336,0.3100493252277374
1726995846999356000,6.07235595703125,-0.014484497718513012,-0.15852366387844086,0.3103955388069153
1726995847009341700,6.082341796875,-0.025854159146547318,-0.1440020650625229,0.3382398188114166
1726995847019328800,6.092328857421875,-0.036064986139535904,-0.13269002735614777,0.37653955817222595
1726995847029314800,6.102314697265625,-0.040724705904722214,-0.16416794061660767,0.4100806713104248
1726995847039301600,6.112301513671875,-0.04083256423473358,-0.1979171186685562,0.4260585904121399
1726995847049287700,6.12228759765625,-0.03731445595622063,-0.209303617477417,0.4311979413032532
1726995847059274800,6.132274658203125,-0.04364212602376938,-0.17775660753250122,0.4310075342655182
1726995847069260800,6.1422607421875,-0.0539000928401947,-0.16573244333267212,0.42293602228164673
1726995847079247600,6.15224755859375,-0.06746915727853775,-0.15446940064430237,0.4081208407878876
1726995847089233400,6.1622333984375,-0.07153614610433578,-0.1478840410709381,0.3877341151237488
1726995847099220200,6.17222021484375,-0.07714743167161942,-0.1685781329870224,0.35241737961769104
1726995847109206500,6.18220654296875,-0.07474137097597122,-0.18681514263153076,0.3153333067893982
1726995847119193300,6.192193359375,-0.07095436006784439,-0.19403629004955292,0.28159478306770325
1726995847129179100,6.20217919921875,-0.07049914449453354,-0.21298380196094513,0.24525673687458038
1726995847139166500,6.21216650390625,-0.07489123195409775,-0.1910870224237442,0.22542843222618103
1726995847149152300,6.22215234375,-0.04097569361329079,-0.09380009770393372,0.23080036044120789
1726995847159139300,6.232139404296875,-0.037946879863739014,-0.05266891419887543,0.2342720627784729
1726995847169125400,6.24212548828125,-0.0050076390616595745,-0.038677290081977844,0.25084635615348816
1726995847179112400,6.252112548828125,0.06353120505809784,0.021776733919978142,0.29775339365005493
1726995847189098200,6.26209814453125,0.1190873309969902,0.0746515691280365,0.3622375428676605
1726995847199085300,6.272085205078125,0.17621345818042755,0.1450895071029663,0.42190805077552795
1726995847209071400,6.2820712890625,0.22693634033203125,0.23295703530311584,0.48542216420173645
1726995847219058200,6.29205810546875,0.2752934992313385,0.40989506244659424,0.5395599603652954
1726995847229044500,6.30204443359375,0.3004496097564697,0.6275731325149536,0.6149498820304871
1726995847239031300,6.31203125,0.3209594190120697,0.6405224800109863,0.6999688744544983
1726995847249018400,6.322018310546875,0.3406235873699188,0.5577992796897888,0.7776248455047607
1726995847259004400,6.33200439453125,0.38093212246894836,0.46943235397338867,0.8507363200187683
1726995847268991200,6.3419912109375,0.4779167175292969,0.3652576208114624,0.9174016714096069
1726995847278977300,6.351977294921875,0.6486091613769531,0.24009838700294495,1.0021398067474365
1726995847288964400,6.36196435546875,0.8498120903968811,0.10366258770227432,1.068548560142517
1726995847298950400,6.371950439453125,1.0744534730911255,-0.010221637785434723,1.0849616527557373
1726995847308937200,6.381937255859375,1.2728520631790161,-0.13003210723400116,1.0717531442642212
1726995847318923300,6.39192333984375,1.3945928812026978,-0.25346454977989197,0.9988110661506653
1726995847328910300,6.401910400390625,1.4509246349334717,-0.40673425793647766,0.8813470602035522
1726995847338896400,6.411896484375,1.4337117671966553,-0.4972175359725952,0.7537712454795837
1726995847348883500,6.421883544921875,1.3387048244476318,-0.637859582901001,0.6495065093040466
1726995847358869200,6.431869140625,1.1851807832717896,-0.7890192270278931,0.5774829387664795
1726995847368856300,6.441856201171875,1.004064679145813,-0.9468004703521729,0.5526215434074402
1726995847378842400,6.45184228515625,0.8441134095191956,-1.083064317703247,0.6171387434005737
1726995847388829200,6.4618291015625,0.7054529786109924,-1.1867281198501587,0.7645859122276306
1726995847398815500,6.4718154296875,0.5377063155174255,-1.238698959350586,0.9509406089782715
1726995847408802300,6.48180224609375,0.34891483187675476,-1.2434083223342896,1.1174824237823486
1726995847418788400,6.491788330078125,0.15823571383953094,-1.1048930883407593,1.2687984704971313
1726995847428775400,6.501775390625,0.0015466174809262156,-0.9395026564598083,1.3758891820907593
1726995847438761200,6.51176123046875,-0.1223103478550911,-0.8309884667396545,1.4234509468078613
1726995847448748300,6.521748291015625,-0.22289806604385376,-0.7269971370697021,1.4126249551773071
1726995847458734300,6.531734375,-0.2915032207965851,-0.5818285346031189,1.357541561126709
1726995847468721400,6.541721435546875,-0.3120267391204834,-0.4380315840244293,1.3107448816299438
1726995847478707200,6.551707275390625,-0.30287107825279236,-0.3113900125026703,1.2660905122756958
1726995847488694500,6.561694580078125,-0.2861606180667877,-0.1804082691669464,1.2016303539276123
1726995847498680300,6.571680419921875,-0.2681507170200348,-0.08300633728504181,1.1291024684906006
1726995847508667100,6.581667236328125,-0.27814432978630066,0.02954063192009926,1.015343427658081
1726995847518653400,6.5916533203125,-0.2885468900203705,0.17984038591384888,0.8392783999443054
1726995847528640300,6.60164013671875,-0.2880592346191406,0.3161121606826782,0.6048837900161743
1726995847538626600,6.61162646484375,-0.2869020700454712,0.36574897170066833,0.3242417275905609
1726995847548613400,6.62161328125,-0.30798980593681335,0.3652474880218506,0.05728045478463173
1726995847558599200,6.63159912109375,-0.3772338330745697,0.37134212255477905,-0.15554313361644745
1726995847568586200,6.641586181640625,-0.49263957142829895,0.35284557938575745,-0.3142061233520508
1726995847578572300,6.651572265625,-0.6369467377662659,0.3287258744239807,-0.4165410101413727
1726995847588559400,6.661559326171875,-0.7541413307189941,0.2901890277862549,-0.46411770582199097
1726995847598545400,6.67154541015625,-0.8203219771385193,0.26164475083351135,-0.4638306200504303
1726995847608532500,6.681532470703125,-0.8382900357246399,0.26518183946609497,-0.4708191454410553
1726995847618519300,6.691519287109375,-0.8057070970535278,0.24049167335033417,-0.5040771961212158
1726995847628505300,6.70150537109375,-0.7297347784042358,0.20670360326766968,-0.56834876537323
1726995847638492400,6.711492431640625,-0.6395915746688843,0.1615571677684784,-0.6435513496398926
1726995847648478200,6.721478271484375,-0.508450448513031,0.1200856864452362,-0.7196351885795593
1726995847658465300,6.73146533203125,-0.3883059620857239,0.08971260488033295,-0.8171281814575195
1726995847668451300,6.741451416015625,-0.27943143248558044,0.09643974900245667,-0.9268027544021606
1726995847678438400,6.7514384765625,-0.20223696529865265,0.1526673138141632,-1.0066254138946533
1726995847688424400,6.761424560546875,-0.16331608593463898,0.235113263130188,-1.0522286891937256
1726995847698411300,6.771411376953125,-0.13775932788848877,0.2905413508415222,-1.0662015676498413
1726995847708397300,6.781397216796875,-0.10667379200458527,0.3741062879562378,-1.0761491060256958
1726995847718384400,6.79138427734375,-0.05489049479365349,0.4678862988948822,-1.0902225971221924
1726995847728370400,6.801370361328125,-0.009737309068441391,0.5410667061805725,-1.1108698844909668
1726995847738357200,6.811357177734375,0.0245136059820652,0.620536744594574,-1.1421209573745728
1726995847748343300,6.82134326171875,0.04610908776521683,0.6696636080741882,-1.1729835271835327
1726995847758330400,6.831330322265625,0.03663036227226257,0.6725571751594543,-1.2130314111709595
1726995847768316200,6.841316162109375,-0.015962962061166763,0.6801369786262512,-1.2550740242004395
1726995847778303500,6.851303466796875,-0.08429035544395447,0.7005021572113037,-1.2975575923919678
1726995847788289300,6.861289306640625,-0.15170803666114807,0.6909334659576416,-1.3260319232940674
1726995847798276400,6.8712763671875,-0.2212277203798294,0.6196126341819763,-1.304233431816101
1726995847808262400,6.881262451171875,-0.27036625146865845,0.5113179087638855,-1.269659161567688
1726995847818249200,6.891249267578125,-0.2949903607368469,0.4299442172050476,-1.2281705141067505
1726995847828235300,6.9012353515625,-0.3492644727230072,0.31543755531311035,-1.1938395500183105
1726995847838222300,6.911222412109375,-0.38554099202156067,0.21402519941329956,-1.1328730583190918
1726995847848208400,6.92120849609375,-0.39911091327667236,0.14097964763641357,-1.059050440788269
1726995847858195200,6.9311953125,-0.4252399802207947,0.09741538763046265,-0.9792647361755371
1726995847868181200,6.94118115234375,-0.42032650113105774,0.12896467745304108,-0.8836092352867126
1726995847878168300,6.951168212890625,-0.3762538433074951,0.15350277721881866,-0.7947512269020081
1726995847888154400,6.961154296875,-0.3330410420894623,0.1366724669933319,-0.6784915328025818
1726995847898141400,6.971141357421875,-0.32763561606407166,0.06537086516618729,-0.5336270332336426
1726995847908127200,6.981127197265625,-0.3398166596889496,-0.04336373507976532,-0.3390820324420929
1726995847918114300,6.9911142578125,-0.35036224126815796,-0.16757889091968536,-0.14469417929649353
1726995847928100400,7.001100341796875,-0.3797299861907959,-0.33786553144454956,0.03176266327500343
1726995847938087200,7.011087158203125,-0.3859633803367615,-0.5193868279457092,0.18525423109531403
1726995847948073500,7.021073486328125,-0.36226674914360046,-0.6066089868545532,0.31648653745651245
1726995847958060300,7.031060302734375,-0.30340927839279175,-0.6333069205284119,0.41530153155326843
1726995847968046300,7.04104638671875,-0.237124502658844,-0.6286758184432983,0.47543737292289734
1726995847978033400,7.051033447265625,-0.21211262047290802,-0.5771705508232117,0.5288087129592896
1726995847988020500,7.0610205078125,-0.22402527928352356,-0.4350121021270752,0.5611200332641602
1726995847998006300,7.07100634765625,-0.2534574866294861,-0.21689733862876892,0.5455905795097351
1726995848007993300,7.080993408203125,-0.2792983949184418,-0.0574573390185833,0.46759459376335144
1726995848017979400,7.0909794921875,-0.2803990840911865,0.07981982827186584,0.3486546277999878
1726995848027966200,7.10096630859375,-0.28138279914855957,0.18841633200645447,0.16984498500823975
1726995848037952500,7.110952392578125,-0.27972179651260376,0.30042514204978943,0.041500065475702286
1726995848047939300,7.120939208984375,-0.30426159501075745,0.46114814281463623,-0.03188827261328697
1726995848057925000,7.130925048828125,-0.35743212699890137,0.6135222911834717,-0.10727889835834503
1726995848067912400,7.140912353515625,-0.44468510150909424,0.737341046333313,-0.22613687813282013
1726995848077898200,7.150898193359375,-0.4634720981121063,0.8135045170783997,-0.3576749265193939
1726995848087885000,7.160885009765625,-0.4121858775615692,0.7983066439628601,-0.5181777477264404
1726995848097871400,7.170871337890625,-0.34326672554016113,0.6647552251815796,-0.6549270749092102
1726995848107858200,7.180858154296875,-0.2905372977256775,0.5101430416107178,-0.7437986731529236
1726995848117844200,7.19084423828125,-0.3018253743648529,0.3006819486618042,-0.8047314882278442
1726995848127831300,7.200831298828125,-0.3174225091934204,0.17660412192344666,-0.7908016443252563
1726995848137817000,7.210817138671875,-0.32234349846839905,0.09771383553743362,-0.6730198860168457
1726995848147804200,7.22080419921875,-0.3197924792766571,-0.000686510291416198,-0.46772679686546326
1726995848157790200,7.230790283203125,-0.29173287749290466,-0.10062349587678909,-0.23751410841941833
1726995848167777300,7.24077734375,-0.22955502569675446,-0.191391721367836,-0.05504351481795311
1726995848177763300,7.250763427734375,-0.13387058675289154,-0.26464810967445374,0.04339064657688141
1726995848187750400,7.26075048828125,-0.039053626358509064,-0.26790428161621094,0.10797887295484543
1726995848197736200,7.270736083984375,0.05093298852443695,-0.21345730125904083,0.1819676160812378
1726995848207723300,7.28072314453125,0.13213399052619934,-0.15127310156822205,0.2746911346912384
1726995848217709300,7.290709228515625,0.1951931118965149,-0.1643470823764801,0.36179354786872864
1726995848227696000,7.300696044921875,0.21449516713619232,-0.18721096217632294,0.43271294236183167
1726995848237682400,7.310682373046875,0.20947563648223877,-0.21243509650230408,0.4758042097091675
1726995848247669200,7.320669189453125,0.168401837348938,-0.23863615095615387,0.48664337396621704
1726995848257655000,7.330655029296875,0.10987620055675507,-0.26345548033714294,0.4754820466041565
1726995848267642400,7.340642333984375,0.05197182670235634,-0.2769940197467804,0.4597839117050171
1726995848277628200,7.350628173828125,0.01347023993730545,-0.25837212800979614,0.43110671639442444
1726995848287615200,7.360615234375,0.012405108660459518,-0.22744810581207275,0.406133234500885
1726995848297601300,7.370601318359375,0.03129517659544945,-0.16232982277870178,0.38647884130477905
1726995848307588400,7.38058837890625,0.06252887099981308,-0.053894493728876114,0.3666994571685791
1726995848317574100,7.39057421875,0.08862970769405365,0.05325433239340782,0.3317137658596039
1726995848327561200,7.400561279296875,0.10244477540254593,0.16381749510765076,0.2993927597999573
1726995848337547300,7.41054736328125,0.11363804340362549,0.21882455050945282,0.26697462797164917
1726995848347534000,7.4205341796875,0.11190596967935562,0.2742142677307129,0.25232765078544617
1726995848357520400,7.430520263671875,0.09655896574258804,0.26425909996032715,0.22065015137195587
1726995848367507200,7.440507080078125,0.09096522629261017,0.21246039867401123,0.1940256804227829
1726995848377493200,7.4504931640625,0.11746261268854141,0.16958297789096832,0.18273282051086426
1726995848387480300,7.460480224609375,0.15460734069347382,0.1313805729150772,0.1808745563030243
1726995848397467100,7.470467041015625,0.1956852674484253,0.10094144195318222,0.17788010835647583
1726995848407453200,7.480453125,0.22154873609542847,0.10455527156591415,0.17733854055404663
1726995848417440300,7.490440185546875,0.2379186600446701,0.12066126614809036,0.1843668818473816
1726995848427426300,7.50042626953125,0.2586018443107605,0.13095316290855408,0.2017206847667694
1726995848437413000,7.5104130859375,0.30488625168800354,0.13390421867370605,0.23126552999019623
1726995848447399200,7.520399169921875,0.38180941343307495,0.1459132730960846,0.27930328249931335
1726995848457386200,7.53038623046875,0.4729537069797516,0.1907193660736084,0.3166764974594116
1726995848467372300,7.540372314453125,0.6262751817703247,0.22247418761253357,0.36708319187164307
1726995848477359400,7.550359375,0.8319891691207886,0.3130999505519867,0.4078617990016937
1726995848487345200,7.56034521484375,1.0552098751068115,0.39280378818511963,0.42432305216789246
1726995848497332200,7.570332275390625,1.3078713417053223,0.44122514128685,0.43223556876182556
1726995848507318300,7.580318359375,1.5378987789154053,0.46031373739242554,0.41839274764060974
1726995848517305000,7.59030517578125,1.692077398300171,0.4556736946105957,0.41014784574508667
1726995848527291400,7.60029150390625,1.7473890781402588,0.4501263499259949,0.3749803304672241
1726995848537278200,7.6102783203125,1.7578579187393188,0.399565726518631,0.331461638212204
1726995848547264300,7.62026416015625,1.7084236145019531,0.35822463035583496,0.27564144134521484
1726995848557251300,7.630251220703125,1.5892014503479004,0.22734864056110382,0.25173452496528625
1726995848567237000,7.640237060546875,1.4527493715286255,0.004353414289653301,0.2843601703643799
1726995848577224200,7.65022412109375,1.2918494939804077,-0.30630698800086975,0.3684103190898895
1726995848587210200,7.660210205078125,1.11014723777771,-0.6263254284858704,0.5027865171432495
1726995848597197300,7.670197265625,0.9366598129272461,-0.9035120010375977,0.6224532723426819
1726995848607183000,7.68018310546875,0.7728074193000793,-1.0422571897506714,0.7613980174064636
1726995848617170400,7.69017041015625,0.5939492583274841,-1.1157881021499634,0.9106466174125671
1726995848627156200,7.70015625,0.425850510597229,-1.192752718925476,1.003988265991211
1726995848637143000,7.71014306640625,0.2709980905056,-1.1893491744995117,1.0131494998931885
1726995848647129300,7.72012939453125,0.12829481065273285,-1.1649463176727295,1.031388282775879
1726995848657116200,7.7301162109375,-0.01171076949685812,-1.039617657661438,1.0506261587142944
1726995848667102500,7.7401025390625,-0.08902377635240555,-0.7987379431724548,1.0216270685195923
1726995848677089300,7.75008935546875,-0.13227218389511108,-0.5874752402305603,0.9537255167961121
1726995848687075000,7.760074951171875,-0.14452515542507172,-0.3665689527988434,0.853476345539093
1726995848697062100,7.770062255859375,-0.13199551403522491,-0.12146440148353577,0.729831874370575
1726995848707048200,7.780048095703125,-0.15844635665416718,0.08456975221633911,0.6143378615379333
1726995848717035300,7.79003515625,-0.23470064997673035,0.25117310881614685,0.5204795002937317
1726995848727021300,7.800021240234375,-0.3072231113910675,0.44268983602523804,0.44509389996528625
1726995848737008400,7.81000830078125,-0.3581097424030304,0.6224846243858337,0.32878488302230835
1726995848746994200,7.819994140625,-0.41471731662750244,0.7162550687789917,0.18481533229351044
1726995848756981200,7.829981201171875,-0.5164753794670105,0.7609072327613831,-0.008925901725888252
1726995848766967300,7.83996728515625,-0.6198112964630127,0.7784435749053955,-0.24170264601707458
1726995848776954000,7.8499541015625,-0.7127212882041931,0.7427947521209717,-0.5095324516296387
1726995848786941200,7.859941162109375,-0.8058038949966431,0.6472211480140686,-0.7710938453674316
1726995848796927200,7.86992724609375,-0.8555355072021484,0.5525742769241333,-0.9672276973724365
1726995848806914300,7.879914306640625,-0.893096387386322,0.4601070284843445,-1.1180903911590576
1726995848816900400,7.889900390625,-0.9179311990737915,0.3950931429862976,-1.2174103260040283
1726995848826887200,7.89988720703125,-0.9295677542686462,0.39722415804862976,-1.2946768999099731
1726995848836873200,7.909873291015625,-0.9287011623382568,0.44966578483581543,-1.3594704866409302
1726995848846860300,7.9198603515625,-0.9079091548919678,0.4989745020866394,-1.3988007307052612
1726995848856846300,7.929846435546875,-0.8665433526039124,0.5710316896438599,-1.4072189331054688
1726995848866833200,7.939833251953125,-0.8138566017150879,0.6316794157028198,-1.395625114440918
1726995848876819200,7.949819091796875,-0.7520135045051575,0.6683889627456665,-1.3555858135223389
1726995848886806300,7.95980615234375,-0.6737500429153442,0.7012150287628174,-1.2933738231658936
1726995848896792000,7.9697919921875,-0.5796706676483154,0.6702650785446167,-1.2257009744644165
1726995848906779400,7.979779296875,-0.46735188364982605,0.6329664587974548,-1.1558548212051392
1726995848916765200,7.98976513671875,-0.38657286763191223,0.5753346085548401,-1.0884819030761719
1726995848926752300,7.999752197265625,-0.34818971157073975,0.5277947187423706,-1.050460696220398
1726995848936738300,8.00973828125,-0.3573960065841675,0.4351479113101959,-1.0476443767547607
1726995848946725000,8.01972509765625,-0.39234039187431335,0.3427412807941437,-1.0575670003890991
1726995848956711200,8.029711181640625,-0.4012010097503662,0.33774814009666443,-1.135585069656372
1726995848966698200,8.0396982421875,-0.4114636778831482,0.4645523428916931,-1.233923316001892
1726995848976684300,8.049684326171874,-0.43089088797569275,0.4431919455528259,-1.210140585899353
1726995848986671000,8.059671142578125,-0.44407668709754944,0.3545030653476715,-1.1611413955688477
1726995848996657200,8.0696572265625,-0.450048565864563,0.2670102119445801,-1.103926658630371
1726995849006644200,8.079644287109375,-0.45530965924263,0.2081061750650406,-1.0092371702194214
1726995849016630300,8.08963037109375,-0.4637412130832672,0.12882652878761292,-0.9113484025001526
1726995849026617300,8.099617431640626,-0.4885028898715973,0.05147027224302292,-0.7902052402496338
1726995849036603100,8.10960302734375,-0.5264710187911987,0.011124182492494583,-0.6233931183815002
1726995849046590200,8.119590087890625,-0.5125633478164673,-0.023031167685985565,-0.4739499092102051
1726995849056576300,8.129576171875,-0.4770682454109192,-0.08686287701129913,-0.33627620339393616
1726995849066563000,8.13956298828125,-0.41430050134658813,-0.17513957619667053,-0.18020428717136383
1726995849076549400,8.14954931640625,-0.32528167963027954,-0.23292404413223267,-0.056581947952508926
1726995849086536200,8.1595361328125,-0.24367733299732208,-0.23177491128444672,0.054438892751932144
1726995849096522000,8.16952197265625,-0.19003914296627045,-0.22993867099285126,0.14752408862113953
1726995849106509300,8.17950927734375,-0.1653851717710495,-0.2555218040943146,0.23925577104091644
1726995849116495000,8.1894951171875,-0.15539191663265228,-0.2565298080444336,0.30789127945899963
1726995849126482200,8.199482177734374,-0.1338781714439392,-0.18748532235622406,0.3627620041370392
1726995849136468200,8.20946826171875,-0.10534241795539856,-0.08131015300750732,0.43265533447265625
1726995849146455300,8.219455322265626,-0.08307932317256927,0.03235722333192825,0.5028608441352844
1726995849156441000,8.229441162109374,-0.08347000926733017,0.07454196363687515,0.501240611076355
1726995849166428200,8.23942822265625,-0.11244244128465652,0.12256976962089539,0.4071227014064789
1726995849176414200,8.249414306640626,-0.1641003042459488,0.23922716081142426,0.3148556351661682
1726995849186401000,8.259401123046874,-0.23832421004772186,0.37596192955970764,0.2598108649253845
1726995849196387300,8.26938720703125,-0.3180142343044281,0.4775676727294922,0.1700487583875656
1726995849206374100,8.2793740234375,-0.39123621582984924,0.5058835744857788,-0.008132601156830788
1726995849216360200,8.289360107421874,-0.42027533054351807,0.5176981687545776,-0.2472948431968689
1726995849226347300,8.29934716796875,-0.39969602227211,0.49688610434532166,-0.47855880856513977
1726995849236333000,8.3093330078125,-0.3082731366157532,0.4005230665206909,-0.6433575749397278
1726995849246320000,8.319320068359374,-0.21897131204605103,0.20265620946884155,-0.7265210747718811
1726995849256306200,8.32930615234375,-0.14395777881145477,0.005996159743517637,-0.7232267260551453
1726995849266293200,8.339293212890626,-0.08290522545576096,-0.19661879539489746,-0.6009451150894165
1726995849276279300,8.349279296875,-0.04741434380412102,-0.25683581829071045,-0.40221890807151794
1726995849286266000,8.35926611328125,-0.018803097307682037,-0.3016449809074402,-0.17481482028961182
1726995849296253200,8.369253173828126,0.005781341344118118,-0.33978572487831116,0.014490656554698944
1726995849306239200,8.3792392578125,0.024327155202627182,-0.2996993660926819,0.15155716240406036
1726995849316226300,8.389226318359375,0.04897444695234299,-0.22217445075511932,0.2424471229314804
1726995849326212000,8.399212158203126,0.07785851508378983,-0.16212041676044464,0.3022456765174866
1726995849336199200,8.40919921875,0.10962576419115067,-0.19233238697052002,0.3493170440196991
1726995849346185200,8.419185302734375,0.132593035697937,-0.24869774281978607,0.4088777005672455
1726995849356172000,8.429172119140626,0.15868082642555237,-0.3067706525325775,0.4654967784881592
1726995849366158300,8.439158447265624,0.18620967864990234,-0.36614885926246643,0.5098080039024353
1726995849376145200,8.449145263671875,0.20855680108070374,-0.4075298607349396,0.5553084015846252
1726995849386131200,8.459131103515626,0.23211586475372314,-0.41953617334365845,0.6011927127838135
1726995849396118300,8.4691181640625,0.24363963305950165,-0.3943943381309509,0.6407888531684875
1726995849406104000,8.47910400390625,0.2386476695537567,-0.3376518785953522,0.6653673648834229
1726995849416091100,8.489091064453126,0.23377782106399536,-0.23999404907226562,0.6857394576072693
1726995849426077200,8.4990771484375,0.24104470014572144,-0.15451079607009888,0.6755796074867249
1726995849436064300,8.509064208984375,0.258043110370636,-0.10910949856042862,0.6340745091438293
1726995849446050000,8.519050048828126,0.2534123361110687,-0.07671355456113815,0.5720072388648987
1726995849456037400,8.529037353515625,0.21414455771446228,-0.06281984597444534,0.5127474069595337
1726995849466023200,8.539023193359375,0.1877618432044983,-0.060724686831235886,0.47414931654930115
1726995849476010000,8.549010009765626,0.19395795464515686,-0.035629719495773315,0.4569450318813324
1726995849485996300,8.558996337890624,0.21828719973564148,-0.06986609846353531,0.4288211464881897
1726995849495983000,8.568983154296875,0.25951051712036133,-0.1002570241689682,0.3991625905036926
1726995849505969400,8.578969482421876,0.3160647451877594,-0.07596343010663986,0.37303781509399414
1726995849515956200,8.588956298828125,0.3810405433177948,-0.019297758117318153,0.34468874335289
1726995849525942000,8.59894189453125,0.45318424701690674,0.06163035333156586,0.28575825691223145
1726995849535929000,8.60892919921875,0.5407223701477051,0.1385488361120224,0.2159096747636795
1726995849545915100,8.6189150390625,0.6466481685638428,0.32364365458488464,0.1406242549419403
1726995849555902200,8.628902099609375,0.800919771194458,0.6132290959358215,0.05809449031949043
1726995849565888300,8.63888818359375,0.9506491422653198,0.8602954745292664,-0.013243629597127438
1726995849575875300,8.648875244140624,1.113974928855896,0.9900870323181152,-0.057429734617471695
1726995849585861000,8.658861083984375,1.2698564529418945,0.9945304989814758,-0.0936545804142952
1726995849595848200,8.66884814453125,1.4040549993515015,0.8886421918869019,-0.10859411954879761
1726995849605834200,8.678834228515624,1.5140351057052612,0.8652591109275818,-0.15065403282642365
1726995849615821000,8.688821044921875,1.59975004196167,0.8376981019973755,-0.16842183470726013
1726995849625807400,8.698807373046876,1.6775696277618408,0.821338951587677,-0.1755133867263794
1726995849635794200,8.708794189453124,1.732170820236206,0.7057008147239685,-0.14937926828861237
1726995849645780000,8.718780029296875,1.753600001335144,0.4457433819770813,-0.10051824152469635
1726995849655767300,8.728767333984376,1.68426513671875,0.05140754207968712,-0.0315660759806633
1726995849665753000,8.738753173828124,1.5413275957107544,-0.4057978093624115,0.07048610597848892
1726995849675740200,8.748740234375,1.3313602209091187,-0.7934020161628723,0.21974724531173706
1726995849685726200,8.758726318359376,1.0799551010131836,-1.0647889375686646,0.42909014225006104
1726995849695713300,8.76871337890625,0.8059025406837463,-1.2647897005081177,0.6528830528259277
1726995849705699300,8.77869921875,0.5405104756355286,-1.438023567199707,0.8560832142829895
1726995849715686100,8.78868603515625,0.31827473640441895,-1.5883816480636597,0.9818962812423706
1726995849725672200,8.798672119140624,0.16198106110095978,-1.5329817533493042,1.1286571025848389
1726995849735659000,8.808658935546875,0.07194732129573822,-1.4205633401870728,1.455214023590088
1726995849745645300,8.818645263671876,0.030765822157263756,-1.2910573482513428,1.7059346437454224
1726995849755632000,8.828632080078124,0.07512849569320679,-1.0664197206497192,1.762149691581726
1726995849765619200,8.838619140625,0.11568497866392136,-0.8525221347808838,1.6826035976409912
1726995849775605200,8.848605224609376,0.08238481730222702,-0.6378389000892639,1.5162231922149658
1726995849785592000,8.858592041015624,-0.023990442976355553,-0.41219720244407654,1.2961026430130005
1726995849795578400,8.868578369140625,-0.13828906416893005,-0.19411039352416992,1.0799095630645752
1726995849805565200,8.878565185546876,-0.2724824547767639,0.027525141835212708,0.9043760299682617
1726995849815551200,8.88855126953125,-0.4833472669124603,0.21046140789985657,0.7593919634819031
1726995849825538000,8.8985380859375,-0.6833035945892334,0.45220842957496643,0.5101947784423828
1726995849835524000,8.908524169921876,-0.830236554145813,0.606644868850708,0.16972029209136963
1726995849845511200,8.91851123046875,-0.9538719654083252,0.5495529174804688,-0.16942757368087769
1726995849855497200,8.928497314453125,-1.0483590364456177,0.3839245140552521,-0.4524744749069214
1726995849865484300,8.938484375,-1.0914998054504395,0.27137404680252075,-0.7035775780677795
1726995849875470000,8.948469970703124,-1.0699878931045532,0.2278263121843338,-0.9005348682403564
1726995849885457200,8.95845703125,-1.01863694190979,0.24306347966194153,-1.0525689125061035
1726995849895443200,8.968443115234376,-0.9533002376556396,0.28751322627067566,-1.1268125772476196
1726995849905430000,8.978429931640624,-0.8744022250175476,0.37248513102531433,-1.1692110300064087
1726995849915416300,8.988416259765625,-0.7846907377243042,0.5010713338851929,-1.2078588008880615
1726995849925403100,8.998403076171876,-0.6946511268615723,0.5831922888755798,-1.2549079656600952
1726995849935389200,9.00838916015625,-0.6374853253364563,0.6560800671577454,-1.285919427871704
1726995849945376300,9.018376220703125,-0.5954954028129578,0.7633609175682068,-1.3149305582046509
1726995849955362000,9.028362060546876,-0.594352662563324,0.9038983583450317,-1.3669346570968628
1726995849965349000,9.03834912109375,-0.6307487487792969,0.9641627669334412,-1.4090948104858398
1726995849975335200,9.048335205078125,-0.6813536286354065,0.9769331216812134,-1.4396140575408936
1726995849985322200,9.058322265625,-0.6866124868392944,0.9396834969520569,-1.4346190690994263
1726995849995308300,9.068308349609374,-0.6344051957130432,0.8595284819602966,-1.3980035781860352
1726995850005295400,9.07829541015625,-0.5849934816360474,0.7616328001022339,-1.3585995435714722
1726995850015281200,9.08828125,-0.5611478090286255,0.6635323762893677,-1.3082172870635986
1726995850025268000,9.09826806640625,-0.5663569569587708,0.5604049563407898,-1.2407846450805664
1726995850035254300,9.108254150390625,-0.5712063312530518,0.44995859265327454,-1.1670992374420166
1726995850045241000,9.118240966796876,-0.572772741317749,0.3574967682361603,-1.0950015783309937
1726995850055227400,9.128227294921874,-0.5738773941993713,0.35070598125457764,-1.0630236864089966
1726995850065214200,9.138214111328125,-0.5565945506095886,0.4173189401626587,-1.0952595472335815
1726995850075200000,9.148199951171875,-0.5631470084190369,0.42021670937538147,-1.04302179813385
1726995850085187000,9.15818701171875,-0.5353720784187317,0.35851672291755676,-1.0033575296401978
1726995850095173400,9.16817333984375,-0.49725449085235596,0.3418615758419037,-0.9879230856895447
1726995850105160200,9.17816015625,-0.48744556307792664,0.30755025148391724,-0.8924541473388672
1726995850115146500,9.188146484375,-0.47503364086151123,0.2878388464450836,-0.824765145778656
1726995850125133300,9.19813330078125,-0.45706120133399963,0.31086277961730957,-0.7802209258079529
1726995850135119400,9.208119384765626,-0.4270649552345276,0.26951107382774353,-0.7221115231513977
1726995850145106400,9.2181064453125,-0.36981502175331116,0.1721324771642685,-0.654211163520813
1726995850155092200,9.22809228515625,-0.28051817417144775,0.08054237812757492,-0.6116487979888916
1726995850165079300,9.238079345703126,-0.14856931567192078,0.04838689789175987,-0.6024813652038574
1726995850175065300,9.2480654296875,-0.008268404752016068,0.06364042311906815,-0.6136940717697144
1726995850185052400,9.258052490234375,0.07383830100297928,0.1117359921336174,-0.623179018497467
1726995850195038200,9.2680380859375,0.06059066951274872,0.1793121099472046,-0.626913845539093
1726995850205025500,9.278025634765624,0.003194192424416542,0.2096194177865982,-0.5808541774749756
1726995850215011300,9.28801123046875,-0.046677492558956146,0.2032667100429535,-0.4926782548427582
1726995850224998100,9.297998046875,-0.07665962725877762,0.15628215670585632,-0.3885643482208252
1726995850234984400,9.307984375,-0.09262686967849731,0.06545491516590118,-0.27440932393074036
1726995850244971300,9.31797119140625,-0.0938577950000763,-0.012712574563920498,-0.15631616115570068
1726995850254957300,9.327957275390625,-0.07992413640022278,-0.07998508960008621,-0.037271253764629364
1726995850264944400,9.3379443359375,-0.06528646498918533,-0.1734866201877594,0.05221348628401756
1726995850274930200,9.34793017578125,-0.04717563837766647,-0.26675423979759216,0.13926316797733307
1726995850284917200,9.357917236328126,-0.031038222834467888,-0.33724984526634216,0.2272236943244934
1726995850294904300,9.367904296875,-0.03898482769727707,-0.3712000846862793,0.30176958441734314
1726995850304890400,9.377890380859375,-0.05655071511864662,-0.38204115629196167,0.3447355031967163
1726995850314877200,9.387877197265626,-0.06378093361854553,-0.4342188835144043,0.3750465512275696
1726995850324863500,9.397863525390624,-0.0424005500972271,-0.5477953553199768,0.3912620544433594
1726995850334850300,9.407850341796875,0.039083655923604965,-0.5816689133644104,0.44835543632507324
1726995850344836400,9.41783642578125,0.12829913198947906,-0.5637174844741821,0.48510968685150146
1726995850354823400,9.427823486328125,0.2436712682247162,-0.5413810014724731,0.5170165300369263
1726995850364809200,9.437809326171875,0.3239098787307739,-0.5487800240516663,0.5063953995704651
1726995850374796300,9.44779638671875,0.34679388999938965,-0.5406408905982971,0.46252089738845825
1726995850384782300,9.4577822265625,0.3281543552875519,-0.5683025121688843,0.40996265411376953
1726995850394769400,9.467769287109375,0.28269580006599426,-0.5465593934059143,0.3425855040550232
1726995850404755500,9.47775537109375,0.22386737167835236,-0.4877949059009552,0.2636992037296295
1726995850414742300,9.4877421875,0.1542653888463974,-0.42679333686828613,0.16180852055549622
1726995850424728300,9.497728271484375,0.08218677341938019,-0.38592666387557983,0.0701732262969017
1726995850434715400,9.50771533203125,0.03606455400586128,-0.3468935191631317,0.007837679237127304
1726995850444701400,9.517701416015624,0.033136170357465744,-0.29362988471984863,-0.019997309893369675
1726995850454688300,9.527688232421875,0.0563269779086113,-0.2120964378118515,-0.023067934438586235
1726995850464674300,9.53767431640625,0.09483952075242996,-0.03292975202202797,-0.005769970826804638
1726995850474661400,9.547661376953124,0.17100752890110016,0.30565470457077026,0.085484579205513
1726995850484647200,9.557647216796875,0.2819284498691559,0.45788925886154175,0.15500204265117645
1726995850494634500,9.567634521484376,0.39071670174598694,0.5373795032501221,0.2036217749118805
1726995850504620300,9.577620361328124,0.4972035586833954,0.6340265274047852,0.2326318323612213
1726995850514607400,9.587607421875,0.5957370400428772,0.7031489014625549,0.22611933946609497
1726995850524593400,9.597593505859376,0.6851887106895447,0.7173224091529846,0.19911161065101624
1726995850534580200,9.607580322265624,0.7879571914672852,0.678439199924469,0.1732560396194458
1726995850544566300,9.617566162109375,0.9122391939163208,0.6468489766120911,0.14836768805980682
1726995850554553300,9.62755322265625,1.0230543613433838,0.6990512013435364,0.11645850539207458
1726995850564539400,9.637539306640624,1.1383856534957886,0.7813843488693237,0.0926179513335228
1726995850574526200,9.647526123046875,1.2667607069015503,0.860420823097229,0.07562591880559921
1726995850584512300,9.65751220703125,1.3844971656799316,0.8842025995254517,0.08033076673746109
1726995850594499300,9.667499267578124,1.489156723022461,0.8340185284614563,0.08786165714263916
1726995850604485400,9.6774853515625,1.5992193222045898,0.8270812034606934,0.10649078339338303
1726995850614472400,9.687472412109376,1.6925010681152344,0.9032734632492065,0.09483093023300171
1726995850624458200,9.697458251953124,1.7324109077453613,1.009312629699707,0.06004103273153305
1726995850634445300,9.7074453125,1.7238030433654785,1.174086093902588,0.019918913021683693
1726995850644431400,9.717431396484375,1.6578716039657593,1.181219220161438,-0.003300882875919342
1726995850654418200,9.727418212890624,1.5752688646316528,0.9211804866790771,0.004077138379216194
1726995850664404500,9.737404541015625,1.472459316253662,0.5064554214477539,0.0388895720243454
1726995850674391300,9.747391357421876,1.3563740253448486,-0.062081821262836456,0.106575146317482
1726995850684377300,9.75737744140625,1.1858710050582886,-0.6734305024147034,0.2021547555923462
1726995850694364400,9.767364501953125,0.9753864407539368,-1.131616473197937,0.3314192593097687
1726995850704350200,9.77735009765625,0.7721325755119324,-1.4610861539840698,0.4817090630531311
1726995850714337300,9.787337158203124,0.5771068930625916,-1.673569679260254,0.6663436889648438
1726995850724323300,9.7973232421875,0.49105286598205566,-1.778105616569519,0.7727043628692627
1726995850734310400,9.807310302734376,0.5008610486984253,-1.869096279144287,0.7974703907966614
1726995850744296200,9.817296142578124,0.43622079491615295,-2.0716183185577393,0.9421343207359314
1726995850754283500,9.827283447265625,0.28544220328330994,-2.1427581310272217,1.1715075969696045
1726995850764269300,9.837269287109375,0.13776753842830658,-1.9218647480010986,1.347652792930603
1726995850774256000,9.847256103515624,0.04239095002412796,-1.5217466354370117,1.3704979419708252
1726995850784242400,9.857242431640625,-0.005111768841743469,-1.1202049255371094,1.3446478843688965
1726995850794229200,9.867229248046876,-0.06594795733690262,-0.8539220094680786,1.293871521949768
1726995850804215600,9.877215576171874,-0.12942419946193695,-0.708619236946106,1.1734861135482788
1726995850814202400,9.887202392578125,-0.2178824245929718,-0.5262987017631531,1.030668020248413
1726995850824188200,9.897188232421875,-0.30733540654182434,-0.30850085616111755,0.8938086628913879
1726995850834175200,9.90717529296875,-0.46246692538261414,-0.16017504036426544,0.786961555480957
1726995850844162300,9.917162353515625,-0.6496087908744812,0.0023063805419951677,0.7379109263420105
1726995850854148400,9.9271484375,-0.8590781688690186,0.1906358003616333,0.7160831689834595
1726995850864135200,9.93713525390625,-1.0249172449111938,0.3418504595756531,0.7453455328941345
1726995850874121500,9.94712158203125,-1.178114891052246,0.506086528301239,0.8071655035018921
1726995850884108300,9.9571083984375,-1.3543884754180908,0.6152421236038208,0.8710123300552368
1726995850894094300,9.96709423828125,-1.43387770652771,0.685088574886322,0.8011016845703125
1726995850904081400,9.977081298828125,-1.4360625743865967,0.8062419891357422,0.46627914905548096
1726995850914067200,9.987067138671875,-1.436570167541504,0.8818893432617188,-0.07864487916231155
1726995850924054300,9.99705419921875,-1.418647050857544,0.86716628074646,-0.6576056480407715
1726995850934040300,10.007040283203125,-1.3583712577819824,0.7234698534011841,-1.1857727766036987
1726995850944027400,10.01702734375,-1.2884548902511597,0.5710002183914185,-1.63016676902771
1726995850954013400,10.027013427734374,-1.1870774030685425,0.4904257655143738,-1.8984949588775635
1726995850964000300,10.037000244140625,-1.115833044052124,0.5242050290107727,-1.9998892545700073
1726995850973986300,10.046986328125,-1.0681419372558594,0.5206542611122131,-1.932586669921875
1726995850983973400,10.056973388671874,-1.0662076473236084,0.4700886905193329,-1.8250633478164673
1726995850993959400,10.06695947265625,-1.0770286321640015,0.43394744396209717,-1.6957831382751465
1726995851003946200,10.0769462890625,-1.0787608623504639,0.44868066906929016,-1.5849624872207642
1726995851013932300,10.086932373046874,-1.0573874711990356,0.41052770614624023,-1.4606796503067017
1726995851023919400,10.09691943359375,-1.0201804637908936,0.35940021276474,-1.3169066905975342
1726995851033905200,10.1069052734375,-0.9191891551017761,0.3547511398792267,-1.2098463773727417
1726995851043892500,10.116892578125,-0.7985043525695801,0.3781117796897888,-1.1182855367660522
1726995851053878300,10.126878173828125,-0.7134898900985718,0.3730432391166687,-1.035226583480835
1726995851063865300,10.136865234375,-0.7095569968223572,0.34903794527053833,-0.9353403449058533
1726995851073851400,10.146851318359374,-0.7540544271469116,0.29311874508857727,-0.8199277520179749
1726995851083838200,10.156838134765625,-0.7889569401741028,0.22248436510562897,-0.7493473887443542
1726995851093824500,10.166824462890625,-0.7924501895904541,0.16896094381809235,-0.676063597202301
1726995851103811600,10.1768115234375,-0.7845348715782166,0.1250951588153839,-0.6128073334693909
1726995851113797400,10.18679736328125,-0.7318564653396606,0.12415105849504471,-0.5401126146316528
1726995851123784400,10.196784423828126,-0.639005720615387,0.16694755852222443,-0.47481587529182434
1726995851133770500,10.2067705078125,-0.5099401473999023,0.21801073849201202,-0.4020311236381531
1726995851143757300,10.21675732421875,-0.40979236364364624,0.2704767882823944,-0.2888922095298767
1726995851153743600,10.22674365234375,-0.34393131732940674,0.301509827375412,-0.1385740488767624
1726995851163730400,10.23673046875,-0.3014851212501526,0.2740268111228943,0.0007987010758370161
1726995851173716500,10.246716552734375,-0.2629222869873047,0.2285917103290558,0.12833908200263977
1726995851183703300,10.256703369140626,-0.2429247349500656,0.19882294535636902,0.2505594491958618
1726995851193689300,10.266689453125,-0.22557397186756134,0.1706557422876358,0.34992173314094543
1726995851203676400,10.276676513671875,-0.21194331347942352,0.15033060312271118,0.4290434420108795
1726995851213662500,10.286662353515625,-0.19538696110248566,0.09373071044683456,0.46270206570625305
1726995851223649500,10.2966494140625,-0.15763278305530548,-0.00834912620484829,0.45482322573661804
1726995851233635300,10.30663525390625,-0.10530006885528564,-0.04271642118692398,0.42617613077163696
1726995851243622700,10.31662255859375,-0.038359832018613815,-0.1283119171857834,0.4166650176048279
1726995851253608400,10.3266083984375,0.054139744490385056,-0.22405068576335907,0.4418252110481262
1726995851263595300,10.33659521484375,0.1364239901304245,-0.31043434143066406,0.5193763971328735
1726995851273581600,10.34658154296875,0.19664578139781952,-0.399802565574646,0.5926324725151062
1726995851283568400,10.356568359375,0.24354247748851776,-0.4536903202533722,0.6472853422164917
1726995851293554400,10.366554443359375,0.2554151117801666,-0.502682089805603,0.6762040853500366
1726995851303541500,10.37654150390625,0.27717965841293335,-0.5029725432395935,0.6866869926452637
1726995851313527300,10.38652734375,0.2776166796684265,-0.5369299650192261,0.6661484241485596
1726995851323514400,10.396514404296875,0.260365754365921,-0.5772984623908997,0.6330319046974182
1726995851333500400,10.40650048828125,0.2517014145851135,-0.5990356802940369,0.600704550743103
1726995851343487500,10.416487548828124,0.23599432408809662,-0.6073945164680481,0.5588518381118774
1726995851353473500,10.4264736328125,0.22809219360351562,-0.6070203185081482,0.5167906880378723
1726995851363460600,10.436460693359376,0.21754133701324463,-0.6262484192848206,0.4813663363456726
1726995851373446400,10.4464462890625,0.2524343430995941,-0.572778582572937,0.4483279585838318
1726995851383433200,10.45643310546875,0.3033464848995209,-0.46075451374053955,0.4461824595928192
1726995851393420500,10.466420654296876,0.33039700984954834,-0.34226885437965393,0.45477354526519775
1726995851403406300,10.47640625,0.3314788043498993,-0.23331257700920105,0.4570333957672119
1726995851413392600,10.486392578125,0.3370016813278198,-0.16472658514976501,0.45501577854156494
1726995851423379500,10.49637939453125,0.34242671728134155,-0.10234148055315018,0.4438227415084839
1726995851433366500,10.506366455078124,0.3620595335960388,-0.05406076833605766,0.42395609617233276
1726995851443352600,10.5163525390625,0.3893856704235077,-0.028843803331255913,0.3997609615325928
1726995851453339400,10.52633935546875,0.42643314599990845,0.0038616785313934088,0.37470754981040955
1726995851463325400,10.536325439453124,0.462142676115036,0.016750995069742203,0.3515889644622803
1726995851473312300,10.546312255859375,0.49637946486473083,0.02149301953613758,0.34835588932037354
1726995851483298600,10.556298583984375,0.5292915105819702,0.004789985716342926,0.33062633872032166
1726995851493285400,10.566285400390624,0.6003174781799316,-0.017429832369089127,0.32815173268318176
1726995851503271400,10.576271484375,0.7405776977539062,0.019929775968194008,0.3133026361465454
1726995851513258500,10.586258544921876,0.9828869700431824,0.1786499172449112,0.2796802222728729
1726995851523244300,10.596244384765624,1.2189699411392212,0.45895808935165405,0.1869749277830124
1726995851533231600,10.606231689453125,1.4483180046081543,0.7092124223709106,0.08812504261732101
1726995851543217400,10.616217529296875,1.6473511457443237,0.798696756362915,0.030590912327170372
1726995851553204500,10.62620458984375,1.7857931852340698,0.6935738325119019,0.002306543756276369
1726995851563190500,10.6361904296875,1.874642252922058,0.5620864033699036,-0.031144332140684128
1726995851573177300,10.64617724609375,1.925402045249939,0.44587886333465576,-0.0783158391714096
1726995851583163400,10.656163330078124,1.9186533689498901,0.2769971787929535,-0.13373732566833496
1726995851593150500,10.666150390625,1.8843456506729126,0.11151686310768127,-0.17862437665462494
1726995851603136500,10.676136474609375,1.834620714187622,-0.05351325124502182,-0.20890973508358002
1726995851613123300,10.686123291015624,1.76462984085083,-0.2828676104545593,-0.2141641527414322
1726995851623109400,10.696109375,1.624672770500183,-0.585941731929779,-0.15644113719463348
1726995851633096400,10.706096435546876,1.4308031797409058,-0.8874469995498657,0.00925754476338625
1726995851643082500,10.71608251953125,1.1632634401321411,-1.1755090951919556,0.24910111725330353
1726995851653069600,10.726069580078125,0.8629960417747498,-1.419593095779419,0.5027182102203369
1726995851663055400,10.736055419921875,0.548956573009491,-1.6290340423583984,0.7723531126976013
1726995851673042400,10.74604248046875,0.22299179434776306,-1.8631213903427124,1.0466861724853516
1726995851683028500,10.756028564453125,-0.04189996421337128,-2.012948751449585,1.3260202407836914
1726995851693015300,10.766015380859375,-0.2536279261112213,-2.066505193710327,1.6215853691101074
1726995851703001600,10.776001708984374,-0.2714911699295044,-1.7371199131011963,1.7753371000289917
1726995851712988400,10.785988525390625,-0.23940567672252655,-1.1695590019226074,1.8717960119247437
1726995851722974500,10.795974365234375,-0.17189684510231018,-0.7422844171524048,1.9086687564849854
1726995851732961500,10.80596142578125,-0.1984592229127884,-0.5730570554733276,1.8935563564300537
1726995851742947300,10.815947265625,-0.3158860206604004,-0.46574917435646057,1.7264094352722168
1726995851752934400,10.825934326171875,-0.45997342467308044,-0.23528535664081573,1.5404248237609863
1726995851762920400,10.83592041015625,-0.6261244416236877,-0.048115652054548264,1.3855347633361816
1726995851772907500,10.845907470703125,-0.7839532494544983,0.09322363138198853,1.2048711776733398
1726995851782893300,10.855893310546875,-0.927667498588562,0.23065951466560364,0.9394744038581848
1726995851792880600,10.865880615234374,-1.0489863157272339,0.4000043272972107,0.5879502296447754
1726995851802866400,10.875866455078125,-1.129760980606079,0.5030062198638916,0.2030983865261078
1726995851812853200,10.885853271484375,-1.2153747081756592,0.49332669377326965,-0.18444374203681946
1726995851822839600,10.895839599609374,-1.3187602758407593,0.42500847578048706,-0.5538704991340637
1726995851832826400,10.905826416015625,-1.3958712816238403,0.4018924832344055,-0.8689094185829163
1726995851842812400,10.9158125,-1.4220823049545288,0.45199841260910034,-1.152247667312622
1726995851852799500,10.925799560546874,-1.381058692932129,0.5283349752426147,-1.384557843208313
1726995851862785300,10.935785400390625,-1.2961702346801758,0.6179305911064148,-1.5367865562438965
1726995851872772400,10.9457724609375,-1.204689860343933,0.7395555377006531,-1.6534737348556519
1726995851882758400,10.95575830078125,-1.12148916721344,0.8467630743980408,-1.7076371908187866
1726995851892745500,10.965745361328125,-1.0627087354660034,0.938422679901123,-1.6877855062484741
1726995851902731500,10.9757314453125,-1.021091341972351,1.0052227973937988,-1.6205679178237915
1726995851912718600,10.985718505859374,-0.9928138256072998,1.0563057661056519,-1.5420962572097778
1726995851922704400,10.995704345703125,-0.9807233810424805,1.0413156747817993,-1.4603440761566162
1726995851932691500,11.00569140625,-0.9593989253044128,1.016664743423462,-1.3906402587890625
1726995851942677500,11.015677490234374,-0.9057872295379639,0.985133945941925,-1.319876790046692
1726995851952664300,11.025664306640625,-0.8470190167427063,0.9361515045166016,-1.2668706178665161
1726995851962650600,11.035650634765625,-0.8255822658538818,0.8472309112548828,-1.2369139194488525
1726995851972637400,11.045637451171874,-0.8155959248542786,0.7424892783164978,-1.2057030200958252
1726995851982623200,11.055623291015625,-0.7531522512435913,0.674785315990448,-1.1634266376495361
1726995851992610600,11.065610595703125,-0.6847106218338013,0.606728732585907,-1.1363670825958252
1726995852002597400,11.075597412109374,-0.6196399331092834,0.5033419132232666,-1.1164531707763672
1726995852012583400,11.08558349609375,-0.5861266851425171,0.3780082166194916,-1.067368745803833
1726995852022569500,11.095569580078125,-0.5739304423332214,0.2937072813510895,-1.0054959058761597
1726995852032556500,11.105556640625,-0.539213240146637,0.25482964515686035,-0.9413626194000244
1726995852042543400,11.11554345703125,-0.4705292582511902,0.23740582168102264,-0.8862821459770203
1726995852052529400,11.125529296875,-0.40056800842285156,0.22461971640586853,-0.7831030488014221
1726995852062516500,11.1355166015625,-0.3424987196922302,0.2693607807159424,-0.6840464472770691
1726995852072502300,11.145502197265625,-0.3168641924858093,0.36918485164642334,-0.6422774195671082
1726995852082489600,11.155489501953125,-0.32739970088005066,0.4289609491825104,-0.5477766990661621
1726995852092476000,11.165475830078124,-0.32247206568717957,0.383750319480896,-0.44286492466926575
1726995852102462700,11.175462646484375,-0.24372924864292145,0.29084351658821106,-0.3888361155986786
1726995852112449000,11.185448974609375,-0.11620430648326874,0.22718386352062225,-0.3217526972293854
1726995852122435800,11.195435791015624,-0.010106347501277924,0.22461509704589844,-0.23690514266490936
1726995852132421600,11.205421630859375,0.03047197125852108,0.2164013832807541,-0.1542736440896988
1726995852142409000,11.215408935546876,0.029568588361144066,0.1883070468902588,-0.106563039124012
1726995852152394800,11.225394775390624,0.007863826118409634,0.128311887383461,-0.0727643296122551
1726995852162381800,11.2353818359375,0.0033776171039789915,0.044404663145542145,-0.03977418690919876
1726995852172368000,11.245367919921875,0.018108893185853958,-0.07440481334924698,-0.014222491532564163
1726995852182355000,11.25535498046875,0.03899819403886795,-0.11311545968055725,0.01757724955677986
1726995852192340700,11.2653408203125,0.06227688491344452,-0.11893259733915329,0.08249100297689438
1726995852202327800,11.275327880859376,0.0940786749124527,-0.12434409558773041,0.15290558338165283
1726995852212313900,11.28531396484375,0.12211297452449799,-0.14416547119617462,0.21027114987373352
1726995852222300700,11.29530078125,0.12888650596141815,-0.23318031430244446,0.26924434304237366
1726995852232287000,11.305286865234375,0.118166483938694,-0.28173401951789856,0.32992392778396606
1726995852242273800,11.315273681640624,0.11472158133983612,-0.3612234592437744,0.3919624984264374
1726995852252259800,11.325259765625,0.13721464574337006,-0.4443846642971039,0.4388628900051117
1726995852262247000,11.335246826171876,0.17344041168689728,-0.5145464539527893,0.4840438663959503
1726995852272232700,11.345232666015624,0.19720406830310822,-0.5644373297691345,0.530420184135437
1726995852282219800,11.3552197265625,0.20672142505645752,-0.5853611826896667,0.5976853370666504
1726995852292205800,11.365205810546875,0.22371506690979004,-0.6532254219055176,0.6545171737670898
1726995852302193000,11.37519287109375,0.2730126678943634,-0.6573127508163452,0.6781678795814514
1726995852312179000,11.385178955078125,0.3236880898475647,-0.6590569019317627,0.6589412093162537
1726995852322165800,11.395165771484375,0.3796342611312866,-0.6368509531021118,0.6321491003036499
1726995852332151800,11.40515185546875,0.3908773362636566,-0.6086890697479248,0.616003155708313
1726995852342139000,11.415138916015625,0.3794037103652954,-0.5929230451583862,0.610853910446167
1726995852352125000,11.425125,0.3645422160625458,-0.537795901298523,0.6055887937545776
1726995852362111700,11.43511181640625,0.3415825366973877,-0.4378809928894043,0.5866767764091492
1726995852372097800,11.445097900390625,0.3066735565662384,-0.2960021495819092,0.5330963730812073
1726995852382084900,11.4550849609375,0.28931769728660583,-0.1519835889339447,0.4535689651966095
1726995852392070700,11.465070556640624,0.29295822978019714,-0.03918220475316048,0.37583714723587036
1726995852402058000,11.47505810546875,0.3354768753051758,0.036236926913261414,0.33361417055130005
1726995852412043800,11.485043701171875,0.39931684732437134,0.04958761855959892,0.33024686574935913
1726995852422030800,11.49503076171875,0.5189493298530579,0.07616619020700455,0.35478782653808594
1726995852432017000,11.505016845703125,0.6740912199020386,0.09986699372529984,0.3749231994152069
1726995852442003700,11.515003662109375,0.8696886897087097,0.1000150814652443,0.37951424717903137
1726995852451990000,11.524989990234374,1.1348103284835815,0.15651164948940277,0.35783371329307556
1726995852461976800,11.534976806640625,1.4010522365570068,0.23332731425762177,0.2775033116340637
1726995852471963000,11.544962890625,1.6268560886383057,0.2741008400917053,0.16750171780586243
1726995852481949700,11.55494970703125,1.844915509223938,0.24018719792366028,0.068961501121521
1726995852491935700,11.564935791015625,2.0285191535949707,0.10221734642982483,-0.02342674881219864
1726995852501922800,11.5749228515625,2.111178159713745,-0.06702765822410583,-0.11066713184118271
1726995852511908900,11.584908935546874,2.1189663410186768,-0.2201160043478012,-0.159986212849617
1726995852521896000,11.59489599609375,2.061267137527466,-0.3262080252170563,-0.16945239901542664
1726995852531881700,11.6048818359375,1.9583147764205933,-0.468118816614151,-0.14026868343353271
1726995852541868800,11.614868896484374,1.7711127996444702,-0.727709949016571,-0.0474596805870533
1726995852551854800,11.624854736328125,1.4939496517181396,-1.0959548950195312,0.1338573694229126
1726995852561841700,11.634841552734375,1.1639056205749512,-1.3600765466690063,0.34783250093460083
1726995852571828000,11.644827880859374,0.8301774263381958,-1.6871882677078247,0.5825246572494507
1726995852581814800,11.654814697265625,0.5064731240272522,-1.936765193939209,0.8809402585029602
1726995852591800800,11.66480078125,0.1928204447031021,-1.9956634044647217,1.2098232507705688
1726995852601788000,11.674787841796874,-0.06686624139547348,-1.8509893417358398,1.5327626466751099
1726995852611773700,11.684773681640625,-0.23645740747451782,-1.642974615097046,1.8124231100082397
1726995852621760800,11.6947607421875,-0.276111364364624,-1.4436955451965332,1.9729278087615967
1726995852631747800,11.704747802734374,-0.3342859745025635,-1.266404628753662,1.9935636520385742
1726995852641734000,11.71473388671875,-0.4643198847770691,-0.9688372611999512,1.961668848991394
1726995852651720700,11.724720703125,-0.45779725909233093,-0.6293590664863586,1.9337259531021118
1726995852661707000,11.73470703125,-0.4777856469154358,-0.44796863198280334,1.924344778060913
1726995852671693800,11.74469384765625,-0.5622352957725525,-0.20153462886810303,1.8328708410263062
1726995852681679600,11.7546796875,-0.7244687080383301,0.07105883955955505,1.692742943763733
1726995852691667000,11.7646669921875,-0.8950273394584656,0.35667991638183594,1.4726556539535522
1726995852701652700,11.77465283203125,-1.0133460760116577,0.6275168061256409,1.0630522966384888
1726995852711639800,11.784639892578125,-1.0437402725219727,0.8207358121871948,0.5405265092849731
1726995852721625900,11.7946259765625,-1.0293664932250977,0.863936722278595,-0.05671609938144684
1726995852731613000,11.804613037109375,-1.0701967477798462,0.8096849322319031,-0.5982725620269775
1726995852741598700,11.8145986328125,-1.1447527408599854,0.7536129951477051,-0.9968786835670471
1726995852751585800,11.824585693359374,-1.2042733430862427,0.6729418635368347,-1.2802966833114624
1726995852761571800,11.83457177734375,-1.2247779369354248,0.6464255452156067,-1.4959514141082764
1726995852771558700,11.84455859375,-1.2024962902069092,0.7036310434341431,-1.6359474658966064
1726995852781545000,11.854544921875,-1.1612428426742554,0.7841634154319763,-1.7228924036026
1726995852791531800,11.86453173828125,-1.1358393430709839,0.8317185640335083,-1.7582011222839355
1726995852801517800,11.874517822265625,-1.1276365518569946,0.9048447608947754,-1.7737029790878296
1726995852811505000,11.8845048828125,-1.1029722690582275,1.0458261966705322,-1.7827321290969849
1726995852821490700,11.89449072265625,-1.1024630069732666,1.1604931354522705,-1.7764288187026978
1726995852831477800,11.904477783203125,-1.0892829895019531,1.2571065425872803,-1.762170433998108
1726995852841463800,11.9144638671875,-1.0427930355072021,1.3261406421661377,-1.7760049104690552
1726995852851451000,11.924450927734375,-0.9979206919670105,1.3608450889587402,-1.8101948499679565
1726995852861437000,11.93443701171875,-0.9672423601150513,1.3573569059371948,-1.8179559707641602
1726995852871423700,11.944423828125,-0.9645112752914429,1.3099033832550049,-1.8085569143295288
1726995852881409800,11.954409912109375,-0.9636048674583435,1.1643805503845215,-1.7724168300628662
1726995852891396900,11.96439697265625,-0.928608238697052,1.0403110980987549,-1.7170028686523438
1726995852901383000,11.9743828125,-0.8528778553009033,0.900199294090271,-1.6668504476547241
1726995852911369700,11.98436962890625,-0.7432458996772766,0.7665954232215881,-1.6148253679275513
1726995852921355800,11.994355712890625,-0.64421546459198,0.6465081572532654,-1.5290666818618774
1726995852931342800,12.0043427734375,-0.5824338793754578,0.48396405577659607,-1.4440053701400757
1726995852941328600,12.01432861328125,-0.5276320576667786,0.29882383346557617,-1.345628023147583
1726995852951316000,12.02431591796875,-0.4757270812988281,0.28108373284339905,-1.1716299057006836
1726995852961301800,12.0343017578125,-0.3952072560787201,0.31089767813682556,-1.0237743854522705
1726995852971288800,12.044288818359375,-0.2953094244003296,0.28755882382392883,-0.9347372055053711
1726995852981275000,12.05427490234375,-0.20708338916301727,0.22308368980884552,-0.8494029641151428
1726995852991261700,12.06426171875,-0.17331717908382416,0.2048942893743515,-0.7932555079460144
1726995853001248000,12.074248046875,-0.18696825206279755,0.2710905969142914,-0.7521958351135254
1726995853011234800,12.08423486328125,-0.1748782992362976,0.22706642746925354,-0.6660199761390686
1726995853021220900,12.094220947265624,-0.14182884991168976,0.13972757756710052,-0.5713743567466736
1726995853031207700,12.104207763671875,-0.07569830119609833,0.09593350440263748,-0.4868003726005554
1726995853041193700,12.11419384765625,-0.005105377174913883,0.04762803763151169,-0.4104756712913513
1726995853051180800,12.124180908203124,0.011836853809654713,0.03529946506023407,-0.3062637746334076
1726995853061166800,12.134166748046875,0.022136297076940536,0.018732238560914993,-0.20072753727436066
1726995853071154000,12.14415380859375,0.022199412807822227,0.029762784019112587,-0.12230703234672546
1726995853081139700,12.1541396484375,0.019461940973997116,0.011374062858521938,-0.08533990383148193
1726995853091127000,12.164126953125,0.04042794182896614,-0.08192498981952667,-0.06323486566543579
1726995853101113000,12.174113037109375,0.012488472275435925,-0.2666573226451874,-0.0394073985517025
1726995853111100200,12.18410009765625,0.0197724848985672,-0.4309096336364746,0.00042949337512254715
1726995853121086200,12.194086181640625,0.0638979971408844,-0.5024594664573669,0.024190828204154968
1726995853131073300,12.2040732421875,0.12389928102493286,-0.5015153884887695,0.0658341497182846
1726995853141059000,12.21405908203125,0.18918371200561523,-0.46295031905174255,0.1056671068072319
1726995853151046400,12.22404638671875,0.21367014944553375,-0.4239882528781891,0.16142039000988007
1726995853161032200,12.2340322265625,0.2068924456834793,-0.43815335631370544,0.2233818918466568
1726995853171019000,12.24401904296875,0.17372916638851166,-0.49414870142936707,0.2778722941875458
1726995853181005300,12.25400537109375,0.14440959692001343,-0.5669600963592529,0.327083557844162
1726995853190992100,12.2639921875,0.14471958577632904,-0.6303422451019287,0.3675590753555298
1726995853200978200,12.273978271484374,0.15728969871997833,-0.668512225151062,0.37508898973464966
1726995853210965200,12.28396533203125,0.18542705476284027,-0.6723501086235046,0.38162651658058167
1726995853220951000,12.293950927734375,0.20874720811843872,-0.5953168272972107,0.39955368638038635
1726995853230938000,12.303938232421874,0.22614377737045288,-0.5033323168754578,0.42243555188179016
1726995853240924200,12.313924072265625,0.24409213662147522,-0.42864301800727844,0.4185143709182739
1726995853250911200,12.3239111328125,0.2771720588207245,-0.33112606406211853,0.3958314061164856
1726995853260897300,12.333897216796874,0.30418896675109863,-0.26208117604255676,0.38143089413642883
1726995853270884400,12.34388427734375,0.30631524324417114,-0.19500066339969635,0.36359703540802
1726995853280871200,12.35387109375,0.3103429079055786,-0.1420419067144394,0.3466683328151703
1726995853290857200,12.363857177734374,0.3311813175678253,-0.12423229217529297,0.3415960669517517
1726995853300844300,12.37384423828125,0.3878171741962433,-0.09473179280757904,0.3331258296966553
1726995853310830000,12.383830078125,0.5064308643341064,-0.0661930963397026,0.33867743611335754
1726995853320817200,12.393817138671874,0.648006796836853,0.06508353352546692,0.3217719495296478
