time,seconds_elapsed,z,y,x
1726225361407977700,0.034977783203125,-0.50616455078125,-0.806182861328125,0.005340576171875
1726225361418014700,0.0450146484375,-0.603515625,-0.7149810791015625,0.0685272216796875
1726225361428051700,0.0550517578125,-0.6389923095703125,-0.84716796875,0.0771942138671875
1726225361438089000,0.0650888671875,-0.6566925048828125,-0.8316192626953125,0.010955810546875
1726225361448126000,0.0751259765625,-0.6897430419921875,-0.591766357421875,0.045928955078125
1726225361458162700,0.08516259765625,-0.57611083984375,-0.6797332763671875,0.08990478515625
1726225361468199700,0.09519970703125,-0.3082122802734375,-1.0182342529296875,-0.024139404296875
1726225361478237000,0.10523681640625,-0.3144073486328125,-1.048187255859375,-0.0435333251953125
1726225361488274000,0.11527392578125,-0.54937744140625,-0.7174224853515625,0.002288818359375
1726225361498311000,0.125310791015625,-0.665008544921875,-0.674530029296875,0.0411529541015625
1726225361508347600,0.13534765625,-0.550537109375,-0.8929290771484375,-0.02142333984375
1726225361518384600,0.145384521484375,-0.4736175537109375,-0.848541259765625,-0.099395751953125
1726225361528422000,0.155421875,-0.62176513671875,-0.732147216796875,-0.0680999755859375
1726225361538459000,0.165458984375,-0.5943145751953125,-0.7134857177734375,-0.1302642822265625
1726225361548496000,0.175495849609375,-0.5511322021484375,-0.8957672119140625,-0.1607818603515625
1726225361558532600,0.18553271484375,-0.5634613037109375,-0.8465423583984375,-0.14849853515625
1726225361568569900,0.19556982421875,-0.6467742919921875,-0.6869049072265625,-0.1021881103515625
1726225361578605800,0.205605712890625,-0.633148193359375,-0.778656005859375,-0.066558837890625
1726225361588642800,0.215642822265625,-0.635498046875,-0.9264984130859375,-0.107177734375
1726225361598679800,0.2256796875,-0.6760101318359375,-0.6894989013671875,-0.1546173095703125
1726225361608716800,0.235716796875,-0.5971527099609375,-0.66986083984375,-0.095855712890625
1726225361618753800,0.24575390625,-0.4106903076171875,-1.0193634033203125,-0.197967529296875
1726225361628790800,0.255790771484375,-0.2921295166015625,-0.959930419921875,-0.2340240478515625
1726225361638827800,0.265827880859375,-0.6949462890625,-0.6460418701171875,-0.0514373779296875
1726225361648864800,0.27586474609375,-0.994964599609375,-0.6619415283203125,-0.0820770263671875
1726225361658901800,0.28590185546875,-0.823089599609375,-0.951690673828125,-0.0656890869140625
1726225361668938800,0.295938720703125,-0.5822906494140625,-0.9842987060546875,-0.0513916015625
1726225361678975700,0.305975830078125,-0.7850494384765625,-0.81500244140625,-0.029083251953125
1726225361689012700,0.3160126953125,-0.744476318359375,-0.7761077880859375,-0.0378265380859375
1726225361699049700,0.3260498046875,-0.583221435546875,-1.057281494140625,-0.020751953125
1726225361709087000,0.3360869140625,-0.367645263671875,-0.919189453125,-0.1499176025390625
1726225361719124000,0.3461240234375,-0.429412841796875,-0.7045745849609375,-0.1304168701171875
1726225361729160700,0.35616064453125,-0.4048309326171875,-0.6697998046875,-0.069488525390625
1726225361739197700,0.36619775390625,-0.4257049560546875,-0.9258880615234375,-0.2116241455078125
1726225361749234700,0.376234619140625,-0.4781951904296875,-0.7826080322265625,-0.2490234375
1726225361759272000,0.38627197265625,-0.4982757568359375,-0.8349761962890625,-0.13494873046875
1726225361769309000,0.396308837890625,-0.5921478271484375,-1.092437744140625,-0.1081085205078125
1726225361779345700,0.406345703125,-0.69378662109375,-0.7623291015625,-0.1391143798828125
1726225361789382700,0.416382568359375,-0.5759429931640625,-0.693328857421875,-0.1182708740234375
1726225361799420000,0.426419921875,-0.5672454833984375,-0.8730316162109375,-0.0320892333984375
1726225361809455900,0.436455810546875,-0.4781036376953125,-0.87939453125,0.1057281494140625
1726225361819492900,0.446492919921875,-0.3755035400390625,-0.948577880859375,0.069732666015625
1726225361829529900,0.45652978515625,-0.493072509765625,-0.8356475830078125,0.1801910400390625
1726225361839566600,0.466566650390625,-0.6384429931640625,-0.68011474609375,0.1718292236328125
1726225361849603800,0.476603759765625,-0.5765533447265625,-0.884124755859375,0.08001708984375
1726225361859640800,0.486640869140625,-0.4958953857421875,-0.9590301513671875,0.132415771484375
1726225361869677800,0.496677734375,-0.508056640625,-0.8162841796875,0.020904541015625
1726225361879714800,0.50671484375,-0.5273590087890625,-0.914642333984375,0.0637969970703125
1726225361889751800,0.516751708984375,-0.5127105712890625,-0.9499969482421875,0.1868438720703125
1726225361899788800,0.526788818359375,-0.5316162109375,-0.735076904296875,0.14569091796875
1726225361909825800,0.53682568359375,-0.467437744140625,-0.7603302001953125,0.219146728515625
1726225361919862800,0.54686279296875,-0.4459991455078125,-0.9793548583984375,0.2159423828125
1726225361929899800,0.556899658203125,-0.3988189697265625,-0.9506072998046875,0.2163848876953125
1726225361939936800,0.566936767578125,-0.239593505859375,-0.7846221923828125,0.1967620849609375
1726225361949973800,0.576973876953125,-0.4292144775390625,-0.76416015625,0.177459716796875
1726225361960010800,0.5870107421875,-0.5577392578125,-0.7866363525390625,0.19122314453125
1726225361970047700,0.5970478515625,-0.6130218505859375,-1.0294036865234375,0.2198944091796875
1726225361980085000,0.6070849609375,-0.7161102294921875,-1.0665435791015625,0.1894989013671875
1726225361990125300,0.617125244140625,-0.7572021484375,-0.9385986328125,0.1861419677734375
1726225362000162300,0.627162353515625,-0.711090087890625,-1.1101531982421875,0.2298583984375
1726225362010199300,0.63719921875,-0.492706298828125,-1.058135986328125,0.224609375
1726225362020236300,0.647236328125,-0.38006591796875,-0.8208465576171875,0.24560546875
1726225362030273500,0.6572734375,-0.3291168212890625,-0.80804443359375,0.24896240234375
1726225362040310300,0.667310302734375,-0.330078125,-0.75994873046875,0.1193084716796875
1726225362050347300,0.67734716796875,-0.29052734375,-0.8026275634765625,0.096038818359375
1726225362060384300,0.68738427734375,-0.2946014404296875,-0.9081878662109375,0.1066131591796875
1726225362070421200,0.697421142578125,-0.2722625732421875,-1.0135498046875,0.0956573486328125
1726225362080458500,0.70745849609375,-0.39306640625,-1.059112548828125,0.1043243408203125
1726225362090495200,0.7174951171875,-0.483795166015625,-0.917877197265625,0.1585693359375
1726225362100532200,0.7275322265625,-0.448974609375,-0.8290557861328125,0.275421142578125
1726225362110569200,0.7375693359375,-0.5072784423828125,-0.9024200439453125,0.3770599365234375
1726225362120606500,0.7476064453125,-0.4524078369140625,-0.8214569091796875,0.3583526611328125
1726225362130643500,0.7576435546875,-0.386138916015625,-0.8400421142578125,0.324554443359375
1726225362140680200,0.76768017578125,-0.3187408447265625,-0.8767242431640625,0.281524658203125
1726225362150717200,0.77771728515625,-0.287353515625,-0.9047088623046875,0.2029876708984375
1726225362160754400,0.78775439453125,-0.32177734375,-0.9947357177734375,0.135284423828125
1726225362170791400,0.79779150390625,-0.33807373046875,-0.9224853515625,0.086944580078125
1726225362180828400,0.807828369140625,-0.4315185546875,-0.963226318359375,0.0679168701171875
1726225362190865200,0.817865234375,-0.279632568359375,-0.9460296630859375,0.1157684326171875
1726225362200902100,0.827902099609375,-0.486358642578125,-0.765167236328125,0.19677734375
1726225362210939400,0.837939453125,-0.764312744140625,-0.5765228271484375,0.22467041015625
1726225362220976400,0.847976318359375,-0.7161865234375,-0.764129638671875,0.204864501953125
1726225362231013400,0.858013427734375,-0.7395782470703125,-0.9243011474609375,0.267242431640625
1726225362241049300,0.86804931640625,-0.835723876953125,-0.5952911376953125,0.307342529296875
1726225362251086300,0.87808642578125,-0.87933349609375,-0.6954193115234375,0.286529541015625
1726225362261123300,0.888123291015625,-0.750579833984375,-0.9355926513671875,0.152557373046875
1726225362271160300,0.898160400390625,-0.644927978515625,-0.8076171875,0.0821990966796875
1726225362281197300,0.908197265625,-0.6193695068359375,-0.696044921875,0.0119476318359375
1726225362291234300,0.918234375,-0.47625732421875,-0.6827850341796875,-0.066741943359375
1726225362301271600,0.928271484375,-0.366546630859375,-0.8573150634765625,-0.1417694091796875
1726225362311308300,0.938308349609375,-0.2843017578125,-0.811859130859375,-0.1275482177734375
1726225362321345300,0.94834521484375,-0.4149017333984375,-0.6008453369140625,-0.0446929931640625
1726225362331382300,0.95838232421875,-0.7137603759765625,-0.64990234375,-0.0361785888671875
1726225362341419300,0.968419189453125,-0.653839111328125,-0.9973907470703125,-0.0314178466796875
1726225362351456500,0.97845654296875,-0.831787109375,-1.06976318359375,0.0066986083984375
1726225362361493200,0.9884931640625,-1.063232421875,-0.6483917236328125,0.0370330810546875
1726225362371530200,0.9985302734375,-0.8602142333984375,-0.821807861328125,0.0169219970703125
1726225362381567200,1.008567138671875,-0.60321044921875,-1.0745697021484375,-0.005035400390625
1726225362391604500,1.0186044921875,-0.454345703125,-0.87481689453125,0.0333404541015625
1726225362401641500,1.028641357421875,-0.4441070556640625,-0.6733245849609375,0.0393524169921875
1726225362411678200,1.03867822265625,-0.4904327392578125,-0.71221923828125,0.01025390625
1726225362421715200,1.048715087890625,-0.4197540283203125,-0.689971923828125,-0.0057373046875
1726225362431753500,1.05875341796875,-0.2110748291015625,-0.9503021240234375,-0.04669189453125
1726225362441790500,1.06879052734375,-0.200531005859375,-1.1470794677734375,0.048736572265625
1726225362451826400,1.078826416015625,-0.617279052734375,-0.8611907958984375,0.05548095703125
1726225362461864200,1.0888642578125,-0.8501129150390625,-0.637115478515625,0.0835723876953125
1726225362471901400,1.0989013671875,-0.883026123046875,-0.8955841064453125,0.1151580810546875
1726225362481938400,1.1089384765625,-0.8899383544921875,-0.966827392578125,0.0502166748046875
1726225362491975400,1.118975341796875,-0.871368408203125,-0.819854736328125,-0.0559234619140625
1726225362502012200,1.12901220703125,-0.7946319580078125,-0.82281494140625,-0.0839385986328125
1726225362512049400,1.13904931640625,-0.62835693359375,-0.7288818359375,-0.1610260009765625
1726225362522086400,1.14908642578125,-0.5267181396484375,-0.744293212890625,-0.1358795166015625
1726225362532123400,1.159123291015625,-0.417633056640625,-0.713623046875,-0.1456146240234375
1726225362542160400,1.169160400390625,-0.3771514892578125,-0.7977294921875,-0.21893310546875
1726225362552197000,1.179197021484375,-0.4474639892578125,-0.9639739990234375,-0.1165924072265625
1726225362562234400,1.189234375,-0.381591796875,-0.906219482421875,-0.1054534912109375
1726225362572271400,1.199271240234375,-0.516998291015625,-0.8321685791015625,-0.0846710205078125
1726225362582308400,1.209308349609375,-0.527984619140625,-0.8093109130859375,-0.0616607666015625
1726225362592345300,1.219345458984375,-0.590789794921875,-0.9584197998046875,-0.0575714111328125
1726225362602382300,1.22938232421875,-0.600372314453125,-0.8381195068359375,0.0125732421875
1726225362612419300,1.23941943359375,-0.499298095703125,-0.7392578125,-0.0348968505859375
1726225362622456300,1.249456298828125,-0.2568359375,-0.794830322265625,-0.063873291015625
1726225362632493300,1.259493408203125,-0.1813507080078125,-0.812225341796875,0.0006103515625
1726225362642530600,1.269530517578125,-0.622833251953125,-0.7975921630859375,0.0215606689453125
1726225362652567300,1.2795673828125,-0.66119384765625,-0.7918701171875,0.0068511962890625
1726225362662604300,1.289604248046875,-0.8332672119140625,-0.733795166015625,-0.09869384765625
1726225362672641300,1.299641357421875,-0.621795654296875,-0.798065185546875,-0.0694427490234375
1726225362682678300,1.30967822265625,-0.267303466796875,-1.3513946533203125,0.0781097412109375
1726225362692715500,1.319715576171875,0.2553863525390625,-1.1631622314453125,0.002471923828125
1726225362702752300,1.329752197265625,0.0758514404296875,-0.6762847900390625,0.066558837890625
1726225362712789200,1.339789306640625,-0.184967041015625,-0.507781982421875,0.213470458984375
1726225362722826200,1.349826171875,-0.6163787841796875,-0.750152587890625,0.247100830078125
1726225362732863500,1.359863525390625,-0.9482269287109375,-0.867340087890625,0.2057647705078125
1726225362742900500,1.369900390625,-0.9079742431640625,-1.0035858154296875,-0.0186614990234375
1726225362752937200,1.379937255859375,-0.911956787109375,-1.2635040283203125,-0.060546875
1726225362762974200,1.38997412109375,-0.8225250244140625,-1.0547637939453125,-0.0870361328125
1726225362773011500,1.400011474609375,-0.647918701171875,-0.75994873046875,-0.1373748779296875
1726225362783048400,1.41004833984375,-0.314666748046875,-0.762847900390625,0.0350494384765625
1726225362793085400,1.42008544921875,-0.07073974609375,-0.9473724365234375,0.2276763916015625
1726225362803122200,1.4301220703125,-0.110870361328125,-1.06378173828125,0.2672576904296875
1726225362813159200,1.4401591796875,-0.2574005126953125,-0.7959136962890625,0.1981964111328125
1726225362823196400,1.450196533203125,-0.444183349609375,-0.7398529052734375,0.1317901611328125
1726225362833234400,1.460234375,-0.576873779296875,-0.9709320068359375,0.082855224609375
1726225362843271200,1.470271240234375,-0.706634521484375,-1.00482177734375,0.0302276611328125
1726225362853308400,1.480308349609375,-0.8250274658203125,-0.8271942138671875,-0.019073486328125
1726225362863345400,1.490345458984375,-0.83953857421875,-0.84326171875,0.0302886962890625
1726225362873382400,1.50038232421875,-0.7793426513671875,-0.8323974609375,0.0140838623046875
1726225362883419400,1.51041943359375,-0.50372314453125,-0.82183837890625,-0.0151824951171875
1726225362893456100,1.5204560546875,-0.2464447021484375,-0.9240570068359375,0.0694732666015625
1726225362903493400,1.530493408203125,-0.2855072021484375,-0.9158477783203125,0.0210723876953125
1726225362913530400,1.5405302734375,-0.4806060791015625,-0.8142242431640625,-0.0175933837890625
1726225362923567400,1.5505673828125,-0.558380126953125,-0.917999267578125,0.018951416015625
1726225362933604400,1.560604248046875,-0.83795166015625,-1.0216217041015625,0.0727996826171875
1726225362943641300,1.570641357421875,-0.870330810546875,-0.919891357421875,0.0489044189453125
1726225362953678300,1.58067822265625,-0.7524566650390625,-1.012298583984375,0.083251953125
1726225362963715300,1.59071533203125,-0.6212310791015625,-0.9131317138671875,0.1309814453125
1726225362973752300,1.60075244140625,-0.481536865234375,-0.73114013671875,0.07086181640625
1726225362983789000,1.6107890625,-0.4616241455078125,-0.74346923828125,0.13458251953125
1726225362993826000,1.620825927734375,-0.38494873046875,-0.62158203125,0.1150665283203125
1726225363003863000,1.630863037109375,-0.192657470703125,-0.67535400390625,0.140655517578125
1726225363013900000,1.640900146484375,-0.0369720458984375,-0.72137451171875,0.12945556640625
1726225363023938000,1.65093798828125,-0.3145294189453125,-0.6179046630859375,0.09771728515625
1726225363033975000,1.66097509765625,-0.402069091796875,-0.7323150634765625,0.20892333984375
1726225363044012000,1.671011962890625,-0.8205413818359375,-1.004669189453125,0.1916046142578125
1726225363054049000,1.681049072265625,-1.08837890625,-0.7625274658203125,0.1453704833984375
1726225363064086000,1.6910859375,-1.060150146484375,-0.941650390625,0.21148681640625
1726225363074123300,1.701123291015625,-0.853118896484375,-1.0249481201171875,0.1705322265625
1726225363084160000,1.711159912109375,-0.6699066162109375,-0.8050384521484375,0.1441497802734375
1726225363094197000,1.721197021484375,-0.55902099609375,-0.5809783935546875,0.1541290283203125
1726225363104234000,1.73123388671875,-0.0551605224609375,-0.632568359375,0.194549560546875
1726225363114271200,1.741271240234375,-0.2473297119140625,-1.0689544677734375,0.320220947265625
1726225363124308200,1.75130810546875,-0.5512237548828125,-0.810882568359375,0.138916015625
1726225363134345000,1.761344970703125,-0.930816650390625,-0.65960693359375,0.1104736328125
1726225363144382000,1.7713818359375,-1.023956298828125,-0.9243316650390625,0.007232666015625
1726225363154419000,1.7814189453125,-0.87451171875,-1.2714996337890625,-0.0212860107421875
1726225363164457000,1.79145703125,-0.719024658203125,-1.017547607421875,-0.1172637939453125
1726225363174494000,1.801493896484375,-0.628082275390625,-0.704071044921875,-0.0355224609375
1726225363184531000,1.811531005859375,-0.59014892578125,-0.67449951171875,-0.0562744140625
1726225363194568200,1.821568115234375,-0.4351348876953125,-0.6334075927734375,0.0191650390625
1726225363204605200,1.831605224609375,-0.1582794189453125,-0.759246826171875,0.0937347412109375
1726225363214642000,1.841641845703125,0.0721435546875,-0.875274658203125,0.068267822265625
1726225363224679000,1.851678955078125,-0.249267578125,-0.712432861328125,0.1273651123046875
1726225363234716000,1.8617158203125,-0.4602508544921875,-0.6187744140625,0.0382232666015625
1726225363244753200,1.871753173828125,-0.57794189453125,-0.955657958984375,0.0155792236328125
1726225363254790100,1.8817900390625,-0.93853759765625,-1.0236663818359375,0.0189056396484375
1726225363264827100,1.8918271484375,-1.0704803466796875,-0.8430023193359375,-0.0201263427734375
1726225363274863900,1.90186376953125,-0.9847869873046875,-1.0489654541015625,0.0523529052734375
1726225363284902100,1.911902099609375,-0.67620849609375,-0.994293212890625,0.029510498046875
1726225363294939100,1.921939208984375,-0.497100830078125,-0.7365264892578125,0.0550537109375
1726225363304976000,1.931975830078125,-0.2122955322265625,-0.7437896728515625,0.2080230712890625
1726225363315012900,1.942012939453125,-0.119842529296875,-0.868408203125,0.25201416015625
1726225363325050000,1.952050048828125,-0.44281005859375,-0.7240142822265625,0.207855224609375
1726225363335087000,1.962087158203125,-0.6319732666015625,-0.7717132568359375,0.1695556640625
1726225363345124000,1.9721240234375,-0.8484039306640625,-1.1978302001953125,0.1768035888671875
1726225363355160800,1.982160888671875,-0.8992919921875,-1.1027374267578125,0.1362152099609375
1726225363365198000,1.992197998046875,-0.8401641845703125,-0.74468994140625,0.089019775390625
1726225363375235000,2.002235107421875,-0.532440185546875,-0.84149169921875,0.16387939453125
1726225363385273000,2.012273193359375,-0.2427215576171875,-0.882415771484375,0.145843505859375
1726225363395310000,2.02231005859375,-0.3087310791015625,-0.69140625,0.153900146484375
1726225363405347000,2.03234716796875,-0.3499755859375,-0.4314422607421875,0.1782684326171875
1726225363415384000,2.042384033203125,-0.0753173828125,-0.642547607421875,0.2376251220703125
1726225363425421000,2.052421142578125,-0.01483154296875,-0.9938201904296875,0.2894287109375
1726225363435458000,2.0624580078125,-0.208709716796875,-0.9162750244140625,0.2195587158203125
1726225363445495000,2.0724951171875,-0.6007537841796875,-0.8424224853515625,0.0670013427734375
1726225363455532000,2.082531982421875,-0.9133758544921875,-1.093963623046875,0.167694091796875
1726225363465569000,2.092569091796875,-0.8160858154296875,-1.212066650390625,0.14373779296875
1726225363475607000,2.10260693359375,-0.7024383544921875,-1.0077362060546875,0.1429595947265625
1726225363485644000,2.11264404296875,-0.507049560546875,-0.5794830322265625,0.1716461181640625
1726225363495681000,2.122680908203125,-0.3906402587890625,-0.524383544921875,0.189483642578125
1726225363505718000,2.132718017578125,-0.2094268798828125,-0.8112030029296875,0.1572723388671875
1726225363515755000,2.142755126953125,-0.0560150146484375,-1.14776611328125,0.12591552734375
1726225363525792000,2.1527919921875,-0.5169525146484375,-0.899993896484375,0.1495361328125
1726225363535829000,2.1628291015625,-0.7646942138671875,-0.603607177734375,0.1796112060546875
1726225363545866000,2.172865966796875,-0.71636962890625,-1.0145721435546875,0.2164459228515625
1726225363555904300,2.182904296875,-0.8670501708984375,-1.05609130859375,0.1810455322265625
1726225363565941000,2.19294091796875,-0.8360443115234375,-0.714874267578125,0.2469940185546875
1726225363575978000,2.20297802734375,-0.6796112060546875,-0.8529052734375,0.2564544677734375
1726225363586015000,2.213014892578125,-0.57568359375,-0.966156005859375,0.1972808837890625
1726225363596052000,2.223052001953125,-0.6214599609375,-0.581512451171875,0.20574951171875
1726225363606089200,2.233089111328125,-0.54736328125,-0.4875030517578125,0.2376861572265625
1726225363616126000,2.2431259765625,-0.0191497802734375,-0.8847198486328125,0.1332550048828125
1726225363626163000,2.253162841796875,-0.066680908203125,-1.090423583984375,-0.0082550048828125
1726225363636201200,2.263201171875,-0.54388427734375,-0.6619110107421875,0.0661468505859375
1726225363646238200,2.27323828125,-0.7563934326171875,-0.611572265625,0.0716400146484375
1726225363656275000,2.28327490234375,-0.94610595703125,-1.082763671875,0.0287322998046875
1726225363666312000,2.29331201171875,-0.99267578125,-1.0739288330078125,0.174896240234375
1726225363676349200,2.30334912109375,-0.8655853271484375,-0.741729736328125,0.090240478515625
1726225363686386200,2.31338623046875,-0.74981689453125,-0.747802734375,0.18182373046875
1726225363696423200,2.323423095703125,-0.472747802734375,-0.673187255859375,0.2487030029296875
1726225363706461000,2.3334609375,-0.2116241455078125,-0.813812255859375,0.15716552734375
1726225363716498200,2.343498291015625,-0.21649169921875,-0.8518218994140625,0.1297454833984375
1726225363726535200,2.35353515625,-0.585601806640625,-0.65545654296875,0.170318603515625
1726225363736572000,2.363572021484375,-0.7549591064453125,-0.7527008056640625,0.06463623046875
1726225363746609000,2.37360888671875,-1.0412445068359375,-1.0636138916015625,0.02130126953125
1726225363756646100,2.383646240234375,-1.02862548828125,-0.8630828857421875,-0.0164642333984375
1726225363766683100,2.39368310546875,-0.9190673828125,-0.8190155029296875,-0.1085357666015625
1726225363776721000,2.403720947265625,-0.65728759765625,-0.924530029296875,-0.0604095458984375
1726225363786758000,2.4137578125,-0.44427490234375,-0.8249664306640625,-0.1045379638671875
1726225363796795100,2.423795166015625,-0.3967742919921875,-0.7159423828125,-0.1479644775390625
1726225363806832000,2.43383203125,-0.263214111328125,-0.6346588134765625,-0.0772705078125
1726225363816869000,2.443869140625,0.0659942626953125,-0.7456512451171875,-0.0905303955078125
1726225363826905900,2.45390576171875,-0.3227386474609375,-0.8052978515625,0.093353271484375
1726225363836944100,2.463944091796875,-0.6092681884765625,-0.566375732421875,0.1462860107421875
1726225363846981000,2.473981201171875,-0.84375,-0.92755126953125,0.144195556640625
1726225363857018000,2.48401806640625,-1.1233062744140625,-1.117706298828125,0.1485443115234375
1726225363867054800,2.494054931640625,-1.1167755126953125,-0.80499267578125,0.167572021484375
1726225363877092000,2.504092041015625,-0.8941497802734375,-0.8717193603515625,0.1607818603515625
1726225363887129000,2.514129150390625,-0.5086669921875,-0.893157958984375,0.11004638671875
1726225363897166800,2.524166748046875,-0.266204833984375,-0.7935333251953125,0.1369171142578125
1726225363907204000,2.5342041015625,0.037200927734375,-0.818023681640625,0.06646728515625
1726225363917241000,2.544240966796875,0.1788177490234375,-0.7748260498046875,-0.0012054443359375
1726225363927278000,2.554278076171875,-0.2401885986328125,-0.63330078125,0.1258544921875
1726225363937315000,2.564315185546875,-0.5279693603515625,-0.5465087890625,0.0491943359375
1726225363947351800,2.574351806640625,-0.7730255126953125,-0.8926849365234375,0.0027923583984375
1726225363957390000,2.58439013671875,-0.8972015380859375,-1.0768585205078125,0.0883026123046875
1726225363967427000,2.594427001953125,-0.9466400146484375,-0.967926025390625,0.071258544921875
1726225363977464000,2.604464111328125,-0.827911376953125,-0.93206787109375,0.0392913818359375
1726225363987497700,2.614497802734375,-0.615264892578125,-0.942626953125,0.0124359130859375
1726225363997534700,2.62453466796875,-0.478515625,-0.7060089111328125,-0.069549560546875
1726225364007571700,2.63457177734375,-0.085845947265625,-0.6071624755859375,-0.03363037109375
1726225364017609500,2.644609375,0.4905853271484375,-0.897491455078125,-0.0637969970703125
1726225364027646700,2.654646728515625,0.0028076171875,-0.80487060546875,0.0646209716796875
1726225364037683700,2.66468359375,-0.466827392578125,-0.4585418701171875,0.065704345703125
1726225364047720700,2.674720703125,-0.905487060546875,-0.8637847900390625,0.0424041748046875
1726225364057757700,2.6847578125,-1.145660400390625,-1.2883758544921875,0.1473541259765625
1726225364067795700,2.694795654296875,-1.2639007568359375,-1.163909912109375,0.1777801513671875
1726225364077832700,2.704832763671875,-1.0756378173828125,-0.83526611328125,0.03619384765625
1726225364087869700,2.71486962890625,-0.618988037109375,-0.9208984375,-0.02947998046875
1726225364097907000,2.724906982421875,-0.2130279541015625,-1.035858154296875,0.04241943359375
1726225364107943700,2.734943603515625,-0.4029693603515625,-0.9027252197265625,0.04736328125
1726225364117981700,2.744981689453125,-0.4695892333984375,-0.726104736328125,-0.014434814453125
1726225364128018700,2.755018798828125,-0.6383819580078125,-0.8454742431640625,-0.015838623046875
1726225364138055700,2.7650556640625,-0.709014892578125,-0.887359619140625,0.0371856689453125
1726225364148092700,2.7750927734375,-0.645965576171875,-0.9987335205078125,0.0410308837890625
1726225364158129700,2.785129638671875,-0.578765869140625,-0.91845703125,0.005035400390625
1726225364168168000,2.79516796875,-0.5562896728515625,-0.6884002685546875,0.0662384033203125
1726225364178204700,2.80520458984375,-0.59710693359375,-0.7903289794921875,-0.01690673828125
1726225364188241700,2.81524169921875,-0.5883331298828125,-0.7401275634765625,-0.1065826416015625
1726225364198278700,2.825278564453125,-0.32672119140625,-0.601715087890625,-0.0615234375
1726225364208315600,2.835315673828125,-0.3301544189453125,-0.86346435546875,-0.072235107421875
1726225364218353700,2.845353759765625,-0.5345306396484375,-0.8610687255859375,-0.0993499755859375
1726225364228390700,2.855390625,-0.709228515625,-0.743316650390625,-0.038421630859375
1726225364238427600,2.865427734375,-0.76605224609375,-0.865753173828125,-0.063262939453125
1726225364248465000,2.87546484375,-0.76214599609375,-0.9681396484375,-0.038543701171875
1726225364258502000,2.885501953125,-0.71990966796875,-0.9442901611328125,-0.023681640625
1726225364268539600,2.89553955078125,-0.638763427734375,-0.697296142578125,0.01025390625
1726225364278576600,2.90557666015625,-0.6974945068359375,-0.557281494140625,-0.022674560546875
1726225364288614000,2.91561376953125,-0.6381072998046875,-0.52392578125,-0.076690673828125
1726225364298650600,2.925650634765625,-0.2304840087890625,-0.6818084716796875,-0.01025390625
1726225364308687600,2.9356875,-0.098388671875,-0.8637847900390625,0.017120361328125
1726225364318726000,2.945725830078125,-0.345703125,-0.724761962890625,-0.06561279296875
1726225364328763000,2.955762939453125,-0.5090179443359375,-0.6842041015625,0.1013946533203125
1726225364338799600,2.965799560546875,-0.7708892822265625,-0.92254638671875,0.175994873046875
1726225364348836600,2.975836669921875,-0.847686767578125,-0.904449462890625,0.1289520263671875
1726225364358875000,2.985875,-0.852020263671875,-0.935943603515625,0.1813201904296875
1726225364368911600,2.99591162109375,-0.7962493896484375,-0.9655914306640625,0.207366943359375
1726225364378948600,3.005948486328125,-0.730499267578125,-0.7252044677734375,0.102081298828125
1726225364388985600,3.015985595703125,-0.5868072509765625,-0.6387176513671875,0.098602294921875
1726225364399023900,3.02602392578125,-0.1651763916015625,-0.809600830078125,0.1066436767578125
1726225364409060600,3.036060546875,-0.260406494140625,-0.972259521484375,0.0644989013671875
1726225364419097600,3.04609765625,-0.33746337890625,-0.80230712890625,0.00445556640625
1726225364429134600,3.056134521484375,-0.544769287109375,-0.7945556640625,-0.021209716796875
1726225364439171800,3.066171875,-0.713653564453125,-0.964874267578125,0.012664794921875
1726225364449209600,3.076209716796875,-0.791534423828125,-1.0140380859375,-0.003448486328125
1726225364459246600,3.08624658203125,-0.8380584716796875,-0.919097900390625,-0.0270843505859375
1726225364469283800,3.096283935546875,-0.696563720703125,-0.7547454833984375,-0.0169677734375
1726225364479320800,3.10632080078125,-0.44940185546875,-0.95501708984375,-0.03680419921875
1726225364489358600,3.116358642578125,-0.349365234375,-1.0594940185546875,-0.0314483642578125
1726225364499395600,3.1263955078125,-0.4954376220703125,-0.62921142578125,0.0230255126953125
1726225364509432800,3.136432861328125,-0.6171112060546875,-0.4575653076171875,0.0843963623046875
1726225364519469800,3.1464697265625,-0.4912261962890625,-0.9632720947265625,0.1546173095703125
1726225364529507600,3.156507568359375,-0.6425933837890625,-1.11346435546875,0.1103057861328125
1726225364539544800,3.166544921875,-0.8602294921875,-0.631805419921875,0.06634521484375
1726225364549581800,3.176581787109375,-0.7462310791015625,-0.73162841796875,0.0534210205078125
1726225364559618800,3.186618896484375,-0.5430755615234375,-1.091827392578125,0.0693206787109375
1726225364569656600,3.196656494140625,-0.499786376953125,-0.8746185302734375,0.0138397216796875
1726225364579693800,3.20669384765625,-0.4272003173828125,-0.6441650390625,0.10125732421875
1726225364589730800,3.216730712890625,-0.2883148193359375,-0.9011993408203125,0.1053009033203125
1726225364599767800,3.226767822265625,-0.4488372802734375,-0.9952850341796875,0.126373291015625
1726225364609805800,3.236805908203125,-0.4920196533203125,-0.7134246826171875,0.145904541015625
1726225364619842800,3.2468427734375,-0.59027099609375,-0.8272857666015625,0.1623382568359375
1726225364629879800,3.2568798828125,-0.5507354736328125,-0.86651611328125,0.09765625
1726225364639916500,3.26691650390625,-0.4691009521484375,-0.8339385986328125,0.0926666259765625
1726225364649954800,3.276954833984375,-0.443939208984375,-0.8118438720703125,0.0744781494140625
1726225364659991800,3.28699169921875,-0.490264892578125,-0.701904296875,0.0784454345703125
1726225364670028800,3.29702880859375,-0.6098480224609375,-0.689483642578125,0.1054840087890625
1726225364680065500,3.3070654296875,-0.492218017578125,-0.72564697265625,0.13031005859375
1726225364690103800,3.317103759765625,-0.286956787109375,-0.8779144287109375,0.1429595947265625
1726225364700140800,3.327140869140625,-0.27471923828125,-0.9126434326171875,0.1115264892578125
1726225364710177500,3.337177490234375,-0.49981689453125,-0.7584686279296875,0.155059814453125
1726225364720215800,3.3472158203125,-0.5168914794921875,-0.8258056640625,0.1590576171875
1726225364730252800,3.357252685546875,-0.7687225341796875,-1.0332183837890625,0.139251708984375
1726225364740289800,3.367289794921875,-0.7985076904296875,-0.857666015625,0.1993560791015625
1726225364750326500,3.377326416015625,-0.765289306640625,-0.9507904052734375,0.1444244384765625
1726225364760364800,3.38736474609375,-0.6265106201171875,-0.881866455078125,0.1198272705078125
1726225364770401800,3.39740185546875,-0.530670166015625,-0.584747314453125,0.2004852294921875
1726225364780438800,3.407438720703125,-0.3039703369140625,-0.8166961669921875,0.218597412109375
1726225364790476800,3.417476806640625,0.035858154296875,-0.98681640625,0.16778564453125
1726225364800513800,3.427513671875,-0.297607421875,-0.7671661376953125,0.173583984375
1726225364810550800,3.43755078125,-0.5400238037109375,-0.6790924072265625,0.2192535400390625
1726225364820587500,3.44758740234375,-0.65966796875,-1.0288848876953125,0.144805908203125
1726225364830625800,3.457625732421875,-0.8226165771484375,-1.030853271484375,0.164886474609375
1726225364840662800,3.467662841796875,-0.860504150390625,-0.8227081298828125,0.232757568359375
1726225364850699800,3.47769970703125,-0.875,-0.9193267822265625,0.181671142578125
1726225364860736500,3.487736572265625,-0.6825714111328125,-0.8193206787109375,0.157073974609375
1726225364870774800,3.49777490234375,-0.48199462890625,-0.7496795654296875,0.197418212890625
1726225364880811800,3.507811767578125,-0.3444061279296875,-0.850433349609375,0.169677734375
1726225364890848500,3.5178486328125,-0.0688323974609375,-0.647369384765625,0.0796356201171875
1726225364900886800,3.52788671875,-0.4104766845703125,-0.5916748046875,0.186126708984375
1726225364910923800,3.537923828125,-0.5630950927734375,-0.71917724609375,0.2059326171875
1726225364920960800,3.547960693359375,-0.9996337890625,-0.9590301513671875,0.1371917724609375
1726225364930998800,3.557998779296875,-1.14007568359375,-0.73480224609375,0.1998748779296875
1726225364941035800,3.568035888671875,-0.918426513671875,-0.8233795166015625,0.1974945068359375
1726225364951072800,3.57807275390625,-0.6908416748046875,-1.01007080078125,0.102081298828125
1726225364961109800,3.58810986328125,-0.4871978759765625,-0.7247467041015625,0.0835723876953125
1726225364971147800,3.598147705078125,-0.3669281005859375,-0.66070556640625,0.0597381591796875
1726225364981184800,3.608184814453125,-0.1816864013671875,-0.727783203125,0.0176544189453125
1726225364991222000,3.618221923828125,-0.458740234375,-0.673828125,0.0354766845703125
1726225365001260300,3.62826025390625,-0.753204345703125,-0.6370697021484375,0.0517578125
1726225365011297300,3.63829736328125,-0.9879302978515625,-0.8645477294921875,0.085174560546875
1726225365021334300,3.648334228515625,-1.1697540283203125,-0.988494873046875,0.0259857177734375
1726225365031372300,3.658372314453125,-1.0292510986328125,-0.858734130859375,0.0914154052734375
1726225365041409300,3.6684091796875,-0.7495574951171875,-0.9927215576171875,0.00421142578125
1726225365051446300,3.6784462890625,-0.460418701171875,-0.9718475341796875,-0.0887603759765625
1726225365061484000,3.688484130859375,-0.35858154296875,-0.6915130615234375,-0.014984130859375
1726225365071521300,3.698521240234375,-0.095062255859375,-0.6190948486328125,-0.0094451904296875
1726225365081558300,3.708558349609375,0.082366943359375,-0.8654632568359375,-0.1458282470703125
1726225365091595300,3.71859521484375,-0.4451751708984375,-0.7691497802734375,0.0629730224609375
1726225365101633300,3.72863330078125,-0.7570953369140625,-0.5760040283203125,0.0316619873046875
1726225365111670300,3.738670166015625,-1.0072784423828125,-1.0173492431640625,-0.0709381103515625
1726225365121707300,3.748707275390625,-1.1336212158203125,-1.1844635009765625,0.1479339599609375
1726225365131745000,3.7587451171875,-0.960662841796875,-0.8918609619140625,0.1393280029296875
1726225365141782300,3.7687822265625,-0.7750701904296875,-0.875213623046875,0.0443572998046875
1726225365151819300,3.7788193359375,-0.5558624267578125,-0.7474517822265625,0.0916748046875
1726225365161857000,3.78885693359375,-0.331634521484375,-0.73199462890625,0.018096923828125
1726225365171894300,3.798894287109375,-0.36712646484375,-0.926483154296875,-0.013641357421875
1726225365181931300,3.80893115234375,-0.4245758056640625,-0.8572235107421875,-0.0042877197265625
1726225365191969300,3.81896923828125,-0.6666412353515625,-0.7449188232421875,0.053558349609375
1726225365202006000,3.829006103515625,-0.503448486328125,-0.8688201904296875,0.052642822265625
1726225365212043300,3.839043212890625,-0.4135589599609375,-1.08612060546875,0.00238037109375
1726225365222081300,3.849081298828125,-0.4450836181640625,-0.84698486328125,-0.01995849609375
1726225365232118000,3.859117919921875,-0.5156402587890625,-0.7628173828125,0.0002899169921875
1726225365242155300,3.8691552734375,-0.6016082763671875,-0.925811767578125,-0.09515380859375
1726225365252193300,3.879193359375,-0.682403564453125,-0.6366729736328125,-0.046722412109375
1726225365262230300,3.889230224609375,-0.1796112060546875,-0.529998779296875,-0.0453948974609375
1726225365272267000,3.89926708984375,0.0199737548828125,-1.044219970703125,-0.023956298828125
1726225365282305300,3.90930517578125,0.0121002197265625,-0.86346435546875,-0.1010589599609375
1726225365292342300,3.91934228515625,-0.104705810546875,-0.6967315673828125,-0.0528411865234375
1726225365302379000,3.92937890625,-0.6314239501953125,-1.00286865234375,0.031402587890625
1726225365312417300,3.939417236328125,-0.9909210205078125,-1.0900421142578125,0.063751220703125
1726225365322454300,3.949454345703125,-1.05657958984375,-0.9776763916015625,0.0515899658203125
1726225365332491300,3.9594912109375,-0.8460540771484375,-0.918731689453125,0.0291290283203125
1726225365342529300,3.969529296875,-0.4970855712890625,-0.8233184814453125,-0.0234375
1726225365352566300,3.979566162109375,-0.2015228271484375,-0.9124603271484375,-0.0579376220703125
1726225365362604000,3.98960400390625,-0.4566192626953125,-0.9384765625,-0.0900726318359375
1726225365372641300,3.999641357421875,-0.4991302490234375,-0.7156219482421875,-0.040069580078125
1726225365382678300,4.00967822265625,-0.70989990234375,-0.90960693359375,-0.0123291015625
1726225365392716300,4.01971630859375,-0.7733917236328125,-0.95660400390625,0.02398681640625
1726225365402753000,4.0297529296875,-0.7022552490234375,-0.795867919921875,0.0450592041015625
1726225365412790300,4.039790283203125,-0.661376953125,-0.8300323486328125,0.0028839111328125
1726225365422828300,4.049828369140625,-0.5851593017578125,-0.819549560546875,-0.0275115966796875
1726225365432865000,4.059864990234375,-0.454986572265625,-0.737152099609375,0.0013275146484375
1726225365442902300,4.06990234375,-0.08477783203125,-0.8039398193359375,-0.0288543701171875
1726225365452940300,4.079940185546875,-0.134002685546875,-0.954315185546875,-0.0521697998046875
1726225365462977300,4.089977294921875,-0.79266357421875,-0.752349853515625,-0.0762786865234375
1726225365473014000,4.100013916015625,-0.9313201904296875,-0.7674713134765625,-0.04315185546875
1726225365483052300,4.11005224609375,-1.2891387939453125,-1.1258392333984375,-0.0456695556640625
1726225365493089300,4.12008935546875,-1.2880706787109375,-0.969482421875,-0.0377655029296875
1726225365503127000,4.130126953125,-1.0544891357421875,-0.8855133056640625,-0.0257110595703125
1726225365513164300,4.140164306640625,-0.6670379638671875,-0.9065093994140625,0.0037994384765625
1726225365523201300,4.150201171875,-0.2584075927734375,-0.706817626953125,-0.02789306640625
1726225365533239000,4.160239013671875,-0.0439300537109375,-0.7273406982421875,0.00299072265625
1726225365543276300,4.1702763671875,-0.2220611572265625,-0.682647705078125,0.0054168701171875
1726225365553313300,4.180313232421875,-0.3112945556640625,-0.62591552734375,-0.007293701171875
1726225365563351000,4.19035107421875,-0.612030029296875,-0.88031005859375,0.0671234130859375
1726225365573388000,4.200387939453125,-0.8186798095703125,-0.8091583251953125,0.0791778564453125
1726225365583426300,4.21042626953125,-0.7978057861328125,-0.8179168701171875,0.0763702392578125
1726225365593463300,4.22046337890625,-0.6855926513671875,-0.9809722900390625,0.08575439453125
1726225365603500000,4.2305,-0.6396331787109375,-0.851043701171875,0.011444091796875
1726225365613538300,4.240538330078125,-0.71820068359375,-0.70819091796875,0.033172607421875
1726225365623575300,4.2505751953125,-0.4945220947265625,-0.5569610595703125,0.037384033203125
1726225365633612000,4.260612060546875,-0.1163330078125,-0.7091064453125,0.0094757080078125
1726225365643650300,4.270650390625,-0.1218414306640625,-0.89556884765625,-0.0495452880859375
1726225365653687300,4.280687255859375,-0.2087860107421875,-0.76873779296875,-0.052825927734375
1726225365663725000,4.29072509765625,-0.477447509765625,-0.6541748046875,0.043426513671875
1726225365673762300,4.30076220703125,-0.6629791259765625,-0.8046722412109375,0.013397216796875
1726225365683799300,4.31079931640625,-0.82403564453125,-1.037872314453125,-0.0112762451171875
1726225365693837000,4.320837158203125,-0.8863983154296875,-0.8708343505859375,-0.039764404296875
1726225365703874000,4.3308740234375,-0.8586578369140625,-0.6697998046875,-0.08331298828125
1726225365713912300,4.340912353515625,-0.6380157470703125,-0.809600830078125,0.0262603759765625
1726225365723949300,4.35094921875,-0.1589813232421875,-0.936065673828125,0.0323333740234375
1726225365733986000,4.360986083984375,-0.127838134765625,-0.799835205078125,0.085845947265625
1726225365744024300,4.3710244140625,-0.259796142578125,-0.5713348388671875,0.14495849609375
1726225365754061300,4.381061279296875,-0.425445556640625,-0.7747039794921875,0.1278533935546875
1726225365764099000,4.39109912109375,-0.696197509765625,-1.0075225830078125,0.1121673583984375
1726225365774136300,4.40113623046875,-0.8047637939453125,-0.8717193603515625,0.0811614990234375
1726225365784173300,4.41117333984375,-0.8964996337890625,-0.9071807861328125,0.01580810546875
1726225365794211000,4.421211181640625,-0.7295074462890625,-0.9181060791015625,0.055877685546875
1726225365804248000,4.431248046875,-0.5566864013671875,-0.80364990234375,0.0260467529296875
1726225365814286300,4.441286376953125,-0.2640533447265625,-0.8916473388671875,0.0706634521484375
1726225365824323000,4.451322998046875,0.0088653564453125,-1.054473876953125,0.1684722900390625
1726225365834360000,4.461360107421875,-0.1820526123046875,-1.07452392578125,0.1290283203125
1726225365844398300,4.4713984375,-0.3215789794921875,-0.7550048828125,0.1438140869140625
1726225365854435300,4.481435302734375,-0.639862060546875,-0.9163360595703125,0.1563873291015625
1726225365864473000,4.49147314453125,-0.74542236328125,-1.096099853515625,0.126922607421875
1726225365874510300,4.50151025390625,-0.88970947265625,-0.925384521484375,0.11663818359375
1726225365884547300,4.51154736328125,-0.8265380859375,-0.6864166259765625,0.159454345703125
1726225365894585000,4.521585205078125,-0.5912322998046875,-0.90435791015625,0.2034912109375
1726225365904622300,4.531622314453125,-0.3239288330078125,-1.114471435546875,0.20343017578125
1726225365914660000,4.54166015625,-0.0905303955078125,-0.801727294921875,0.219879150390625
1726225365924697000,4.551697021484375,-0.313201904296875,-0.657745361328125,0.28411865234375
1726225365934734000,4.561734130859375,-0.2858123779296875,-0.8916168212890625,0.19586181640625
1726225365944772400,4.5717724609375,-0.571533203125,-1.0298004150390625,0.160430908203125
1726225365954809000,4.58180908203125,-0.751861572265625,-0.7738494873046875,0.186065673828125
1726225365964847400,4.591847412109375,-0.8090057373046875,-0.844512939453125,0.08203125
1726225365974884400,4.60188427734375,-0.7778167724609375,-0.9565887451171875,0.10321044921875
1726225365984928300,4.61192822265625,-0.6281585693359375,-0.7494659423828125,0.1615753173828125
1726225365994965200,4.62196533203125,-0.3831634521484375,-0.802093505859375,0.1237640380859375
1726225366005002200,4.632002197265625,-0.2077789306640625,-0.853607177734375,0.143890380859375
1726225366015040500,4.64204052734375,-0.3438720703125,-0.812591552734375,0.1846771240234375
1726225366025077200,4.6520771484375,-0.4228973388671875,-0.7913970947265625,0.1318359375
1726225366035115300,4.662115234375,-0.7164459228515625,-0.8303985595703125,0.1460113525390625
1726225366045152500,4.672152587890625,-0.8896331787109375,-0.82025146484375,0.2325592041015625
1726225366055190300,4.682190185546875,-0.8297576904296875,-0.9380950927734375,0.097930908203125
1726225366065227300,4.692227294921875,-0.7793121337890625,-0.87548828125,0.1298828125
1726225366075264500,4.702264404296875,-0.6443328857421875,-0.65057373046875,0.251922607421875
1726225366085302300,4.71230224609375,-0.3831939697265625,-0.7342681884765625,0.1720428466796875
1726225366095339300,4.72233935546875,-0.2135162353515625,-0.77984619140625,0.1469573974609375
1726225366105377500,4.73237744140625,-0.2850341796875,-0.7245635986328125,0.25421142578125
1726225366115414300,4.742414306640625,-0.5365753173828125,-0.796539306640625,0.1362152099609375
1726225366125452300,4.752452392578125,-0.679443359375,-0.8315887451171875,0.0943145751953125
1726225366135489300,4.7624892578125,-0.7507476806640625,-0.876617431640625,0.1668243408203125
1726225366145526500,4.772526611328125,-0.7664031982421875,-0.9145355224609375,0.011688232421875
1726225366155564300,4.782564208984375,-0.786346435546875,-0.837890625,0.03485107421875
1726225366165601300,4.792601318359375,-0.667144775390625,-0.7765350341796875,0.081207275390625
1726225366175639300,4.802639404296875,-0.2645263671875,-0.836822509765625,-0.06390380859375
1726225366185676300,4.81267626953125,-0.401580810546875,-0.8406524658203125,0.02288818359375
1726225366195714300,4.82271435546875,-0.55419921875,-0.6389007568359375,0.12005615234375
1726225366205751300,4.832751220703125,-0.873992919921875,-0.7464752197265625,-0.0182037353515625
1726225366215788300,4.842788330078125,-1.0919952392578125,-0.7618560791015625,0.055908203125
1726225366225826300,4.852826416015625,-0.9537353515625,-0.8180694580078125,-0.02301025390625
1726225366235863600,4.862863525390625,-0.7932281494140625,-1.0773468017578125,-0.0825653076171875
1726225366245901300,4.8729013671875,-0.65643310546875,-0.778045654296875,-0.036895751953125
1726225366255938300,4.882938232421875,-0.46002197265625,-0.573150634765625,-0.032623291015625
1726225366265976300,4.892976318359375,0.037689208984375,-0.908782958984375,-0.048553466796875
1726225366276013300,4.903013427734375,-0.2183074951171875,-0.978973388671875,0.084320068359375
1726225366286051300,4.91305126953125,-0.4685211181640625,-0.5769500732421875,-0.004913330078125
1726225366296088300,4.92308837890625,-0.859832763671875,-0.737945556640625,0.0446319580078125
1726225366306126300,4.933126220703125,-0.8778076171875,-1.062225341796875,0.1535491943359375
1726225366316163300,4.943163330078125,-0.7700347900390625,-1.070892333984375,0.009552001953125
1726225366326200300,4.953200439453125,-0.82196044921875,-0.8990325927734375,0.093658447265625
1726225366336238300,4.96323828125,-0.7538604736328125,-0.6917266845703125,0.1034393310546875
1726225366346275300,4.973275390625,-0.368499755859375,-0.9334259033203125,0.0267486572265625
1726225366356313300,4.983313232421875,0.0640716552734375,-1.044647216796875,0.0923004150390625
1726225366366350300,4.993350341796875,-0.1402587890625,-0.61688232421875,0.025909423828125
1726225366376388400,5.003388427734375,-0.103729248046875,-0.5166015625,0.00823974609375
1726225366386425300,5.01342529296875,-0.3252410888671875,-0.9739837646484375,0.041534423828125
1726225366396463400,5.02346337890625,-0.55670166015625,-0.8520965576171875,0.000823974609375
1726225366406500400,5.033500244140625,-0.6980438232421875,-0.7309417724609375,0.024505615234375
1726225366416538000,5.0435380859375,-0.7939605712890625,-1.0221710205078125,0.0581817626953125
1726225366426575400,5.053575439453125,-0.7498626708984375,-0.8800506591796875,0.0071868896484375
1726225366436612400,5.0636123046875,-0.531036376953125,-0.8085784912109375,0.09429931640625
1726225366446650400,5.073650390625,-0.28790283203125,-1.0241851806640625,0.1221771240234375
1726225366456687400,5.083687255859375,-0.3584747314453125,-0.767974853515625,0.0731964111328125
1726225366466725400,5.093725341796875,-0.3405609130859375,-0.64208984375,0.052154541015625
1726225366476762400,5.103762451171875,-0.470703125,-0.9772796630859375,0.1108245849609375
1726225366486800400,5.11380029296875,-0.5330810546875,-0.822601318359375,0.066925048828125
1726225366496837400,5.12383740234375,-0.6175689697265625,-0.7454833984375,0.04833984375
1726225366506875400,5.13387548828125,-0.6641998291015625,-0.890380859375,0.0278167724609375
1726225366516912000,5.143912109375,-0.65869140625,-0.706787109375,-0.02764892578125
1726225366526950400,5.153950439453125,-0.4918212890625,-0.717132568359375,-0.0286865234375
1726225366536987400,5.1639873046875,-0.1624755859375,-1.052093505859375,-0.00946044921875
1726225366547025400,5.174025390625,-0.3137664794921875,-0.918975830078125,-0.00970458984375
1726225366557062400,5.1840625,-0.4985198974609375,-0.6460418701171875,-0.0214080810546875
1726225366567100200,5.19410009765625,-0.67425537109375,-1.0017242431640625,0.062469482421875
1726225366577137200,5.20413720703125,-0.891357421875,-1.017578125,0.0304718017578125
1726225366587175400,5.214175537109375,-0.94635009765625,-0.7280426025390625,-0.02862548828125
1726225366597212400,5.22421240234375,-0.9257049560546875,-0.8509521484375,0.000701904296875
1726225366607250400,5.23425048828125,-0.6385040283203125,-0.7183380126953125,-0.04925537109375
1726225366617287400,5.244287353515625,-0.372528076171875,-0.843353271484375,-0.01263427734375
1726225366627324400,5.254324462890625,-0.0895538330078125,-1.0091400146484375,-0.028106689453125
1726225366637362200,5.264362060546875,-0.39599609375,-0.6869964599609375,0.0099639892578125
1726225366647399400,5.2743994140625,-0.658050537109375,-0.5759124755859375,0.1121368408203125
1726225366657437400,5.2844375,-0.955596923828125,-1.00396728515625,0.10772705078125
1726225366667474200,5.29447412109375,-1.294403076171875,-0.944854736328125,0.1620025634765625
1726225366677512400,5.304512451171875,-1.138214111328125,-0.73101806640625,0.14654541015625
1726225366687549400,5.314549560546875,-0.876007080078125,-1.007965087890625,0.06622314453125
1726225366697587200,5.324587158203125,-0.57135009765625,-0.8297119140625,0.0968017578125
1726225366707624400,5.33462451171875,-0.326019287109375,-0.6060791015625,0.06793212890625
1726225366717662200,5.344662109375,0.0753173828125,-0.7249755859375,-0.0306243896484375
1726225366727699200,5.35469921875,-0.2203521728515625,-0.7769775390625,0.1411895751953125
1726225366737737500,5.364737548828125,-0.4214019775390625,-0.6105499267578125,0.09649658203125
1726225366747774500,5.3747744140625,-0.9178466796875,-0.746826171875,0.09564208984375
1726225366757812200,5.384812255859375,-1.1474151611328125,-0.81298828125,0.16162109375
1726225366767849500,5.394849365234375,-1.0478668212890625,-1.0148773193359375,0.093353271484375
1726225366777887200,5.40488720703125,-0.827484130859375,-1.086517333984375,0.039947509765625
1726225366787924200,5.41492431640625,-0.7066802978515625,-0.7863922119140625,-0.0053253173828125
1726225366797962500,5.42496240234375,-0.3990325927734375,-0.64288330078125,-0.076080322265625
1726225366807999500,5.43499951171875,-0.0080108642578125,-0.923614501953125,0.0185546875
1726225366818037200,5.445037353515625,-0.174896240234375,-0.85498046875,-0.01910400390625
1726225366828074500,5.455074462890625,-0.4648590087890625,-0.531494140625,0.0552520751953125
1726225366838112300,5.4651123046875,-0.795318603515625,-0.6880035400390625,0.0759429931640625
1726225366848149200,5.475149169921875,-0.8898773193359375,-0.9577484130859375,0.0178070068359375
1726225366858187500,5.4851875,-0.837860107421875,-0.9361724853515625,-0.0096435546875
1726225366868224300,5.495224365234375,-0.7627105712890625,-0.888336181640625,-0.02459716796875
1726225366878262300,5.50526220703125,-0.7109222412109375,-0.8391571044921875,-0.0150146484375
1726225366888299300,5.51529931640625,-0.2449798583984375,-0.7391357421875,0.0104522705078125
1726225366898337300,5.525337158203125,0.040985107421875,-0.9622650146484375,-0.01214599609375
1726225366908374300,5.535374267578125,-0.10870361328125,-0.833648681640625,0.089263916015625
1726225366918412500,5.54541259765625,-0.2973785400390625,-0.6349334716796875,0.1365814208984375
1726225366928449300,5.55544921875,-0.531494140625,-0.87322998046875,0.0767059326171875
1726225366938487300,5.5654873046875,-0.69970703125,-0.9428558349609375,0.1192474365234375
1726225366948524300,5.575524169921875,-0.7287750244140625,-0.8920440673828125,0.06195068359375
1726225366958562300,5.585562255859375,-0.772552490234375,-0.96856689453125,-0.01849365234375
1726225366968599300,5.595599365234375,-0.6746673583984375,-0.7339324951171875,-0.0063323974609375
1726225366978637300,5.60563720703125,-0.208160400390625,-0.88763427734375,0.0625457763671875
1726225366988668200,5.615668212890625,-0.0045318603515625,-1.1356658935546875,-0.017608642578125
1726225366998706200,5.6257060546875,-0.210845947265625,-0.7233123779296875,0.0347137451171875
1726225367008744000,5.635743896484375,-0.4373779296875,-0.634765625,0.16400146484375
1726225367018781200,5.64578125,-0.640167236328125,-1.000030517578125,0.0792083740234375
1726225367028819200,5.655819091796875,-0.8098907470703125,-0.959381103515625,0.0946807861328125
1726225367038856000,5.66585595703125,-0.912994384765625,-0.8000640869140625,0.08282470703125
1726225367048894200,5.675894287109375,-0.8893280029296875,-0.8969268798828125,0.0340728759765625
1726225367058931200,5.68593115234375,-0.58197021484375,-0.8228607177734375,0.040496826171875
1726225367068969000,5.695968994140625,0.0406341552734375,-1.021759033203125,0.02825927734375
1726225367079006200,5.706006103515625,0.037933349609375,-1.0161285400390625,0.000732421875
1726225367089044000,5.7160439453125,-0.0792236328125,-0.5193023681640625,0.1333160400390625
1726225367099081000,5.7260810546875,-0.302398681640625,-0.7233123779296875,0.1559906005859375
1726225367109119200,5.736119140625,-0.6319427490234375,-1.000579833984375,0.1029205322265625
1726225367119156200,5.74615625,-0.9694366455078125,-0.837860107421875,0.1545562744140625
1726225367129194000,5.756194091796875,-1.0299835205078125,-0.8409881591796875,0.1229095458984375
1726225367139231200,5.766231201171875,-0.9823760986328125,-0.872344970703125,0.1287841796875
1726225367149269000,5.77626904296875,-0.5705108642578125,-0.909332275390625,0.0977020263671875
1726225367159306000,5.786305908203125,-0.2440643310546875,-1.0848236083984375,0.03839111328125
1726225367169344300,5.79634423828125,-0.384521484375,-0.8437347412109375,0.0792236328125
1726225367179381200,5.80638134765625,-0.4910736083984375,-0.6086273193359375,0.1600494384765625
1726225367189419000,5.8164189453125,-0.76953125,-0.946807861328125,0.15521240234375
1726225367199456000,5.8264560546875,-0.881439208984375,-0.8986053466796875,0.119842529296875
1726225367209494000,5.836493896484375,-0.823516845703125,-0.718353271484375,0.109100341796875
1726225367219532000,5.846531982421875,-0.7600250244140625,-0.86822509765625,0.093780517578125
1726225367229569300,5.8565693359375,-0.6878814697265625,-0.65838623046875,0.0215911865234375
1726225367239607000,5.86660693359375,-0.32330322265625,-0.6017913818359375,0.0414886474609375
1726225367249644000,5.87664404296875,-0.3307037353515625,-1.02520751953125,0.133270263671875
1726225367259682300,5.886682373046875,-0.4771575927734375,-0.7834625244140625,0.0494384765625
1726225367269719000,5.896718994140625,-0.8025970458984375,-0.667938232421875,0.1623687744140625
1726225367279757000,5.906757080078125,-0.9133453369140625,-0.9423370361328125,0.119598388671875
1726225367289794000,5.9167939453125,-0.8697357177734375,-1.025115966796875,0.0240478515625
1726225367299832000,5.92683203125,-0.7798309326171875,-0.88330078125,0.0887603759765625
1726225367309869000,5.936869140625,-0.7438201904296875,-0.779266357421875,0.0206756591796875
1726225367319907000,5.946906982421875,-0.54376220703125,-0.641326904296875,-0.0607147216796875
1726225367329944000,5.956944091796875,-0.2985687255859375,-0.75653076171875,0.0821533203125
1726225367339982000,5.966982177734375,-0.3263092041015625,-0.8474273681640625,0.0830535888671875
1726225367350020000,5.97702001953125,-0.4327545166015625,-0.72222900390625,0.0271759033203125
1726225367360057000,5.98705712890625,-0.631439208984375,-0.709930419921875,0.026763916015625
1726225367370095000,5.99709521484375,-0.680419921875,-0.8264923095703125,-0.0428466796875
1726225367380132000,6.007132080078125,-0.645965576171875,-0.9375457763671875,-0.06121826171875
1726225367390170000,6.017170166015625,-0.6363525390625,-0.8722991943359375,-0.018310546875
1726225367400207000,6.02720703125,-0.79925537109375,-0.650634765625,-0.06451416015625
1726225367410245000,6.0372451171875,-0.606231689453125,-0.5935821533203125,-0.015045166015625
1726225367420282000,6.0472822265625,0.145751953125,-0.78515625,-0.019500732421875
1726225367430320000,6.057320068359375,0.036834716796875,-0.8459930419921875,-0.03369140625
1726225367440358100,6.067358154296875,-0.145599365234375,-0.5184478759765625,0.128692626953125
1726225367450395100,6.07739501953125,-0.5908203125,-0.6674346923828125,0.0785675048828125
1726225367460433000,6.087432861328125,-0.9199981689453125,-1.0893402099609375,0.0738067626953125
1726225367470470100,6.09747021484375,-1.1728057861328125,-1.1467437744140625,0.152496337890625
1726225367480508200,6.107508056640625,-1.0602569580078125,-1.0253143310546875,0.0258331298828125
1726225367490545200,6.117545166015625,-0.8389892578125,-0.9609832763671875,0.0825347900390625
1726225367500583200,6.127583251953125,-0.3495635986328125,-0.90679931640625,0.1271209716796875
1726225367510620200,6.1376201171875,-0.20745849609375,-0.964752197265625,0.0884246826171875
1726225367520658000,6.147657958984375,-0.20184326171875,-0.8255767822265625,0.1371917724609375
1726225367530696200,6.1576962890625,-0.3650054931640625,-0.6586761474609375,0.0798492431640625
1726225367540733200,6.167733154296875,-0.45965576171875,-0.852935791015625,0.0878753662109375
1726225367550771000,6.17777099609375,-0.593170166015625,-0.9245147705078125,0.0841064453125
1726225367560808200,6.18780810546875,-0.64996337890625,-0.7503662109375,0.0035552978515625
1726225367570846200,6.19784619140625,-0.6961669921875,-0.81622314453125,-0.01068115234375
1726225367580883000,6.207883056640625,-0.5071563720703125,-1.0179595947265625,0.04058837890625
1726225367590921200,6.217921142578125,0.00543212890625,-0.9707489013671875,0.0207366943359375
1726225367600959000,6.227958984375,-0.0347900390625,-0.886749267578125,0.0135345458984375
1726225367610996000,6.237995849609375,-0.1919403076171875,-0.6945343017578125,0.0623626708984375
1726225367621034200,6.2480341796875,-0.4998016357421875,-0.8525543212890625,0.040191650390625
1726225367631071000,6.258071044921875,-0.8875732421875,-0.907562255859375,0.0405731201171875
1726225367641109000,6.26810888671875,-1.0593109130859375,-0.7835235595703125,0.119659423828125
1726225367651146200,6.278146240234375,-1.05487060546875,-0.921630859375,0.074859619140625
1726225367661184000,6.28818408203125,-0.7705841064453125,-0.950958251953125,0.0282135009765625
1726225367671221000,6.298220947265625,-0.3370819091796875,-0.8779754638671875,0.1110687255859375
1726225367681259300,6.30825927734375,-0.1483612060546875,-0.848236083984375,-0.016937255859375
1726225367691297000,6.318297119140625,-0.317840576171875,-0.7328948974609375,0.0356597900390625
1726225367701334000,6.328333984375,-0.4364776611328125,-0.7241668701171875,0.0843963623046875
1726225367711372000,6.3383720703125,-0.82904052734375,-0.8863372802734375,-0.003662109375
1726225367721409000,6.348408935546875,-0.961883544921875,-0.80126953125,0.073883056640625
1726225367731447000,6.358447021484375,-0.9309844970703125,-0.9753570556640625,0.0970001220703125
1726225367741484300,6.368484375,-0.8648681640625,-0.8976898193359375,0.0391082763671875
1726225367751522000,6.37852197265625,-0.6496429443359375,-0.5604095458984375,-0.031707763671875
1726225367761560300,6.388560302734375,-0.053558349609375,-0.65484619140625,0.017669677734375
1726225367771597000,6.39859716796875,0.19366455078125,-0.8116912841796875,0.0042877197265625
1726225367781635000,6.408635009765625,-0.054595947265625,-0.606658935546875,0.0412750244140625
1726225367791672000,6.418672119140625,-0.6292724609375,-0.5207366943359375,0.1438751220703125
1726225367801710000,6.4287099609375,-1.0447540283203125,-0.8432769775390625,0.1739959716796875
1726225367811748000,6.438748046875,-1.119537353515625,-1.1736602783203125,0.128875732421875
1726225367821785000,6.44878515625,-1.111083984375,-1.0527801513671875,0.246490478515625
1726225367831823000,6.458822998046875,-0.8856201171875,-0.6402435302734375,0.13580322265625
1726225367841860000,6.468860107421875,-0.5160064697265625,-0.8728485107421875,0.1269683837890625
1726225367851898000,6.478898193359375,-0.3209381103515625,-0.9869842529296875,0.1206512451171875
1726225367861935000,6.48893505859375,-0.300933837890625,-0.7078094482421875,0.0318145751953125
1726225367871973000,6.49897314453125,-0.4736175537109375,-0.6343841552734375,0.108917236328125
1726225367882011100,6.50901123046875,-0.647064208984375,-0.7792816162109375,0.1011962890625
1726225367892048100,6.519048095703125,-0.659576416015625,-0.8189849853515625,0.1150970458984375
1726225367902086100,6.529086181640625,-0.7052154541015625,-0.8656463623046875,0.144989013671875
1726225367912123100,6.539123046875,-0.8776702880859375,-0.8426055908203125,0.01092529296875
1726225367922161200,6.5491611328125,-0.7300567626953125,-0.6735382080078125,-0.0056304931640625
1726225367932199000,6.559198974609375,-0.2404937744140625,-0.9119415283203125,-0.0371246337890625
1726225367942236200,6.569236083984375,-0.161773681640625,-0.95477294921875,-0.08099365234375
1726225367952274200,6.579274169921875,-0.188323974609375,-0.619415283203125,-0.0550079345703125
1726225367962311000,6.589310791015625,-0.392364501953125,-0.7323150634765625,0.027435302734375
1726225367972349200,6.59934912109375,-0.545867919921875,-0.864227294921875,0.0401153564453125
1726225367982386200,6.60938623046875,-0.7032623291015625,-0.81524658203125,0.047119140625
1726225367992429800,6.619429931640625,-0.820526123046875,-0.90863037109375,0.1197052001953125
1726225368002467800,6.6294677734375,-0.8278045654296875,-0.748809814453125,0.0897216796875
1726225368012504800,6.6395048828125,-0.578277587890625,-0.5723876953125,0.046966552734375
1726225368022542600,6.64954248046875,-0.37042236328125,-0.996795654296875,0.0833740234375
1726225368032579800,6.659579833984375,-0.287322998046875,-1.005401611328125,0.0009002685546875
1726225368042617900,6.669617919921875,-0.3487396240234375,-0.7565460205078125,0.0705413818359375
1726225368052655600,6.679655517578125,-0.5857696533203125,-0.7781982421875,0.1474609375
1726225368062692900,6.68969287109375,-0.60894775390625,-0.8165435791015625,0.151580810546875
1726225368072731000,6.69973095703125,-0.6774139404296875,-0.8885345458984375,0.1453857421875
1726225368082767600,6.709767578125,-0.83050537109375,-0.773101806640625,0.1061859130859375
1726225368092806000,6.719805908203125,-0.78509521484375,-0.5235748291015625,0.1347503662109375
1726225368102843600,6.72984375,-0.2523651123046875,-0.83404541015625,0.0607452392578125
1726225368112880600,6.739880615234375,0.2384185791015625,-1.0603179931640625,-0.0008697509765625
1726225368122919000,6.7499189453125,-0.253997802734375,-0.659820556640625,0.090301513671875
1726225368132956000,6.759955810546875,-0.28118896484375,-0.7114715576171875,0.1229095458984375
1726225368142993700,6.76999365234375,-1.5189056396484375,-1.214447021484375,0.2239837646484375
1726225368153032000,6.780031982421875,-1.2098541259765625,-1.16455078125,0.2590789794921875
1726225368163068700,6.790068603515625,-1.6796722412109375,-1.340667724609375,0.1376495361328125
1726225368173107000,6.80010693359375,-1.6273193359375,-0.862030029296875,0.1818695068359375
1726225368183144000,6.81014404296875,-0.594696044921875,-1.1375579833984375,0.157958984375
1726225368193181700,6.820181640625,0.5914459228515625,-1.0824127197265625,-0.055877685546875
1726225368203220000,6.830219970703125,0.6723480224609375,-0.4547119140625,0.0235595703125
1726225368213257000,6.840257080078125,0.4585418701171875,-0.31524658203125,0.11553955078125
1726225368223294700,6.850294677734375,0.0365447998046875,-0.69390869140625,0.110321044921875
1726225368233331700,6.860331787109375,-0.8316802978515625,-0.8319549560546875,0.0388946533203125
1726225368243369700,6.87036962890625,-1.5671844482421875,-0.87249755859375,0.296173095703125
1726225368253407700,6.88040771484375,-1.308990478515625,-1.116119384765625,-0.04815673828125
1726225368263445000,6.890445068359375,-1.33917236328125,-0.990081787109375,-0.00335693359375
1726225368273482800,6.900482666015625,-0.2315216064453125,-0.7210540771484375,-0.0059661865234375
1726225368283519700,6.910519775390625,-0.3022003173828125,-0.99859619140625,-0.0558013916015625
1726225368293557800,6.920557861328125,-0.267547607421875,-0.625946044921875,0.1462554931640625
1726225368303595800,6.930595703125,-0.436431884765625,-0.63336181640625,0.1036834716796875
1726225368313632800,6.9406328125,-0.398193359375,-0.5734710693359375,0.1026458740234375
1726225368323670800,6.9506708984375,-0.523651123046875,-0.776580810546875,0.23345947265625
1726225368333707800,6.960707763671875,-1.0062255859375,-0.82928466796875,0.082733154296875
1726225368343745800,6.970745849609375,-1.1009063720703125,-0.5955352783203125,0.182037353515625
1726225368353783800,6.98078369140625,-1.1574554443359375,-0.895355224609375,0.2435302734375
1726225368363820800,6.99082080078125,-0.51092529296875,-1.1605987548828125,0.0536956787109375
1726225368373858800,7.00085888671875,-0.178802490234375,-1.020050048828125,-0.0169219970703125
1726225368383895800,7.010895751953125,0.139862060546875,-0.5392608642578125,-0.0032958984375
1726225368393933800,7.020933837890625,-0.3986358642578125,-0.59600830078125,0.0199127197265625
1726225368403971800,7.030971923828125,-0.6232757568359375,-0.7805633544921875,-0.0663909912109375
1726225368414008800,7.0410087890625,-1.3319549560546875,-0.9093780517578125,0.04266357421875
1726225368424046800,7.051046875,-1.22552490234375,-0.709991455078125,-0.0247650146484375
1726225368434083600,7.06108349609375,-1.109710693359375,-0.8732452392578125,0.070404052734375
1726225368444121900,7.071121826171875,0.1809234619140625,-1.1680908203125,0.1310272216796875
1726225368454159600,7.08115966796875,0.1031951904296875,-0.8584747314453125,-0.1047821044921875
1726225368464196600,7.091196533203125,0.1400146484375,-0.6699371337890625,-0.005706787109375
1726225368474235000,7.10123486328125,-0.301605224609375,-1.00518798828125,0.078277587890625
1726225368484271900,7.11127197265625,-0.8788604736328125,-1.0206146240234375,-0.093353271484375
1726225368494310000,7.121309814453125,-1.1512298583984375,-1.0401153564453125,-0.0092620849609375
1726225368504348000,7.131347900390625,-1.4587554931640625,-0.923309326171875,0.233123779296875
1726225368514384600,7.141384521484375,-0.951080322265625,-0.5137939453125,0.0370330810546875
1726225368524423000,7.1514228515625,0.11846923828125,-0.800933837890625,0.0655059814453125
1726225368534460000,7.1614599609375,-0.04412841796875,-0.8507843017578125,0.0562896728515625
1726225368544497700,7.17149755859375,-0.0106048583984375,-0.5806732177734375,-0.0576934814453125
1726225368554536000,7.181535888671875,-0.595916748046875,-0.7530670166015625,0.005645751953125
1726225368564573000,7.191572998046875,-0.69757080078125,-0.862030029296875,0.0862579345703125
1726225368574610700,7.201610595703125,-0.803253173828125,-1.13677978515625,0.0172119140625
1726225368584649000,7.21164892578125,-0.7825164794921875,-1.168243408203125,0.0189056396484375
1726225368594685700,7.221685791015625,-0.85650634765625,-0.7838287353515625,0.0136260986328125
1726225368604723700,7.2317236328125,-0.32501220703125,-0.722076416015625,0.050537109375
1726225368614761000,7.241760986328125,0.3781890869140625,-1.037628173828125,0.0580596923828125
1726225368624798700,7.251798828125,0.114837646484375,-0.7371978759765625,0.0849456787109375
1726225368634837000,7.2618369140625,-0.326995849609375,-0.2180938720703125,0.0436859130859375
1726225368644874000,7.2718740234375,-1.0162200927734375,-0.88714599609375,0.0904541015625
1726225368654911700,7.281911865234375,-0.780792236328125,-1.4302978515625,0.1026611328125
1726225368664948700,7.29194873046875,-0.84686279296875,-1.11444091796875,0.0650787353515625
1726225368674986800,7.30198681640625,-0.70147705078125,-0.4813232421875,0.0400390625
1726225368685024800,7.312024658203125,-0.5484466552734375,-0.77984619140625,0.08026123046875
1726225368695061800,7.322061767578125,-0.1885528564453125,-1.0291900634765625,0.1198883056640625
1726225368705099800,7.332099853515625,-0.3760528564453125,-0.6966552734375,0.1175994873046875
1726225368715137800,7.3421376953125,-0.28900146484375,-0.4527435302734375,-0.045806884765625
1726225368725174800,7.3521748046875,-0.7332305908203125,-0.8464508056640625,0.085662841796875
1726225368735212800,7.362212890625,-0.2568359375,-1.186767578125,0.0294952392578125
1726225368745249800,7.372249755859375,-0.8547210693359375,-0.951568603515625,-0.219482421875
1726225368755287800,7.382287841796875,-0.8607940673828125,-0.6210479736328125,-0.002197265625
1726225368765325800,7.392325927734375,-0.7346954345703125,-0.854095458984375,0.04449462890625
1726225368775362800,7.40236279296875,-0.7630767822265625,-0.8521270751953125,0.0557708740234375
1726225368785400800,7.41240087890625,-0.585723876953125,-0.81646728515625,-0.0207061767578125
1726225368795438800,7.42243896484375,-0.56964111328125,-1.1061553955078125,-0.0545806884765625
1726225368805475600,7.4324755859375,-0.6844024658203125,-0.839935302734375,-0.0345306396484375
1726225368815513900,7.442513916015625,0.127227783203125,-0.8611602783203125,-0.0145111083984375
1726225368825550800,7.45255078125,-0.012237548828125,-0.7044677734375,-0.1236419677734375
1726225368835588600,7.462588623046875,-0.5143280029296875,-0.370849609375,-0.093017578125
1726225368845627000,7.472626953125,-1.1295623779296875,-0.514312744140625,0.0554351806640625
1726225368855663900,7.482663818359375,-1.167205810546875,-0.7129669189453125,0.075042724609375
1726225368865702000,7.492701904296875,-0.645843505859375,-1.1878509521484375,0.0523223876953125
1726225368875739000,7.50273876953125,-0.4747314453125,-1.056884765625,0.039947509765625
1726225368885776600,7.512776611328125,-0.85321044921875,-0.541717529296875,0.13995361328125
1726225368895815000,7.52281494140625,-0.36798095703125,-0.870452880859375,0.163055419921875
1726225368905852000,7.532851806640625,-0.4984130859375,-0.9862060546875,0.0580902099609375
1726225368915889700,7.5428896484375,-0.557342529296875,-0.6603240966796875,0.228363037109375
1726225368925928000,7.552927978515625,-0.9177093505859375,-0.3212432861328125,0.1131591796875
1726225368935965000,7.56296484375,-0.4750823974609375,-0.663970947265625,0.0785980224609375
1726225368946002700,7.573002685546875,-0.3303375244140625,-0.951202392578125,0.0893707275390625
1726225368956040000,7.5830400390625,-0.5850067138671875,-0.91278076171875,0.183074951171875
1726225368966077700,7.59307763671875,-0.9947509765625,-0.750762939453125,0.20953369140625
1726225368976115700,7.60311572265625,-0.8233795166015625,-0.9932403564453125,0.244171142578125
1726225368986153000,7.613153076171875,-0.60797119140625,-0.9667510986328125,0.2055511474609375
1726225368996188000,7.62318798828125,-0.5886077880859375,-0.79449462890625,0.261871337890625
1726225369006226200,7.63322607421875,-0.2978668212890625,-0.8047332763671875,0.179779052734375
1726225369016263000,7.643262939453125,0.095550537109375,-0.8677978515625,0.1867218017578125
1726225369026301000,7.653301025390625,-0.248443603515625,-0.6886138916015625,0.03497314453125
1726225369036338000,7.663337890625,-0.8480987548828125,-0.5697479248046875,-0.1487579345703125
1726225369046376000,7.6733759765625,-0.83795166015625,-0.9287872314453125,-0.0322113037109375
1726225369056414000,7.6834140625,-0.6847076416015625,-1.0284576416015625,0.0115203857421875
1726225369066451200,7.693451171875,-0.97454833984375,-0.6223602294921875,-0.0264892578125
1726225369076489000,7.703489013671875,-0.3043670654296875,-0.9162139892578125,0.0534820556640625
1726225369086527000,7.71352685546875,-0.6152496337890625,-0.924957275390625,0.1275634765625
1726225369096564000,7.72356396484375,-0.5919036865234375,-0.408721923828125,0.117401123046875
1726225369106602000,7.73360205078125,-0.368682861328125,-1.023162841796875,0.0184326171875
1726225369116639700,7.7436396484375,-0.813262939453125,-1.42340087890625,-0.1104888916015625
1726225369126677000,7.753677001953125,-0.63983154296875,-1.0504608154296875,-0.0713348388671875
1726225369136715000,7.763715087890625,-1.255279541015625,-0.5035400390625,-0.0137786865234375
1726225369146752000,7.773751953125,-1.1803131103515625,-0.364654541015625,0.0752716064453125
1726225369156790000,7.7837900390625,-0.4523468017578125,-1.1545562744140625,0.172607421875
1726225369166828000,7.793828125,-0.1783447265625,-1.267730712890625,0.1826629638671875
1726225369176864800,7.80386474609375,0.076263427734375,-0.5022735595703125,0.0731658935546875
1726225369186903000,7.813903076171875,0.452789306640625,-0.7265625,-0.0111083984375
1726225369196940800,7.82394091796875,-0.1390228271484375,-0.85467529296875,0.1961517333984375
1726225369206977800,7.833977783203125,-0.7171630859375,-0.684967041015625,0.2182159423828125
1726225369217016000,7.84401611328125,-0.7659759521484375,-0.7284393310546875,-0.1216888427734375
1726225369227052800,7.854052734375,-1.3996124267578125,-0.9783172607421875,-0.0006103515625
1726225369237091000,7.864091064453125,-0.6972808837890625,-1.11474609375,0.13861083984375
1726225369247129000,7.874129150390625,-0.7394256591796875,-1.42645263671875,0.078033447265625
1726225369257165800,7.884165771484375,-0.3090667724609375,-0.382781982421875,0.081787109375
1726225369267204000,7.8942041015625,0.094482421875,-0.4832611083984375,0.08221435546875
1726225369277241900,7.904241943359375,0.60009765625,-1.084320068359375,0.0568695068359375
1726225369287278800,7.91427880859375,-0.1502685546875,-0.795074462890625,-0.068115234375
1726225369297317000,7.924317138671875,-0.6325225830078125,-0.2468719482421875,-0.038665771484375
1726225369307355000,7.93435498046875,-1.4298095703125,-0.82867431640625,0.168243408203125
1726225369317392000,7.944391845703125,-1.376800537109375,-1.4916839599609375,0.232421875
1726225369327430000,7.954429931640625,-1.2524566650390625,-1.3846588134765625,0.2274322509765625
1726225369337467000,7.964466796875,-0.5758819580078125,-0.451385498046875,0.2750701904296875
1726225369347505000,7.9745048828125,-0.112213134765625,-0.8079986572265625,0.145782470703125
1726225369357543000,7.98454296875,0.356597900390625,-1.2155609130859375,-0.1036376953125
1726225369367580000,7.994579833984375,0.21173095703125,-0.5517120361328125,-0.0316619873046875
1726225369377618200,8.0046181640625,-0.406646728515625,-0.15045166015625,0.04534912109375
1726225369387656000,8.014656005859376,-1.0415802001953125,-0.703277587890625,0.1371917724609375
1726225369397693000,8.02469287109375,-0.784393310546875,-1.2064971923828125,0.10125732421875
1726225369407731000,8.03473095703125,-0.890655517578125,-1.1467437744140625,0.050048828125
1726225369417769000,8.04476904296875,-0.6235809326171875,-0.6649169921875,0.0437164306640625
1726225369427806000,8.054805908203125,-0.396728515625,-0.8119049072265625,0.13018798828125
1726225369437844000,8.064843994140626,0.0944976806640625,-0.7158203125,0.052398681640625
1726225369447881000,8.074880859375,0.0100860595703125,-0.7061920166015625,0.0345916748046875
1726225369457919000,8.0849189453125,-0.8643646240234375,-0.66583251953125,0.1882171630859375
1726225369467957000,8.09495703125,-1.3580474853515625,-0.889434814453125,0.026824951171875
1726225369477994000,8.104993896484375,-1.4880218505859375,-1.0358428955078125,-0.04339599609375
1726225369488031700,8.11503173828125,-1.0593719482421875,-0.811492919921875,0.17010498046875
1726225369498070000,8.125070068359374,-0.859100341796875,-0.721588134765625,0.0653533935546875
1726225369508107000,8.13510693359375,-0.43310546875,-0.8189544677734375,0.028900146484375
1726225369518144800,8.145144775390625,0.279205322265625,-0.84979248046875,0.090972900390625
1726225369528183000,8.15518310546875,-0.2735595703125,-0.5982666015625,-0.0937042236328125
1726225369538220000,8.165219970703125,-0.81427001953125,-0.5834197998046875,0.2459869384765625
1726225369548258000,8.175258056640626,-0.4382476806640625,-1.0965728759765625,-0.00067138671875
1726225369558296000,8.185296142578125,-0.8275909423828125,-0.91961669921875,0.0659637451171875
1726225369568332800,8.195332763671875,-0.9533843994140625,-0.438018798828125,0.2502899169921875
1726225369578371000,8.20537109375,-0.9321441650390625,-0.7672576904296875,0.16015625
1726225369588408000,8.215407958984375,-0.651214599609375,-0.8846282958984375,0.0855255126953125
1726225369598445800,8.22544580078125,-0.3043670654296875,-0.980438232421875,0.1473388671875
1726225369608484000,8.235484130859374,-0.729888916015625,-0.82666015625,0.135345458984375
1726225369618521000,8.24552099609375,-0.289581298828125,-0.9201202392578125,0.21722412109375
1726225369628558800,8.255558837890625,-0.40850830078125,-1.2515869140625,0.018707275390625
1726225369638597000,8.26559716796875,-0.6534423828125,-0.615142822265625,0.021484375
1726225369648633900,8.2756337890625,-0.605865478515625,-0.5292510986328125,0.1129150390625
1726225369658671900,8.285671875,-0.020263671875,-0.648834228515625,0.0330963134765625
1726225369668710000,8.2957099609375,-0.3433837890625,-0.63897705078125,0.10992431640625
1726225369678747000,8.305746826171875,-1.323150634765625,-0.617156982421875,0.062225341796875
1726225369688785200,8.31578515625,-1.316497802734375,-0.8726806640625,0.0417938232421875
1726225369698823000,8.325822998046876,-0.6137237548828125,-1.5087890625,0.1416168212890625
1726225369708860000,8.33585986328125,-0.6923675537109375,-1.2041015625,0.0085601806640625
1726225369718898200,8.345898193359375,-0.5408477783203125,-0.61041259765625,0.0941619873046875
1726225369728936000,8.35593603515625,-0.3885498046875,-0.7945709228515625,0.0700225830078125
1726225369738973000,8.365972900390625,-0.6260986328125,-0.738433837890625,-0.168212890625
1726225369749011000,8.376010986328126,-0.3641510009765625,-0.5183258056640625,0.0355224609375
1726225369759048000,8.3860478515625,-0.757354736328125,-1.1722564697265625,0.1825408935546875
1726225369769086000,8.3960859375,-0.810302734375,-0.9548492431640625,0.19085693359375
1726225369779124000,8.4061240234375,-0.514984130859375,-1.0213470458984375,0.26727294921875
1726225369789161000,8.416160888671875,0.22412109375,-1.385650634765625,0.0600738525390625
1726225369799199000,8.426198974609376,-0.6085205078125,-0.8694610595703125,-0.10870361328125
1726225369809237000,8.436237060546874,-0.2099609375,-0.298553466796875,-0.092315673828125
1726225369819274000,8.44627392578125,0.487396240234375,-0.7552337646484375,-0.0037384033203125
1726225369829311700,8.456311767578125,-0.28802490234375,-0.8171844482421875,0.09320068359375
1726225369839350000,8.46635009765625,-1.019073486328125,-0.4888763427734375,0.2131195068359375
1726225369849387000,8.476386962890626,-0.9030303955078125,-0.7370452880859375,0.175628662109375
1726225369859425000,8.486425048828124,-0.418365478515625,-1.1179962158203125,0.0999298095703125
1726225369869463000,8.496463134765625,-0.74444580078125,-1.0787353515625,-0.0660400390625
1726225369879500000,8.5065,-1.1310882568359375,-0.6560516357421875,-0.151824951171875
1726225369889538000,8.5165380859375,-0.53277587890625,-0.868743896484375,-0.1243896484375
1726225369899576000,8.526576171875,-0.816162109375,-1.392547607421875,0.012969970703125
1726225369909612800,8.53661279296875,-0.41131591796875,-0.795013427734375,-0.0228118896484375
1726225369919651000,8.546651123046875,-0.63690185546875,-0.5787811279296875,0.0587921142578125
1726225369929688800,8.556688720703125,-0.39825439453125,-0.5568084716796875,-0.0155487060546875
1726225369939725800,8.566725830078125,-0.8900146484375,-0.958526611328125,0.1063385009765625
1726225369949764000,8.57676416015625,-0.9862213134765625,-0.7254180908203125,-0.00048828125
1726225369959801900,8.5868017578125,-0.7208099365234375,-0.60296630859375,0.0323333740234375
1726225369969838800,8.5968388671875,-0.2299957275390625,-1.1055755615234375,0.329132080078125
1726225369979877000,8.606877197265625,0.16827392578125,-1.182830810546875,0.184783935546875
1726225369989910500,8.61691064453125,-0.064605712890625,-0.8536376953125,0.0769805908203125
1726225369999948800,8.62694873046875,-0.08355712890625,-0.21453857421875,0.053314208984375
1726225370009986600,8.636986572265625,-0.389617919921875,-0.645904541015625,0.256134033203125
1726225370020023800,8.64702392578125,-0.7394561767578125,-1.192230224609375,0.106781005859375
1726225370030061800,8.657061767578124,-1.59515380859375,-0.820526123046875,0.0003814697265625
1726225370040099600,8.667099609375,-1.2858123779296875,-0.4550018310546875,-0.000701904296875
1726225370050136800,8.67713671875,-0.777130126953125,-1.352874755859375,0.0299835205078125
1726225370060174600,8.687174560546875,-0.357757568359375,-1.4720458984375,-0.0580902099609375
1726225370070212600,8.697212646484376,-0.4449920654296875,-0.8165130615234375,0.0452423095703125
1726225370080249900,8.707249755859374,-0.2152099609375,-0.2230377197265625,0.051116943359375
1726225370090287600,8.71728759765625,-0.427886962890625,-0.6857452392578125,0.1483306884765625
1726225370100326000,8.727325927734375,-0.435821533203125,-0.9098968505859375,0.0091094970703125
1726225370110363000,8.73736279296875,-0.8191680908203125,-0.4492340087890625,-0.2149810791015625
1726225370120400600,8.747400634765626,-1.3631439208984375,-0.1673583984375,0.107208251953125
1726225370130439000,8.75743896484375,-0.5615692138671875,-1.1114349365234375,0.188720703125
1726225370140475600,8.7674755859375,-0.394744873046875,-1.895538330078125,0.11236572265625
1726225370150513700,8.777513671875,-0.2943115234375,-0.8613128662109375,0.088287353515625
1726225370160551700,8.7875517578125,-0.1267242431640625,-0.146453857421875,0.1822967529296875
1726225370170588700,8.797588623046876,0.181243896484375,-0.8359832763671875,0.295562744140625
1726225370180626700,8.807626708984374,0.010650634765625,-1.1156463623046875,0.102813720703125
1726225370190664700,8.817664794921875,-1.2571258544921875,-0.358856201171875,0.04193115234375
1726225370200701700,8.82770166015625,-1.18243408203125,-0.5357208251953125,0.1621856689453125
1726225370210739700,8.83773974609375,-0.423370361328125,-1.3876800537109375,-0.0423431396484375
1726225370220777700,8.84777783203125,-0.7712249755859375,-1.3565521240234375,-0.026336669921875
1726225370230814700,8.857814697265624,-0.62322998046875,-0.401214599609375,-0.064208984375
1726225370240852500,8.8678525390625,-0.7829742431640625,-0.65380859375,0.2503509521484375
1726225370250890800,8.877890869140625,-0.53472900390625,-1.36676025390625,0.080780029296875
1726225370260927700,8.887927734375,-0.4496307373046875,-1.1268768310546875,-0.04052734375
1726225370270965800,8.8979658203125,-0.664459228515625,-0.1943206787109375,0.1216583251953125
1726225370281003800,8.908003662109374,-0.6043701171875,-0.400634765625,0.015289306640625
1726225370291040800,8.918040771484375,-0.4754638671875,-0.8970184326171875,0.1182403564453125
1726225370301078800,8.928078857421875,-0.5398712158203125,-0.96771240234375,0.08929443359375
1726225370311116800,8.93811669921875,-0.4099273681640625,-0.629180908203125,-0.1411285400390625
1726225370321153500,8.948153564453126,-0.5247344970703125,-1.03924560546875,0.2476043701171875
1726225370331191800,8.95819189453125,-0.5084381103515625,-1.188140869140625,0.154937744140625
1726225370341229600,8.9682294921875,0.0779876708984375,-1.0142974853515625,-0.114593505859375
1726225370351266600,8.9782666015625,-0.6753387451171875,-0.870208740234375,0.03466796875
1726225370361304800,8.988304931640625,-1.1231231689453125,-0.5201873779296875,0.213653564453125
1726225370371342600,8.998342529296876,-0.961578369140625,-0.8551483154296875,0.098358154296875
1726225370381379600,9.008379638671874,-0.925689697265625,-1.0622100830078125,-0.0028228759765625
1726225370391417900,9.01841796875,-0.7171783447265625,-0.780853271484375,0.05621337890625
1726225370401455600,9.02845556640625,-0.837799072265625,-0.890838623046875,0.173553466796875
1726225370411492900,9.038492919921875,-0.098846435546875,-1.1224822998046875,0.1419677734375
1726225370421530600,9.048530517578126,0.223968505859375,-0.916168212890625,-0.0775604248046875
1726225370431568600,9.058568603515624,-0.2143707275390625,-0.567962646484375,0.229644775390625
1726225370441606000,9.06860595703125,-0.6097259521484375,-0.497894287109375,0.128753662109375
1726225370451643600,9.0786435546875,-0.6828460693359375,-0.7623138427734375,-0.0250701904296875
1726225370461681700,9.088681640625,-1.2102508544921875,-0.9011993408203125,0.129547119140625
1726225370471719000,9.098718994140626,-1.2947540283203125,-0.683990478515625,0.112945556640625
1726225370481756700,9.108756591796874,-0.7057952880859375,-0.9546966552734375,0.033111572265625
1726225370491795000,9.118794921875,0.143951416015625,-1.20257568359375,-0.0889739990234375
1726225370501831700,9.128831787109375,-0.1743011474609375,-0.9673309326171875,-0.1109619140625
1726225370511869700,9.13886962890625,-0.2751922607421875,-0.638580322265625,0.056060791015625
1726225370521907700,9.14890771484375,-0.52880859375,-0.5080413818359375,0.05364990234375
1726225370531944700,9.15894482421875,-1.03033447265625,-0.426025390625,-0.0386810302734375
1726225370541982700,9.168982666015625,-1.44940185546875,-0.8213653564453125,0.2072601318359375
1726225370552020700,9.179020751953125,-1.1700897216796875,-0.728973388671875,-0.00506591796875
1726225370562057700,9.1890576171875,-0.427642822265625,-0.6660308837890625,-0.046478271484375
1726225370572095700,9.199095703125,0.17425537109375,-1.2076416015625,0.0127410888671875
1726225370582133800,9.2091337890625,0.47943115234375,-1.32159423828125,0.176239013671875
1726225370592170800,9.219170654296875,0.389129638671875,-0.5692138671875,-0.185302734375
1726225370602208500,9.22920849609375,-0.9779510498046875,-0.1019134521484375,-0.085906982421875
1726225370612246800,9.239246826171875,-1.861541748046875,-0.5392303466796875,0.069488525390625
1726225370622283800,9.24928369140625,-1.2306060791015625,-1.219024658203125,0.023773193359375
1726225370632321500,9.259321533203124,-1.1506500244140625,-1.3354949951171875,0.2733917236328125
1726225370642359800,9.26935986328125,-0.717681884765625,-0.5812530517578125,0.254425048828125
1726225370652396800,9.279396728515625,-0.49163818359375,-0.7758941650390625,-0.086212158203125
1726225370662434800,9.289434814453125,0.0084228515625,-1.314544677734375,0.0630950927734375
1726225370672472800,9.299472900390626,-0.1788330078125,-0.77923583984375,-0.0773162841796875
1726225370682509600,9.309509521484374,-0.2166595458984375,-0.1167755126953125,-0.1190338134765625
1726225370692547800,9.3195478515625,-0.1529083251953125,-0.9873809814453125,0.0981597900390625
1726225370702585600,9.329585693359375,-0.8333587646484375,-1.3480987548828125,0.1791229248046875
1726225370712622600,9.33962255859375,-0.92608642578125,-0.905975341796875,0.0260467529296875
1726225370722660900,9.349660888671876,-1.13739013671875,-0.630859375,-0.0972900390625
1726225370732698600,9.35969873046875,-0.750946044921875,-1.008331298828125,0.0060882568359375
1726225370742737000,9.36973681640625,-0.55157470703125,-1.3134918212890625,0.0096282958984375
1726225370752774000,9.37977392578125,-0.3619537353515625,-0.5578155517578125,-0.047760009765625
1726225370762811600,9.389811767578125,-0.9696044921875,-0.49652099609375,0.0514678955078125
1726225370772850000,9.399849853515626,-0.57550048828125,-1.2741851806640625,0.084869384765625
1726225370782886700,9.40988671875,-0.3717193603515625,-1.373321533203125,0.119537353515625
1726225370792924700,9.419924560546875,-1.0334014892578125,-0.5608062744140625,-0.0018463134765625
1726225370802962700,9.429962646484375,-0.5477142333984375,-0.3195343017578125,0.160552978515625
1726225370812999700,9.439999755859375,-0.383087158203125,-1.13043212890625,0.158660888671875
1726225370823037700,9.45003759765625,-0.322052001953125,-1.0514984130859375,-0.0628814697265625
1726225370833075700,9.46007568359375,0.0828094482421875,-0.475067138671875,-0.025848388671875
1726225370843112700,9.47011279296875,0.15618896484375,-0.8922119140625,0.26287841796875
1726225370853150700,9.480150634765625,-0.19537353515625,-1.0244140625,0.109375
1726225370863188700,9.490188720703125,-0.7986907958984375,-0.467742919921875,0.0876617431640625
1726225370873225700,9.500225830078126,-0.83160400390625,-0.4926300048828125,0.13360595703125
1726225370883263700,9.510263671875,-1.30352783203125,-0.8420257568359375,0.2120513916015625
1726225370893301800,9.5203017578125,-0.8140106201171875,-0.75457763671875,0.1902008056640625
1726225370903338800,9.5303388671875,-0.279144287109375,-0.883148193359375,-0.0545501708984375
1726225370913376800,9.540376708984375,-0.6157379150390625,-0.912872314453125,-0.0435791015625
1726225370923414800,9.550414794921876,-0.404571533203125,-0.9933624267578125,-0.061248779296875
1726225370933451800,9.56045166015625,-0.3377532958984375,-1.0460357666015625,-0.2089080810546875
1726225370943489800,9.57048974609375,-0.4615020751953125,-0.5584259033203125,0.041015625
1726225370953527800,9.58052783203125,-0.5653228759765625,-0.4518280029296875,0.2096710205078125
1726225370963564500,9.590564453125,-0.0954742431640625,-1.030609130859375,0.16094970703125
1726225370973602800,9.600602783203126,-0.5884246826171875,-0.8667755126953125,0.0504608154296875
1726225370983640600,9.610640625,-1.3991851806640625,-0.18896484375,0.1065673828125
1726225370993681200,9.62068115234375,-0.9679107666015625,-0.8927001953125,0.0731201171875
1726225371003719400,9.630719482421876,-0.5503692626953125,-1.506011962890625,0.024169921875
1726225371013757200,9.640757080078124,-0.6807708740234375,-0.824462890625,-0.032196044921875
1726225371023795500,9.65079541015625,-0.57177734375,-0.5249176025390625,0.0780792236328125
1726225371033832200,9.660832275390625,0.13720703125,-0.9319305419921875,-0.0332183837890625
1726225371043870200,9.6708701171875,0.24261474609375,-1.0310211181640625,-0.0496368408203125
1726225371053908200,9.680908203125,-0.40313720703125,-0.20050048828125,0.0445098876953125
1726225371063945200,9.6909453125,-0.6598663330078125,-0.540771484375,0.0015106201171875
1726225371073983200,9.700983154296875,-0.858062744140625,-1.38775634765625,0.0691375732421875
1726225371084021200,9.711021240234375,-1.383575439453125,-0.9674530029296875,0.030242919921875
1726225371094058200,9.721058349609375,-1.3841705322265625,-0.257293701171875,-0.0005645751953125
1726225371104096500,9.731096435546876,-0.4354248046875,-1.1798858642578125,-0.092987060546875
1726225371114134300,9.74113427734375,-0.513671875,-1.462554931640625,-0.13848876953125
1726225371124171300,9.751171142578125,-0.3979949951171875,-0.5627593994140625,-0.2245025634765625
1726225371134209300,9.761209228515625,-0.686126708984375,-0.1330718994140625,-0.0310516357421875
1726225371144247300,9.771247314453126,-0.1763763427734375,-0.5240020751953125,0.12158203125
1726225371154284300,9.7812841796875,-0.9031829833984375,-1.2505035400390625,0.2482147216796875
1726225371164322300,9.791322265625,-0.9047088623046875,-0.95208740234375,0.2444915771484375
1726225371174360300,9.8013603515625,-1.115875244140625,-0.781768798828125,0.07830810546875
1726225371184397300,9.811397216796875,-0.630401611328125,-0.7677154541015625,0.14959716796875
1726225371194435300,9.821435302734375,0.05633544921875,-1.32177734375,0.1181488037109375
1726225371204473300,9.831473388671874,-0.0822906494140625,-1.022979736328125,0.0159759521484375
1726225371214511400,9.841511474609375,0.22991943359375,-0.48248291015625,0.1598052978515625
1726225371224548400,9.85154833984375,-0.449493408203125,-0.7430572509765625,0.221588134765625
1726225371234586000,9.861586181640625,-0.950042724609375,-0.8967437744140625,0.198028564453125
1726225371244624400,9.871624267578126,-1.1024169921875,-0.9048919677734375,0.1119537353515625
1726225371254661400,9.881661376953126,-0.97918701171875,-0.57232666015625,0.07269287109375
1726225371264699100,9.89169921875,-0.42999267578125,-0.8185272216796875,0.098724365234375
1726225371274737400,9.9017373046875,0.07110595703125,-0.9790496826171875,-0.15582275390625
1726225371284774400,9.9117744140625,0.4741363525390625,-0.633697509765625,-0.0303192138671875
1726225371294812200,9.921812255859376,0.50537109375,-0.61700439453125,0.19171142578125
1726225371304850400,9.931850341796874,-0.136016845703125,-0.79388427734375,0.06622314453125
1726225371314887200,9.94188720703125,-1.121368408203125,-0.79254150390625,0.2241058349609375
1726225371324925200,9.95192529296875,-1.908721923828125,-0.8925018310546875,0.3660430908203125
1726225371334963200,9.961963134765625,-2.035491943359375,-1.0518341064453125,0.32513427734375
1726225371345000200,9.972000244140625,-1.5192718505859375,-1.008880615234375,0.2427978515625
1726225371355038500,9.98203857421875,-0.7870330810546875,-0.9543609619140625,0.0447235107421875
1726225371365076200,9.992076171875,0.041290283203125,-1.0908203125,-0.0501861572265625
1726225371375114200,10.0021142578125,-0.1136627197265625,-0.8849029541015625,-0.0046844482421875
1726225371385151500,10.0121513671875,0.5843505859375,-0.5432281494140625,0.0302276611328125
1726225371395189200,10.022189208984376,0.21746826171875,-0.8503265380859375,0.1631317138671875
1726225371405227300,10.032227294921874,-0.5009765625,-0.7579498291015625,0.1832275390625
1726225371415264300,10.04226416015625,-1.141143798828125,-0.7030181884765625,0.11419677734375
1726225371425302300,10.05230224609375,-1.5498199462890625,-0.9880523681640625,0.2479095458984375
1726225371435340300,10.06234033203125,-1.3729095458984375,-1.039794921875,0.1236572265625
1726225371445377300,10.072377197265626,-0.5821380615234375,-1.1692657470703125,0.1301116943359375
1726225371455415300,10.082415283203124,0.3414306640625,-1.241058349609375,0.068115234375
1726225371465453300,10.092453369140625,-0.1701202392578125,-0.7415008544921875,0.132080078125
1726225371475490300,10.102490234375,-0.38299560546875,-0.2265472412109375,-0.0173187255859375
1726225371485528300,10.1125283203125,-1.0613555908203125,-0.8649139404296875,-0.0324249267578125
1726225371495566300,10.12256640625,-0.7332611083984375,-1.1485137939453125,0.201873779296875
1726225371505604400,10.132604248046874,-0.5629425048828125,-0.910919189453125,0.018768310546875
1726225371515641000,10.14264111328125,-0.342559814453125,-0.4033355712890625,0.15576171875
1726225371525679400,10.152679443359375,-0.7001495361328125,-0.7678375244140625,0.1640777587890625
1726225371535717400,10.16271728515625,-0.7135467529296875,-1.080810546875,-0.0113067626953125
1726225371545754000,10.172754150390626,-0.2643890380859375,-0.9378509521484375,-0.120086669921875
1726225371555792400,10.18279248046875,-0.953765869140625,-0.7214508056640625,0.0528564453125
1726225371565830100,10.192830078125,-1.2953338623046875,-0.1225433349609375,0.0034942626953125
1726225371575867100,10.2028671875,-0.56396484375,-0.6230926513671875,-0.10516357421875
1726225371585905400,10.212905517578125,-0.072784423828125,-0.83001708984375,-0.256988525390625
1726225371595943200,10.222943115234376,-0.2501220703125,-0.5356292724609375,0.0007476806640625
1726225371605981400,10.2329814453125,-0.319366455078125,-0.7839508056640625,0.16644287109375
1726225371616018200,10.24301806640625,0.102386474609375,-1.2484283447265625,-0.0195770263671875
1726225371626056200,10.25305615234375,-0.1675872802734375,-1.2563018798828125,0.0225067138671875
1726225371636094200,10.26309423828125,-0.58929443359375,-0.6712799072265625,0.02752685546875
1726225371646131200,10.273131103515626,-1.0168914794921875,-0.708648681640625,0.0604400634765625
1726225371656169200,10.283169189453124,-1.6597747802734375,-0.9486541748046875,0.0346832275390625
1726225371666207200,10.293207275390625,-1.672119140625,-1.1316986083984375,-0.0097808837890625
1726225371676244200,10.303244140625,-1.0369873046875,-0.8642578125,0.0182342529296875
1726225371686282500,10.313282470703125,-0.083831787109375,-0.776123046875,-0.0375518798828125
1726225371696320300,10.3233203125,0.3699493408203125,-0.8955535888671875,0.069610595703125
1726225371706358300,10.333358154296874,0.6219940185546875,-0.6385345458984375,0.010498046875
1726225371716395300,10.343395263671875,0.3982696533203125,-0.4960479736328125,-0.1412353515625
1726225371726433300,10.353433349609375,-0.3895111083984375,-0.60723876953125,0.034912109375
1726225371736471300,10.36347119140625,-1.6175537109375,-0.8130035400390625,0.0794677734375
1726225371746508300,10.37350830078125,-1.515869140625,-1.22906494140625,-0.0605926513671875
1726225371756546300,10.38354638671875,-1.413604736328125,-1.335296630859375,0.3372650146484375
1726225371766584300,10.393584228515625,-0.8872222900390625,-1.0839996337890625,0.243316650390625
1726225371776621300,10.403621337890625,0.2055511474609375,-1.2303314208984375,-0.02752685546875
1726225371786659300,10.413659423828125,0.0181427001953125,-0.802825927734375,-0.07232666015625
1726225371796697300,10.423697265625,0.1241607666015625,-0.4075927734375,-0.0282745361328125
1726225371806734300,10.433734375,0.0653533935546875,-0.3985443115234375,0.0225830078125
1726225371816772000,10.443772216796875,-0.265838623046875,-0.805328369140625,0.2151641845703125
1726225371826810400,10.453810302734375,-0.93377685546875,-0.6157989501953125,0.031005859375
1726225371836848400,10.463848388671876,-1.0160369873046875,-0.5644073486328125,0.022491455078125
1726225371846885000,10.473885009765626,-0.685455322265625,-0.8479461669921875,0.061431884765625
1726225371856923400,10.48392333984375,-0.4147186279296875,-1.1558380126953125,-0.0336761474609375
1726225371866961200,10.493961181640625,-0.7386474609375,-1.15924072265625,0.0117034912109375
1726225371876998100,10.503998046875,-0.9986572265625,-0.7114715576171875,0.111358642578125
1726225371887036400,10.514036376953126,-0.7146759033203125,-0.705474853515625,0.0576629638671875
1726225371897074200,10.52407421875,-0.5032806396484375,-1.199615478515625,0.0045166015625
1726225371907112400,10.534112548828125,-0.3891754150390625,-1.0321044921875,0.02301025390625
1726225371917149200,10.544149169921875,-0.5631866455078125,-0.4101409912109375,0.0234222412109375
1726225371927187200,10.554187255859375,-0.6409149169921875,-0.2529449462890625,-0.0078277587890625
1726225371937225200,10.56422509765625,-0.5129547119140625,-0.8218536376953125,-0.0287933349609375
1726225371947262200,10.57426220703125,0.0805511474609375,-1.2503662109375,0.10418701171875
1726225371957300200,10.58430029296875,-0.5352020263671875,-0.9507598876953125,0.0198516845703125
1726225371967338200,10.594338134765625,-0.7834930419921875,-0.72027587890625,0.0718994140625
1726225371977375200,10.604375244140625,-1.1253509521484375,-1.036773681640625,0.0800323486328125
1726225371987413500,10.61441357421875,-1.048919677734375,-0.8991851806640625,0.0891876220703125
1726225371997448200,10.6244482421875,-0.61572265625,-0.51422119140625,0.1061859130859375
1726225372007486200,10.634486328125,-0.862518310546875,-0.524017333984375,0.2433013916015625
1726225372017523000,10.64452294921875,-0.3458404541015625,-0.698944091796875,0.12103271484375
1726225372027561200,10.654561279296875,-0.8440704345703125,-1.2082366943359375,0.2105865478515625
1726225372037599000,10.664598876953125,-0.7760009765625,-0.866424560546875,0.2508087158203125
1726225372047636000,10.674635986328125,-0.4101715087890625,-1.0296783447265625,0.1999969482421875
1726225372057674200,10.68467431640625,0.294677734375,-1.0414276123046875,0.2909088134765625
1726225372067712000,10.6947119140625,0.1127471923828125,-0.729095458984375,0.036163330078125
1726225372077750300,10.704750244140625,-0.88348388671875,-0.190460205078125,0.0082550048828125
1726225372087787300,10.714787353515625,-1.5150146484375,-0.3375396728515625,-0.0004425048828125
1726225372097825000,10.724824951171875,-1.0156707763671875,-1.3202056884765625,-0.1685638427734375
1726225372107863300,10.73486328125,-1.55859375,-1.2039794921875,-0.0682830810546875
1726225372117900000,10.744900146484374,-0.680328369140625,-0.74267578125,-0.13671875
1726225372127938000,10.75493798828125,-0.23779296875,-1.0015106201171875,-0.0326690673828125
1726225372137976000,10.76497607421875,0.2205047607421875,-0.9810028076171875,-0.045501708984375
1726225372148014000,10.77501416015625,-0.2294158935546875,-0.3776702880859375,-0.020782470703125
1726225372158051000,10.785051025390626,-0.6810302734375,-0.0894927978515625,0.2061614990234375
1726225372168089000,10.795089111328124,-0.33282470703125,-1.2522430419921875,0.03009033203125
1726225372178127000,10.805127197265625,-0.0799560546875,-1.4940338134765625,-0.13482666015625
1726225372188164000,10.8151640625,-0.668243408203125,-0.595794677734375,0.1712188720703125
1726225372198202000,10.8252021484375,-0.7331390380859375,-0.5665740966796875,0.2548065185546875
1726225372208240000,10.835240234375,-0.6450042724609375,-1.1467742919921875,0.0377960205078125
1726225372218278100,10.845278076171875,-0.983367919921875,-1.072174072265625,0.143402099609375
1726225372228315100,10.855315185546875,-1.020263671875,-0.4979248046875,0.19049072265625
1726225372238353000,10.865352783203125,0.220550537109375,-0.892730712890625,-0.099151611328125
1726225372248391200,10.87539111328125,0.111419677734375,-1.0758056640625,-0.0263824462890625
1726225372258428200,10.88542822265625,-0.1185150146484375,-0.5127105712890625,0.0735931396484375
1726225372268466000,10.8954658203125,-0.486053466796875,-0.492401123046875,0.101593017578125
1726225372278504200,10.905504150390625,-0.2887115478515625,-0.8896331787109375,0.0542449951171875
1726225372288542000,10.9155419921875,-0.76043701171875,-1.0735931396484375,0.0516510009765625
1726225372298579000,10.925578857421876,-0.847869873046875,-0.77392578125,0.09954833984375
1726225372308617200,10.9356171875,-0.4861907958984375,-0.63763427734375,0.03302001953125
1726225372318655000,10.945655029296875,0.5081787109375,-1.196197509765625,-0.0345001220703125
1726225372328692200,10.955692138671875,-0.12774658203125,-1.1376953125,-0.0622406005859375
1726225372338730000,10.96572998046875,-1.45782470703125,-0.278472900390625,0.1289825439453125
1726225372348768000,10.97576806640625,-0.968658447265625,-0.416748046875,0.32220458984375
1726225372358806000,10.985805908203124,-0.99517822265625,-1.34857177734375,0.5047607421875
1726225372368843000,10.995843017578125,-0.8855743408203125,-1.4540252685546875,0.297943115234375
1726225372378881000,11.005881103515625,-0.482330322265625,-0.7064361572265625,0.0226898193359375
1726225372388919000,11.0159189453125,-0.2711639404296875,-0.9584808349609375,0.0031280517578125
1726225372398957000,11.02595703125,-0.7804718017578125,-1.2786102294921875,-0.017669677734375
1726225372408994300,11.035994384765624,-1.248779296875,-0.5225830078125,0.0405426025390625
1726225372419032000,11.046031982421875,-0.4016876220703125,-0.3257904052734375,-0.093017578125
1726225372429070000,11.056070068359375,-0.3895263671875,-1.1929779052734375,0.0753936767578125
1726225372439107000,11.066107177734375,-0.2959747314453125,-0.9847564697265625,-0.036407470703125
1726225372449145000,11.07614501953125,-0.3405303955078125,-0.6403350830078125,-0.0514068603515625
1726225372459183000,11.08618310546875,-0.43328857421875,-0.5818634033203125,-0.0247955322265625
1726225372469221000,11.09622119140625,-1.2210235595703125,-1.0836944580078125,-0.0001373291015625
1726225372479258000,11.106258056640625,-1.2879486083984375,-0.861053466796875,0.2251739501953125
1726225372489296100,11.116296142578125,-1.1371002197265625,-0.82666015625,0.229461669921875
1726225372499334100,11.126334228515624,-1.2100830078125,-0.8369293212890625,0.2444610595703125
1726225372509372000,11.136371826171874,-0.3007049560546875,-1.176361083984375,0.0681304931640625
1726225372519409200,11.1464091796875,-0.08349609375,-1.2418212890625,-0.08941650390625
1726225372529447200,11.156447265625,-0.226837158203125,-0.251953125,-0.0566558837890625
1726225372539485000,11.16648486328125,-0.1277313232421875,-0.190185546875,0.0294036865234375
1726225372549522200,11.176522216796876,-0.37591552734375,-0.518524169921875,-0.085113525390625
1726225372559560000,11.186559814453124,-0.307403564453125,-0.6351470947265625,-0.03399658203125
1726225372569598200,11.19659814453125,-1.014434814453125,-0.6953582763671875,0.178375244140625
1726225372579636200,11.20663623046875,-0.862823486328125,-0.829345703125,0.2112884521484375
1726225372589673000,11.2166728515625,-0.3447113037109375,-1.3587646484375,-0.0063018798828125
1726225372599711200,11.226711181640624,-0.433074951171875,-0.9228363037109375,0.087249755859375
1726225372609749000,11.2367490234375,-0.78131103515625,0.0457611083984375,0.0442352294921875
1726225372619787000,11.246787109375,-0.08721923828125,-0.353790283203125,0.0011749267578125
1726225372629824300,11.25682421875,0.287567138671875,-0.8094329833984375,0.097320556640625
1726225372639862000,11.266862060546876,-0.2652587890625,-0.71826171875,-0.0301055908203125
1726225372649900300,11.276900390625,-0.65478515625,-0.3959808349609375,-0.014495849609375
1726225372659937000,11.28693701171875,-0.1362762451171875,-1.036712646484375,0.1628265380859375
1726225372669975000,11.29697509765625,-0.7442169189453125,-1.457672119140625,0.1493682861328125
1726225372680013000,11.307012939453125,-1.49127197265625,-0.7610321044921875,0.06689453125
1726225372690051000,11.317051025390626,-1.207550048828125,-0.8091278076171875,0.094970703125
1726225372700088000,11.327088134765624,-1.4195709228515625,-1.55548095703125,0.0791015625
1726225372710126000,11.3371259765625,-1.2618865966796875,-1.2212066650390625,0.08416748046875
1726225372720164000,11.3471640625,-0.4411163330078125,-0.348236083984375,0.0486297607421875
1726225372730202000,11.3572021484375,-0.34051513671875,-0.7961578369140625,0.2302398681640625
1726225372740239000,11.367239013671876,0.063690185546875,-1.195343017578125,0.172882080078125
1726225372750277000,11.377277099609374,-0.095062255859375,-0.7377166748046875,0.114501953125
1726225372760315100,11.387315185546875,-0.13995361328125,-0.0516510009765625,-0.0460357666015625
1726225372770352000,11.39735205078125,0.5600738525390625,-1.283935546875,-0.1018829345703125
1726225372780390100,11.40739013671875,0.0138397216796875,-1.81744384765625,-0.186737060546875
1726225372790428200,11.41742822265625,-1.1273345947265625,-0.3884429931640625,-0.0465240478515625
1726225372800466200,11.427466064453125,-1.991119384765625,-0.6259307861328125,0.4121856689453125
1726225372810503000,11.4375029296875,-2.11053466796875,-1.582244873046875,0.29443359375
1726225372820541200,11.447541259765625,-1.4135894775390625,-1.619384765625,0.2865753173828125
1726225372830579000,11.457578857421876,-0.449127197265625,-0.7867584228515625,-0.128265380859375
1726225372840617200,11.4676171875,-0.2201690673828125,-0.260650634765625,-0.0274810791015625
1726225372850654200,11.477654296875,0.7604522705078125,-0.8031005859375,-0.15679931640625
1726225372860692000,11.48769189453125,0.6312255859375,-1.1689910888671875,-0.0076446533203125
1726225372870730200,11.497730224609375,-0.015838623046875,-0.0459136962890625,-0.1146392822265625
1726225372880768000,11.50776806640625,-0.904266357421875,-0.10052490234375,0.073516845703125
1726225372890805000,11.517804931640624,-1.081695556640625,-0.96441650390625,0.2820892333984375
1726225372900843300,11.52784326171875,-1.34991455078125,-1.0642852783203125,0.059906005859375
1726225372910881000,11.537881103515625,-0.98809814453125,-0.830078125,-0.0328521728515625
1726225372920919300,11.547919189453125,-0.75421142578125,-0.407135009765625,0.1030426025390625
1726225372930956000,11.5579560546875,-0.075531005859375,-0.7279510498046875,0.00213623046875
1726225372940994000,11.567994140625,0.0964813232421875,-0.9928436279296875,-0.1556243896484375
1726225372951032000,11.578031982421875,-0.1400604248046875,-0.6900787353515625,-0.0512847900390625
1726225372961069000,11.588069091796875,-0.9585113525390625,-0.4015960693359375,0.008636474609375
1726225372971107000,11.598107177734375,-1.06707763671875,-0.6888580322265625,0.1468658447265625
1726225372981145000,11.60814501953125,-0.832183837890625,-1.1221771240234375,0.088134765625
1726225372991187500,11.6181875,-0.488372802734375,-1.1190643310546875,-0.0101470947265625
1726225373001224200,11.62822412109375,-0.13140869140625,-0.9578399658203125,0.05419921875
1726225373011262200,11.63826220703125,-0.1268310546875,-1.0686187744140625,-0.1407012939453125
1726225373021300200,11.64830029296875,-0.11944580078125,-0.5404510498046875,-0.1578521728515625
1726225373031338200,11.658338134765625,-0.590057373046875,-0.509185791015625,0.1641693115234375
1726225373041375500,11.66837548828125,-0.932220458984375,-0.8494110107421875,0.131927490234375
1726225373051413200,11.678413330078126,-1.5876922607421875,-0.7126007080078125,0.0943756103515625
1726225373061451300,11.688451171875,-1.694976806640625,-0.4650421142578125,0.2391204833984375
1726225373071489300,11.6984892578125,-0.9137420654296875,-1.1556396484375,0.0646209716796875
1726225373081526300,11.7085263671875,-0.2199859619140625,-1.387298583984375,0.05926513671875
1726225373091564300,11.718564208984375,0.053924560546875,-0.8350067138671875,-0.054168701171875
1726225373101602300,11.728602294921876,0.0490875244140625,-0.950286865234375,0.0773468017578125
1726225373111640300,11.738640380859374,0.053375244140625,-1.0251617431640625,0.365203857421875
1726225373121677300,11.74867724609375,-0.980010986328125,-0.711669921875,0.308135986328125
1726225373131715300,11.75871533203125,-0.71807861328125,-0.398651123046875,0.1413421630859375
1726225373141753000,11.768753173828125,-0.4388427734375,-1.29547119140625,0.1684417724609375
1726225373151791400,11.778791259765624,-0.7126617431640625,-0.8471221923828125,-0.1200103759765625
1726225373161828400,11.788828369140624,-0.681182861328125,-0.219146728515625,-0.217132568359375
1726225373171866000,11.7988662109375,-0.592529296875,-0.7820281982421875,-0.086090087890625
1726225373181904400,11.808904296875,-0.6607513427734375,-1.389892578125,0.04852294921875
1726225373191942100,11.818942138671876,-0.9352264404296875,-1.0116424560546875,0.017333984375
1726225373201979400,11.8289794921875,-0.889373779296875,-0.5396728515625,0.08056640625
1726225373212017400,11.839017333984375,-0.6453094482421875,-0.6746978759765625,0.109405517578125
1726225373222055200,11.84905517578125,-0.232879638671875,-0.9595489501953125,0.185821533203125
1726225373232093400,11.859093505859375,-0.228729248046875,-0.8587799072265625,0.2860260009765625
1726225373242130200,11.869130126953126,-0.0238037109375,-0.3790130615234375,0.26220703125
1726225373252168200,11.879168212890624,0.62506103515625,-0.5703887939453125,0.1436309814453125
1726225373262206200,11.889206298828125,0.636383056640625,-1.0303802490234375,-0.0088958740234375
1726225373272244200,11.899244140625,-0.7691497802734375,-0.71783447265625,0.1417388916015625
1726225373282281500,11.909281494140625,-1.4996337890625,-0.592987060546875,0.1284332275390625
1726225373292319200,11.9193193359375,-1.9231719970703125,-1.012451171875,0.13922119140625
1726225373302357200,11.929357177734374,-1.6011199951171875,-1.029937744140625,0.1322021484375
1726225373312395300,11.939395263671875,-1.1420440673828125,-1.09661865234375,0.1107330322265625
1726225373322432300,11.949432373046875,-0.66424560546875,-0.7906494140625,0.0275726318359375
1726225373332470300,11.95947021484375,-0.132354736328125,-1.0767059326171875,-0.081756591796875
1726225373342508300,11.96950830078125,-0.418060302734375,-1.074615478515625,0.0503692626953125
1726225373352546300,11.97954638671875,-0.5757293701171875,-0.5360260009765625,-0.0503692626953125
1726225373362583300,11.989583251953125,0.3080596923828125,-0.8059234619140625,0.01251220703125
1726225373372621300,11.999621337890625,-0.0205841064453125,-1.2411346435546875,0.1462554931640625
1726225373382659000,12.0096591796875,-0.4030303955078125,-0.5726776123046875,-0.0314483642578125
1726225373392697300,12.019697265625,-0.8180694580078125,-0.3199615478515625,0.0537567138671875
1726225373402734300,12.029734375,-0.10003662109375,-1.4002532958984375,0.01788330078125
1726225373412772000,12.039772216796875,-0.9012451171875,-1.298370361328125,-0.0792388916015625
1726225373422810400,12.049810302734375,-1.083221435546875,-0.2930755615234375,0.11102294921875
1726225373432848100,12.05984814453125,-0.8845672607421875,-0.473785400390625,0.009063720703125
1726225373442885400,12.069885498046874,-0.6223907470703125,-1.2987060546875,0.2657470703125
1726225373452923400,12.07992333984375,-0.552734375,-1.1429901123046875,0.151885986328125
1726225373462961200,12.089961181640625,-0.632110595703125,-0.429443359375,0.1862945556640625
1726225373472999400,12.09999951171875,-0.396881103515625,-0.37969970703125,0.2272186279296875
1726225373483036200,12.1100361328125,-0.4566802978515625,-1.3792266845703125,0.1851348876953125
1726225373493074200,12.12007421875,-0.748992919921875,-0.99444580078125,0.0586395263671875
1726225373503112200,12.1301123046875,-0.8950653076171875,-0.54254150390625,0.0498809814453125
1726225373513150200,12.140150146484375,-1.176361083984375,-0.4483489990234375,0.0540313720703125
1726225373523187500,12.1501875,-0.275848388671875,-1.0780181884765625,0.187225341796875
1726225373533225200,12.16022509765625,0.045867919921875,-1.0497589111328125,0.10919189453125
1726225373543263200,12.17026318359375,-0.243682861328125,0.0659332275390625,-0.2501373291015625
1726225373553301200,12.18030126953125,-0.7086029052734375,0.0906524658203125,-0.009185791015625
1726225373563338200,12.190338134765625,0.2515869140625,-1.1891326904296875,0.078033447265625
1726225373573376300,12.200376220703125,0.03338623046875,-1.286163330078125,-0.015625
1726225373583414300,12.210414306640626,-1.34661865234375,-0.28753662109375,0.0811004638671875
1726225373593452300,12.220452392578125,-1.415435791015625,-0.7769317626953125,0.1215972900390625
1726225373603489300,12.2304892578125,-0.5626373291015625,-1.8370513916015625,0.1043243408203125
1726225373613527300,12.24052734375,-0.5379486083984375,-1.45330810546875,0.09552001953125
1726225373623565300,12.2505654296875,-0.39361572265625,-0.387451171875,-0.1299591064453125
1726225373633603300,12.260603271484374,-0.76220703125,-0.52044677734375,0.05987548828125
1726225373643640300,12.270640380859374,-0.23199462890625,-0.8369598388671875,0.0347442626953125
1726225373653678000,12.280677978515625,-0.4030914306640625,-0.806243896484375,-0.157958984375
1726225373663716400,12.29071630859375,-1.3623046875,-0.09027099609375,0.0965728759765625
1726225373673754000,12.300754150390626,-0.852020263671875,-1.114288330078125,0.1435394287109375
1726225373683791400,12.310791259765624,-0.64459228515625,-1.4422149658203125,0.3081207275390625
1726225373693829400,12.320829345703125,-0.5169830322265625,-0.89990234375,0.260345458984375
1726225373703867100,12.3308671875,-0.6112518310546875,-0.602569580078125,0.0173797607421875
1726225373713905400,12.340905517578125,-0.614471435546875,-1.1612701416015625,0.102081298828125
1726225373723942400,12.3509423828125,-0.3908233642578125,-1.2252349853515625,0.0738525390625
1726225373733980200,12.360980224609374,-0.65692138671875,-0.442169189453125,0.054229736328125
1726225373744018400,12.371018310546875,-0.216033935546875,-0.726959228515625,0.021026611328125
1726225373754056200,12.38105615234375,-0.1712188720703125,-1.428131103515625,0.035736083984375
1726225373764093400,12.391093505859375,-0.1890106201171875,-0.791168212890625,0.1745452880859375
1726225373774131200,12.401131103515626,-0.3128509521484375,-0.423797607421875,0.008544921875
1726225373784169200,12.411169189453124,-0.4331207275390625,-0.87841796875,-0.1245880126953125
1726225373794207200,12.421207275390625,-0.5682525634765625,-1.2239227294921875,0.00555419921875
1726225373804244200,12.431244140625,-0.9786376953125,-0.592041015625,0.1519317626953125
1726225373814282200,12.4412822265625,-0.2706146240234375,-0.4753570556640625,0.0668487548828125
1726225373824320300,12.4513203125,-0.399810791015625,-0.83282470703125,0.0845489501953125
1726225373834358300,12.461358154296875,-0.4295196533203125,-0.486053466796875,0.05010986328125
1726225373844396300,12.471396240234375,-0.8822784423828125,-0.387664794921875,0.0943603515625
1726225373854433300,12.481433349609375,-1.0878143310546875,-0.704986572265625,0.1347808837890625
1726225373864471300,12.49147119140625,-0.9381561279296875,-1.261505126953125,0.0702667236328125
1726225373874509300,12.50150927734375,-0.594024658203125,-1.202880859375,-0.0320892333984375
1726225373884547300,12.51154736328125,-0.0422821044921875,-0.88189697265625,0.1173095703125
1726225373894584000,12.521583984375,-0.3255615234375,-1.0509185791015625,0.19073486328125
1726225373904622300,12.531622314453125,-0.36822509765625,-0.7698516845703125,-0.20086669921875
1726225373914660000,12.54166015625,-0.9998931884765625,-0.38970947265625,-0.0912322998046875
1726225373924698400,12.551698486328124,-0.521942138671875,-0.4474945068359375,0.0133056640625
1726225373934735400,12.5617353515625,-0.0579071044921875,-1.03729248046875,-0.03668212890625
1726225373944773000,12.571773193359375,0.107818603515625,-0.8245086669921875,0.00225830078125
1726225373954811400,12.581811279296875,-0.6202239990234375,-0.3444976806640625,0.0300750732421875
1726225373964849200,12.59184912109375,-0.8191070556640625,-0.920013427734375,0.1887969970703125
1726225373974886100,12.60188623046875,-1.5020599365234375,-1.525299072265625,0.2901153564453125
1726225373984924400,12.61192431640625,-1.246734619140625,-1.03424072265625,-0.014373779296875
1726225373994957600,12.62195751953125,-1.0641937255859375,-0.5500946044921875,0.11785888671875
1726225374004995600,12.63199560546875,-0.685882568359375,-0.986083984375,0.04229736328125
1726225374015032600,12.642032470703125,0.24017333984375,-1.1819000244140625,-0.0648956298828125
1726225374025070300,12.6520703125,0.0730438232421875,-0.577423095703125,0.052154541015625
1726225374035108600,12.662108642578126,-0.235107421875,-0.4094696044921875,0.06121826171875
1726225374045146400,12.672146484375,-0.7080230712890625,-0.9165191650390625,0.083770751953125
1726225374055184600,12.6821845703125,-0.970458984375,-1.0013275146484375,0.14752197265625
1726225374065221600,12.6922216796875,-1.276214599609375,-0.5146942138671875,0.0457305908203125
1726225374075259400,12.70225927734375,-1.664154052734375,-0.9691314697265625,0.0513153076171875
1726225374085297700,12.712297607421876,-1.2891082763671875,-1.402557373046875,0.048675537109375
1726225374095335400,12.72233544921875,-0.5725250244140625,-1.24267578125,-0.1660919189453125
1726225374105372400,12.732372314453125,-0.3787689208984375,-0.325836181640625,-0.2632598876953125
1726225374115410700,12.74241064453125,0.2528839111328125,-0.3670654296875,0.031402587890625
1726225374125448400,12.752448486328126,0.560943603515625,-0.9461517333984375,-0.011932373046875
1726225374135486700,12.76248681640625,0.2979736328125,-0.6006622314453125,0.0850677490234375
1726225374145523500,12.7725234375,-0.508697509765625,-0.44390869140625,0.3447265625
1726225374155561500,12.7825615234375,-0.7780303955078125,-0.7559356689453125,0.2289581298828125
1726225374165599500,12.792599609375,-1.1641998291015625,-1.294647216796875,0.0951080322265625
1726225374175637500,12.802637451171876,-1.5699462890625,-0.8697052001953125,0.08062744140625
1726225374185675500,12.812675537109374,-0.7716217041015625,-0.555084228515625,0.0608673095703125
1726225374195712500,12.82271240234375,-0.388824462890625,-1.364654541015625,0.078704833984375
1726225374205750500,12.83275048828125,-0.1866912841796875,-0.8271942138671875,-0.0390625
1726225374215788500,12.84278857421875,-0.271820068359375,-0.6379547119140625,0.0695648193359375
1726225374225826600,12.85282666015625,-0.688629150390625,-0.3351287841796875,-0.0669403076171875
1726225374235863600,12.862863525390624,-0.341552734375,-0.6151885986328125,0.181732177734375
1726225374245901600,12.872901611328125,-0.2992706298828125,-1.018402099609375,0.2308349609375
1726225374255939600,12.882939697265625,-0.222808837890625,-0.713653564453125,0.1410064697265625
1726225374265977600,12.8929775390625,-0.2398681640625,-0.9837799072265625,0.241790771484375
1726225374276014600,12.9030146484375,-0.5343170166015625,-1.407562255859375,0.1995086669921875
1726225374286052400,12.91305224609375,-1.003509521484375,-0.9386749267578125,0.12274169921875
1726225374296090600,12.923090576171875,-0.8564300537109375,-0.638214111328125,0.1533660888671875
1726225374306128400,12.93312841796875,-0.699371337890625,-1.0627899169921875,-0.023193359375
