time,seconds_elapsed,z,y,x
1726225361412996900,0.039996826171875,0.20799367129802704,0.2676663398742676,0.12335522472858429
1726225361423033600,0.05003369140625,0.18417170643806458,0.27468881011009216,0.0734822079539299
1726225361433070800,0.06007080078125,0.17670047283172607,0.2562570869922638,-0.05483848229050636
1726225361443107800,0.07010791015625,0.19658362865447998,0.3671710789203644,0.062427423894405365
1726225361453144800,0.080144775390625,0.30037128925323486,0.2838823199272156,0.32439085841178894
1726225361463181800,0.090181884765625,0.23261965811252594,0.21370641887187958,0.19208554923534393
1726225361473217800,0.1002177734375,0.17992369830608368,0.3572806417942047,-0.23774731159210205
1726225361483254800,0.1102548828125,0.2659011781215668,0.3813239336013794,0.010291253216564655
1726225361493291800,0.120291748046875,0.28408870100975037,0.31409960985183716,0.16094733774662018
1726225361503328800,0.130328857421875,0.31215497851371765,0.36928030848503113,-0.013708887621760368
1726225361513365800,0.14036572265625,0.3420441448688507,0.43884339928627014,-0.03725922107696533
1726225361523402800,0.15040283203125,0.35699301958084106,0.3922215700149536,0.00035899411886930466
1726225361533440000,0.16043994140625,0.320652574300766,0.4171602129936218,0.10777173936367035
1726225361543476700,0.170476806640625,0.2908344864845276,0.44897007942199707,0.013469203375279903
1726225361553513700,0.180513671875,0.1737251877784729,0.4425734281539917,-0.14567437767982483
1726225361563550700,0.19055078125,0.1691935509443283,0.44127538800239563,0.03127216920256615
1726225361573588000,0.200587890625,0.194956973195076,0.4429638385772705,0.11403575539588928
1726225361583625000,0.210625,0.1654968112707138,0.38284724950790405,-0.0810927227139473
1726225361593661700,0.22066162109375,0.16957491636276245,0.43274688720703125,-0.057060357183218
1726225361603698700,0.23069873046875,0.1829085648059845,0.3195585608482361,0.3051828145980835
1726225361613736000,0.24073583984375,-0.002142513170838356,0.28177976608276367,0.09814467281103134
1726225361623773000,0.25077294921875,-0.11611195653676987,0.2962484359741211,-0.22673754394054413
1726225361633810000,0.260809814453125,-0.2188098430633545,0.2242770493030548,-0.08224853128194809
1726225361643846700,0.2708466796875,-0.2586725652217865,0.26024356484413147,0.17669354379177094
1726225361653883600,0.280883544921875,-0.37080761790275574,0.14273664355278015,0.2330676019191742
1726225361663921000,0.2909208984375,-0.4957596957683563,0.0685843899846077,0.033184852451086044
1726225361673958000,0.3009580078125,-0.5187686085700989,-0.06025295332074165,0.037090908735990524
1726225361683995000,0.310994873046875,-0.5611434578895569,0.003123888047412038,0.417148232460022
1726225361694030800,0.32103076171875,-0.6332153081893921,-0.183395117521286,0.2367939054965973
1726225361704067600,0.331067626953125,-0.8367210030555725,-0.20884083211421967,0.11695884168148041
1726225361714104800,0.341104736328125,-0.9570748209953308,-0.2711814343929291,0.0790892243385315
1726225361724141800,0.351141845703125,-1.0738550424575806,-0.35482358932495117,0.3573613166809082
1726225361734178800,0.3611787109375,-1.1362619400024414,-0.4550125300884247,0.0579698272049427
1726225361744215800,0.3712158203125,-1.2293628454208374,-0.47716283798217773,0.005395830608904362
1726225361754252800,0.381252685546875,-1.229163408279419,-0.4747454822063446,0.28014084696769714
1726225361764289800,0.391289794921875,-1.277069330215454,-0.4556857645511627,-0.10620632767677307
1726225361774326800,0.401326904296875,-1.2737313508987427,-0.5015329122543335,0.011422564275562763
1726225361784363800,0.41136376953125,-1.2965264320373535,-0.6080995202064514,0.2709159255027771
1726225361794400800,0.42140087890625,-1.3565279245376587,-0.5229947566986084,-0.01906503736972809
1726225361804437800,0.431437744140625,-1.3169333934783936,-0.6308322548866272,0.2188817411661148
1726225361814474800,0.441474853515625,-1.2676939964294434,-0.6357945799827576,0.07381509989500046
1726225361824511700,0.45151171875,-1.249253749847412,-0.4919894337654114,-0.1828627586364746
1726225361834548700,0.461548828125,-1.1857383251190186,-0.5806010961532593,0.23986266553401947
1726225361844586000,0.4715859375,-1.2229059934616089,-0.769739031791687,0.1574636548757553
1726225361854622700,0.481622802734375,-1.202873706817627,-0.6838696599006653,-0.07337488234043121
1726225361864659700,0.49165966796875,-1.1390366554260254,-0.5853502750396729,0.0643124133348465
1726225361874696700,0.50169677734375,-1.0604337453842163,-0.5012308955192566,0.08057127147912979
1726225361884733700,0.511733642578125,-0.9656334519386292,-0.5064789056777954,-0.010628409683704376
1726225361894771000,0.52177099609375,-0.8685575127601624,-0.5261240005493164,0.05011749640107155
1726225361904807700,0.5318076171875,-0.7435095906257629,-0.6262830495834351,0.20364660024642944
1726225361914844700,0.5418447265625,-0.6923686265945435,-0.5964646935462952,0.018250908702611923
1726225361924881700,0.551881591796875,-0.6722766757011414,-0.5669763684272766,0.014819959178566933
1726225361934919000,0.5619189453125,-0.6978152990341187,-0.4735361337661743,0.10728597640991211
1726225361944956000,0.571955810546875,-0.6065996289253235,-0.3909773528575897,-0.14805258810520172
1726225361954993000,0.581992919921875,-0.5771951675415039,-0.4979972839355469,0.17380614578723907
1726225361965029600,0.592029541015625,-0.5314106345176697,-0.5139594674110413,0.06895642727613449
1726225361975065600,0.602065673828125,-0.40774834156036377,-0.42558538913726807,-0.13944071531295776
1726225361985106200,0.612106201171875,-0.3773361146450043,-0.42064762115478516,0.24573253095149994
1726225361995143400,0.622143310546875,-0.2922121584415436,-0.40240150690078735,0.10706999152898788
1726225362005180400,0.632180419921875,-0.21860584616661072,-0.32198843359947205,0.09854281693696976
1726225362015217400,0.642217529296875,-0.17767758667469025,-0.3134458065032959,0.18319006264209747
1726225362025254100,0.652254150390625,-0.0943845584988594,-0.34890711307525635,0.08839431405067444
1726225362035291400,0.66229150390625,-0.06350573897361755,-0.30571943521499634,0.12490012496709824
1726225362045328400,0.672328369140625,0.043115511536598206,-0.25895512104034424,0.195346862077713
1726225362055365400,0.682365478515625,0.12452568113803864,-0.13937786221504211,0.06382665038108826
1726225362065402400,0.69240234375,0.2464614361524582,-0.10511124134063721,0.08518386632204056
1726225362075439400,0.702439453125,0.3577117919921875,0.0052229915745556355,-0.02262035757303238
1726225362085476400,0.712476318359375,0.49940234422683716,0.04976862296462059,-0.01326919998973608
1726225362095513300,0.722513427734375,0.5816306471824646,0.14332573115825653,0.04974332079291344
1726225362105550300,0.73255029296875,0.7147021293640137,0.21245980262756348,-0.03951278701424599
1726225362115587300,0.74258740234375,0.8487046957015991,0.23182816803455353,0.09494275599718094
1726225362125624300,0.752624267578125,0.8939486145973206,0.27658018469810486,0.08304348587989807
1726225362135661300,0.762661376953125,0.9840965867042542,0.3298170566558838,0.02587953396141529
1726225362145698300,0.7726982421875,1.0063140392303467,0.36648237705230713,0.0853593721985817
1726225362155735300,0.7827353515625,1.0409945249557495,0.3693751096725464,-0.0711471438407898
1726225362165772500,0.7927724609375,1.0430632829666138,0.4098855257034302,-0.047570448368787766
1726225362175809300,0.802809326171875,1.0410884618759155,0.4616160988807678,-0.056528523564338684
1726225362185846300,0.81284619140625,1.0372117757797241,0.48920324444770813,-0.11236701905727386
1726225362195883300,0.82288330078125,0.9825384020805359,0.5806213021278381,-0.37259966135025024
1726225362205920300,0.832920166015625,0.9671123027801514,0.46855229139328003,-0.05089433863759041
1726225362215957500,0.84295751953125,0.8698701858520508,0.41830989718437195,0.023238476365804672
1726225362225994200,0.852994140625,0.8164977431297302,0.44154250621795654,-0.41235214471817017
1726225362236031200,0.86303125,0.7801645398139954,0.3829585611820221,-0.030075345188379288
1726225362246068200,0.873068115234375,0.8018290400505066,0.31404128670692444,0.0660964623093605
1726225362256105500,0.88310546875,0.7676764130592346,0.32008132338523865,-0.10729183256626129
1726225362266142500,0.893142578125,0.7021440267562866,0.2509419322013855,0.004480235744267702
1726225362276179200,0.90317919921875,0.6293587684631348,0.2339933216571808,-0.09015759080648422
1726225362286216200,0.91321630859375,0.5793187618255615,0.2888038456439972,0.07202892005443573
1726225362296253400,0.92325341796875,0.5579879283905029,0.2540133595466614,0.06933166831731796
1726225362306290400,0.93329052734375,0.4931676387786865,0.2705284357070923,-0.1610059291124344
1726225362316327400,0.943327392578125,0.4651482403278351,0.30967769026756287,-0.2301330715417862
1726225362326364200,0.9533642578125,0.39312997460365295,0.3600010573863983,-0.028552016243338585
1726225362336401200,0.963401123046875,0.37361088395118713,0.2973922789096832,0.0587402768433094
1726225362346438400,0.9734384765625,0.36379820108413696,0.3565000593662262,-0.4710058569908142
1726225362356475400,0.983475341796875,0.4014246463775635,0.24271783232688904,-0.08662384003400803
1726225362366512400,0.993512451171875,0.42108118534088135,0.25127696990966797,0.2977136969566345
1726225362376549000,1.003549072265625,0.39642006158828735,0.25600939989089966,0.019102055579423904
1726225362386586400,1.01358642578125,0.38521745800971985,0.2233358770608902,0.0003235740587115288
1726225362396623400,1.023623291015625,0.3431192636489868,0.21614454686641693,0.079752616584301
1726225362406660400,1.033660400390625,0.2378559708595276,0.2528535723686218,0.04619625583291054
1726225362416697300,1.043697265625,0.17525143921375275,0.2515275776386261,0.2013128697872162
1726225362426734300,1.053734375,0.12855984270572662,0.2393215000629425,0.28265273571014404
1726225362436771300,1.063771240234375,0.13252821564674377,0.32527849078178406,-0.18284811079502106
1726225362446808300,1.073808349609375,0.14842276275157928,0.2812228798866272,-0.35996749997138977
1726225362456845300,1.08384521484375,0.11888164281845093,0.135087251663208,0.07620502263307571
1726225362466882300,1.09388232421875,0.13095934689044952,0.15034796297550201,-0.09598005563020706
1726225362476919300,1.103919189453125,0.13882872462272644,0.22122159600257874,-0.026683809235692024
1726225362486956300,1.113956298828125,0.019050123170018196,0.252321720123291,0.14050838351249695
1726225362496993300,1.1239931640625,-0.07197565585374832,0.18397435545921326,0.004769987892359495
1726225362507030300,1.1340302734375,-0.12366840988397598,0.15908712148666382,0.11087805032730103
1726225362517067500,1.144067626953125,-0.15471793711185455,0.13601082563400269,0.0879969671368599
1726225362527104300,1.154104248046875,-0.18961574137210846,0.13117772340774536,0.09669298678636551
1726225362537141200,1.164141357421875,-0.23222550749778748,0.1264021396636963,0.11510048806667328
1726225362547178200,1.17417822265625,-0.24880290031433105,0.1095011904835701,-0.013291303999722004
1726225362557215500,1.184215576171875,-0.26977503299713135,0.09230756014585495,0.01557922549545765
1726225362567252500,1.19425244140625,-0.3443949222564697,0.04803277179598808,-0.10937975347042084
1726225362577289200,1.204289306640625,-0.4380015730857849,0.02112339437007904,0.089323490858078
1726225362587326200,1.214326171875,-0.45793959498405457,0.012113387696444988,-0.017525730654597282
1726225362597363200,1.22436328125,-0.6026656031608582,-0.04446413740515709,0.001989913871511817
1726225362607400400,1.234400390625,-0.6512126326560974,-0.17283116281032562,0.15655498206615448
1726225362617437400,1.2444375,-0.7528061270713806,-0.24353596568107605,0.09660083800554276
1726225362627474400,1.254474365234375,-0.8400132060050964,-0.1766088604927063,-0.12483833730220795
1726225362637511200,1.26451123046875,-0.8434313535690308,-0.26289206743240356,-0.048766206949949265
1726225362647548400,1.27454833984375,-0.8909128904342651,-0.3778109550476074,0.15663860738277435
1726225362657585400,1.28458544921875,-0.9189801812171936,-0.34448572993278503,-0.04182547703385353
1726225362667622400,1.294622314453125,-0.9443097710609436,-0.3592979907989502,0.6223945617675781
1726225362677659400,1.304659423828125,-0.941073477268219,-0.49271008372306824,0.3873130977153778
1726225362687696100,1.314696044921875,-0.9591166973114014,-0.4836401641368866,-0.049062617123126984
1726225362697733400,1.3247333984375,-0.9955058693885803,-0.433658242225647,-0.1742788553237915
1726225362707771400,1.334771484375,-0.9446754455566406,-0.47428980469703674,-0.007956726476550102
1726225362717808000,1.34480810546875,-0.9131388068199158,-0.45542851090431213,-0.1663583517074585
1726225362727845400,1.354845458984375,-0.8732579946517944,-0.5762233734130859,0.018212825059890747
1726225362737882400,1.36488232421875,-0.8516525626182556,-0.5451722145080566,0.22279925644397736
1726225362747919400,1.37491943359375,-0.8439352512359619,-0.5252653956413269,-0.031076425686478615
1726225362757956400,1.384956298828125,-0.8363598585128784,-0.4663386642932892,0.16365763545036316
1726225362767993300,1.394993408203125,-0.7874698042869568,-0.4117358922958374,0.2564813196659088
1726225362778030300,1.4050302734375,-0.7765434384346008,-0.4298565685749054,0.2878086268901825
1726225362788067300,1.4150673828125,-0.6956530809402466,-0.4474653899669647,0.3328365385532379
1726225362798104300,1.425104248046875,-0.5846344232559204,-0.5113136172294617,-0.027888089418411255
1726225362808141300,1.435141357421875,-0.571661651134491,-0.4275500178337097,-0.08427440375089645
1726225362818178300,1.44517822265625,-0.48583781719207764,-0.47555240988731384,0.04884370416402817
1726225362828215300,1.45521533203125,-0.5180215835571289,-0.4484885632991791,0.0010879012988880277
1726225362838252300,1.465252197265625,-0.5124318599700928,-0.44900602102279663,-0.09598831087350845
1726225362848289300,1.475289306640625,-0.5462934374809265,-0.3928698003292084,-0.01666073501110077
1726225362858326500,1.485326416015625,-0.5009840130805969,-0.3983423113822937,0.09434754401445389
1726225362868363300,1.49536328125,-0.47530102729797363,-0.4432184398174286,0.08280380070209503
1726225362878400300,1.505400146484375,-0.4726216197013855,-0.43904900550842285,0.24144510924816132
1726225362888437200,1.515437255859375,-0.36839666962623596,-0.4034654498100281,0.12472754716873169
1726225362898474500,1.525474609375,-0.3928724527359009,-0.37608760595321655,-0.10628382861614227
1726225362908511500,1.535511474609375,-0.3893831670284271,-0.40269845724105835,0.05880552530288696
1726225362918548200,1.54554833984375,-0.38253697752952576,-0.3683282136917114,0.012803679332137108
1726225362928585200,1.555585205078125,-0.39051929116249084,-0.3349015712738037,-0.19584965705871582
1726225362938623500,1.56562353515625,-0.3732476234436035,-0.39423972368240356,0.16865932941436768
1726225362948660500,1.575660400390625,-0.3659074008464813,-0.3716406524181366,0.05534155294299126
1726225362958697200,1.585697265625,-0.33642515540122986,-0.27163177728652954,-0.035777702927589417
1726225362968734200,1.595734130859375,-0.3175601065158844,-0.29355040192604065,0.18435172736644745
1726225362978771500,1.605771484375,-0.2601516842842102,-0.28856176137924194,0.01411422062665224
1726225362988808200,1.61580810546875,-0.24228054285049438,-0.24700818955898285,0.1172720342874527
1726225362998845200,1.62584521484375,-0.2104264795780182,-0.25838229060173035,0.2510428726673126
1726225363008882000,1.6358818359375,-0.17627063393592834,-0.08514551818370819,-0.12594035267829895
1726225363018919000,1.6459189453125,-0.1049186959862709,-0.10597463697195053,-0.10314662754535675
1726225363028956000,1.655955810546875,-0.039874445647001266,-0.2004244476556778,0.13227973878383636
1726225363038993200,1.6659931640625,0.10821887850761414,-0.07178284227848053,-0.45908743143081665
1726225363049030100,1.676030029296875,0.19927315413951874,-0.12280687689781189,-0.010381001979112625
1726225363059067100,1.686067138671875,0.24474211037158966,-0.06730766594409943,0.16735677421092987
1726225363069103900,1.696103759765625,0.31699392199516296,0.046610377728939056,-0.009798568673431873
1726225363079141000,1.70614111328125,0.32697466015815735,0.09784586727619171,0.14118055999279022
1726225363089178000,1.71617822265625,0.3848382234573364,0.07336076349020004,0.14092382788658142
1726225363099216000,1.7262158203125,0.3867722153663635,0.15644872188568115,0.48596563935279846
1726225363109252900,1.7362529296875,0.4991821050643921,0.09064867347478867,-0.019364377483725548
1726225363119290000,1.7462900390625,0.4632241129875183,0.1915859431028366,-0.250230073928833
1726225363129327000,1.7563271484375,0.5636492371559143,0.048043157905340195,0.11747603118419647
1726225363139364000,1.766364013671875,0.4864753782749176,0.13999785482883453,0.27663132548332214
1726225363149400800,1.77640087890625,0.5132800936698914,0.1367783546447754,0.10536903142929077
1726225363159438000,1.78643798828125,0.4371248781681061,0.2176724076271057,0.013350958935916424
1726225363169475000,1.79647509765625,0.3500981032848358,0.16259770095348358,0.14834366738796234
1726225363179512000,1.806511962890625,0.2547169625759125,0.1184970885515213,0.06956470012664795
1726225363189549000,1.816549072265625,0.14514626562595367,0.14500272274017334,0.15708228945732117
1726225363199586000,1.8265859375,0.09198744595050812,0.005054679699242115,0.28503599762916565
1726225363209623000,1.836623046875,-0.042275551706552505,0.010688597336411476,-0.031631164252758026
1726225363219660000,1.846659912109375,-0.09146280586719513,-0.027595940977334976,-0.3092065751552582
1726225363229698000,1.856697998046875,-0.2363869696855545,-0.16371968388557434,0.1497066766023636
1726225363239735000,1.866735107421875,-0.28392067551612854,-0.18325690925121307,-0.14634282886981964
1726225363249772000,1.87677197265625,-0.36131104826927185,-0.18240362405776978,-0.40926021337509155
1726225363259809000,1.88680908203125,-0.40873104333877563,-0.1812904328107834,0.1376151144504547
1726225363269846000,1.896845947265625,-0.43810412287712097,-0.31169450283050537,0.07432004064321518
1726225363279883300,1.90688330078125,-0.5055385231971741,-0.26425403356552124,0.025729864835739136
1726225363289920000,1.916919921875,-0.4374085068702698,-0.3134532570838928,0.132939413189888
1726225363299957000,1.92695703125,-0.48496270179748535,-0.3384550213813782,0.24576422572135925
1726225363309994000,1.936993896484375,-0.4556013345718384,-0.31573691964149475,-0.03329004719853401
1726225363320031000,1.947031005859375,-0.38387230038642883,-0.3273424506187439,-0.16330929100513458
1726225363330068200,1.957068115234375,-0.40959951281547546,-0.41571465134620667,0.26818403601646423
1726225363340106000,1.96710595703125,-0.32359084486961365,-0.40949884057044983,0.030760308727622032
1726225363350143000,1.97714306640625,-0.30763453245162964,-0.31050434708595276,-0.08432819694280624
1726225363360180200,1.98718017578125,-0.2604225277900696,-0.2858346700668335,0.2442944347858429
1726225363370217000,1.997217041015625,-0.22849895060062408,-0.3046129047870636,0.2604089379310608
1726225363380254000,2.00725390625,-0.1725563257932663,-0.1437116265296936,0.04776725545525551
1726225363390291000,2.017291015625,-0.05757620930671692,-0.17303462326526642,-0.01369157712906599
1726225363400328200,2.027328125,-0.04079936072230339,-0.13200117647647858,0.11960922181606293
1726225363410365200,2.037365234375,0.07483801990747452,-0.19834958016872406,0.4193032681941986
1726225363420402200,2.047402099609375,0.15676884353160858,-0.08522115647792816,0.004206995479762554
1726225363430440000,2.05743994140625,0.2666303515434265,-0.11087272316217422,-0.09640856087207794
1726225363440477200,2.067477294921875,0.2982841730117798,-0.14271587133407593,0.03050917387008667
1726225363450514200,2.07751416015625,0.30169060826301575,-0.055039018392562866,0.0718744546175003
1726225363460551000,2.087551025390625,0.3007585108280182,0.05024905502796173,0.06606610119342804
1726225363470588000,2.097587890625,0.3551791310310364,0.06455342471599579,-0.03897855803370476
1726225363480625200,2.107625244140625,0.36831092834472656,0.09879928082227707,0.011295530945062637
1726225363490662100,2.117662109375,0.5012980103492737,0.12315601855516434,0.11366744339466095
1726225363500699100,2.12769921875,0.4768720269203186,0.09129023551940918,0.28985312581062317
1726225363510736000,2.13773583984375,0.507632315158844,0.08548800647258759,-0.05470265820622444
1726225363520774100,2.147774169921875,0.5360506176948547,0.22927846014499664,-0.5427879095077515
1726225363530811100,2.15781103515625,0.5210466384887695,0.13542786240577698,0.1289300173521042
1726225363540848000,2.16784814453125,0.48245158791542053,0.09697528183460236,-0.014591725543141365
1726225363550884900,2.177884765625,0.4457913339138031,0.2047121375799179,-0.38038143515586853
1726225363560922000,2.187922119140625,0.4999227225780487,0.11644325405359268,0.08925238251686096
1726225363570959000,2.197958984375,0.33877167105674744,0.07334079593420029,0.08399583399295807
1726225363580996000,2.20799609375,0.40369713306427,0.11852025240659714,-0.2186734825372696
1726225363591033900,2.218033935546875,0.3925558030605316,0.09834867715835571,-0.10272584855556488
1726225363601071000,2.228071044921875,0.35304728150367737,0.007664044853299856,0.21713897585868835
1726225363611108000,2.238108154296875,0.4044899642467499,-0.07752116024494171,0.3399101793766022
1726225363621145000,2.24814501953125,0.26785168051719666,0.01690441556274891,-0.3062635362148285
1726225363631182000,2.25818212890625,0.25781184434890747,0.05914454534649849,-0.3961436152458191
1726225363641219000,2.268218994140625,0.20372062921524048,0.030730482190847397,0.12680640816688538
1726225363651256000,2.278256103515625,0.09931327402591705,0.017355021089315414,-0.0937025249004364
1726225363661293000,2.28829296875,0.1775534749031067,-0.009273925796151161,-0.19350901246070862
1726225363671330800,2.298330810546875,0.16852137446403503,0.021615546196699142,0.10753951221704483
1726225363681368000,2.3083681640625,0.15834462642669678,-0.04134903848171234,-0.015925170853734016
1726225363691405000,2.318405029296875,0.11944330483675003,-0.14682646095752716,0.10823912173509598
1726225363701442000,2.328442138671875,0.07377409189939499,-0.18339033424854279,0.22368130087852478
1726225363711479000,2.33847900390625,0.04583406820893288,-0.06574679166078568,-0.2596081495285034
1726225363721516000,2.34851611328125,-0.007451790850609541,-0.15253707766532898,-0.15713796019554138
1726225363731553000,2.358552978515625,0.0003217098710592836,-0.18442736566066742,0.20644772052764893
1726225363741591000,2.368591064453125,0.020786771550774574,-0.17096774280071259,-0.23431982100009918
1726225363751628300,2.378628173828125,0.06718756258487701,-0.18018947541713715,0.06805441528558731
1726225363761665000,2.3886650390625,0.12510758638381958,-0.20264364778995514,0.16677193343639374
1726225363771702000,2.398701904296875,0.09279731661081314,-0.18759626150131226,0.053636595606803894
1726225363781739000,2.408739013671875,0.05289437249302864,-0.17813724279403687,0.12936916947364807
1726225363791776000,2.41877587890625,-0.017955563962459564,-0.07053781300783157,0.045338187366724014
1726225363801813200,2.428813232421875,-0.048529986292123795,-0.10046935081481934,0.21758319437503815
1726225363811851000,2.43885107421875,-0.13407258689403534,-0.02996615506708622,0.16369439661502838
1726225363821888000,2.448887939453125,-0.1099424809217453,-0.016861004754900932,-0.3908710777759552
1726225363831925200,2.45892529296875,-0.11434867978096008,-0.13424596190452576,0.16003760695457458
1726225363841962000,2.4689619140625,-0.05044932663440704,-0.1081128865480423,0.057732805609703064
1726225363851999000,2.4789990234375,0.02472558617591858,-0.09145907312631607,-0.26876968145370483
1726225363862036000,2.489035888671875,0.03617718070745468,-0.12372779846191406,0.24861353635787964
1726225363872074200,2.49907421875,0.038063228130340576,-0.23019805550575256,0.19267037510871887
1726225363882111000,2.509111083984375,0.08138860017061234,-0.12043826282024384,0.13467925786972046
1726225363892148000,2.51914794921875,0.06040368974208832,-0.09100474417209625,0.2711833119392395
1726225363902185000,2.52918505859375,0.11234305053949356,-0.0905621200799942,0.15986476838588715
1726225363912222200,2.53922216796875,0.11566800624132156,0.024818530306220055,-0.11746058613061905
1726225363922259200,2.54925927734375,0.21587903797626495,0.09533104300498962,-0.24621190130710602
1726225363932297000,2.559296875,0.23240527510643005,0.036307141184806824,0.059059057384729385
1726225363942334000,2.569333984375,0.24758848547935486,0.07919149100780487,0.018010692670941353
1726225363952371200,2.57937109375,0.3344791829586029,0.10415516048669815,-0.11774314194917679
1726225363962408200,2.589408203125,0.3304985463619232,0.10653229802846909,0.040164731442928314
1726225363972445000,2.59944482421875,0.3647145926952362,0.09833988547325134,0.0929001122713089
1726225363982483200,2.609483154296875,0.38022562861442566,0.11790027469396591,0.0349728986620903
1726225363992516900,2.619516845703125,0.3484293520450592,0.15277037024497986,0.008177502080798149
1726225364002553600,2.6295537109375,0.3627438545227051,0.10810383409261703,0.37527400255203247
1726225364012590600,2.639590576171875,0.27375084161758423,0.3591770827770233,0.2087915688753128
1726225364022627800,2.6496279296875,0.3672459125518799,0.36628344655036926,-0.5467171669006348
1726225364032664800,2.659664794921875,0.27593252062797546,0.2973584532737732,-0.2687177360057831
1726225364042702600,2.66970263671875,0.34037914872169495,0.32310083508491516,0.08711519092321396
1726225364052739600,2.679739501953125,0.3164983093738556,0.2619810104370117,-0.15270698070526123
1726225364062776800,2.68977685546875,0.3056052029132843,0.20379707217216492,-0.16443900763988495
1726225364072813800,2.699813720703125,0.38942232728004456,0.19113533198833466,0.19155025482177734
1726225364082850800,2.709850830078125,0.3075636923313141,0.17195364832878113,0.1771225780248642
1726225364092888600,2.719888671875,0.2886411249637604,0.21168801188468933,-0.01601571775972843
1726225364102925800,2.72992578125,0.22519956529140472,0.22866860032081604,-0.1299406886100769
1726225364112962800,2.739962890625,0.1158408522605896,0.13771311938762665,0.10165631771087646
1726225364122999600,2.74999951171875,0.05169302225112915,0.18023261427879333,-0.16356496512889862
1726225364133036500,2.76003662109375,-0.043061982840299606,0.11065727472305298,0.0729527696967125
1726225364143074800,2.77007470703125,-0.11620330810546875,-0.007364439312368631,0.08997569233179092
1726225364153111800,2.78011181640625,-0.1900429129600525,0.07545720785856247,-0.18136818706989288
1726225364163148500,2.7901484375,-0.19741001725196838,-0.052211273461580276,0.08747179061174393
1726225364173185800,2.800185791015625,-0.26579466462135315,-0.11391298472881317,-0.009856625460088253
1726225364183222800,2.810222900390625,-0.31669193506240845,-0.09415392577648163,-0.05825797840952873
1726225364193260500,2.820260498046875,-0.3571261763572693,-0.20192034542560577,0.257926344871521
1726225364203297500,2.830297607421875,-0.4773481786251068,-0.147606760263443,-0.07454267889261246
1726225364213334800,2.840334716796875,-0.5222741365432739,-0.0868651270866394,-0.10637065023183823
1726225364223371800,2.850371826171875,-0.5350338816642761,-0.218903586268425,0.06947921216487885
1726225364233408800,2.86040869140625,-0.5660200119018555,-0.20591267943382263,-0.022116754204034805
1726225364243446800,2.87044677734375,-0.5210346579551697,-0.22157900035381317,0.05716794729232788
1726225364253483800,2.88048388671875,-0.4877435564994812,-0.21847428381443024,-0.06267030537128448
1726225364263520800,2.890520751953125,-0.5153323411941528,-0.21240760385990143,-0.08137448132038116
1726225364273557800,2.900557861328125,-0.4747236371040344,-0.18574030697345734,0.04896434769034386
1726225364283594500,2.910594482421875,-0.47724032402038574,-0.13263101875782013,0.13817518949508667
1726225364293632800,2.9206328125,-0.43719303607940674,-0.19037847220897675,0.4047160744667053
1726225364303669800,2.930669677734375,-0.3625853955745697,-0.11031532287597656,-0.08585391938686371
1726225364313706800,2.940706787109375,-0.30711066722869873,-0.0813787430524826,-0.16413913667201996
1726225364323743700,2.95074365234375,-0.2021365910768509,-0.19965025782585144,0.1773044764995575
1726225364333781800,2.96078173828125,-0.17121435701847076,-0.05626300722360611,-0.17002099752426147
1726225364343818800,2.97081884765625,-0.07459327578544617,-0.056045956909656525,0.05199076235294342
1726225364353855500,2.98085546875,-0.08816740661859512,-0.06035575270652771,0.12990207970142365
1726225364363892700,2.990892822265625,-0.05115692690014839,-0.023379091173410416,-0.08668962121009827
1726225364373929700,3.0009296875,-0.02991155907511711,0.019177157431840897,0.13727104663848877
1726225364383967700,3.0109677734375,-0.0408792570233345,0.01104625966399908,0.25177231431007385
1726225364394004700,3.021004638671875,0.02358122542500496,0.025552498176693916,0.32103660702705383
1726225364404041700,3.031041748046875,0.03753459081053734,0.025178324431180954,-0.04439755901694298
1726225364414078700,3.04107861328125,0.0580875389277935,-0.023386549204587936,0.02743268944323063
1726225364424116700,3.05111669921875,0.06664374470710754,0.06978946924209595,0.08780229091644287
1726225364434153700,3.06115380859375,0.09052537381649017,0.04439622536301613,0.008257397450506687
1726225364444190700,3.071190673828125,0.031320370733737946,0.04200896993279457,-0.009916813112795353
1726225364454227700,3.081227783203125,0.018787536770105362,0.03868534415960312,-0.007842476479709148
1726225364464265700,3.091265625,-0.03491803631186485,0.01588255912065506,0.09581467509269714
1726225364474302700,3.101302734375,-0.11831892281770706,-0.0492226742208004,0.1757449358701706
1726225364484339700,3.111339599609375,-0.1357775330543518,-0.06336725503206253,-0.16172844171524048
1726225364494376700,3.121376708984375,-0.24143072962760925,0.02220703475177288,-0.31649965047836304
1726225364504414700,3.131414794921875,-0.2350279539823532,-0.06590817868709564,0.20638538897037506
1726225364514451700,3.14145166015625,-0.2868421673774719,-0.16763320565223694,0.15437492728233337
1726225364524488700,3.15148876953125,-0.3376297056674957,-0.09362289309501648,-0.4520675837993622
1726225364534525700,3.161525634765625,-0.29001104831695557,-0.25313159823417664,-0.06800168752670288
1726225364544563700,3.171563720703125,-0.3488634526729584,-0.30165332555770874,0.29559755325317383
1726225364554600700,3.1816005859375,-0.35716453194618225,-0.244008406996727,-0.009403888136148453
1726225364564637700,3.1916376953125,-0.44363948702812195,-0.19193081557750702,-0.15768976509571075
1726225364574674700,3.2016748046875,-0.4253198802471161,-0.29962611198425293,0.20080474019050598
1726225364584712700,3.211712646484375,-0.4227326214313507,-0.3065977394580841,0.10064724832773209
1726225364594749700,3.221749755859375,-0.38968703150749207,-0.3036869168281555,-0.265023410320282
1726225364604786700,3.23178662109375,-0.384046733379364,-0.33417052030563354,0.08372099697589874
1726225364614824000,3.241823974609375,-0.2809813320636749,-0.3695431649684906,-0.01744769886136055
1726225364624861700,3.25186181640625,-0.3045303523540497,-0.3396928608417511,-0.07041078060865402
1726225364634898700,3.261898681640625,-0.2731766700744629,-0.35337457060813904,0.09697555005550385
1726225364644935700,3.271935791015625,-0.2196548581123352,-0.28366953134536743,-0.11778442561626434
1726225364654972700,3.28197265625,-0.21338258683681488,-0.23851563036441803,-0.02068903297185898
1726225364665010700,3.2920107421875,-0.12685701251029968,-0.2621844708919525,0.03184075281023979
1726225364675047700,3.302047607421875,-0.08124399185180664,-0.22001439332962036,0.09392702579498291
1726225364685085000,3.3120849609375,-0.0031902005430310965,-0.26592594385147095,0.16577139496803284
1726225364695121700,3.32212158203125,0.025436384603381157,-0.15592248737812042,-0.22174784541130066
1726225364705159700,3.33215966796875,0.08663902431726456,-0.10728038102388382,-0.03352280706167221
1726225364715196700,3.34219677734375,0.12796862423419952,-0.1773952841758728,0.131203293800354
1726225364725234000,3.35223388671875,0.15108992159366608,-0.02822471410036087,-0.3805638551712036
1726225364735270700,3.362270751953125,0.23554514348506927,-0.05402408540248871,0.09548577666282654
1726225364745308700,3.37230859375,0.26703888177871704,-0.05686541274189949,0.07140333950519562
1726225364755346000,3.382345947265625,0.3717235028743744,0.09511293470859528,-0.19099712371826172
1726225364765382700,3.392382568359375,0.404103547334671,0.05771735683083534,0.1730327606201172
1726225364775420700,3.402420654296875,0.45702266693115234,-0.013836986385285854,0.24536341428756714
1726225364785457700,3.412457763671875,0.5519886016845703,0.13534609973430634,-0.1659008264541626
1726225364795495000,3.422494873046875,0.5547630786895752,0.15171416103839874,-0.3890489637851715
1726225364805531600,3.43253173828125,0.524666428565979,0.015327290631830692,0.05855891853570938
1726225364815569700,3.442569580078125,0.5290254950523376,0.1842942088842392,-0.19130071997642517
1726225364825607000,3.45260693359375,0.5463192462921143,0.27302008867263794,-0.3881298899650574
1726225364835643600,3.4626435546875,0.5593929886817932,0.19676658511161804,0.023970579728484154
1726225364845681700,3.472681640625,0.5694062113761902,0.14736895263195038,-0.1470472365617752
1726225364855718700,3.48271875,0.648996889591217,0.20257841050624847,-0.05163363367319107
1726225364865756000,3.492755859375,0.6487385630607605,0.1606735736131668,0.1035146713256836
1726225364875792600,3.502792724609375,0.6198025345802307,0.11783688515424728,-0.12150778621435165
1726225364885830700,3.51283056640625,0.5464654564857483,0.2076011300086975,-0.20718806982040405
1726225364895868000,3.522867919921875,0.5108497142791748,0.19972935318946838,-0.255837619304657
1726225364905905000,3.53290478515625,0.3907017111778259,0.13856293261051178,-0.017079651355743408
1726225364915942700,3.542942626953125,0.39151105284690857,0.18787455558776855,-0.43277671933174133
1726225364925979600,3.552979736328125,0.43761301040649414,0.14161811769008636,-0.007475493010133505
1726225364936017000,3.563016845703125,0.44134730100631714,0.10024671256542206,0.21018758416175842
1726225364946053600,3.5730537109375,0.4862263798713684,0.12367773056030273,-0.1405656337738037
1726225364956091600,3.583091552734375,0.4374793469905853,0.06186576560139656,0.012222045101225376
1726225364966129000,3.59312890625,0.43609583377838135,0.046008236706256866,0.041489120572805405
1726225364976166000,3.603165771484375,0.40213891863822937,0.08497747778892517,-0.054007839411497116
1726225364986204200,3.6132041015625,0.28088200092315674,0.07428435236215591,-0.28341493010520935
1726225364996241200,3.6232412109375,0.24041473865509033,0.09407883137464523,0.032583244144916534
1726225365006278400,3.6332783203125,0.25791943073272705,0.06804429739713669,0.03633670136332512
1726225365016316200,3.643316162109375,0.2180955857038498,0.056296296417713165,-0.08865556865930557
1726225365026353200,3.653353271484375,0.2839116156101227,0.02756345085799694,0.26502206921577454
1726225365036390400,3.663390380859375,0.2819184958934784,0.012778112664818764,0.21364517509937286
1726225365046428200,3.67342822265625,0.30100858211517334,-0.002628007438033819,0.05678365379571915
1726225365056465200,3.683465087890625,0.24971608817577362,0.008962868712842464,0.08766566962003708
1726225365066502100,3.693502197265625,0.22772130370140076,0.012865465134382248,0.363273024559021
1726225365076539400,3.703539306640625,0.10581164807081223,0.16858075559139252,0.05931925028562546
1726225365086577200,3.7135771484375,0.16622120141983032,0.25095632672309875,-0.35470137000083923
1726225365096614100,3.7236142578125,0.09920008480548859,0.09617633372545242,0.19234015047550201
1726225365106651400,3.7336513671875,0.1362134963274002,0.11702542006969452,0.08891362696886063
1726225365116689200,3.743689208984375,0.19716154038906097,0.1097446084022522,-0.13105228543281555
1726225365126726100,3.75372607421875,0.2050359696149826,0.0622926689684391,0.23413392901420593
1726225365136763100,3.76376318359375,0.22046659886837006,0.014390124939382076,0.12597177922725677
1726225365146801200,3.77380126953125,0.22263680398464203,0.11726164817810059,0.13167600333690643
1726225365156838100,3.783838134765625,0.19780468940734863,0.12393686175346375,0.3742079436779022
1726225365166875100,3.793875244140625,0.18835392594337463,0.13153086602687836,0.07518156617879868
1726225365176913200,3.8039130859375,0.20309984683990479,0.1535767763853073,0.06397232413291931
1726225365186950100,3.8139501953125,0.23641332983970642,0.1971769779920578,0.11582646518945694
1726225365196987100,3.823987060546875,0.24224671721458435,0.1703786551952362,0.37541675567626953
1726225365207025400,3.834025390625,0.28196829557418823,0.16175268590450287,0.016345683485269547
1726225365217062100,3.844062255859375,0.25501763820648193,0.2640066146850586,-0.04530596360564232
1726225365227099100,3.85409912109375,0.3100409507751465,0.16283445060253143,0.27782735228538513
1726225365237137400,3.864137451171875,0.2536519765853882,0.22386212646961212,-0.06401520222425461
1726225365247174100,3.874174072265625,0.25946539640426636,0.19211697578430176,-0.028259601444005966
1726225365257211100,3.884211181640625,0.23002387583255768,0.11943558603525162,0.6849298477172852
1726225365267249200,3.894249267578125,0.18408994376659393,0.20655983686447144,0.1843876838684082
1726225365277286400,3.904286376953125,0.13425421714782715,0.30528587102890015,-0.13701936602592468
1726225365287323100,3.9143232421875,0.11565762013196945,0.2842314541339874,0.16146719455718994
1726225365297361200,3.924361083984375,0.03933355584740639,0.290461927652359,-0.15668362379074097
1726225365307398400,3.9343984375,0.08132041990756989,0.22328555583953857,-0.11696523427963257
1726225365317435400,3.944435302734375,0.15868738293647766,0.22544164955615997,0.14705602824687958
1726225365327473200,3.95447314453125,0.1284751445055008,0.18367423117160797,0.06922753900289536
1726225365337510100,3.96451025390625,0.09807010740041733,0.16258598864078522,0.19100457429885864
1726225365347548200,3.974548095703125,0.08790402114391327,0.17854604125022888,0.1376766413450241
1726225365357585200,3.984585205078125,-0.01871855929493904,0.24396473169326782,-0.22261656820774078
1726225365367622100,3.9946220703125,-0.05080512538552284,0.16814400255680084,0.12665940821170807
1726225365377660200,4.00466015625,-0.11552100628614426,0.21217963099479675,-0.008433698676526546
1726225365387697200,4.014697265625,-0.13080541789531708,0.19503633677959442,-0.06955457478761673
1726225365397734100,4.024734130859375,-0.12081083655357361,0.1213943362236023,0.084401436150074
1726225365407772400,4.0347724609375,-0.09269078820943832,0.09054241329431534,0.024715732783079147
1726225365417809200,4.04480908203125,-0.09229450672864914,0.08017286658287048,0.048778992146253586
1726225365427846100,4.05484619140625,-0.15646150708198547,0.08827073872089386,0.05200221389532089
1726225365437884400,4.064884521484375,-0.19596311450004578,-0.02551974169909954,0.2530357241630554
1726225365447921200,4.074921142578125,-0.2987385094165802,0.09770099073648453,-0.36039039492607117
1726225365457958100,4.084958251953125,-0.23874253034591675,0.05564355477690697,-0.46292877197265625
1726225365467996200,4.09499609375,-0.29594963788986206,0.06392811983823776,0.1431984305381775
1726225365478033400,4.105033447265625,-0.2990008294582367,0.002691923175007105,-0.17533214390277863
1726225365488071200,4.1150712890625,-0.3025047481060028,0.01853560097515583,0.07886631786823273
1726225365498108200,4.125108154296875,-0.30247917771339417,0.041723743081092834,0.2462603747844696
1726225365508145200,4.135145263671875,-0.271929532289505,-0.023509053513407707,0.09366470575332642
1726225365518183200,4.14518310546875,-0.3700536787509918,-0.051184091717004776,0.24346113204956055
1726225365528220200,4.15522021484375,-0.3730579912662506,0.06879424303770065,0.13215430080890656
1726225365538257200,4.165257080078125,-0.4030103087425232,0.052331116050481796,-0.07115646451711655
1726225365548295200,4.175295166015625,-0.48105716705322266,-0.015055116266012192,0.153620183467865
1726225365558332200,4.185332275390625,-0.38178491592407227,-0.028064657002687454,-0.15060469508171082
1726225365568369200,4.195369140625,-0.33692529797554016,-0.058332547545433044,-0.08754342794418335
1726225365578407200,4.2054072265625,-0.31291744112968445,-0.12616433203220367,0.18958084285259247
1726225365588444200,4.215444091796875,-0.2639823853969574,-0.11577294021844864,-0.06690366566181183
1726225365598482200,4.225482177734375,-0.31260183453559875,-0.022703448310494423,0.017672203481197357
1726225365608519400,4.23551953125,-0.27514874935150146,-0.05405497923493385,0.1034153401851654
1726225365618556200,4.24555615234375,-0.30456602573394775,-0.006490656174719334,0.19678576290607452
1726225365628594200,4.25559423828125,-0.2504260838031769,-0.02520602010190487,0.2899141013622284
1726225365638631200,4.265631103515625,-0.22849096357822418,-0.03951598331332207,-0.08780628442764282
1726225365648669200,4.275669189453125,-0.25269484519958496,-0.02105282060801983,-0.052386507391929626
1726225365658706200,4.2857060546875,-0.18275809288024902,-0.024776719510555267,-0.021458687260746956
1726225365668743200,4.2957431640625,-0.22780413925647736,-0.01200899202376604,0.09017995744943619
1726225365678781200,4.30578125,-0.1669626235961914,-0.007898936048150063,0.0024764735717326403
1726225365688818200,4.315818115234375,-0.1810627281665802,0.04368622601032257,-0.09081059694290161
1726225365698855200,4.325855224609375,-0.23152270913124084,0.027417775243520737,0.16155880689620972
1726225365708893200,4.33589306640625,-0.17020076513290405,-0.021645640954375267,0.24930889904499054
1726225365718930200,4.34593017578125,-0.21882502734661102,0.045044172555208206,0.19422246515750885
1726225365728968200,4.35596826171875,-0.20779606699943542,0.0033217607997357845,-0.22237341105937958
1726225365739005400,4.36600537109375,-0.18942877650260925,0.021631259471178055,0.07362282276153564
1726225365749042200,4.376042236328125,-0.17316539585590363,-0.04422525316476822,0.049131061881780624
1726225365759080200,4.386080078125,-0.19459745287895203,-0.037685327231884,-0.2620449364185333
1726225365769117200,4.3961171875,-0.22337156534194946,-0.06604905426502228,0.07451444864273071
1726225365779155200,4.4061552734375,-0.20927917957305908,-0.03670155629515648,-0.031503599137067795
1726225365789192200,4.416192138671875,-0.25044286251068115,-0.054362040013074875,0.09316723048686981
1726225365799229200,4.426229248046875,-0.30519214272499084,-0.08376467227935791,0.11455294489860535
1726225365809267200,4.43626708984375,-0.22667522728443146,-0.1282471865415573,0.23168009519577026
1726225365819304200,4.44630419921875,-0.25538942217826843,-0.08002053201198578,0.04589825123548508
1726225365829342200,4.45634228515625,-0.19277212023735046,-0.11427198350429535,-0.2591327726840973
1726225365839379200,4.466379150390625,-0.21238203346729279,-0.10177110135555267,-0.17642216384410858
1726225365849416200,4.476416259765625,-0.21017107367515564,-0.165836900472641,-0.13046133518218994
1726225365859454200,4.4864541015625,-0.19066208600997925,-0.11438249796628952,-0.1778525561094284
1726225365869491200,4.4964912109375,-0.22114117443561554,-0.0569453090429306,-0.255687952041626
1726225365879529200,4.506529296875,-0.19099578261375427,-0.09363488107919693,0.025486450642347336
1726225365889566200,4.516566162109375,-0.19238542020320892,-0.1324685662984848,0.15548279881477356
1726225365899603200,4.526603271484375,-0.12651905417442322,-0.17536169290542603,-0.06421253830194473
1726225365909641200,4.53664111328125,-0.07772701978683472,-0.07509661465883255,-0.21930332481861115
1726225365919678200,4.54667822265625,0.023076822981238365,-0.14302054047584534,-0.10201478004455566
1726225365929716200,4.55671630859375,0.05197851359844208,-0.20578645169734955,-0.007349791936576366
1726225365939753200,4.566753173828125,0.07113782316446304,-0.04435468092560768,-0.4705778956413269
1726225365949791200,4.576791259765625,0.11798282712697983,-0.11562193930149078,-0.06656171381473541
1726225365959828200,4.586828125,0.08548454195261002,-0.06754761934280396,-0.04073145240545273
1726225365969865200,4.596865234375,0.15481461584568024,0.02406672015786171,-0.2035781592130661
1726225365979903200,4.6069033203125,0.1376497447490692,0.03110465593636036,0.08719482272863388
1726225365989946400,4.6169462890625,0.20968984067440033,-0.03170999139547348,0.074643075466156
1726225365999984400,4.626984375,0.28205937147140503,0.06211530417203903,-0.10764709860086441
1726225366010021400,4.637021484375,0.33815327286720276,0.05868648365139961,-0.0025308020412921906
1726225366020059400,4.647059326171875,0.3410060703754425,0.012367986142635345,-0.0557897612452507
1726225366030096400,4.657096435546875,0.3129211664199829,0.12130192667245865,-0.23127663135528564
1726225366040133000,4.667133056640625,0.356810599565506,0.09294405579566956,0.13847824931144714
1726225366050171400,4.67717138671875,0.3018314838409424,0.1366819441318512,0.0626620501279831
1726225366060208400,4.68720849609375,0.36716389656066895,0.15619519352912903,-0.11878417432308197
1726225366070246100,4.69724609375,0.3442833423614502,0.09704239666461945,0.22015872597694397
1726225366080283400,4.707283447265625,0.33433616161346436,0.018516693264245987,0.23420238494873047
1726225366090321400,4.7173212890625,0.32641300559043884,0.09843309968709946,-0.031082285568118095
1726225366100358100,4.727358154296875,0.32241666316986084,0.08157209306955338,0.08380088955163956
1726225366110395400,4.7373955078125,0.3124053180217743,0.05251780152320862,0.0041092573665082455
1726225366120433400,4.747433349609375,0.2389441430568695,0.027940554544329643,0.018100973218679428
1726225366130470400,4.757470458984375,0.23189634084701538,0.03500831872224808,0.10893101245164871
1726225366140508400,4.76750830078125,0.183280348777771,0.016680443659424782,-0.006138320080935955
1726225366150545400,4.77754541015625,0.1412109136581421,-0.006880010478198528,0.060327786952257156
1726225366160583200,4.787583251953125,0.16552264988422394,-0.11611142754554749,0.18771237134933472
1726225366170620400,4.797620361328125,0.10891316831111908,-0.12412887066602707,0.12291660159826279
1726225366180657400,4.807657470703125,0.08312418311834335,-0.09353794157505035,-0.27036890387535095
1726225366190695200,4.817695068359375,0.0046908920630812645,-0.14346501231193542,0.06791992485523224
1726225366200732200,4.827732177734375,-0.06831593811511993,-0.0968296080827713,-0.043243877589702606
1726225366210770400,4.8377705078125,-0.12609535455703735,-0.1484493911266327,-0.019477028399705887
1726225366220807400,4.847807373046875,-0.19551411271095276,-0.1578490138053894,0.37020549178123474
1726225366230845400,4.857845458984375,-0.15830788016319275,-0.20734147727489471,0.0826815664768219
1726225366240882400,4.86788232421875,-0.2501073181629181,-0.19611065089702606,0.005368932615965605
1726225366250920200,4.877920166015625,-0.20614410936832428,-0.2980194389820099,0.46645957231521606
1726225366260957200,4.887957275390625,-0.2650662958621979,-0.12769803404808044,0.36924728751182556
1726225366270994400,4.897994384765625,-0.22845473885536194,-0.1421869695186615,-0.31684666872024536
1726225366281032400,4.908032470703125,-0.24064962565898895,-0.2040814906358719,-0.014795191586017609
1726225366291069200,4.918069091796875,-0.1707235425710678,-0.17285379767417908,0.2299056351184845
1726225366301107500,4.928107421875,-0.14233477413654327,-0.23810364305973053,0.08830882608890533
1726225366311144400,4.93814453125,-0.1684316247701645,-0.20225749909877777,0.07456478476524353
1726225366321182200,4.94818212890625,-0.009222793392837048,-0.16772055625915527,0.00885074958205223
1726225366331219500,4.958219482421875,-0.02598579414188862,-0.13174764811992645,0.20365431904792786
1726225366341257200,4.96825732421875,0.022723954170942307,-0.2508913576602936,0.44949978590011597
1726225366351294200,4.978294189453125,0.059607405215501785,-0.0672868937253952,-0.028270253911614418
1726225366361332500,4.98833251953125,0.06210837885737419,0.006084524095058441,-0.28874924778938293
1726225366371369500,4.998369384765625,0.08882228285074234,-0.11336251348257065,0.34321993589401245
1726225366381406200,5.00840625,0.12001242488622665,0.001711081014946103,-0.20757076144218445
1726225366391444500,5.018444580078125,0.16795943677425385,0.04942640662193298,-0.3693990707397461
1726225366401481500,5.0284814453125,0.21148881316184998,-0.02388908714056015,0.1208537146449089
1726225366411519200,5.038519287109375,0.27380090951919556,0.003142263740301132,-0.15991802513599396
1726225366421556200,5.04855615234375,0.30258437991142273,0.07583510875701904,-0.1327119767665863
1726225366431594500,5.058594482421875,0.29029175639152527,0.042146921157836914,0.26052772998809814
1726225366441631200,5.06863134765625,0.2801706790924072,0.09008222073316574,-0.07168084383010864
1726225366451669500,5.07866943359375,0.25433027744293213,0.11950322985649109,-0.29237034916877747
1726225366461706500,5.08870654296875,0.21549740433692932,0.04087153449654579,0.21258710324764252
1726225366471744300,5.098744140625,0.2599482238292694,0.035835228860378265,-0.22064955532550812
1726225366481781200,5.10878125,0.15854863822460175,0.12145665287971497,-0.2789804935455322
1726225366491819300,5.1188193359375,0.23954148590564728,-0.00518810423091054,0.11564643681049347
1726225366501856300,5.128856201171875,0.195197194814682,0.05084560438990593,-0.21511390805244446
1726225366511894300,5.138894287109375,0.15306144952774048,0.09488309919834137,-0.14420270919799805
1726225366521931500,5.148931640625,0.19948327541351318,0.010676346719264984,0.2640409767627716
1726225366531968300,5.15896826171875,0.1116437092423439,0.06934738159179688,-0.0073173013515770435
1726225366542006300,5.16900634765625,0.09903284162282944,0.09629245102405548,-0.4919401705265045
1726225366552043500,5.17904345703125,0.0909498780965805,0.08046607673168182,0.07255223393440247
1726225366562081300,5.189081298828125,0.10795256495475769,0.05957305058836937,-0.14595161378383636
1726225366572118300,5.1991181640625,0.05347307771444321,0.04657202959060669,-0.45067742466926575
1726225366582156500,5.209156494140625,0.08302724361419678,0.038661375641822815,0.08568720519542694
1726225366592193300,5.219193359375,0.07303798943758011,0.04953239858150482,-0.11715858429670334
1726225366602231300,5.229231201171875,0.06409882754087448,0.1661948263645172,-0.03133288770914078
1726225366612268500,5.2392685546875,0.07527850568294525,0.04851427301764488,0.291096568107605
1726225366622306300,5.249306396484375,0.02135828509926796,0.10833952575922012,-0.17731140553951263
1726225366632343300,5.25934326171875,0.046781886368989944,0.14852368831634521,-0.5123059153556824
1726225366642381300,5.26938134765625,0.059491291642189026,0.051536694169044495,0.10111383348703384
1726225366652418300,5.279418212890625,0.046128079295158386,0.08123546838760376,-0.24925962090492249
1726225366662456300,5.289456298828125,0.059181299060583115,0.04448118060827255,-0.340110182762146
1726225366672493300,5.299493408203125,0.12147263437509537,0.10321559756994247,0.23692013323307037
1726225366682531300,5.30953125,0.10638129711151123,0.05333246290683746,0.020972659811377525
1726225366692568300,5.319568359375,0.09578724205493927,0.10831741988658905,-0.08563128113746643
1726225366702606300,5.3296064453125,0.13740339875221252,0.08690400421619415,0.21657943725585938
1726225366712643300,5.339643310546875,0.09784400463104248,0.2196119874715805,0.1714170277118683
1726225366722681300,5.349681396484375,0.16071857511997223,0.11744540184736252,-0.26231205463409424
1726225366732718300,5.35971826171875,0.08944732695817947,0.10775069892406464,-0.10163740813732147
1726225366742756400,5.36975634765625,0.1894756555557251,0.20233845710754395,-0.12037887424230576
1726225366752793300,5.37979345703125,0.25306767225265503,0.19500890374183655,0.09849008917808533
1726225366762831400,5.389831298828125,0.2917650043964386,0.17837905883789062,0.2623365521430969
1726225366772868400,5.399868408203125,0.31345513463020325,0.22614365816116333,-0.005100485868752003
1726225366782906400,5.40990625,0.3012261390686035,0.2525145411491394,0.09730923920869827
1726225366792943400,5.419943359375,0.29383614659309387,0.2275058627128601,0.44410473108291626
1726225366802981400,5.4299814453125,0.33125489950180054,0.32864898443222046,0.2093348503112793
1726225366813018400,5.440018310546875,0.3122348487377167,0.3736146092414856,-0.22924037277698517
1726225366823056100,5.45005615234375,0.2810271382331848,0.30167222023010254,-0.014343785122036934
1726225366833093400,5.46009326171875,0.31427112221717834,0.3485899269580841,0.22511807084083557
1726225366843131400,5.47013134765625,0.3244984447956085,0.3373607099056244,0.10281027108430862
1726225366853168000,5.480168212890625,0.2799544334411621,0.2846256196498871,0.11501207202672958
1726225366863206400,5.490206298828125,0.25969254970550537,0.30647072196006775,0.2679627537727356
1726225366873243400,5.500243408203125,0.2302209585905075,0.35160917043685913,0.13611948490142822
1726225366883281200,5.51028125,0.18115034699440002,0.2411516308784485,0.5270947217941284
1726225366893318400,5.520318359375,0.10966391116380692,0.34593531489372253,0.1991802155971527
1726225366903356400,5.5303564453125,0.1013503223657608,0.34045904874801636,-0.12291952967643738
1726225366913393200,5.54039306640625,-0.0065343319438397884,0.14685416221618652,0.19584353268146515
1726225366923431400,5.550431396484375,-0.0316452793776989,0.19264614582061768,0.05070259049534798
1726225366933468400,5.560468505859375,-0.018461031839251518,0.22713035345077515,-0.023031549528241158
1726225366943506200,5.570506103515625,-0.1259579360485077,0.06702324002981186,0.16955573856830597
1726225366953543400,5.58054345703125,-0.154740571975708,0.06666531413793564,0.023485617712140083
1726225366963581400,5.59058154296875,-0.18089868128299713,0.1293710321187973,0.13167573511600494
1726225366973618200,5.6006181640625,-0.21346460282802582,-0.07822636514902115,0.6075746417045593
1726225366983656400,5.610656494140625,-0.29092851281166077,0.08326160162687302,-0.12283723801374435
1726225366993687000,5.62068701171875,-0.2614784836769104,0.11532951891422272,-0.2934558391571045
1726225367003725000,5.63072509765625,-0.30150657892227173,-0.08362671732902527,0.17743204534053802
1726225367013762000,5.640761962890625,-0.2963608205318451,-0.05537138134241104,-0.1476304680109024
1726225367023800000,5.650800048828125,-0.2739894688129425,0.009050486609339714,-0.26975691318511963
1726225367033837000,5.660837158203125,-0.27258384227752686,-0.007984156720340252,0.14190760254859924
1726225367043875000,5.670875,-0.23820644617080688,-0.006843524985015392,-0.01950232870876789
1726225367053912000,5.680912109375,-0.2585737705230713,0.022521020844578743,0.2306225597858429
1726225367063950000,5.6909501953125,-0.1956499218940735,-0.09582453221082687,0.4486667513847351
1726225367073987000,5.700987060546875,-0.19576683640480042,0.022409435361623764,-0.41981297731399536
1726225367084025000,5.711025146484375,-0.10158760845661163,0.1285467892885208,-0.23954254388809204
1726225367094062000,5.72106201171875,-0.05174122378230095,-0.04387211799621582,0.004287156742066145
1726225367104100000,5.73110009765625,-0.10378605127334595,0.07575654238462448,-0.500617265701294
1726225367114138000,5.74113818359375,0.001023452845402062,-0.041735995560884476,-0.3239048421382904
1726225367124175000,5.751175048828125,-0.04619785398244858,0.0630095899105072,-0.020176641643047333
1726225367134212900,5.761212890625,-0.03982198238372803,0.07491259276866913,-0.10100357979536057
1726225367144250000,5.77125,-0.022655777633190155,0.023376429453492165,0.19154706597328186
1726225367154288000,5.7812880859375,-0.02413756027817726,0.04440847784280777,-0.10799810290336609
1726225367164325000,5.7913251953125,0.0004082625964656472,0.08132947981357574,-0.41587337851524353
1726225367174363100,5.801363037109375,-0.03266899660229683,0.015922773629426956,0.08476682007312775
1726225367184400100,5.811400146484375,-0.021031782031059265,0.00048655952559784055,-0.1599838137626648
1726225367194438000,5.82143798828125,-0.07899574935436249,0.001814677962101996,-0.26179271936416626
1726225367204475100,5.83147509765625,-0.09391078352928162,-0.028721127659082413,0.13501933217048645
1726225367214513200,5.84151318359375,-0.1658606082201004,-0.08695407211780548,-0.08859963715076447
1726225367224550000,5.8515498046875,-0.2053598165512085,-0.03226765990257263,-0.07201746851205826
1726225367234588200,5.861588134765625,-0.21164274215698242,-0.15270937979221344,0.44782331585884094
1726225367244625200,5.871625244140625,-0.21125338971614838,-0.11348608136177063,-0.1820390373468399
1726225367254663000,5.881662841796875,-0.21752646565437317,-0.023925306275486946,-0.2479267120361328
1726225367264700200,5.8917001953125,-0.17380428314208984,-0.14669489860534668,0.12958994507789612
1726225367274738200,5.90173828125,-0.22698308527469635,-0.1865810602903366,0.0317709781229496
1726225367284776000,5.91177587890625,-0.2152944654226303,-0.15414004027843475,0.002168612089008093
1726225367294813200,5.921813232421875,-0.14965340495109558,-0.1876407414674759,0.12373419106006622
1726225367304851000,5.931850830078125,-0.218622088432312,-0.22021305561065674,0.023722639307379723
1726225367314888000,5.941887939453125,-0.188603475689888,-0.2567761242389679,0.2156025916337967
1726225367324926200,5.95192626953125,-0.17963820695877075,-0.2503315508365631,0.1955774873495102
1726225367334963200,5.961963134765625,-0.22313161194324493,-0.2069726288318634,-0.01841123215854168
1726225367345001000,5.9720009765625,-0.24675466120243073,-0.2040380835533142,0.08216757327318192
1726225367355038200,5.9820380859375,-0.25361016392707825,-0.14021410048007965,0.05091431364417076
1726225367365076000,5.992075927734375,-0.18434427678585052,-0.22051240503787994,0.1960752308368683
1726225367375113000,6.002113037109375,-0.24689047038555145,-0.20976760983467102,0.10232530534267426
1726225367385151200,6.012151123046875,-0.1637204885482788,-0.12221912294626236,-0.022057365626096725
1726225367395189000,6.02218896484375,-0.15342977643013,-0.13856853544712067,0.12430410832166672
1726225367405226000,6.03222607421875,-0.18557626008987427,-0.2045115977525711,0.3128276765346527
1726225367415264300,6.04226416015625,-0.13254792988300323,-0.15529398620128632,0.3862667381763458
1726225367425301000,6.052301025390625,-0.19250713288784027,-0.03875831514596939,-0.29245078563690186
1726225367435339000,6.062339111328125,-0.11878390610218048,-0.07123503088951111,-0.033116407692432404
1726225367445376300,6.072376220703125,-0.071738101541996,-0.059956010431051254,0.12837661802768707
1726225367455414000,6.0824140625,-0.0765906497836113,-0.06847652792930603,-0.1047317385673523
1726225367465451000,6.092450927734375,0.0024170849937945604,-0.07017083466053009,-0.003257312346249819
1726225367475489000,6.102489013671875,0.046129144728183746,-0.03645281493663788,0.19349490106105804
1726225367485527000,6.112527099609375,0.033009883016347885,-0.016639430075883865,0.07382974773645401
1726225367495564000,6.12256396484375,0.026851054280996323,-0.06855562329292297,0.30788859724998474
1726225367505602000,6.13260205078125,0.07501911371946335,-0.023549800738692284,0.06349295377731323
1726225367515639000,6.14263916015625,0.028378911316394806,-0.02502572536468506,-0.09312301874160767
1726225367525677300,6.15267724609375,0.04334241524338722,-0.0327286534011364,0.06482746452093124
1726225367535714000,6.162714111328125,0.04728202894330025,-0.04556801915168762,0.06822273135185242
1726225367545752000,6.172751953125,0.008992696180939674,-0.033613353967666626,-0.18613365292549133
1726225367555789000,6.1827890625,0.04578426480293274,-0.04782744497060776,0.023195333778858185
1726225367565827000,6.1928271484375,-0.007161240093410015,-0.032710008323192596,0.09612973034381866
1726225367575865000,6.202864990234375,0.0025355955585837364,-0.08085756748914719,0.07575548440217972
1726225367585902000,6.212902099609375,-0.009501892141997814,-0.0454321950674057,0.1261827051639557
1726225367595940000,6.222940185546875,-0.04674407094717026,-0.03313398361206055,-0.36904940009117126
1726225367605977000,6.23297705078125,-0.04834143444895744,0.001645567244850099,-0.1259579360485077
1726225367616015000,6.24301513671875,-0.061534468084573746,-0.08143893629312515,-0.2623938024044037
1726225367626052000,6.253052001953125,-0.14483734965324402,0.0049337721429765224,-0.48709747195243835
1726225367636090000,6.263090087890625,-0.03694843128323555,-0.05339531600475311,-0.034439731389284134
1726225367646128000,6.273128173828125,-0.09988265484571457,-0.10821462422609329,-0.04934943839907646
1726225367656165000,6.2831650390625,-0.07748334109783173,-0.05076304450631142,0.028903286904096603
1726225367666203100,6.293203125,0.0036996633280068636,-0.147210493683815,0.16582918167114258
1726225367676240100,6.303240234375,-0.09271316230297089,-0.02713841013610363,-0.24984419345855713
1726225367686278100,6.313278076171875,-0.027954403311014175,-0.06808078289031982,-0.10129599273204803
1726225367696315100,6.323315185546875,-0.08572742342948914,-0.07469181716442108,-0.05718126520514488
1726225367706353200,6.333353271484375,-0.09223911911249161,-0.006610231939703226,-0.36717161536216736
1726225367716391200,6.34339111328125,-0.09818994998931885,-0.10019184648990631,0.10903540998697281
1726225367726428000,6.353427978515625,-0.12355922162532806,-0.09520187973976135,-0.04072532430291176
1726225367736466200,6.363466064453125,-0.05897756665945053,-0.09807996451854706,-0.10885724425315857
1726225367746503200,6.373503173828125,-0.09462131559848785,-0.0964631587266922,0.20686742663383484
1726225367756541000,6.383541015625,-0.07087257504463196,-0.11577320098876953,0.3488842248916626
1726225367766578200,6.393578125,-0.1206185594201088,-0.04617415368556976,-0.1134280264377594
1726225367776616200,6.4036162109375,-0.12103641033172607,0.07518156617879868,-0.20969277620315552
1726225367786654000,6.413654052734375,-0.14714178442955017,0.013265738263726234,-0.15454110503196716
1726225367796691200,6.423691162109375,-0.11320112645626068,-0.055201202630996704,0.03822115436196327
1726225367806729000,6.43372900390625,-0.022786805406212807,-0.0690283328294754,-0.017244767397642136
1726225367816766000,6.443765869140625,0.03693271800875664,-0.08206557482481003,-0.2076706439256668
1726225367826804200,6.45380419921875,0.041725341230630875,-0.06790953874588013,0.20024041831493378
1726225367836841200,6.46384130859375,0.09917318820953369,-0.1434493064880371,0.38581109046936035
1726225367846879000,6.47387890625,0.055694688111543655,0.024442492052912712,-0.10677145421504974
1726225367856917200,6.483917236328125,0.04153332859277725,-0.019903933629393578,-0.03526211529970169
1726225367866954000,6.4939541015625,0.02401798404753208,-0.05498655140399933,0.05295083299279213
1726225367876992000,6.503991943359375,0.021468807011842728,0.0029196233954280615,-0.11921161413192749
1726225367887029200,6.514029296875,0.1299779713153839,-0.043170373886823654,0.049787797033786774
1726225367897067000,6.52406689453125,0.11273160576820374,-0.043122436851263046,-0.010131197050213814
1726225367907105000,6.53410498046875,0.14718252420425415,-0.024879517033696175,-0.09547512233257294
1726225367917142300,6.544142333984375,0.20563171803951263,-0.036868270486593246,0.2981054484844208
1726225367927180000,6.554179931640625,0.12285055220127106,-0.03682699054479599,0.32089945673942566
1726225367937217000,6.564217041015625,0.11679931730031967,0.02027624286711216,-0.314374715089798
1726225367947255000,6.574255126953125,0.032642100006341934,0.05444592982530594,0.03973755985498428
1726225367957292000,6.5842919921875,0.06395501643419266,0.035285018384456635,0.0391031950712204
1726225367967330000,6.594330078125,0.031498003751039505,0.08308343589305878,-0.2818250358104706
1726225367977368000,6.6043681640625,0.02436126582324505,0.0057199373841285706,0.04253760725259781
1726225367987410700,6.61441064453125,0.06254726648330688,0.0041310954838991165,-0.056526657193899155
1726225367997448700,6.62444873046875,0.029829001054167747,0.021739117801189423,-0.1931430995464325
1726225368007486000,6.63448583984375,0.04941628500819206,0.003085005795583129,0.3451707065105438
1726225368017523700,6.644523681640625,0.0418316014111042,-0.049916960299015045,0.13638633489608765
1726225368027562000,6.65456201171875,0.031805068254470825,0.07319485396146774,-0.20742829144001007
1726225368037599000,6.664598876953125,0.02516154572367668,-0.006733270362019539,-0.0027382622938603163
1726225368047636700,6.67463671875,0.0057218014262616634,0.02323075383901596,-0.15647882223129272
1726225368057673700,6.684673828125,0.051413655281066895,0.02706890180706978,-0.07696136087179184
1726225368067711700,6.694711669921875,0.07237779349088669,-0.032051410526037216,-0.06644480675458908
1726225368077749800,6.704749755859375,0.08676844835281372,0.06953007727861404,-0.22587333619594574
1726225368087787000,6.714787109375,0.16444779932498932,0.02755040116608143,0.1806054711341858
1726225368097824800,6.72482470703125,0.10881543159484863,-0.10627344250679016,0.503669261932373
1726225368107861800,6.73486181640625,0.09814467281103134,0.10612190514802933,-0.16229356825351715
1726225368117899800,6.744899658203125,0.17416301369667053,0.1397927850484848,-0.5398621559143066
1726225368127937800,6.754937744140625,0.12915904819965363,0.07714778184890747,0.16172657907009125
1726225368137974800,6.764974853515625,0.18537145853042603,-0.0023302659392356873,-0.562920093536377
1726225368148012800,6.7750126953125,0.1928008794784546,0.15122786164283752,0.18833689391613007
1726225368158049800,6.7850498046875,0.3435365855693817,0.08052121102809906,-0.2888946533203125
1726225368168087800,6.795087890625,0.20915135741233826,0.1327412724494934,0.13330399990081787
1726225368178125800,6.805125732421875,0.24499723315238953,0.043584227561950684,0.898332417011261
1726225368188162800,6.815162841796875,0.3016381561756134,0.2730879783630371,0.5419256091117859
1726225368198200600,6.82520068359375,0.20107531547546387,0.14380989968776703,-0.3510030210018158
1726225368208237800,6.83523779296875,0.2857140302658081,0.05940979719161987,-0.07227233052253723
1726225368218275800,6.84527587890625,0.1865919828414917,-0.04650918021798134,-0.14290815591812134
1726225368228312800,6.855312744140625,0.06511934846639633,0.26883918046951294,-0.7691568732261658
1726225368238350800,6.865350830078125,0.3367375433444977,-0.04935823008418083,-0.2724400460720062
1726225368248388900,6.875388916015625,0.04562447592616081,0.13745853304862976,0.10750249028205872
1726225368258425600,6.885425537109375,0.33289647102355957,0.11445600539445877,-0.02895335480570793
1726225368268463900,6.8954638671875,0.16125573217868805,0.14386822283267975,0.672311544418335
1726225368278501600,6.905501708984375,0.16361449658870697,0.1883384883403778,-0.06295126676559448
1726225368288538600,6.91553857421875,0.14224795997142792,0.14676520228385925,0.0007603325066156685
1726225368298577000,6.925576904296875,0.09069102257490158,0.10612563788890839,-0.021203022450208664
1726225368308614000,6.93561376953125,0.10264941304922104,0.030897196382284164,0.03909680247306824
1726225368318651600,6.945651611328125,-0.045088380575180054,-0.016865000128746033,0.11897299438714981
1726225368328690000,6.95568994140625,-0.10985592752695084,0.07017376273870468,-0.07422682642936707
1726225368338726700,6.9657265625,-0.09003854542970657,-0.0070222229696810246,0.21607956290245056
1726225368348765000,6.975764892578125,-0.1313100904226303,-0.07891985028982162,0.3678043782711029
1726225368358802000,6.985802001953125,-0.05825478583574295,-0.14796602725982666,0.49351730942726135
1726225368368839700,6.995839599609375,0.005693039391189814,-0.08160751312971115,-0.08743397146463394
1726225368378878000,7.0058779296875,-0.02087358944118023,-0.21391016244888306,0.14506956934928894
1726225368388915000,7.0159150390625,-0.03227591514587402,-0.17051129043102264,0.031319573521614075
1726225368398952700,7.02595263671875,-0.10869239270687103,0.010388459078967571,-0.0006996124284341931
1726225368408990000,7.035989990234375,-0.14480459690093994,-0.19573275744915009,-0.004569185432046652
1726225368419027700,7.04602783203125,-0.3244049847126007,-0.11896420270204544,0.25001996755599976
1726225368429065700,7.056065673828125,-0.17945364117622375,-0.0667574554681778,0.6058217287063599
1726225368439103000,7.06610302734375,-0.34984350204467773,-0.21169254183769226,1.0789965391159058
1726225368449140700,7.076140625,-0.27693119645118713,-0.13854137063026428,-0.24185071885585785
1726225368459177700,7.086177734375,-0.12458240985870361,-0.11415240168571472,0.23390650749206543
1726225368469215700,7.0962158203125,-0.27843427658081055,-0.1981964409351349,-0.1296655833721161
1726225368479253800,7.106253662109375,-0.25070759654045105,-0.10162808746099472,-0.35567474365234375
1726225368489290800,7.116290771484375,-0.18217246234416962,-0.03253743797540665,0.003096990054473281
1726225368499328800,7.126328857421875,-0.12267185747623444,-0.13037878274917603,-0.31415101885795593
1726225368509365800,7.13636572265625,-0.06345993280410767,-0.13157586753368378,0.33907607197761536
1726225368519403800,7.14640380859375,-0.1375938206911087,-0.11538971215486526,0.6774503588676453
1726225368529441800,7.15644189453125,-0.03910026326775551,-0.0800279900431633,-0.24024082720279694
1726225368539478800,7.166478759765625,-0.0049585397355258465,0.15307557582855225,-0.03410816937685013
1726225368549516800,7.176516845703125,0.014252172783017159,-0.1185186579823494,-0.030524885281920433
1726225368559554800,7.186554931640625,-0.11546348035335541,0.028861209750175476,-0.18100440502166748
1726225368569591800,7.196591796875,0.08998847752809525,0.007841144688427448,0.191950261592865
1726225368579629800,7.2066298828125,0.036546025425195694,-0.021047495305538177,-0.15144650638103485
1726225368589666800,7.216666748046875,0.06208733841776848,0.012663330882787704,-0.22918018698692322
1726225368599704800,7.226704833984375,0.14318139851093292,-0.10471309721469879,0.4995797276496887
1726225368609742800,7.236742919921875,-0.008041148073971272,0.14924673736095428,0.30662599205970764
1726225368619779800,7.24677978515625,0.1755845993757248,0.09440426528453827,-0.6488853096961975
1726225368629817600,7.256817626953125,0.0020602215081453323,0.17491988837718964,-0.38304778933525085
1726225368639854800,7.266854736328125,0.10974407196044922,0.04873797670006752,0.11560036242008209
1726225368649892900,7.276892822265625,0.03302878886461258,-0.09927092492580414,0.054009705781936646
1726225368659930600,7.2869306640625,0.017643176019191742,0.04658028483390808,-0.5492061376571655
1726225368669968000,7.2969677734375,0.08040482550859451,-0.019095929339528084,0.1461510807275772
1726225368680006000,7.307005859375,-0.03242185711860657,-0.1974470317363739,0.1829242706298828
1726225368690043600,7.317043701171875,-0.04464763030409813,0.019462114199995995,-0.1333005279302597
1726225368700081000,7.327080810546875,0.03404771536588669,-0.060010604560375214,-0.1530739665031433
1726225368710118700,7.33711865234375,-0.14617851376533508,-0.08332711458206177,-0.10818292945623398
1726225368720155600,7.34715576171875,-0.14563336968421936,-0.10489153116941452,-0.1095171719789505
1726225368730194000,7.35719384765625,-0.32416048645973206,-0.2494114190340042,0.31023189425468445
1726225368740231700,7.367231689453125,-0.2954356372356415,-0.0063154203817248344,-0.6702577471733093
1726225368750268700,7.3772685546875,-0.25010091066360474,-0.19481582939624786,-0.01793559081852436
1726225368760307000,7.387306884765625,-0.261879026889801,-0.28220558166503906,0.12179114669561386
1726225368770343700,7.39734375,-0.25719478726387024,-0.16795891523361206,-0.27420517802238464
1726225368780381700,7.407381591796875,-0.2756882905960083,-0.26093971729278564,0.3628879189491272
1726225368790419700,7.417419677734375,-0.33066046237945557,-0.2318878322839737,-0.115046426653862
1726225368800456700,7.427456787109375,-0.3916495144367218,-0.2265407294034958,-0.1627553552389145
1726225368810495000,7.437494873046875,-0.4164848327636719,-0.4095022976398468,0.5139296054840088
1726225368820532700,7.44753271484375,-0.4025266766548157,-0.14637638628482819,-0.5055462718009949
1726225368830569700,7.45756982421875,-0.23509719967842102,-0.08943081647157669,-0.5183078646659851
1726225368840608000,7.46760791015625,-0.2897074520587921,-0.2114909440279007,-0.24325579404830933
1726225368850644700,7.477644775390625,-0.30739670991897583,-0.14289696514606476,0.1110367700457573
1726225368860682800,7.487682861328125,-0.11808162927627563,-0.2140664905309677,0.3944495618343353
1726225368870720800,7.497720703125,-0.22074729204177856,-0.058638278394937515,-0.45276695489883423
1726225368880757800,7.5077578125,-0.20777903497219086,-0.12279409915208817,-0.3972051441669464
1726225368890795800,7.517795654296875,-0.1059432104229927,-0.07298020273447037,0.40549904108047485
1726225368900833800,7.527833740234375,-0.10083527117967606,-0.016598951071500778,-0.2109908014535904
1726225368910870800,7.537870849609375,0.04091574251651764,-0.07314132153987885,-0.4860897362232208
1726225368920908800,7.54790869140625,0.18159721791744232,0.0004956142511218786,-0.07597039639949799
1726225368930945800,7.55794580078125,0.2605713903903961,-0.06933193653821945,0.40983065962791443
1726225368940983800,7.56798388671875,0.2696003317832947,0.13963459432125092,-0.031388815492391586
1726225368951021800,7.578021728515625,0.2875388264656067,0.08942229300737381,-0.3317904472351074
1726225368961058800,7.588058837890625,0.22601422667503357,0.12231312692165375,0.017492441460490227
1726225368971096800,7.598096923828125,0.3430686891078949,0.0753709226846695,0.2798617482185364
1726225368981134800,7.608134765625,0.3614591360092163,0.25944381952285767,-0.16837462782859802
1726225368991169000,7.6181689453125,0.4085819125175476,0.16937784850597382,0.038972966372966766
1726225369001206800,7.628206787109375,0.5226693153381348,0.12538854777812958,0.3963569402694702
1726225369011244000,7.638244140625,0.5388908982276917,0.18832090497016907,-0.08177555352449417
1726225369021282000,7.648281982421875,0.5484204888343811,0.2072376012802124,-0.3237279951572418
1726225369031319800,7.65831982421875,0.4941202402114868,0.18707002699375153,-0.21342545747756958
1726225369041357000,7.668357177734375,0.4937841594219208,0.2643280625343323,0.3012695610523224
1726225369051394800,7.678394775390625,0.3713751435279846,0.28089743852615356,-0.2764885723590851
1726225369061433000,7.68843310546875,0.3164389431476593,0.2444949597120285,-0.3620109558105469
1726225369071470000,7.698469970703125,0.31334540247917175,0.32914939522743225,0.593101441860199
1726225369081507800,7.7085078125,0.3149195909500122,0.29561832547187805,-0.281913697719574
1726225369091544800,7.718544921875,0.22267621755599976,0.1348946988582611,-0.21380309760570526
1726225369101583000,7.7285830078125,0.25780385732650757,0.245765820145607,0.5654429197311401
1726225369111620900,7.738620849609375,0.19608668982982635,0.07442443072795868,-0.31638407707214355
1726225369121657900,7.748657958984375,0.01703570783138275,0.08938713371753693,-0.3246350586414337
1726225369131695900,7.75869580078125,0.08640093356370926,0.20300744473934174,-0.21553175151348114
1726225369141734000,7.76873388671875,-0.044858552515506744,0.29924583435058594,0.21551045775413513
1726225369151771100,7.778771240234375,0.027094202116131783,0.02400972880423069,0.9497772455215454
1726225369161809000,7.788808837890625,0.03441895917057991,0.1230340451002121,-0.05715489760041237
1726225369171846000,7.798845947265625,-0.06957881152629852,-0.10927748680114746,0.03641073778271675
1726225369181884200,7.80888427734375,-0.16886065900325775,-0.03602484613656998,0.3504602909088135
1726225369191922000,7.818921875,-0.08901109546422958,0.11628799140453339,-0.5537252426147461
1726225369201959000,7.828958984375,-0.21604788303375244,-0.1906687468290329,-0.3436196744441986
1726225369211997000,7.838996826171875,-0.2270406037569046,0.04680132865905762,0.1300368309020996
1726225369222035000,7.849034912109375,-0.0889972522854805,-0.010746654123067856,-0.2304941862821579
1726225369232072000,7.859072021484375,-0.2889886498451233,0.021321266889572144,0.6588090658187866
1726225369242110000,7.86910986328125,-0.11593938618898392,-0.15399302542209625,-0.08467866480350494
1726225369252148000,7.87914794921875,-0.1642368733882904,0.23042814433574677,-0.2548898160457611
1726225369262185000,7.88918505859375,-0.021505558863282204,-0.08652450889348984,0.669097900390625
1726225369272223000,7.899222900390625,-0.07125154137611389,-0.07618291676044464,0.4218393862247467
1726225369282260000,7.909260009765625,-0.10766494274139404,-0.05670056492090225,-0.6769739389419556
1726225369292298000,7.919298095703125,-0.1467721313238144,-0.12103135138750076,-0.50552898645401
1726225369302336000,7.9293359375,-0.133950337767601,0.0835617408156395,0.011961854062974453
1726225369312373000,7.939373046875,-0.17942196130752563,0.004448277875781059,0.36334890127182007
1726225369322411000,7.949410888671875,-0.19106529653072357,-0.061285726726055145,-0.35559937357902527
1726225369332449000,7.959448974609375,-0.12910126149654388,0.039209455251693726,0.28980597853660583
1726225369342486000,7.969486083984375,-0.07259590923786163,-0.3014594614505768,0.48093467950820923
1726225369352524000,7.97952392578125,-0.01474565640091896,-0.2009115368127823,0.20925654470920563
1726225369362562000,7.98956201171875,-0.14904886484146118,-0.11035766452550888,-0.5899330377578735
1726225369372598800,7.999598876953125,-0.07246167957782745,-0.08917621523141861,-0.40014368295669556
1726225369382637000,8.009636962890625,-0.08675486594438553,-0.09609084576368332,0.23783759772777557
1726225369392674000,8.019674072265625,-0.2913937568664551,-0.11900255084037781,0.24564385414123535
1726225369402711800,8.0297119140625,-0.15381699800491333,-0.043413519859313965,-0.44783663749694824
1726225369412750000,8.03975,-0.2470252364873886,-0.11090973764657974,0.19468159973621368
1726225369422787000,8.049787109375,-0.15414775907993317,-0.25225168466567993,0.08152681589126587
1726225369432824800,8.059824951171874,-0.12106490880250931,-0.20516327023506165,-0.15396453440189362
1726225369442863000,8.069863037109375,-0.15690866112709045,-0.15779948234558105,-0.3707202672958374
1726225369452899800,8.07989990234375,-0.12257598340511322,-0.18624897301197052,-0.6462117433547974
1726225369462938000,8.089938232421876,-0.05872882530093193,-0.1608773022890091,0.027270769700407982
1726225369472976000,8.099975830078124,-0.14093342423439026,-0.14670422673225403,-0.1886221170425415
1726225369483012900,8.110012939453124,-0.13570749759674072,-0.20418882369995117,-0.08831175416707993
1726225369493051100,8.120051025390625,-0.12970925867557526,-0.2048356980085373,0.09571667015552521
1726225369503087900,8.130087890625,-0.17950478196144104,-0.181450754404068,0.3331105709075928
1726225369513126000,8.1401259765625,-0.1814156025648117,-0.1302219182252884,0.22922466695308685
1726225369523164200,8.1501640625,-0.04568679630756378,0.003278883872553706,-0.5513265132904053
1726225369533201000,8.160200927734374,0.07136552780866623,-0.2546405494213104,-0.04544204846024513
1726225369543239000,8.170239013671875,-0.1300184577703476,-0.17413371801376343,0.362531840801239
1726225369553277000,8.18027685546875,-0.010397247038781643,-0.015786686912178993,-0.6679639220237732
1726225369563314000,8.19031396484375,-0.1664094775915146,-0.09386790543794632,-0.15110695362091064
1726225369573352000,8.20035205078125,-0.012131763622164726,-0.23698298633098602,0.3288854658603668
1726225369583390000,8.210389892578124,-0.09116532653570175,-0.09576673805713654,0.1471465677022934
1726225369593427000,8.220427001953125,0.05176173150539398,-0.23539866507053375,0.04132773354649544
1726225369603465000,8.23046484375,0.06890742480754852,-0.06214139983057976,-0.23983949422836304
1726225369613503000,8.2405029296875,0.15807992219924927,-0.15307210385799408,0.6175143718719482
1726225369623540000,8.2505400390625,0.05969555303454399,-0.13205604255199432,-0.08870510011911392
1726225369633578000,8.260577880859374,0.0625816211104393,0.04391073063015938,-0.4850865304470062
1726225369643615000,8.270614990234375,0.12886664271354675,-0.19792506098747253,0.25515347719192505
1726225369653653000,8.280653076171875,-0.04603646695613861,0.01744903065264225,0.21823619306087494
1726225369663691000,8.29069091796875,0.15709161758422852,0.0427330806851387,-0.371977299451828
1726225369673728000,8.30072802734375,0.1605886071920395,-0.20023083686828613,-0.2961672246456146
1726225369683766000,8.31076611328125,0.2173573523759842,0.0013230583863332868,0.5000982284545898
1726225369693804000,8.320803955078125,0.2084197849035263,0.028118720278143883,0.38558682799339294
1726225369703841000,8.330841064453125,0.1671096235513687,-0.0748065933585167,-0.2620238959789276
1726225369713878800,8.340878662109375,0.222768634557724,-0.004751079250127077,0.1878306269645691
1726225369723917000,8.3509169921875,0.2169882357120514,-0.17235605418682098,0.353263795375824
1726225369733954000,8.3609541015625,0.024806279689073563,0.10747505724430084,-0.2548157870769501
1726225369743991800,8.37099169921875,0.12219035625457764,0.16717514395713806,0.5866685509681702
1726225369754030000,8.381030029296875,0.1685570627450943,-0.049851980060338974,0.18161027133464813
1726225369764066800,8.39106689453125,0.01661759242415428,0.05698871612548828,0.00868936162441969
1726225369774105000,8.40110498046875,0.3725554645061493,-0.07776536792516708,0.8356645107269287
1726225369784142800,8.411142822265624,0.12899740040302277,-0.02142859250307083,0.5607898235321045
1726225369794179800,8.421179931640625,0.2397172600030899,0.019832827150821686,-0.6904181241989136
1726225369804218000,8.431218017578125,0.09977692365646362,-0.16542837023735046,0.10793419182300568
1726225369814255900,8.441255859375,-0.07392854988574982,0.0624077171087265,0.5488596558570862
1726225369824292900,8.45129296875,0.07727694511413574,0.17935164272785187,-0.45891591906547546
1726225369834331100,8.4613310546875,-0.024440893903374672,-0.047862064093351364,-0.4846428632736206
1726225369844369000,8.471368896484375,0.03840571269392967,-0.03159867227077484,0.489401638507843
1726225369854406000,8.481406005859375,0.01438373327255249,-0.10665614157915115,0.3579794466495514
1726225369864444000,8.49144384765625,0.11184237897396088,-0.018337462097406387,-0.4435262978076935
1726225369874481000,8.50148095703125,0.1829322725534439,-0.20259305834770203,-0.08713196963071823
1726225369884519000,8.511518798828124,0.06426473706960678,-0.00427091121673584,0.5779632329940796
1726225369894557000,8.521556884765625,0.18478050827980042,-0.037392113357782364,-0.17402160167694092
1726225369904594000,8.531593994140625,-0.038422223180532455,0.09672068059444427,0.08678815513849258
1726225369914632000,8.5416318359375,0.011807656846940517,-0.018804047256708145,0.0688118189573288
1726225369924670000,8.551669921875,-0.039199333637952805,0.1294354796409607,0.1370025873184204
1726225369934707000,8.56170703125,0.13462252914905548,0.04368463158607483,-0.014817828312516212
1726225369944745000,8.571744873046875,0.08662357181310654,-0.013035374693572521,0.037634726613759995
1726225369954783000,8.581782958984375,0.21438872814178467,0.04154078662395477,0.4724959135055542
1726225369964820000,8.591820068359375,0.27038007974624634,-0.0733378604054451,0.4806917905807495
1726225369974858000,8.60185791015625,0.07125446945428848,0.09735558182001114,-0.0734340026974678
1726225369984896000,8.61189599609375,0.17207695543766022,0.028737371787428856,-0.45064547657966614
1726225369994929700,8.6219296875,0.04042492061853409,0.14860625565052032,-0.04187794029712677
1726225370004967700,8.6319677734375,0.19632397592067719,-0.057615891098976135,-0.11555029451847076
1726225370015006000,8.642005859375,0.23473501205444336,0.09813029319047928,-0.3019784986972809
1726225370025042700,8.652042724609375,0.3598884046077728,-0.06678515672683716,-0.6381879448890686
1726225370035080700,8.662080810546875,0.32865139842033386,0.2758403718471527,0.09860513359308243
1726225370045118700,8.67211865234375,0.5566123723983765,0.10555412620306015,0.5795952081680298
1726225370055155700,8.68215576171875,0.27447497844696045,0.2502830922603607,-0.040951427072286606
1726225370065193700,8.69219384765625,0.30813679099082947,0.30724382400512695,-0.4811517000198364
1726225370075231700,8.702231689453125,0.2617253363132477,0.3804466724395752,-0.042275018990039825
1726225370085268700,8.712268798828125,0.35678955912590027,0.19078034162521362,0.09561307728290558
1726225370095306800,8.722306640625,0.3473933935165405,0.2190026491880417,-0.2644268572330475
1726225370105344800,8.7323447265625,0.3356618881225586,0.28526556491851807,-0.47331589460372925
1726225370115381800,8.7423818359375,0.4030851423740387,0.16890060901641846,-0.08964253216981888
1726225370125419500,8.75241943359375,0.3821692168712616,0.25361576676368713,0.9687458872795105
1726225370135457800,8.762457763671875,0.3248974084854126,0.35209891200065613,0.328305184841156
1726225370145494800,8.772494873046876,0.20228518545627594,0.30952003598213196,-0.6694880723953247
1726225370155532500,8.782532470703124,0.26703888177871704,0.18385478854179382,-0.11098750680685043
1726225370165570800,8.79257080078125,0.1433318555355072,0.03340056538581848,0.5706695914268494
1726225370175607800,8.80260791015625,0.13405287265777588,-0.016717195510864258,-0.41092175245285034
1726225370185645800,8.812645751953125,0.11365839093923569,0.1100146546959877,-1.2373970746994019
1726225370195683800,8.822683837890626,0.267564594745636,0.09803362190723419,-0.03368845582008362
1726225370205720600,8.832720458984374,0.1428506225347519,0.08178887516260147,0.8036267161369324
1726225370215758800,8.8427587890625,0.0835564136505127,0.14728185534477234,-0.09269185364246368
1726225370225796600,8.852796630859375,0.03008865937590599,0.35698503255844116,-0.32618582248687744
1726225370235833600,8.86283349609375,0.05223657190799713,0.15422391891479492,0.23911698162555695
1726225370245871900,8.872871826171876,0.008114119060337543,0.04566336050629616,0.5206935405731201
1726225370255909600,8.88290966796875,0.07206833362579346,0.10905005782842636,-0.5981494188308716
1726225370265946600,8.892946533203125,-0.0014828480780124664,0.041014280170202255,-0.4828396141529083
1726225370275984600,8.902984619140625,0.1438615620136261,0.08481049537658691,0.3588433861732483
1726225370286022700,8.913022705078125,-0.03864939138293266,0.062256183475255966,0.3195372521877289
1726225370296059600,8.9230595703125,0.11460913717746735,0.16270609200000763,-0.18768255412578583
1726225370306097700,8.93309765625,0.05489041283726692,0.21823540329933167,0.34347668290138245
1726225370316134700,8.943134765625,0.06663894653320312,0.1239887923002243,0.06878545880317688
1726225370326173000,8.9531728515625,0.08195319026708603,-0.01119433157145977,0.13143658638000488
1726225370336210700,8.963210693359375,-0.06832899153232574,0.18116100132465363,0.15690653026103973
1726225370346248700,8.973248779296876,0.20104043185710907,0.2958556115627289,-0.7597457766532898
1726225370356285700,8.98328564453125,0.07520180940628052,0.11759401112794876,-0.1601840853691101
1726225370366323700,8.99332373046875,0.13284805417060852,0.1362675577402115,0.3776935040950775
1726225370376361700,9.00336181640625,0.17948560416698456,0.07230588793754578,0.013158679008483887
1726225370386398700,9.013398681640625,-0.02532746084034443,0.17721153795719147,-0.06149691715836525
1726225370396436700,9.023436767578126,0.22945475578308105,0.10226219147443771,0.5037246942520142
1726225370406473700,9.0334736328125,0.0020594224333763123,0.04280205816030502,0.7261308431625366
1726225370416511700,9.04351171875,0.04150456562638283,0.3326466679573059,-0.20233206450939178
1726225370426549800,9.0535498046875,0.14716388285160065,0.0659174993634224,-0.36391615867614746
1726225370436586500,9.06358642578125,-0.10460364073514938,-0.03656813129782677,0.09565568715333939
1726225370446624800,9.073624755859376,0.012922456488013268,0.054905857890844345,0.0772300735116005
1726225370456662500,9.08366259765625,-0.10403798520565033,0.08052946627140045,-0.3394366502761841
1726225370466700800,9.09370068359375,0.0226171612739563,0.09400692582130432,0.2404903620481491
1726225370476737800,9.10373779296875,-0.027960261330008507,-0.0908910259604454,0.44237208366394043
1726225370486775600,9.113775634765625,-0.08582888543605804,0.13123072683811188,0.3520600497722626
1726225370496813800,9.123813720703126,0.04561622068285942,0.09470786899328232,-0.32967936992645264
1726225370506850800,9.133850830078124,-0.14983290433883667,0.015268967486917973,0.011261176317930222
1726225370516888600,9.143888671875,-0.037518881261348724,-0.09596408158540726,-0.12316400557756424
1726225370526926800,9.1539267578125,-0.11678360402584076,0.1230257898569107,-0.430447518825531
1726225370536963600,9.163963623046875,-0.04746711626648903,-0.03171984478831291,0.24672962725162506
1726225370547001600,9.174001708984376,-0.18793421983718872,-0.18879973888397217,0.27061206102371216
1726225370557039600,9.18403955078125,-0.15732011198997498,-0.002210423583164811,0.41363632678985596
1726225370567076600,9.19407666015625,-0.094619981944561,0.02093244530260563,0.6972808241844177
1726225370577115000,9.204114990234375,-0.18281827867031097,-0.11149989813566208,0.20270544290542603
1726225370587152600,9.214152587890625,-0.2829994857311249,0.10905085504055023,-0.7457152009010315
1726225370597189600,9.224189697265626,-0.08668749034404755,-0.41115665435791016,-0.9959104061126709
1726225370607228000,9.234227783203124,-0.33373695611953735,-0.04518745094537735,-0.32497116923332214
1726225370617265700,9.244265625,-0.24098864197731018,-0.0785486027598381,0.6035982370376587
1726225370627302700,9.254302734375,-0.40766870975494385,0.05703532323241234,0.04774089157581329
1726225370637340700,9.264340576171875,-0.30071428418159485,-0.055745821446180344,0.1205194890499115
1726225370647378700,9.274378662109376,-0.25342801213264465,-0.17648236453533173,0.5818064212799072
1726225370657415700,9.284415771484374,-0.2791847586631775,-0.24190929532051086,0.48501887917518616
1726225370667453700,9.29445361328125,-0.13018862903118134,-0.24881701171398163,-0.42517098784446716
1726225370677491700,9.30449169921875,-0.1247752234339714,-0.27300703525543213,-0.11560861766338348
1726225370687528700,9.31452880859375,-0.35960423946380615,-0.29790839552879333,0.35478925704956055
1726225370697566700,9.324566650390626,-0.3207804262638092,-0.028329376131296158,-0.3809073865413666
1726225370707604700,9.334604736328124,-0.35210663080215454,-0.10239135473966599,-0.184401273727417
1726225370717641700,9.344641845703125,-0.19164666533470154,-0.14228416979312897,0.10276206582784653
1726225370727679700,9.3546796875,-0.0653076320886612,-0.2786255180835724,0.36533883213996887
1726225370737717500,9.364717529296875,-0.1768147200345993,-0.2713444232940674,-0.18624204397201538
1726225370747754800,9.374754638671876,-0.04360633343458176,0.06582748144865036,-0.2887748181819916
1726225370757792800,9.384792724609374,0.0006165218073874712,-0.07410618662834167,0.17848585546016693
1726225370767830500,9.39483056640625,-0.10502069443464279,-0.2034255564212799,0.6661039590835571
1726225370777867800,9.40486767578125,-0.016322514042258263,0.0928226113319397,-0.25229963660240173
1726225370787905800,9.41490576171875,0.056828394532203674,-0.030888939276337624,-0.796563982963562
1726225370797943800,9.42494384765625,0.15129418671131134,0.04272882267832756,0.542448878288269
1726225370807980800,9.434980712890624,0.15445375442504883,-0.035713523626327515,0.67977374792099
1726225370818018600,9.4450185546875,0.10993928462266922,0.021342307329177856,0.08839910477399826
1726225370828056800,9.455056884765625,0.08436867594718933,0.1880955994129181,0.059426307678222656
1726225370838093800,9.46509375,0.2799980938434601,0.08658336102962494,0.21597011387348175
1726225370848131600,9.475131591796876,0.1833181530237198,0.14008013904094696,-0.5005826950073242
1726225370858169900,9.485169921875,0.2846865952014923,-0.0009174589649774134,-0.5693787932395935
1726225370868206800,9.495206787109375,0.2796606719493866,0.19790668785572052,0.09338587522506714
1726225370878244600,9.50524462890625,0.30050045251846313,0.14825311303138733,-0.07933636754751205
1726225370888283000,9.515282958984375,0.2705364227294922,0.007391337305307388,0.3457976281642914
1726225370898319600,9.525319580078126,0.26564231514930725,0.12597976624965668,0.24301131069660187
1726225370908357600,9.535357666015624,0.30728137493133545,0.25037601590156555,-0.132492795586586
1726225370918395600,9.545395751953125,0.25108602643013,0.020789435133337975,0.5173054337501526
1726225370928433700,9.55543359375,0.24238866567611694,0.23617391288280487,-0.18665137887001038
1726225370938470700,9.565470703125,0.21977443993091583,0.30089566111564636,-0.4954685866832733
1726225370948508700,9.5755087890625,0.20710285007953644,0.19515031576156616,0.35573598742485046
1726225370958546700,9.585546630859374,0.18430699408054352,0.26712438464164734,0.4900650382041931
1726225370968584000,9.595583984375,0.24358150362968445,0.18151973187923431,-0.7680239677429199
1726225370978621700,9.60562158203125,0.1682497262954712,-0.039088279008865356,-0.8184719681739807
1726225370988663300,9.615663330078124,0.2036316841840744,0.14451803267002106,0.6342363357543945
1726225370998700300,9.6257001953125,0.13143286108970642,0.09768740832805634,0.7192585468292236
1726225371008738300,9.63573828125,0.13425686955451965,0.18025712668895721,-0.3441177010536194
1726225371018776000,9.645776123046875,0.0828394889831543,0.11438969522714615,0.10592137277126312
1726225371028813300,9.655813232421876,-0.10525424778461456,0.02919250726699829,0.7479327917098999
1726225371038851300,9.665851318359374,-0.09229770302772522,-0.0021880532149225473,-0.3776026964187622
1726225371048889300,9.675889404296875,-0.13159850239753723,0.11557400226593018,-1.0398298501968384
1726225371058926300,9.68592626953125,-0.12079459428787231,-0.013456686399877071,-0.027785025537014008
1726225371068964400,9.69596435546875,-0.194301575422287,-0.1179434135556221,-0.019788086414337158
1726225371079002400,9.70600244140625,-0.20080606639385223,0.032871928066015244,-0.9932070374488831
1726225371089039400,9.716039306640624,-0.009891512803733349,-0.04176821932196617,-0.2632042169570923
1726225371099077000,9.7260771484375,-0.22318674623966217,-0.06662829220294952,0.8352847695350647
1726225371109115400,9.736115478515625,-0.10010209679603577,0.03790130838751793,0.09600775688886642
1726225371119153200,9.746153076171876,-0.30138301849365234,0.20372489094734192,-0.6264572143554688
1726225371129190100,9.756190185546876,-0.12408199906349182,-0.06372278928756714,-0.32928788661956787
1726225371139228400,9.766228515625,-0.20920035243034363,0.06672310084104538,0.38670963048934937
1726225371149266200,9.77626611328125,-0.14256887137889862,0.0046091326512396336,-0.2840181291103363
1726225371159303200,9.78630322265625,-0.1719651073217392,-0.05115985497832298,-0.03007587604224682
1726225371169341400,9.796341552734376,-0.06636837124824524,-0.07953476905822754,-0.002909237053245306
1726225371179379200,9.806379150390624,-0.08065569400787354,-0.0962303951382637,0.48598507046699524
1726225371189416400,9.81641650390625,-0.08676925301551819,0.004068244714289904,0.5184202790260315
1726225371199454200,9.8264541015625,-0.11334147304296494,-0.04039296135306358,-0.4142957031726837
1726225371209492200,9.8364921875,-0.1652832329273224,0.10533574223518372,-0.0970277488231659
1726225371219529500,9.846529541015625,0.09822963178157806,0.016445020213723183,-0.1145167276263237
1726225371229567200,9.856567138671876,0.004041346721351147,-0.04777418076992035,-0.33654525876045227
1726225371239605200,9.866605224609375,0.18634536862373352,-0.049914296716451645,-0.168022021651268
1726225371249642500,9.876642578125,0.2824583351612091,0.06657157093286514,0.11911653727293015
1726225371259680300,9.88668017578125,0.11937939375638962,-0.12035410851240158,0.40295010805130005
1726225371269718500,9.896718505859376,0.29328835010528564,0.12654569745063782,0.054731156677007675
1726225371279755300,9.90675537109375,0.11677082628011703,0.1987714171409607,-0.2321608066558838
1726225371289793300,9.916793212890624,0.14911358058452606,0.10779757052659988,-0.08839617669582367
1726225371299831300,9.926831298828125,0.24750061333179474,0.3192882537841797,-0.44253215193748474
1726225371309869300,9.936869384765625,0.20539124310016632,0.12427934259176254,-0.5585418343544006
1726225371319906300,9.94690625,0.2633325755596161,0.054062969982624054,-0.3148820400238037
1726225371329944300,9.9569443359375,0.3144439458847046,0.1743723303079605,0.11896180361509323
1726225371339982300,9.966982421875,0.40999338030815125,0.27350103855133057,0.48761600255966187
1726225371350019300,9.977019287109375,0.38664543628692627,0.20440560579299927,0.42472997307777405
1726225371360057300,9.987057373046875,0.4379728138446808,0.23292939364910126,0.43826815485954285
1726225371370095400,9.997095458984376,0.45245057344436646,0.18160441517829895,0.08896103501319885
1726225371380132000,10.007132080078126,0.3171933889389038,0.2502756118774414,0.36581605672836304
1726225371390170400,10.01717041015625,0.41131511330604553,0.33910322189331055,-0.09614890068769455
1726225371400208100,10.0272080078125,0.2155999392271042,0.33412790298461914,-0.41774609684944153
1726225371410245000,10.0372451171875,0.22021491825580597,0.19382299482822418,0.05204588919878006
1726225371420283400,10.047283447265626,0.20635104179382324,0.07391630113124847,0.11442537605762482
1726225371430321200,10.057321044921874,0.10473999381065369,0.19670693576335907,0.24870888888835907
1726225371440359400,10.067359375,0.34951138496398926,0.008864331990480423,0.6015025973320007
1726225371450396400,10.077396484375,-0.001520665013231337,0.300811767578125,0.40973639488220215
1726225371460434200,10.08743408203125,0.1563003957271576,0.11333215236663818,-0.47252413630485535
1726225371470472400,10.097472412109376,0.017856229096651077,0.16482596099376678,-0.2020827978849411
1726225371480509200,10.10750927734375,0.09975641965866089,0.12942136824131012,0.15220284461975098
1726225371490547200,10.117547119140625,0.07060705870389938,-0.10358364880084991,0.18719199299812317
1726225371500585200,10.127585205078125,-0.10568009316921234,0.0543452650308609,-0.19388052821159363
1726225371510622200,10.137622314453125,-0.030659375712275505,0.040822263807058334,0.24440868198871613
1726225371520660500,10.147660400390626,-0.13549230992794037,0.006897587329149246,0.054366037249565125
1726225371530698200,10.1576982421875,-0.12495019286870956,-0.18833822011947632,0.13516713678836823
1726225371540735200,10.1677353515625,-0.10138334333896637,-0.04908445477485657,0.03921771049499512
1726225371550773500,10.1777734375,-0.08919432759284973,-0.03466237336397171,-0.7526423335075378
1726225371560811300,10.187811279296875,-0.1755949854850769,-0.19991391897201538,-0.14033527672290802
1726225371570849300,10.197849365234376,-0.2729082405567169,-0.22150203585624695,0.7434733510017395
1726225371580886300,10.20788623046875,-0.42040687799453735,-0.02660071849822998,0.5854243040084839
1726225371590924300,10.21792431640625,-0.31314778327941895,0.05440731719136238,0.11313507705926895
1726225371600962300,10.22796240234375,-0.38122138381004333,-0.3180655837059021,0.39947256445884705
1726225371610999300,10.237999267578125,-0.5153179168701172,-0.07350404560565948,0.5088832378387451
1726225371621037300,10.248037353515626,-0.20446419715881348,-0.05937464162707329,-0.4025338590145111
1726225371631075300,10.258075439453124,-0.37436267733573914,-0.23675794899463654,-0.36628425121307373
1726225371641112300,10.2681123046875,-0.2722434997558594,-0.29436132311820984,-0.12147023528814316
1726225371651150300,10.278150390625,-0.24291543662548065,-0.19475430250167847,-0.09859874844551086
1726225371661188400,10.288188232421875,-0.3070824444293976,-0.22324959933757782,0.12507349252700806
1726225371671226400,10.298226318359376,-0.1427970975637436,-0.2760941684246063,0.43752166628837585
1726225371681263000,10.30826318359375,-0.26161590218544006,-0.15161775052547455,0.47443389892578125
1726225371691301400,10.31830126953125,-0.17173314094543457,-0.05720656365156174,0.16217905282974243
1726225371701339100,10.328339111328125,-0.19899752736091614,-0.03292173147201538,-0.007257380057126284
1726225371711376100,10.338376220703125,-0.12927782535552979,-0.05811150744557381,-0.07196740061044693
1726225371721414400,10.348414306640626,-0.13318495452404022,-0.03970906138420105,-0.6248958110809326
1726225371731452200,10.3584521484375,-0.08154758810997009,-0.1830526441335678,-0.5510879158973694
1726225371741489400,10.368489501953125,0.04747563973069191,0.04430088400840759,0.2243044674396515
1726225371751527400,10.37852734375,0.0760798528790474,0.002085521351546049,-0.24656690657138824
1726225371761565200,10.388565185546875,0.1725640445947647,0.005538842175155878,0.4014233350753784
1726225371771603500,10.398603515625,0.11459928005933762,-0.067768394947052,0.7894637584686279
1726225371781640200,10.40864013671875,0.007608118467032909,-0.17322903871536255,-0.4628395438194275
1726225371791678200,10.41867822265625,0.004855741746723652,-0.04283374920487404,-0.28491801023483276
1726225371801716200,10.42871630859375,-0.12671293318271637,-0.04394402354955673,0.027350131422281265
1726225371811753200,10.438753173828125,-0.18524335324764252,0.01564074493944645,-0.47356435656547546
1726225371821791500,10.44879150390625,-0.07720104604959488,-0.03692259639501572,-0.6285595297813416
1726225371831829200,10.458829345703125,-0.15356771647930145,-0.09058263152837753,-0.0500519834458828
1726225371841866200,10.4688662109375,-0.04809882119297981,-0.23015516996383667,0.2652633488178253
1726225371851904500,10.478904541015625,0.03098401427268982,-0.03916098549962044,-0.1413153111934662
1726225371861942300,10.4889423828125,-0.019779296591877937,-0.053522881120443344,-0.4462491273880005
1726225371871980300,10.498980224609374,-0.0049316417425870895,-0.10726999491453171,-0.009311743080615997
1726225371882017300,10.509017333984374,-0.14777427911758423,-0.11967287212610245,0.3102138042449951
1726225371892055300,10.51905517578125,-0.06785787642002106,-0.01528840884566307,0.01721733622252941
1726225371902093300,10.52909326171875,-0.02268746867775917,0.014281733892858028,-0.2360042780637741
1726225371912130300,10.53913037109375,-0.0592031367123127,0.016353938728570938,-0.28094592690467834
1726225371922168300,10.549168212890624,0.09309505671262741,0.010202303528785706,0.2113489955663681
1726225371932206300,10.559206298828125,0.10424277931451797,-0.04542553797364235,0.5493608713150024
1726225371942244400,10.569244384765625,0.15210671722888947,0.10069944709539413,0.0736640989780426
1726225371952281300,10.57928125,0.20336882770061493,0.15575630962848663,-0.5476572513580322
1726225371962319400,10.5893193359375,0.19950884580612183,0.06889650970697403,-0.11993492394685745
1726225371972357400,10.599357421875,0.2738693654537201,0.12246572971343994,-0.03477023169398308
1726225371982394000,10.60939404296875,0.2693731486797333,0.14982092380523682,-0.07267233729362488
1726225371992429000,10.619428955078124,0.23453420400619507,0.22517958283424377,0.05476577579975128
1726225372002467000,10.629467041015625,0.3314429223537445,0.13433943688869476,-0.08955597877502441
1726225372012504000,10.639504150390625,0.2453538328409195,0.3060922920703888,0.5726296901702881
1726225372022542000,10.6495419921875,0.361927330493927,0.20041058957576752,-0.222434401512146
1726225372032580000,10.659580078125,0.222041055560112,0.14765018224716187,0.06401973217725754
1726225372042618000,10.6696181640625,0.32691821455955505,0.08241444826126099,0.5685222744941711
1726225372052655000,10.679655029296875,0.29032450914382935,0.10735628008842468,0.03148868307471275
1726225372062693000,10.689693115234375,0.2578834593296051,0.1600370705127716,-0.4269063174724579
1726225372072731100,10.699731201171875,0.39214327931404114,-0.04682529717683792,-0.7994247674942017
1726225372082768100,10.70976806640625,0.4463508427143097,0.08545178174972534,-0.15276743471622467
1726225372092806100,10.71980615234375,0.40958458185195923,0.20951274037361145,0.6832707524299622
1726225372102844000,10.729843994140625,0.30349063873291016,0.21648196876049042,-0.21499992907047272
1726225372112882200,10.739882080078125,0.28707197308540344,0.3226856291294098,0.4757492244243622
1726225372122919200,10.749919189453125,0.2171991616487503,0.28806373476982117,0.6782605051994324
1726225372132957000,10.75995703125,0.07822529971599579,0.3050602972507477,0.23355762660503387
1726225372142995200,10.7699951171875,0.19513460993766785,0.4353000819683075,-0.5302324295043945
1726225372153032200,10.7800322265625,0.14367221295833588,0.3194917142391205,-0.07942957431077957
1726225372163070200,10.7900703125,0.33384189009666443,0.12495658546686172,0.9197983145713806
1726225372173108200,10.800108154296876,0.11464615166187286,0.22622941434383392,0.20033974945545197
1726225372183146000,10.81014599609375,0.11439076066017151,0.32053911685943604,-0.7489485144615173
1726225372193183200,10.820183349609374,0.05463448166847229,0.09800699353218079,0.10663750022649765
1726225372203221000,10.830220947265625,0.016157398000359535,0.17879131436347961,0.39214009046554565
1726225372213259000,10.840259033203125,0.09223059564828873,0.36418619751930237,-0.5565785765647888
1726225372223296300,10.850296142578125,0.05011270195245743,0.14483734965324402,0.045815158635377884
1726225372233334000,10.860333984375,0.027466244995594025,0.19040296971797943,1.0041321516036987
1726225372243372300,10.870372314453125,0.06744934618473053,0.22185224294662476,0.07107684016227722
1726225372253410000,10.88041015625,-0.012603942304849625,0.22889868915081024,-0.48890256881713867
1726225372263447000,10.890447021484375,0.01721413992345333,-0.02755306474864483,0.027034813538193703
1726225372273485000,10.900485107421876,-0.10735228657722473,0.2363653928041458,0.08209433406591415
1726225372283523000,10.910523193359374,-0.012574647553265095,0.06763976067304611,-0.4063749313354492
1726225372293560000,10.92056005859375,-0.21500471234321594,0.07604443281888962,-0.09533078223466873
1726225372303598000,10.93059814453125,-0.04043397679924965,0.05590374395251274,0.4242383539676666
1726225372313636000,10.940635986328125,-0.16384752094745636,0.06876548379659653,0.3755507171154022
1726225372323674000,10.950674072265626,-0.16936372220516205,0.14332494139671326,-0.9183892011642456
1726225372333711000,10.960711181640624,-0.11731916666030884,-0.07416290789842606,-1.2268301248550415
1726225372343749000,10.9707490234375,-0.2118549942970276,0.25021037459373474,-0.02225523814558983
1726225372353787100,10.980787109375,0.008291219361126423,0.04271284118294716,0.569272518157959
1726225372363825200,10.9908251953125,-0.24248747527599335,0.007203318178653717,-0.08428159356117249
1726225372373862100,11.000862060546876,-0.02215084247291088,-0.11550688743591309,0.10298017412424088
1726225372383900200,11.010900146484374,-0.08391886949539185,-0.20820114016532898,0.13020727038383484
1726225372393938200,11.020938232421875,-0.115728460252285,-0.028250547125935555,-0.4071533977985382
1726225372403975000,11.030974853515625,-0.08120857179164886,-0.2663946747779846,-0.43319669365882874
1726225372414013200,11.04101318359375,-0.241376131772995,0.05498868227005005,0.5878446102142334
1726225372424051000,11.051051025390626,-0.15876488387584686,-0.10543853789567947,0.27748486399650574
1726225372434089200,11.061089111328124,-0.4403725862503052,0.05381609499454498,-0.1951758861541748
1726225372444126200,11.071126220703125,-0.22117899358272552,-0.13428963720798492,-0.2443399727344513
1726225372454164000,11.0811640625,-0.38978639245033264,-0.10687211900949478,-0.10891982913017273
1726225372464202200,11.0912021484375,-0.29296422004699707,-0.08752532303333282,-0.3556821942329407
1726225372474239200,11.1012392578125,-0.2883415222167969,-0.06041727215051651,0.08312232047319412
1726225372484277000,11.111277099609374,-0.36591193079948425,-0.0607091523706913,-0.01727432757616043
1726225372494315300,11.121315185546875,-0.2917759120464325,-0.21981970965862274,0.10827667266130447
1726225372504353000,11.13135302734375,-0.32383930683135986,-0.3850589990615845,0.912743866443634
1726225372514390000,11.14139013671875,-0.1799660325050354,-0.1357887238264084,-0.08558760583400726
1726225372524428000,11.151427978515626,-0.2089175283908844,-0.1990843415260315,-0.4343450665473938
1726225372534466000,11.161466064453125,-0.20610177516937256,-0.27285176515579224,0.1122511774301529
1726225372544504000,11.171504150390625,-0.2924608886241913,-0.17349696159362793,0.17518433928489685
1726225372554541000,11.181541015625,-0.37113040685653687,-0.021164674311876297,-0.06127001345157623
1726225372564579000,11.1915791015625,-0.3977130055427551,-0.15590091049671173,-0.2077430784702301
1726225372574617000,11.2016171875,-0.2381896674633026,-0.18430273234844208,0.5888089537620544
1726225372584654000,11.211654052734374,-0.31964030861854553,-0.287667453289032,0.5543798804283142
1726225372594692000,11.221692138671875,-0.16216759383678436,-0.13074496388435364,-0.7199403047561646
1726225372604730000,11.231730224609375,-0.0032088428270071745,-0.3186805248260498,-0.5612891316413879
1726225372614768000,11.24176806640625,-0.1203402578830719,-0.27289626002311707,0.6861194968223572
1726225372624804900,11.251804931640624,-0.14952504634857178,-0.18394160270690918,0.710110068321228
1726225372634843100,11.261843017578125,-0.13065122067928314,-0.14014485478401184,-0.5001872181892395
1726225372644881000,11.271880859375,-0.0970144271850586,-0.17466607689857483,-0.38569656014442444
1726225372654919200,11.281919189453125,-0.09323807060718536,-0.04199139401316643,0.5870251655578613
1726225372664956200,11.2919560546875,0.026321351528167725,-0.10080677270889282,-0.32899680733680725
1726225372674994000,11.301993896484374,0.053880542516708374,-0.15181829035282135,-0.7830167412757874
1726225372685032200,11.3120322265625,0.12801416218280792,-0.001686579897068441,0.25626373291015625
1726225372695070000,11.322070068359375,0.2214421033859253,-0.009832923300564289,0.14460033178329468
1726225372705107000,11.33210693359375,0.16524648666381836,-0.0691676214337349,-0.33249005675315857
1726225372715145200,11.342145263671876,0.22645950317382812,0.05362248048186302,0.4629245102405548
1726225372725183000,11.352182861328124,0.2671470046043396,-0.033964626491069794,0.47371935844421387
1726225372735220200,11.36222021484375,0.17009237408638,0.03365569934248924,0.3829018473625183
1726225372745258000,11.372258056640625,0.27212420105934143,0.046360041946172714,-0.33397984504699707
1726225372755296000,11.3822958984375,0.309329628944397,-0.03743046149611473,0.08015289157629013
1726225372765334000,11.392333984375,0.17424370348453522,-0.08043359220027924,0.8507963418960571
1726225372775371000,11.40237109375,0.11458170413970947,0.18083876371383667,-0.6576012969017029
1726225372785409000,11.412408935546875,0.13289067149162292,0.19560092687606812,-1.4953641891479492
1726225372795447000,11.422447021484375,-0.08674395084381104,0.033492714166641235,-0.8868110775947571
1726225372805485000,11.432485107421876,0.06130996346473694,0.07818641513586044,0.2681550085544586
1726225372815522300,11.442522216796876,0.09135414659976959,-0.11187619715929031,0.38491731882095337
1726225372825560000,11.45256005859375,0.1962219774723053,0.04096687585115433,0.002543318783864379
1726225372835598000,11.46259814453125,0.32027095556259155,-0.35361266136169434,0.1374438852071762
1726225372845636000,11.472635986328125,-0.06121169030666351,-0.042936548590660095,0.9826832413673401
1726225372855673000,11.482673095703126,-0.048283375799655914,0.0028035095892846584,0.21637704968452454
1726225372865710800,11.4927109375,-0.4378764033317566,0.09405725449323654,-0.852370023727417
1726225372875749000,11.5027490234375,-0.150069922208786,-0.03031929023563862,-0.6605569124221802
1726225372885786000,11.5127861328125,-0.2542474567890167,-0.0035896748304367065,0.24863405525684357
1726225372895824100,11.52282421875,-0.25505146384239197,-0.2018982321023941,0.007678425870835781
1726225372905862100,11.532862060546876,-0.08503793179988861,-0.11078643798828125,-0.2400653213262558
1726225372915900000,11.54289990234375,-0.013247095979750156,-0.16159474849700928,0.40505775809288025
1726225372925937200,11.552937255859375,-0.09627486765384674,-0.24559351801872253,0.8249892592430115
1726225372935975200,11.56297509765625,-0.13798929750919342,-0.05263657867908478,0.09759446978569031
1726225372946013000,11.573012939453125,-0.13688968122005463,0.017370468005537987,-0.3038858473300934
1726225372956051200,11.58305126953125,-0.1884354203939438,-0.15448197722434998,-0.1890556812286377
1726225372966088000,11.593087890625,-0.1980486363172531,0.008281365968286991,0.4477333128452301
1726225372976126200,11.603126220703125,-0.04692702740430832,-0.07778161019086838,0.40838029980659485
1726225372986164000,11.6131640625,-0.06940783560276031,0.015268434770405293,0.06315500289201736
1726225372996206300,11.623206298828125,0.032093487679958344,-0.1508563607931137,0.5468819737434387
1726225373006243300,11.633243408203125,0.026618560776114464,-0.08386427164077759,-0.0484522208571434
1726225373016281300,11.64328125,0.061884671449661255,0.2619461119174957,-0.3333111107349396
1726225373026319400,11.6533193359375,0.09306176751852036,0.024291491135954857,0.020114589482545853
1726225373036357400,11.663357421875,0.033432792872190475,0.11819641292095184,-0.17607302963733673
1726225373046394400,11.673394287109375,0.14879506826400757,0.06561869382858276,-0.5235021114349365
1726225373056432000,11.68343212890625,0.11722861975431442,0.08825982362031937,0.0812048390507698
1726225373066470400,11.693470458984375,0.21916458010673523,0.08123467117547989,0.8752148747444153
1726225373076508200,11.703508056640626,0.2501184940338135,0.1475827991962433,0.5113453269004822
1726225373086545200,11.713545166015624,0.22586987912654877,0.2164127230644226,0.11355932056903839
1726225373096583400,11.72358349609375,0.17898599803447723,0.11683154106140137,0.1820017546415329
1726225373106621200,11.73362109375,0.0428989976644516,0.19951896369457245,-0.10067600756883621
1726225373116658200,11.743658203125,0.1996350884437561,0.24958106875419617,-1.0145906209945679
1726225373126696400,11.753696533203126,0.17250066995620728,0.02497539110481739,0.11248739808797836
1726225373136734200,11.763734130859374,0.14915886521339417,-0.03399072214961052,0.28041142225265503
1726225373146772500,11.7737724609375,0.20238293707370758,0.17951756715774536,-0.5406267642974854
1726225373156809200,11.783809326171875,0.1906128227710724,0.05759352073073387,-0.3357905149459839
1726225373166847200,11.79384716796875,-0.000010918960470007733,0.154887855052948,0.3665183484554291
1726225373176885200,11.80388525390625,0.14872317016124725,0.2409399151802063,-0.0343443900346756
1726225373186923300,11.81392333984375,0.01781708002090454,0.2161208540201187,-0.5677417516708374
1726225373196960300,11.823960205078125,0.0988384261727333,0.15195517241954803,0.15192082524299622
1726225373206998300,11.833998291015625,0.013982927426695824,0.14220666885375977,0.09836358577013016
1726225373217036300,11.844036376953126,-0.02346457913517952,0.07692620903253555,0.3264196515083313
1726225373227074300,11.85407421875,-0.07304918020963669,-0.0677817091345787,-0.1674278825521469
1726225373237111300,11.864111328125,-0.09515740722417831,0.08250632882118225,-0.02875601500272751
1726225373247149300,11.8741494140625,-0.003961984533816576,-0.21780583262443542,0.5890920162200928
1726225373257187300,11.884187255859375,-0.29088082909584045,-0.059123240411281586,-0.13568326830863953
1726225373267225300,11.894225341796876,-0.1255003958940506,-0.08169832825660706,-1.178357720375061
1726225373277262300,11.904262451171874,-0.22781957685947418,-0.19879591464996338,-0.6988837718963623
1726225373287300400,11.91430029296875,-0.12279728800058365,-0.08709735423326492,-0.02618047036230564
1726225373297338400,11.92433837890625,-0.07886498421430588,0.00851492490619421,0.4365352392196655
1726225373307376400,11.93437646484375,-0.03903794661164284,-0.07519248872995377,-0.013701697811484337
1726225373317413400,11.944413330078126,-0.042158372700214386,-0.023615313693881035,0.2577623128890991
1726225373327451100,11.954451171875,-0.044082507491111755,-0.07803487777709961,0.8291704058647156
1726225373337489400,11.964489501953125,-0.06072619929909706,-0.15580424666404724,-0.06875988841056824
1726225373347527200,11.974527099609375,-0.06805441528558731,0.02979225106537342,0.1285659670829773
1726225373357564200,11.984564208984375,-0.0035116442013531923,0.06539472192525864,0.8425328135490417
1726225373367602400,11.9946025390625,-0.08998794853687286,-0.11806698143482208,-0.07067044079303741
1726225373377640200,12.00464013671875,-0.0842118188738823,0.16687127947807312,-0.6773412227630615
1726225373387678500,12.014678466796875,0.15333150327205658,-0.16521692276000977,-0.0223830696195364
1726225373397715500,12.024715576171875,-0.09776464104652405,-0.06539817899465561,0.7433806657791138
1726225373407753200,12.034753173828125,0.10281426459550858,-0.05210980772972107,-0.6593334078788757
1726225373417791500,12.04479150390625,-0.039330627769231796,-0.14424212276935577,-0.6950589418411255
1726225373427829200,12.054829345703125,-0.0004593952908180654,0.09818648546934128,0.32999736070632935
1726225373437866200,12.0648662109375,-0.12095784395933151,-0.06247695907950401,0.4113380014896393
1726225373447904300,12.074904296875,-0.17277604341506958,0.01329742930829525,-0.10549979656934738
1726225373457942300,12.0849423828125,-0.029980270192027092,-0.02159104496240616,-0.43174102902412415
1726225373467980300,12.094980224609374,-0.10139533132314682,-0.15788443386554718,0.6122263669967651
1726225373478017300,12.105017333984375,-0.02833736501634121,-0.23922190070152283,0.32754990458488464
1726225373488055300,12.11505517578125,-0.1730026751756668,-0.14670395851135254,-0.20182792842388153
1726225373498093300,12.12509326171875,-0.12465271353721619,-0.3006117641925812,-0.30439239740371704
1726225373508131300,12.13513134765625,-0.09913484007120132,-0.17742671072483063,0.2030268758535385
1726225373518168300,12.145168212890624,-0.20432810485363007,-0.3480333387851715,0.7828380465507507
1726225373528206300,12.155206298828125,-0.24978293478488922,-0.23810045421123505,-0.040117859840393066
1726225373538244400,12.165244384765625,-0.22972773015499115,0.04890735447406769,-0.6400795578956604
1726225373548282400,12.175282470703126,-0.17213048040866852,-0.3802171051502228,0.043358657509088516
1726225373558319400,12.1853193359375,-0.3419046103954315,-0.30873599648475647,1.0894081592559814
1726225373568357000,12.195357177734374,-0.12524233758449554,-0.08167915046215057,-0.0007371630053967237
1726225373578395400,12.2053955078125,-0.07378607243299484,-0.24336925148963928,-1.334294080734253
1726225373588433200,12.21543310546875,-0.02552160434424877,-0.27494367957115173,-0.19126982986927032
1726225373598470100,12.22547021484375,-0.146092489361763,-0.3219338357448578,0.9856907725334167
1726225373608508400,12.23550830078125,-0.07566573470830917,-0.204054594039917,0.16122138500213623
1726225373618546200,12.245546142578124,-0.023872310295701027,-0.05072522908449173,-0.408518522977829
1726225373628584400,12.25558447265625,-0.012673184275627136,-0.28106415271759033,-0.16137397289276123
1726225373638621400,12.265621337890625,-0.16022989153862,-0.3397863209247589,0.591241180896759
1726225373648659200,12.2756591796875,-0.04689054191112518,-0.011213239282369614,-0.6838478446006775
1726225373658697500,12.285697509765624,0.07672806829214096,-0.15844610333442688,-0.9124423861503601
1726225373668735200,12.2957353515625,0.11178112775087357,0.06546875834465027,0.5292736887931824
1726225373678772200,12.305772216796875,0.11637721210718155,-0.07001503556966782,0.5094371438026428
1726225373688810200,12.315810302734375,0.2337094247341156,0.04218873381614685,-0.24414688348770142
1726225373698848300,12.32584814453125,0.308584988117218,-0.027414580807089806,0.025438249111175537
