time,seconds_elapsed,z,y,x
1726225361423033600,0.05003369140625,0.1792309284210205,0.279899001121521,0.06653086096048355
1726225361433070800,0.06007080078125,0.171759694814682,0.2614672780036926,-0.06178982928395271
1726225361443107800,0.07010791015625,0.19164210557937622,0.37238186597824097,0.0554719939827919
1726225361453144800,0.080144775390625,0.2954297661781311,0.28909310698509216,0.31743544340133667
1726225361463181800,0.090181884765625,0.22767841815948486,0.21891698241233826,0.18513165414333344
1726225361473217800,0.1002177734375,0.1749824583530426,0.3624912202358246,-0.24470120668411255
1726225361483254800,0.1102548828125,0.2609592378139496,0.38653507828712463,0.0033335164189338684
1726225361493291800,0.120291748046875,0.2791467607021332,0.3193107545375824,0.15398959815502167
1726225361503328800,0.130328857421875,0.30721309781074524,0.374491423368454,-0.020666368305683136
1726225361513365800,0.14036572265625,0.3371022641658783,0.444054514169693,-0.04421669989824295
1726225361523402800,0.15040283203125,0.35205182433128357,0.3974320888519287,-0.006594646256417036
1726225361533440000,0.16043994140625,0.3157113790512085,0.4223707318305969,0.10081809759140015
1726225361543476700,0.170476806640625,0.28589293360710144,0.45418092608451843,0.006513518281280994
1726225361553513700,0.180513671875,0.16878361999988556,0.44778427481651306,-0.1526300609111786
1726225361563550700,0.19055078125,0.1642528772354126,0.4464854896068573,0.024321328848600388
1726225361573588000,0.200587890625,0.19001629948616028,0.4481739401817322,0.10708491504192352
1726225361583625000,0.210625,0.16055510938167572,0.38805821537971497,-0.08804917335510254
1726225361593661700,0.22066162109375,0.16463321447372437,0.43795785307884216,-0.06401681154966354
1726225361603698700,0.23069873046875,0.17796826362609863,0.3247683644294739,0.2982340157032013
1726225361613736000,0.24073583984375,-0.007082814816385508,0.28698956966400146,0.09119586646556854
1726225361623773000,0.25077294921875,-0.12105411291122437,0.30145975947380066,-0.2336965650320053
1726225361633810000,0.260809814453125,-0.2237520068883896,0.22948838770389557,-0.08920755237340927
1726225361643846700,0.2708466796875,-0.2636145055294037,0.2654547095298767,0.16973580420017242
1726225361653883600,0.280883544921875,-0.3757495582103729,0.1479477882385254,0.22610986232757568
1726225361663921000,0.2909208984375,-0.5007014870643616,0.07379542291164398,0.026227885857224464
1726225361673958000,0.3009580078125,-0.5237103700637817,-0.055041924118995667,0.030133942142128944
1726225361683995000,0.310994873046875,-0.5660856366157532,0.008335224352777004,0.4101892113685608
1726225361694030800,0.32103076171875,-0.6381574869155884,-0.17818377912044525,0.2298348844051361
1726225361704067600,0.331067626953125,-0.8416628241539001,-0.2036297619342804,0.11000161617994308
1726225361714104800,0.341104736328125,-0.9620166420936584,-0.265970379114151,0.07213199883699417
1726225361724141800,0.351141845703125,-1.0787969827651978,-0.34961244463920593,0.3504035770893097
1726225361734178800,0.3611787109375,-1.1412038803100586,-0.44980138540267944,0.05101209133863449
1726225361744215800,0.3712158203125,-1.2343050241470337,-0.47195151448249817,-0.0015631918795406818
1726225361754252800,0.381252685546875,-1.2341055870056152,-0.46953415870666504,0.27318182587623596
1726225361764289800,0.391289794921875,-1.2820112705230713,-0.45047464966773987,-0.11316380649805069
1726225361774326800,0.401326904296875,-1.2786732912063599,-0.49632179737091064,0.00446508452296257
1726225361784363800,0.41136376953125,-1.3014686107635498,-0.6028881669044495,0.2639569044113159
1726225361794400800,0.42140087890625,-1.361470103263855,-0.5177834033966064,-0.02602406032383442
1726225361804437800,0.431437744140625,-1.3218754529953003,-0.6256210207939148,0.2119234949350357
1726225361814474800,0.441474853515625,-1.27263605594635,-0.6305833458900452,0.06685684621334076
1726225361824511700,0.45151171875,-1.254196047782898,-0.48677802085876465,-0.18982230126857758
1726225361834548700,0.461548828125,-1.1906806230545044,-0.5753896832466125,0.2329031229019165
1726225361844586000,0.4715859375,-1.2278486490249634,-0.7645272612571716,0.1505018025636673
1726225361854622700,0.481622802734375,-1.2078163623809814,-0.6786578893661499,-0.08033674210309982
1726225361864659700,0.49165966796875,-1.1439788341522217,-0.5801389217376709,0.05735313519835472
1726225361874696700,0.50169677734375,-1.0653759241104126,-0.49601951241493225,0.07361198961734772
1726225361884733700,0.511733642578125,-0.9705749750137329,-0.5012680888175964,-0.01758383959531784
1726225361894771000,0.52177099609375,-0.8734990358352661,-0.5209131836891174,0.043162066489458084
1726225361904807700,0.5318076171875,-0.7484531402587891,-0.6210705041885376,0.19667954742908478
1726225361914844700,0.5418447265625,-0.6973121762275696,-0.5912521481513977,0.011283859610557556
1726225361924881700,0.551881591796875,-0.6772202849388123,-0.5617637634277344,0.007852388545870781
1726225361934919000,0.5619189453125,-0.7027589082717896,-0.4683235287666321,0.10031840205192566
1726225361944956000,0.571955810546875,-0.611543595790863,-0.385764479637146,-0.15502198040485382
1726225361954993000,0.581992919921875,-0.5821391344070435,-0.49278441071510315,0.16683675348758698
1726225361965029600,0.592029541015625,-0.5363540649414062,-0.5087470412254333,0.0619901604950428
1726225361975065600,0.602065673828125,-0.41269174218177795,-0.42037299275398254,-0.14640697836875916
1726225361985106200,0.612106201171875,-0.3822791576385498,-0.4154355227947235,0.2387683391571045
1726225361995143400,0.622143310546875,-0.2971552014350891,-0.3971894085407257,0.10010579973459244
1726225362005180400,0.632180419921875,-0.22355039417743683,-0.31677505373954773,0.09156975150108337
1726225362015217400,0.642217529296875,-0.18262213468551636,-0.3082324266433716,0.1762169897556305
1726225362025254100,0.652254150390625,-0.09932897984981537,-0.3436938524246216,0.08142203837633133
1726225362035291400,0.66229150390625,-0.06845016032457352,-0.3005061745643616,0.11792784929275513
1726225362045328400,0.672328369140625,0.038172055035829544,-0.25374266505241394,0.18838033080101013
1726225362055365400,0.682365478515625,0.11958222091197968,-0.134165421128273,0.056860122829675674
1726225362065402400,0.69240234375,0.2415175437927246,-0.09989842027425766,0.07821472734212875
1726225362075439400,0.702439453125,0.3527678847312927,0.01043581310659647,-0.029589492827653885
1726225362085476400,0.712476318359375,0.49445775151252747,0.05498205125331879,-0.02024252898991108
1726225362095513300,0.722513427734375,0.5766860842704773,0.14853915572166443,0.04276999086141586
1726225362105550300,0.73255029296875,0.7097588777542114,0.21767209470272064,-0.0464782752096653
1726225362115587300,0.74258740234375,0.8437614440917969,0.2370404601097107,0.08797726780176163
1726225362125624300,0.752624267578125,0.8890040516853333,0.2817935645580292,0.07607042044401169
1726225362135661300,0.762661376953125,0.9791520237922668,0.3350304365158081,0.01890646666288376
1726225362145698300,0.7726982421875,1.0013700723648071,0.37169528007507324,0.0783897116780281
1726225362155735300,0.7827353515625,1.03605055809021,0.3745880126953125,-0.07811680436134338
1726225362165772500,0.7927724609375,1.0381189584732056,0.41509875655174255,-0.05454246327280998
1726225362175809300,0.802809326171875,1.0361441373825073,0.4668293297290802,-0.0635005384683609
1726225362185846300,0.81284619140625,1.0322672128677368,0.4944166839122772,-0.11934034526348114
1726225362195883300,0.82288330078125,0.9775938391685486,0.5858347415924072,-0.3795729875564575
1726225362205920300,0.832920166015625,0.9621675610542297,0.47376587986946106,-0.05786871910095215
1726225362215957500,0.84295751953125,0.8649254441261292,0.423523485660553,0.016264095902442932
1726225362225994200,0.852994140625,0.8115530014038086,0.4467560350894928,-0.4193262755870819
1726225362236031200,0.86303125,0.7752197980880737,0.38817209005355835,-0.037049464881420135
1726225362246068200,0.873068115234375,0.7968844771385193,0.31925466656684875,0.05912339687347412
1726225362256105500,0.88310546875,0.7627318501472473,0.32529470324516296,-0.11426489800214767
1726225362266142500,0.893142578125,0.6971990466117859,0.25615569949150085,-0.002495462540537119
1726225362276179200,0.90317919921875,0.624413788318634,0.23920708894729614,-0.09713328629732132
1726225362286216200,0.91321630859375,0.5743737816810608,0.29401761293411255,0.06505322456359863
1726225362296253400,0.92325341796875,0.5530429482460022,0.25922712683677673,0.06235596910119057
1726225362306290400,0.93329052734375,0.4882221817970276,0.27574262022972107,-0.16798453032970428
1726225362316327400,0.943327392578125,0.46020278334617615,0.31489187479019165,-0.2371116727590561
1726225362326364200,0.9533642578125,0.38818395137786865,0.3652157485485077,-0.0355343371629715
1726225362336401200,0.963401123046875,0.36866486072540283,0.3026069700717926,0.05175795778632164
1726225362346438400,0.9734384765625,0.3588525950908661,0.3617143929004669,-0.47798553109169006
1726225362356475400,0.983475341796875,0.3964790403842926,0.24793216586112976,-0.09360350668430328
1726225362366512400,0.993512451171875,0.41613537073135376,0.256491482257843,0.2907327115535736
1726225362376549000,1.003549072265625,0.39147424697875977,0.2612239122390747,0.012121064588427544
1726225362386586400,1.01358642578125,0.3802715241909027,0.2285505086183548,-0.006658213213086128
1726225362396623400,1.023623291015625,0.3381733298301697,0.22135917842388153,0.07277082651853561
1726225362406660400,1.033660400390625,0.23291099071502686,0.2580673396587372,0.03922055661678314
1726225362416697300,1.043697265625,0.17030645906925201,0.25674134492874146,0.1943371742963791
1726225362426734300,1.053734375,0.12361427396535873,0.24453578889369965,0.2756733298301697
1726225362436771300,1.063771240234375,0.1275826394557953,0.3304927945137024,-0.18982751667499542
1726225362446808300,1.073808349609375,0.14347587525844574,0.28643837571144104,-0.366955429315567
1726225362456845300,1.08384521484375,0.11393474787473679,0.14030273258686066,0.06921710073947906
1726225362466882300,1.09388232421875,0.1260131448507309,0.15556281805038452,-0.10296344012022018
1726225362476919300,1.103919189453125,0.1338825225830078,0.22643645107746124,-0.03366719186306
1726225362486956300,1.113956298828125,0.014105232432484627,0.2575353980064392,0.13353320956230164
1726225362496993300,1.1239931640625,-0.07692054659128189,0.18918804824352264,-0.0022051832638680935
1726225362507030300,1.1340302734375,-0.12861427664756775,0.16430167853832245,0.10389679670333862
1726225362517067500,1.144067626953125,-0.15966379642486572,0.14122538268566132,0.08101571351289749
1726225362527104300,1.154104248046875,-0.19456210732460022,0.1363927274942398,0.08970853686332703
1726225362537141200,1.164141357421875,-0.23717187345027924,0.13161714375019073,0.1081160381436348
1726225362547178200,1.17417822265625,-0.25374990701675415,0.1147167906165123,-0.020280033349990845
1726225362557215500,1.184215576171875,-0.27472203969955444,0.09752316027879715,0.008590496145188808
1726225362567252500,1.19425244140625,-0.34934157133102417,0.05324803292751312,-0.11636607348918915
1726225362577289200,1.204289306640625,-0.44294822216033936,0.02633865550160408,0.08233717083930969
1726225362587326200,1.214326171875,-0.46288633346557617,0.017328724265098572,-0.024512585252523422
1726225362597363200,1.22436328125,-0.6076123118400574,-0.03924880176782608,-0.004996940493583679
1726225362607400400,1.234400390625,-0.6561595797538757,-0.167615607380867,0.14956651628017426
1726225362617437400,1.2444375,-0.7577530741691589,-0.23832041025161743,0.08961237967014313
1726225362627474400,1.254474365234375,-0.8449604511260986,-0.1713930368423462,-0.1318286806344986
1726225362637511200,1.26451123046875,-0.848378598690033,-0.25767624378204346,-0.055756546556949615
1726225362647548400,1.27454833984375,-0.8958597779273987,-0.3725954592227936,0.1496506780385971
1726225362657585400,1.28458544921875,-0.9239270687103271,-0.3392702341079712,-0.04881340265274048
1726225362667622400,1.294622314453125,-0.949256956577301,-0.35408225655555725,0.6154047846794128
1726225362677659400,1.304659423828125,-0.9460206627845764,-0.4874943494796753,0.38032329082489014
1726225362687696100,1.314696044921875,-0.9640638828277588,-0.47842442989349365,-0.056052420288324356
1726225362697733400,1.3247333984375,-1.000452995300293,-0.42844250798225403,-0.18126866221427917
1726225362707771400,1.334771484375,-0.9496237635612488,-0.46907302737236023,-0.014954080805182457
1726225362717808000,1.34480810546875,-0.9180871248245239,-0.4502117335796356,-0.17335569858551025
1726225362727845400,1.354845458984375,-0.8782055974006653,-0.571007251739502,0.01122033316642046
1726225362737882400,1.36488232421875,-0.8566001653671265,-0.5399560928344727,0.2158067673444748
1726225362747919400,1.37491943359375,-0.8488830924034119,-0.5200490355491638,-0.03807053714990616
1726225362757956400,1.384956298828125,-0.8413076996803284,-0.4611223340034485,0.15666352212429047
1726225362767993300,1.394993408203125,-0.7924180030822754,-0.40651917457580566,0.24948450922966003
1726225362778030300,1.4050302734375,-0.7814916372299194,-0.42463985085487366,0.2808118164539337
1726225362788067300,1.4150673828125,-0.7006012797355652,-0.44224873185157776,0.3258399963378906
1726225362798104300,1.425104248046875,-0.589582622051239,-0.5060969591140747,-0.034884631633758545
1726225362808141300,1.435141357421875,-0.5766100883483887,-0.42233309149742126,-0.09127284586429596
1726225362818178300,1.44517822265625,-0.49078628420829773,-0.4703354835510254,0.04184526577591896
1726225362828215300,1.45521533203125,-0.5229701995849609,-0.4432714879512787,-0.005911623127758503
1726225362838252300,1.465252197265625,-0.5173804759979248,-0.44378894567489624,-0.10298783332109451
1726225362848289300,1.475289306640625,-0.5512423515319824,-0.3876524269580841,-0.02366243489086628
1726225362858326500,1.485326416015625,-0.5059329271316528,-0.39312493801116943,0.08734584599733353
1726225362868363300,1.49536328125,-0.4802503287792206,-0.43800070881843567,0.0757993757724762
1726225362878400300,1.505400146484375,-0.47757092118263245,-0.43383127450942993,0.23444068431854248
1726225362888437200,1.515437255859375,-0.3733462393283844,-0.39824745059013367,0.11772120743989944
1726225362898474500,1.525474609375,-0.3978220224380493,-0.37086960673332214,-0.11329016834497452
1726225362908511500,1.535511474609375,-0.39433231949806213,-0.39748087525367737,0.05180219188332558
1726225362918548200,1.54554833984375,-0.38748612999916077,-0.36311063170433044,0.005800344981253147
1726225362928585200,1.555585205078125,-0.39546868205070496,-0.32968375086784363,-0.20285463333129883
1726225362938623500,1.56562353515625,-0.3781970143318176,-0.3890219032764435,0.16165435314178467
1726225362948660500,1.575660400390625,-0.37085723876953125,-0.3664224147796631,0.048333294689655304
1726225362958697200,1.585697265625,-0.3413749933242798,-0.26641353964805603,-0.04278595745563507
1726225362968734200,1.595734130859375,-0.32250991463661194,-0.2883321940898895,0.17734374105930328
1726225362978771500,1.605771484375,-0.26510149240493774,-0.2833435535430908,0.0071062385104596615
1726225362988808200,1.61580810546875,-0.24722984433174133,-0.24179044365882874,0.11026760935783386
1726225362998845200,1.62584521484375,-0.21537578105926514,-0.2531645596027374,0.2440384477376938
1726225363008882000,1.6358818359375,-0.18122074007987976,-0.07992701232433319,-0.1329505294561386
1726225363018919000,1.6459189453125,-0.10986879467964172,-0.10075613111257553,-0.11015680432319641
1726225363028956000,1.655955810546875,-0.044825032353401184,-0.1952054649591446,0.12526598572731018
1726225363038993200,1.6659931640625,0.10326829552650452,-0.06656385958194733,-0.46610119938850403
1726225363049030100,1.676030029296875,0.19432324171066284,-0.11758854985237122,-0.017389805987477303
1726225363059067100,1.686067138671875,0.23979219794273376,-0.06208933889865875,0.16034796833992004
1726225363069103900,1.696103759765625,0.3120436370372772,0.05182906985282898,-0.01681012101471424
1726225363079141000,1.70614111328125,0.3220243752002716,0.10306455940008163,0.13416901230812073
1726225363089178000,1.71617822265625,0.3798869252204895,0.07858043909072876,0.1339048147201538
1726225363099216000,1.7262158203125,0.3818209171295166,0.16166839003562927,0.47894662618637085
1726225363109252900,1.7362529296875,0.49423155188560486,0.09586761891841888,-0.026377856731414795
1726225363119290000,1.7462900390625,0.4582735598087311,0.19680489599704742,-0.2572435438632965
1726225363129327000,1.7563271484375,0.5586975812911987,0.05326319485902786,0.1104542464017868
1726225363139364000,1.766364013671875,0.481523722410202,0.1452178955078125,0.2696095407009125
1726225363149400800,1.77640087890625,0.5083291530609131,0.14199766516685486,0.09835278987884521
1726225363159438000,1.78643798828125,0.4321739673614502,0.22289171814918518,0.006334720645099878
1726225363169475000,1.79647509765625,0.3451475203037262,0.16781668365001678,0.14132991433143616
1726225363179512000,1.806511962890625,0.24976637959480286,0.1237160712480545,0.06255094707012177
1726225363189549000,1.816549072265625,0.14019469916820526,0.15022268891334534,0.15006107091903687
1726225363199586000,1.8265859375,0.08703587204217911,0.010274644941091537,0.27801477909088135
1726225363209623000,1.836623046875,-0.04722708836197853,0.01590852625668049,-0.03865211084485054
1726225363219660000,1.846659912109375,-0.09641434252262115,-0.022376012057065964,-0.316227525472641
1726225363229698000,1.856697998046875,-0.24133872985839844,-0.15849953889846802,0.14268405735492706
1726225363239735000,1.866735107421875,-0.2888724207878113,-0.17803676426410675,-0.15336544811725616
1726225363249772000,1.87677197265625,-0.3662627935409546,-0.17718347907066345,-0.4162828326225281
1726225363259809000,1.88680908203125,-0.4136827886104584,-0.17607028782367706,0.1305924952030182
1726225363269846000,1.896845947265625,-0.4430557191371918,-0.306474506855011,0.0672985389828682
1726225363279883300,1.90688330078125,-0.5104901194572449,-0.25903403759002686,0.018708361312747
1726225363289920000,1.916919921875,-0.44236037135124207,-0.30823299288749695,0.12591595947742462
1726225363299957000,1.92695703125,-0.48991456627845764,-0.3332347571849823,0.23874077200889587
1726225363309994000,1.936993896484375,-0.4605530798435211,-0.3105167746543884,-0.04031266272068024
1726225363320031000,1.947031005859375,-0.3888240456581116,-0.3221223056316376,-0.1703319102525711
1726225363330068200,1.957068115234375,-0.41455233097076416,-0.4104934334754944,0.26115304231643677
1726225363340106000,1.96710595703125,-0.32854366302490234,-0.40427762269973755,0.023729320615530014
1726225363350143000,1.97714306640625,-0.312587171792984,-0.3052833080291748,-0.09135778248310089
1726225363360180200,1.98718017578125,-0.26537516713142395,-0.28061363101005554,0.23726484179496765
1726225363370217000,1.997217041015625,-0.23345127701759338,-0.2993921935558319,0.2533818781375885
1726225363380254000,2.00725390625,-0.1775086522102356,-0.13849090039730072,0.04074018448591232
1726225363390291000,2.017291015625,-0.06252988427877426,-0.1678124964237213,-0.020729586482048035
1726225363400328200,2.027328125,-0.04575303569436073,-0.12677904963493347,0.11257120966911316
1726225363410365200,2.037365234375,0.06988482177257538,-0.19312794506549835,0.4122692048549652
1726225363420402200,2.047402099609375,0.15181565284729004,-0.07999952882528305,-0.0028270771726965904
1726225363430440000,2.05743994140625,0.26167726516723633,-0.10565119981765747,-0.10344178974628448
1726225363440477200,2.067477294921875,0.2933310866355896,-0.13749435544013977,0.023475944995880127
1726225363450514200,2.07751416015625,0.2967374324798584,-0.04981742799282074,0.0648406594991684
1726225363460551000,2.087551025390625,0.29580533504486084,0.05547064542770386,0.05903230980038643
1726225363470588000,2.097587890625,0.3502257764339447,0.06977523118257523,-0.04601403698325157
1726225363480625200,2.107625244140625,0.3633575737476349,0.1040210872888565,0.004260053392499685
1726225363490662100,2.117662109375,0.49634429812431335,0.12837818264961243,0.1066291481256485
1726225363500699100,2.12769921875,0.4719183146953583,0.09651240706443787,0.2828148305416107
1726225363510736000,2.13773583984375,0.5026785135269165,0.09071028232574463,-0.061741795390844345
1726225363520774100,2.147774169921875,0.5310968160629272,0.2345007359981537,-0.5498270392417908
1726225363530811100,2.15781103515625,0.5160924792289734,0.14065054059028625,0.12188777327537537
1726225363540848000,2.16784814453125,0.477497398853302,0.10219795256853104,-0.021633969619870186
1726225363550884900,2.177884765625,0.44083669781684875,0.20993530750274658,-0.3874276280403137
1726225363560922000,2.187922119140625,0.49496808648109436,0.12166643142700195,0.08220617473125458
1726225363570959000,2.197958984375,0.33381739258766174,0.07856357097625732,0.0769527405500412
1726225363580996000,2.20799609375,0.3987428545951843,0.12374302744865417,-0.22571657598018646
1726225363591033900,2.218033935546875,0.38760149478912354,0.10357148945331573,-0.10976922512054443
1726225363601071000,2.228071044921875,0.3480929732322693,0.012886859476566315,0.2100955992937088
1726225363611108000,2.238108154296875,0.399535208940506,-0.07229787856340408,0.33286312222480774
1726225363621145000,2.24814501953125,0.26289692521095276,0.022127695381641388,-0.3133105933666229
1726225363631182000,2.25818212890625,0.25285637378692627,0.06436861306428909,-0.40319693088531494
1726225363641219000,2.268218994140625,0.19876515865325928,0.035954549908638,0.11975309252738953
1726225363651256000,2.278256103515625,0.09435819834470749,0.022578660398721695,-0.10075242072343826
1726225363661293000,2.28829296875,0.17259840667247772,-0.004050286952406168,-0.20055891573429108
1726225363671330800,2.298330810546875,0.1635669320821762,0.026838503777980804,0.10049500316381454
1726225363681368000,2.3083681640625,0.15339018404483795,-0.03612608090043068,-0.022969678044319153
1726225363691405000,2.318405029296875,0.11448761820793152,-0.14160214364528656,0.10118381679058075
1726225363701442000,2.328442138671875,0.06881840527057648,-0.17816601693630219,0.21662598848342896
1726225363711479000,2.33847900390625,0.04087916016578674,-0.06052333116531372,-0.26665663719177246
1726225363721516000,2.34851611328125,-0.012406701222062111,-0.14731362462043762,-0.16418643295764923
1726225363731553000,2.358552978515625,-0.0046334946528077126,-0.1792035847902298,0.19939668476581573
1726225363741591000,2.368591064453125,0.015831567347049713,-0.16574396193027496,-0.24137085676193237
1726225363751628300,2.378628173828125,0.062231939285993576,-0.17496523261070251,0.06099967658519745
1726225363761665000,2.3886650390625,0.12015195935964584,-0.1974194049835205,0.15971720218658447
1726225363771702000,2.398701904296875,0.0878412127494812,-0.18237148225307465,0.0465775728225708
1726225363781739000,2.408739013671875,0.0479382686316967,-0.17291246354579926,0.12231014668941498
1726225363791776000,2.41877587890625,-0.022911284118890762,-0.06531345844268799,0.038282595574855804
1726225363801813200,2.428813232421875,-0.05348570644855499,-0.09524499624967575,0.21052759885787964
1726225363811851000,2.43885107421875,-0.13902896642684937,-0.024741049855947495,0.15663279592990875
1726225363821888000,2.448887939453125,-0.11489886790513992,-0.011635900475084782,-0.39793267846107483
1726225363831925200,2.45892529296875,-0.11930471658706665,-0.12902125716209412,0.15297916531562805
1726225363841962000,2.4689619140625,-0.05540536716580391,-0.10288817435503006,0.050674356520175934
1726225363851999000,2.4789990234375,0.01976882480084896,-0.08623354136943817,-0.27583470940589905
1726225363862036000,2.489035888671875,0.031220419332385063,-0.11850226670503616,0.24154849350452423
1726225363872074200,2.49907421875,0.03310680761933327,-0.2249729186296463,0.18560849130153656
1726225363882111000,2.509111083984375,0.07643218338489532,-0.11521312594413757,0.12761737406253815
1726225363892148000,2.51914794921875,0.05544717609882355,-0.08577949553728104,0.26412057876586914
1726225363902185000,2.52918505859375,0.10738653689622879,-0.08533687144517899,0.1528020203113556
1726225363912222200,2.53922216796875,0.11071078479290009,0.030044596642255783,-0.12452993541955948
1726225363922259200,2.54925927734375,0.21092180907726288,0.1005571112036705,-0.25328123569488525
1726225363932297000,2.559296875,0.22744780778884888,0.041533492505550385,0.051987405866384506
1726225363942334000,2.569333984375,0.24263101816177368,0.08441784232854843,0.010939041152596474
1726225363952371200,2.57937109375,0.3295220732688904,0.10938108712434769,-0.1248113363981247
1726225363962408200,2.589408203125,0.3255414366722107,0.11175822466611862,0.03309653326869011
1726225363972445000,2.59944482421875,0.35975685715675354,0.10356655716896057,0.08582586795091629
1726225363982480000,2.60947998046875,0.375267893075943,0.12312694638967514,0.027898652479052544
1726225363992516900,2.619516845703125,0.3434719443321228,0.15799665451049805,0.0011064261198043823
1726225364002553600,2.6295537109375,0.3577864468097687,0.11333011090755463,0.36820292472839355
1726225364012590600,2.639590576171875,0.26879361271858215,0.3644031584262848,0.20172221958637238
1726225364022627800,2.6496279296875,0.3622886836528778,0.37150952219963074,-0.5537865161895752
1726225364032664800,2.659664794921875,0.27097493410110474,0.3025849461555481,-0.2757905423641205
1726225364042702600,2.66970263671875,0.3354215621948242,0.32832732796669006,0.08004238456487656
1726225364052739600,2.679739501953125,0.31154078245162964,0.26720744371414185,-0.15977920591831207
1726225364062776800,2.68977685546875,0.30064767599105835,0.20902349054813385,-0.1715112328529358
1726225364072813800,2.699813720703125,0.38446471095085144,0.19636185467243195,0.18447716534137726
1726225364082850800,2.709850830078125,0.30260607600212097,0.17718017101287842,0.1700494885444641
1726225364092888600,2.719888671875,0.28368327021598816,0.2169148325920105,-0.023091118782758713
1726225364102925800,2.72992578125,0.2202416956424713,0.2338954210281372,-0.13701608777046204
1726225364112962800,2.739962890625,0.11088287085294724,0.14294007420539856,0.09457976371049881
1726225364122999600,2.74999951171875,0.046735040843486786,0.18545956909656525,-0.17064152657985687
1726225364133036500,2.76003662109375,-0.04802044481039047,0.11588479578495026,0.06587158888578415
1726225364143074800,2.77007470703125,-0.12116176635026932,-0.002136914525181055,0.08289451152086258
1726225364153111800,2.78011181640625,-0.19500096142292023,0.08068423718214035,-0.1884453147649765
1726225364163148500,2.7901484375,-0.20236806571483612,-0.046984247863292694,0.08039465546607971
1726225364173185800,2.800185791015625,-0.27075284719467163,-0.10868577659130096,-0.016935205087065697
1726225364183222800,2.810222900390625,-0.32165011763572693,-0.08892671763896942,-0.06533655524253845
1726225364193260500,2.820260498046875,-0.36208465695381165,-0.19669277966022491,0.2508448660373688
1726225364203297500,2.830297607421875,-0.48230665922164917,-0.14237919449806213,-0.08162415027618408
1726225364213334800,2.840334716796875,-0.5272329449653625,-0.0816371738910675,-0.11345531046390533
1726225364223371800,2.850371826171875,-0.5399926900863647,-0.2136756330728531,0.06239455193281174
1726225364233408800,2.86040869140625,-0.5709788203239441,-0.20068472623825073,-0.029201414436101913
1726225364243446800,2.87044677734375,-0.5259934663772583,-0.21635104715824127,0.05008328706026077
1726225364253483800,2.88048388671875,-0.4927021861076355,-0.21324653923511505,-0.06975322961807251
1726225364263520800,2.890520751953125,-0.5202909708023071,-0.20717985928058624,-0.08845740556716919
1726225364273557800,2.900557861328125,-0.4796828627586365,-0.18051186203956604,0.04187562316656113
1726225364283594500,2.910594482421875,-0.4821995496749878,-0.12740257382392883,0.13108646869659424
1726225364293632800,2.9206328125,-0.44215208292007446,-0.18515023589134216,0.3976290822029114
1726225364303669800,2.930669677734375,-0.3675444424152374,-0.10508708655834198,-0.09294089674949646
1726225364313706800,2.940706787109375,-0.3120700716972351,-0.076150082051754,-0.17122960090637207
1726225364323743700,2.95074365234375,-0.20709598064422607,-0.19442158937454224,0.17021401226520538
1726225364333781800,2.96078173828125,-0.1761741191148758,-0.05103388428688049,-0.17711524665355682
1726225364343818800,2.97081884765625,-0.0795530378818512,-0.05081683397293091,0.04489651694893837
1726225364353855500,2.98085546875,-0.09312691539525986,-0.05512695014476776,0.12281045317649841
1726225364363892700,2.990892822265625,-0.056116435676813126,-0.018150288611650467,-0.0937812477350235
1726225364373929700,3.0009296875,-0.03487183153629303,0.02440692111849785,0.13017155230045319
1726225364383967700,3.0109677734375,-0.04583952948451042,0.016276022419333458,0.24467281997203827
1726225364394004700,3.021004638671875,0.018620923161506653,0.030782297253608704,0.31393682956695557
1726225364404041700,3.031041748046875,0.03257428854703903,0.03040812350809574,-0.05149734392762184
1726225364414078700,3.04107861328125,0.05312748998403549,-0.018157070502638817,0.020335528999567032
1726225364424116700,3.05111669921875,0.06168369576334953,0.07501894980669022,0.08070512861013412
1726225364434153700,3.06115380859375,0.08556456863880157,0.0496266633272171,0.0011523598805069923
1726225364444190700,3.071190673828125,0.026359567418694496,0.047239407896995544,-0.017021849751472473
1726225364454227700,3.081227783203125,0.013827573508024216,0.04391471669077873,-0.014938762411475182
1726225364464265700,3.091265625,-0.039877999573946,0.021111931651830673,0.08871839195489883
1726225364474302700,3.101302734375,-0.12327896803617477,-0.04399319738149643,0.16864778101444244
1726225364484339700,3.111339599609375,-0.14073757827281952,-0.05813777446746826,-0.16882559657096863
1726225364494376700,3.121376708984375,-0.24639102816581726,0.027436833828687668,-0.3235994279384613
1726225364504414700,3.131414794921875,-0.23998825252056122,-0.060678381472826004,0.1992856115102768
1726225364514451700,3.14145166015625,-0.2918027341365814,-0.16240309178829193,0.1472725123167038
1726225364524488700,3.15148876953125,-0.3425902724266052,-0.08839277178049088,-0.45916998386383057
1726225364534525700,3.161525634765625,-0.29497194290161133,-0.247901052236557,-0.07510760426521301
1726225364544563700,3.171563720703125,-0.35382434725761414,-0.2964227795600891,0.2884916365146637
1726225364554600700,3.1816005859375,-0.3621254563331604,-0.23877783119678497,-0.016510095447301865
1726225364564637700,3.1916376953125,-0.4486004114151001,-0.186700239777565,-0.16479596495628357
1726225364574674700,3.2016748046875,-0.4302806854248047,-0.29439568519592285,0.1936997026205063
1726225364584712700,3.211712646484375,-0.4276934266090393,-0.30136731266975403,0.09354221075773239
1726225364594749700,3.221749755859375,-0.39464831352233887,-0.2984558343887329,-0.2721337080001831
1726225364604786700,3.23178662109375,-0.3890080451965332,-0.32893943786621094,0.07661069929599762
1726225364614824000,3.241823974609375,-0.285942405462265,-0.36431238055229187,-0.024555660784244537
1726225364624861700,3.25186181640625,-0.30949142575263977,-0.33446207642555237,-0.07751873880624771
1726225364634898700,3.261898681640625,-0.2781382203102112,-0.34814316034317017,0.08986261487007141
1726225364644935700,3.271935791015625,-0.2246163934469223,-0.27843812108039856,-0.12489736080169678
1726225364654972700,3.28197265625,-0.21834491193294525,-0.23328319191932678,-0.027810465544462204
1726225364665010700,3.2920107421875,-0.13181933760643005,-0.25695204734802246,0.024719320237636566
1726225364675047700,3.302047607421875,-0.08620572090148926,-0.2147827446460724,0.08681204169988632
1726225364685085000,3.3120849609375,-0.008151931688189507,-0.260694295167923,0.15865640342235565
1726225364695121700,3.32212158203125,0.020474545657634735,-0.1506906896829605,-0.22886399924755096
1726225364705159700,3.33215966796875,0.08167718350887299,-0.1020485907793045,-0.040638964623212814
1726225364715196700,3.34219677734375,0.12300646305084229,-0.17216306924819946,0.12408362329006195
1726225364725234000,3.35223388671875,0.14612776041030884,-0.022992495447397232,-0.38768354058265686
1726225364735270700,3.362270751953125,0.23058250546455383,-0.048791225999593735,0.08836082369089127
1726225364745308700,3.37230859375,0.2620762586593628,-0.05163255333900452,0.06427838653326035
1726225364755346000,3.382345947265625,0.3667612671852112,0.10034526139497757,-0.1981176733970642
1726225364765382700,3.392382568359375,0.3991413116455078,0.06294967979192734,0.1659122109413147
1726225364775420700,3.402420654296875,0.4520605504512787,-0.008604839444160461,0.23824432492256165
1726225364785457700,3.412457763671875,0.547026515007019,0.1405782401561737,-0.1730199158191681
1726225364795495000,3.422494873046875,0.5498006343841553,0.15694677829742432,-0.3961718678474426
1726225364805531600,3.43253173828125,0.5197039842605591,0.020559901371598244,0.05143601819872856
1726225364815569700,3.442569580078125,0.524062991142273,0.18952693045139313,-0.19842450320720673
1726225364825607000,3.45260693359375,0.5413567423820496,0.27825281023979187,-0.39525365829467773
1726225364835643600,3.4626435546875,0.5544301271438599,0.20199976861476898,0.016842983663082123
1726225364845681700,3.472681640625,0.5644433498382568,0.15260213613510132,-0.1541748344898224
1726225364855718700,3.48271875,0.6440340280532837,0.20781156420707703,-0.05876093730330467
1726225364865756000,3.492755859375,0.6437757015228271,0.16590672731399536,0.09638737142086029
1726225364875792600,3.502792724609375,0.6148398518562317,0.12306981533765793,-0.1286333203315735
1726225364885830700,3.51283056640625,0.5415027737617493,0.21283406019210815,-0.21431361138820648
1726225364895868000,3.522867919921875,0.5058862566947937,0.20496335625648499,-0.262971967458725
1726225364905905000,3.53290478515625,0.3857382535934448,0.14379693567752838,-0.0242140032351017
1726225364915942700,3.542942626953125,0.3865478038787842,0.19310827553272247,-0.4399087131023407
1726225364925979600,3.552979736328125,0.43264976143836975,0.14685183763504028,-0.014607494696974754
1726225364936017000,3.563016845703125,0.4363838732242584,0.10548064857721329,0.203053817152977
1726225364946053600,3.5730537109375,0.4812629520893097,0.12891165912151337,-0.14769940078258514
1726225364956091600,3.583091552734375,0.4325157105922699,0.06709998846054077,0.005085930228233337
1726225364966129000,3.59312890625,0.4311321973800659,0.05124245584011078,0.03435300663113594
1726225364976166000,3.603165771484375,0.39717531204223633,0.0902116596698761,-0.061143659055233
1726225364986204200,3.6132041015625,0.2759183943271637,0.07951853424310684,-0.29055073857307434
1726225364996241200,3.6232412109375,0.2354511320590973,0.09931301325559616,0.0254474226385355
1726225365006278400,3.6332783203125,0.252955824136734,0.07327847927808762,0.029200879856944084
1726225365016316200,3.643316162109375,0.21313171088695526,0.06153087317943573,-0.09579462558031082
1726225365026353200,3.653353271484375,0.27894774079322815,0.032798029482364655,0.2578830122947693
1726225365036390400,3.663390380859375,0.27695411443710327,0.01801341027021408,0.20650024712085724
1726225365046428200,3.67342822265625,0.2960442006587982,0.0026072897017002106,0.04963872209191322
1726225365056465200,3.683465087890625,0.24475175142288208,0.014198094606399536,0.08052132278680801
1726225365066502100,3.693502197265625,0.22275696694850922,0.018100690096616745,0.3561286926269531
1726225365076539400,3.703539306640625,0.10084746032953262,0.1738157719373703,0.052176669239997864
1726225365086577200,3.7135771484375,0.16125701367855072,0.25619134306907654,-0.36184394359588623
1726225365096614100,3.7236142578125,0.09423597157001495,0.10141123831272125,0.18519845604896545
1726225365106651400,3.7336513671875,0.13124938309192657,0.12226032465696335,0.08177192509174347
1726225365116689200,3.743689208984375,0.19219674170017242,0.11498048156499863,-0.13820192217826843
1726225365126726100,3.75372607421875,0.20007117092609406,0.06752854585647583,0.22698429226875305
1726225365136763100,3.76376318359375,0.21550220251083374,0.01962542161345482,0.11882684379816055
1726225365146801200,3.77380126953125,0.2176724076271057,0.12249694764614105,0.12453106790781021
1726225365156838100,3.783838134765625,0.19284020364284515,0.12917231023311615,0.3670618236064911
1726225365166875100,3.793875244140625,0.18338944017887115,0.13676631450653076,0.06803546100854874
1726225365176913200,3.8039130859375,0.19813485443592072,0.15881294012069702,0.0568203367292881
1726225365186950100,3.8139501953125,0.23144833743572235,0.2024131417274475,0.10867447406053543
1726225365196987100,3.823987060546875,0.23728150129318237,0.17561514675617218,0.3682621121406555
1726225365207025400,3.834025390625,0.27700307965278625,0.16698917746543884,0.009191050194203854
1726225365217062100,3.844062255859375,0.2500525116920471,0.2692429721355438,-0.05245941877365112
1726225365227099100,3.85409912109375,0.30507582426071167,0.16807079315185547,0.2706739008426666
1726225365237137400,3.864137451171875,0.24868686497211456,0.22909846901893616,-0.07116866111755371
1726225365247174100,3.874174072265625,0.25450026988983154,0.1973533183336258,-0.03541305661201477
1726225365257211100,3.884211181640625,0.22505854070186615,0.12467225641012192,0.6777737736701965
1726225365267249200,3.894249267578125,0.1791246086359024,0.21179650723934174,0.1772315800189972
1726225365277286400,3.904286376953125,0.12928855419158936,0.31052300333976746,-0.14417928457260132
1726225365287323100,3.9143232421875,0.11069195717573166,0.28946858644485474,0.1543072760105133
1726225365297361200,3.924361083984375,0.03436816483736038,0.2956986725330353,-0.16384030878543854
1726225365307398400,3.9343984375,0.07635502517223358,0.22852230072021484,-0.12412192672491074
1726225365317435400,3.944435302734375,0.15372171998023987,0.23067879676818848,0.13989610970020294
1726225365327473200,3.95447314453125,0.123509481549263,0.18891137838363647,0.06206761673092842
1726225365337510100,3.96451025390625,0.09310419857501984,0.16782349348068237,0.18384172022342682
1726225365347548200,3.974548095703125,0.08293811231851578,0.18378354609012604,0.13051378726959229
1726225365357585200,3.984585205078125,-0.023684419691562653,0.249202162027359,-0.22977884113788605
1726225365367622100,3.9946220703125,-0.055770985782146454,0.17338143289089203,0.1194971352815628
1726225365377660200,4.00466015625,-0.12048735469579697,0.21741779148578644,-0.01560184359550476
1726225365387697200,4.014697265625,-0.1357717663049698,0.2002744972705841,-0.07672271877527237
1726225365397734100,4.024734130859375,-0.1257767677307129,0.12663187086582184,0.0772382840514183
1726225365407772400,4.0347724609375,-0.0976567193865776,0.09577995538711548,0.017552578821778297
1726225365417809200,4.04480908203125,-0.09726051241159439,0.08541051298379898,0.04161495715379715
1726225365427846100,4.05484619140625,-0.16142751276493073,0.09350838512182236,0.044838178902864456
1726225365437884400,4.064884521484375,-0.2009294629096985,-0.020281583070755005,0.24586758017539978
1726225365447921200,4.074921142578125,-0.3037048578262329,0.10293915122747421,-0.3675585389137268
1726225365457958100,4.084958251953125,-0.2437085658311844,0.06088123843073845,-0.47009310126304626
1726225365467996200,4.09499609375,-0.3009156584739685,0.06916580349206924,0.13603410124778748
1726225365478033400,4.105033447265625,-0.3039676249027252,0.007930738851428032,-0.1825055629014969
1726225365488071200,4.1150712890625,-0.30747154355049133,0.023774417117238045,0.07169289141893387
1726225365498108200,4.125108154296875,-0.30744537711143494,0.04696168377995491,0.23909398913383484
1726225365508145200,4.135145263671875,-0.2768957316875458,-0.01827111467719078,0.08649832010269165
1726225365518183200,4.14518310546875,-0.3750208914279938,-0.045944616198539734,0.23628243803977966
1726225365528220200,4.15522021484375,-0.37802520394325256,0.074033722281456,0.12497559934854507
1726225365538257200,4.165257080078125,-0.4079771637916565,0.057570040225982666,-0.07833077013492584
1726225365548295200,4.175295166015625,-0.48602402210235596,-0.009816190227866173,0.1464458853006363
1726225365558332200,4.185332275390625,-0.3867517411708832,-0.022825803607702255,-0.15777841210365295
1726225365568369200,4.195369140625,-0.3418921232223511,-0.053093694150447845,-0.09471714496612549
1726225365578407200,4.2054072265625,-0.3178848922252655,-0.12092452496290207,0.18239951133728027
1726225365588444200,4.215444091796875,-0.26894983649253845,-0.11053313314914703,-0.07408499717712402
1726225365598482200,4.225482177734375,-0.317568838596344,-0.017464302480220795,0.010496141389012337
1726225365608519400,4.23551953125,-0.2801157534122467,-0.048815831542015076,0.09623927623033524
1726225365618556200,4.24555615234375,-0.3095329999923706,-0.0012515466660261154,0.18960998952388763
1726225365628594200,4.25559423828125,-0.25539305806159973,-0.019966911524534225,0.2827383279800415
1726225365638631200,4.265631103515625,-0.23345831036567688,-0.0342763215303421,-0.0949864462018013
1726225365648669200,4.275669189453125,-0.25766217708587646,-0.015813160687685013,-0.059566669166088104
1726225365658706200,4.2857060546875,-0.1877257078886032,-0.01953665353357792,-0.028642067685723305
1726225365668743200,4.2957431640625,-0.23277175426483154,-0.0067689260467886925,0.08299657702445984
1726225365678781200,4.30578125,-0.1719304323196411,-0.002658574376255274,-0.004709245637059212
1726225365688818200,4.315818115234375,-0.1860305368900299,0.04892658814787865,-0.0979963168501854
1726225365698855200,4.325855224609375,-0.2364903688430786,0.032657913863658905,0.1543748378753662
1726225365708893200,4.33589306640625,-0.17516842484474182,-0.01640550047159195,0.24212493002414703
1726225365718930200,4.34593017578125,-0.22379285097122192,0.05028457194566727,0.1870364546775818
1726225365728968200,4.35596826171875,-0.21276389062404633,0.008562159724533558,-0.22955942153930664
1726225365739005400,4.36600537109375,-0.1943967640399933,0.02687191776931286,0.06643476337194443
1726225365749042200,4.376042236328125,-0.17813338339328766,-0.038984596729278564,0.041943006217479706
1726225365759080200,4.386080078125,-0.1995653510093689,-0.03244481980800629,-0.2692318260669708
1726225365769117200,4.3961171875,-0.22833946347236633,-0.06080854684114456,0.06732755899429321
1726225365779155200,4.4061552734375,-0.21424680948257446,-0.031461454927921295,-0.03868727385997772
1726225365789192200,4.416192138671875,-0.25541049242019653,-0.04912193864583969,0.08598355948925018
1726225365799229200,4.426229248046875,-0.31016021966934204,-0.07852386683225632,0.10736372321844101
1726225365809267200,4.43626708984375,-0.23164331912994385,-0.12300638109445572,0.22449086606502533
1726225365819304200,4.44630419921875,-0.2603578269481659,-0.07477924227714539,0.03870523348450661
1726225365829342200,4.45634228515625,-0.19774052500724792,-0.10903069376945496,-0.26632580161094666
1726225365839379200,4.466379150390625,-0.21735024452209473,-0.09653010964393616,-0.1836128532886505
1726225365849416200,4.476416259765625,-0.21513928472995758,-0.16059590876102448,-0.13765202462673187
1726225365859454200,4.4864541015625,-0.19563038647174835,-0.10914135724306107,-0.18504440784454346
1726225365869491200,4.4964912109375,-0.22610947489738464,-0.05170416831970215,-0.26287978887557983
1726225365879529200,4.506529296875,-0.1959647536277771,-0.0883926972746849,0.01828644424676895
1726225365889566200,4.516566162109375,-0.19735439121723175,-0.12722638249397278,0.14828279614448547
1726225365899603200,4.526603271484375,-0.13148757815361023,-0.1701202243566513,-0.0714070126414299
1726225365909641200,4.53664111328125,-0.08269554376602173,-0.06985513865947723,-0.2264977991580963
1726225365919678200,4.54667822265625,0.0181081835180521,-0.1377788782119751,-0.10921071469783783
1726225365929716200,4.55671630859375,0.047009874135255814,-0.2005447894334793,-0.014545723795890808
1726225365939753200,4.566753173828125,0.0661686360836029,-0.0391121581196785,-0.4777805209159851
1726225365949791200,4.576791259765625,0.11301364004611969,-0.1103794127702713,-0.07376433163881302
1726225365959828200,4.586828125,0.08051559329032898,-0.062305472791194916,-0.04793116822838783
1726225365969865200,4.596865234375,0.1498456597328186,0.02930886670947075,-0.2107778787612915
1726225365979903200,4.6069033203125,0.13268113136291504,0.036346279084682465,0.07999918609857559
1726225365989946400,4.6169462890625,0.20472122728824615,-0.026468366384506226,0.06744743883609772
1726225365999984400,4.626984375,0.27709028124809265,0.06735767424106598,-0.1148485541343689
1726225366010021400,4.637021484375,0.3331841826438904,0.06392885744571686,-0.009732259437441826
1726225366020059400,4.647059326171875,0.33603689074516296,0.017610471695661545,-0.06299208849668503
1726225366030096400,4.657096435546875,0.30795198678970337,0.12654441595077515,-0.23847895860671997
1726225366040133000,4.667133056640625,0.3518413007259369,0.09818676859140396,0.13127417862415314
1726225366050171400,4.67717138671875,0.2968621850013733,0.141924649477005,0.05545797944068909
1726225366060208400,4.68720849609375,0.3621947169303894,0.1614377200603485,-0.12598679959774017
1726225366070246100,4.69724609375,0.33931416273117065,0.10228492319583893,0.21295610070228577
1726225366080283400,4.707283447265625,0.3293668329715729,0.023759441450238228,0.22699801623821259
1726225366090321400,4.7173212890625,0.32144367694854736,0.10367584973573685,-0.03828664869070053
1726225366100358100,4.727358154296875,0.31744712591171265,0.08681514114141464,0.07659420371055603
1726225366110395400,4.7373955078125,0.3074357807636261,0.057760849595069885,-0.0030974247492849827
1726225366120433400,4.747433349609375,0.23397478461265564,0.03318333998322487,0.010896321386098862
1726225366130470400,4.757470458984375,0.2269269824028015,0.04025110602378845,0.10172636061906815
1726225366140508400,4.76750830078125,0.17831049859523773,0.02192402258515358,-0.013349056243896484
1726225366150545400,4.77754541015625,0.13624106347560883,-0.0016364315524697304,0.0531170517206192
1726225366160583200,4.787583251953125,0.16055293381214142,-0.11086807399988174,0.18050336837768555
1726225366170620400,4.797620361328125,0.10394345223903656,-0.11888551712036133,0.11570759862661362
1726225366180657400,4.807657470703125,0.07815470546483994,-0.08829496800899506,-0.2775750160217285
1726225366190695200,4.817695068359375,-0.00027858326211571693,-0.13822203874588013,0.06071382388472557
1726225366200732200,4.827732177734375,-0.07328567653894424,-0.09158621728420258,-0.05045316740870476
1726225366210770400,4.8377705078125,-0.13106508553028107,-0.14320600032806396,-0.02668631821870804
1726225366220807400,4.847807373046875,-0.200484037399292,-0.1526053249835968,0.36299389600753784
1726225366230845400,4.857845458984375,-0.16327780485153198,-0.2020977884531021,0.0754699632525444
1726225366240882400,4.86788232421875,-0.25507792830467224,-0.19086585938930511,-0.0018510366789996624
1726225366250920200,4.877920166015625,-0.21111473441123962,-0.29277464747428894,0.4592396020889282
1726225366260957200,4.887957275390625,-0.2700366675853729,-0.12245365977287292,0.3620304763317108
1726225366270994400,4.897994384765625,-0.2334250956773758,-0.13694259524345398,-0.3240634799003601
1726225366281032400,4.908032470703125,-0.24561962485313416,-0.19883768260478973,-0.022007662802934647
1726225366291069200,4.918069091796875,-0.175693541765213,-0.16760998964309692,0.22269316017627716
1726225366301107500,4.928107421875,-0.147304967045784,-0.2328595370054245,0.08109404146671295
1726225366311144400,4.93814453125,-0.1734018176794052,-0.19701339304447174,0.06735000014305115
1726225366321182200,4.94818212890625,-0.014193247072398663,-0.16247603297233582,0.0016327961347997189
1726225366331219500,4.958219482421875,-0.030956247821450233,-0.126503124833107,0.19643636047840118
1726225366341257200,4.96825732421875,0.01775354892015457,-0.2456469088792801,0.44228240847587585
1726225366351294200,4.978294189453125,0.05463699996471405,-0.062042441219091415,-0.03548762947320938
1726225366361332500,4.98833251953125,0.057137519121170044,0.011329704895615578,-0.29597207903862
1726225366371369500,4.998369384765625,0.0838514193892479,-0.10811733454465866,0.3359971046447754
1726225366381406200,5.00840625,0.11504177749156952,0.006955916993319988,-0.21479101479053497
1726225366391444500,5.018444580078125,0.1629887968301773,0.05467124283313751,-0.3766193389892578
1726225366401481500,5.0284814453125,0.20651821792125702,-0.01864432729780674,0.11363403499126434
1726225366411519200,5.038519287109375,0.2688302993774414,0.008387023583054543,-0.16713771224021912
1726225366421556200,5.04855615234375,0.29761379957199097,0.08107983320951462,-0.13993136584758759
1726225366431594500,5.058594482421875,0.2853211760520935,0.04739164188504219,0.25330832600593567
1726225366441631200,5.06863134765625,0.2751997113227844,0.09532759338617325,-0.0789051204919815
1726225366451669500,5.07866943359375,0.24935929477214813,0.1247486025094986,-0.2995946407318115
1726225366461706500,5.08870654296875,0.21052642166614532,0.0461169071495533,0.20536282658576965
1726225366471744300,5.098744140625,0.2549772560596466,0.04108060151338577,-0.22787383198738098
1726225366481781200,5.10878125,0.1535775363445282,0.126702219247818,-0.2862062156200409
1726225366491819300,5.1188193359375,0.23457038402557373,0.000057462602853775024,0.1084207221865654
1726225366501856300,5.128856201171875,0.19022604823112488,0.056091248989105225,-0.2223401963710785
1726225366511894300,5.138894287109375,0.14809030294418335,0.10012874007225037,-0.15142899751663208
1726225366521931500,5.148931640625,0.1945120096206665,0.01592218317091465,0.25681325793266296
1726225366531968300,5.15896826171875,0.10667244344949722,0.07459321618080139,-0.014545021578669548
1726225366542006300,5.16900634765625,0.09406132996082306,0.10153867304325104,-0.4991707503795624
1726225366552043500,5.17904345703125,0.08597836643457413,0.08571229875087738,0.0653216540813446
1726225366562081300,5.189081298828125,0.1029810830950737,0.06481923907995224,-0.15318191051483154
1726225366572118300,5.1991181640625,0.04850159212946892,0.05181821435689926,-0.45790770649909973
1726225366582156500,5.209156494140625,0.07805561274290085,0.04390779137611389,0.07845519483089447
1726225366592193300,5.219193359375,0.06806635856628418,0.0547788143157959,-0.12439059466123581
1726225366602231300,5.229231201171875,0.05912760645151138,0.17144058644771576,-0.03856003284454346
1726225366612268500,5.2392685546875,0.07030728459358215,0.05376003310084343,0.2838694155216217
1726225366622306300,5.249306396484375,0.01638668030500412,0.11358590424060822,-0.18454313278198242
1726225366632343300,5.25934326171875,0.041810281574726105,0.1537700742483139,-0.519537627696991
1726225366642381300,5.26938134765625,0.054519712924957275,0.0567830353975296,0.09388239681720734
1726225366652418300,5.279418212890625,0.041156500577926636,0.08648180961608887,-0.2564910650253296
1726225366662456300,5.289456298828125,0.054209403693675995,0.04972802847623825,-0.3473453223705292
1726225366672493300,5.299493408203125,0.11650074273347855,0.10846244543790817,0.2296849936246872
1726225366682531300,5.30953125,0.10140978544950485,0.05857868492603302,0.013742079958319664
1726225366692568300,5.319568359375,0.09081573039293289,0.1135636419057846,-0.09286186099052429
1726225366702606300,5.3296064453125,0.1324312686920166,0.09215123951435089,0.20934145152568817
1726225366712643300,5.339643310546875,0.09287186712026596,0.22485922276973724,0.16417904198169708
1726225366722681300,5.349681396484375,0.15574657917022705,0.12269240617752075,-0.26954832673072815
1726225366732718300,5.35971826171875,0.08447533845901489,0.11299770325422287,-0.10887368768453598
1726225366742756400,5.36975634765625,0.18450352549552917,0.20758569240570068,-0.12761686742305756
1726225366752793300,5.37979345703125,0.2480955421924591,0.2002561390399933,0.09125210344791412
1726225366762831400,5.389831298828125,0.286792516708374,0.18362689018249512,0.2550943195819855
1726225366772868400,5.399868408203125,0.30848264694213867,0.23139148950576782,-0.012342730537056923
1726225366782906400,5.40990625,0.29625368118286133,0.25776228308677673,0.09006756544113159
1726225366792943400,5.419943359375,0.2888636887073517,0.23275360465049744,0.4368630647659302
1726225366802981400,5.4299814453125,0.3262827694416046,0.3338962197303772,0.2020968645811081
1726225366813018400,5.440018310546875,0.30726271867752075,0.37886184453964233,-0.23647835850715637
1726225366823056100,5.45005615234375,0.27605485916137695,0.3069196939468384,-0.021583478897809982
1726225366833093400,5.46009326171875,0.3092988431453705,0.35383740067481995,0.21787837147712708
1726225366843131400,5.47013134765625,0.3195255398750305,0.342609167098999,0.09556350857019424
1726225366853168000,5.480168212890625,0.2749815285205841,0.2898740768432617,0.1077653095126152
1726225366863206400,5.490206298828125,0.25471991300582886,0.31171873211860657,0.26071909070014954
1726225366873243400,5.500243408203125,0.2252483367919922,0.35685718059539795,0.12887582182884216
1726225366883281200,5.51028125,0.17617769539356232,0.24639970064163208,0.5198507905006409
1726225366893318400,5.520318359375,0.10469125956296921,0.35118338465690613,0.19193626940250397
1726225366903356400,5.5303564453125,0.09637723118066788,0.34570783376693726,-0.13016855716705322
1726225366913393200,5.54039306640625,-0.011507421731948853,0.15210293233394623,0.1885945051908493
1726225366923431400,5.550431396484375,-0.036618344485759735,0.197894886136055,0.043453849852085114
1726225366933468400,5.560468505859375,-0.023434096947312355,0.23237909376621246,-0.03028028830885887
1726225366943506200,5.570506103515625,-0.1309313178062439,0.07227249443531036,0.16230334341526031
1726225366953543400,5.58054345703125,-0.1597139537334442,0.07191456854343414,0.016233224421739578
1726225366963581400,5.59058154296875,-0.18587172031402588,0.13461972773075104,0.12442728132009506
1726225366973618200,5.6006181640625,-0.21843764185905457,-0.07297766953706741,0.6003261804580688
1726225366983656400,5.610656494140625,-0.29590171575546265,0.08851053565740585,-0.13008739054203033
1726225366993687000,5.62068701171875,-0.2664516866207123,0.12057845294475555,-0.30070599913597107
1726225367003725000,5.63072509765625,-0.306479811668396,-0.07837770134210587,0.17018133401870728
1726225367013762000,5.640761962890625,-0.30133405327796936,-0.05012236535549164,-0.15488117933273315
1726225367023800000,5.650800048828125,-0.27896276116371155,0.014299582690000534,-0.27700817584991455
1726225367033837000,5.660837158203125,-0.2775571346282959,-0.0027350611053407192,0.13465633988380432
1726225367043875000,5.670875,-0.24317973852157593,-0.0015944293700158596,-0.02675359882414341
1726225367053912000,5.680912109375,-0.26354706287384033,0.027770116925239563,0.22337129712104797
1726225367063950000,5.6909501953125,-0.20062348246574402,-0.09057499468326569,0.44141238927841187
1726225367073987000,5.700987060546875,-0.20074039697647095,0.027658971026539803,-0.4270673394203186
1726225367084025000,5.711025146484375,-0.10656077414751053,0.13379567861557007,-0.24679240584373474
1726225367094062000,5.72106201171875,-0.056714385747909546,-0.03862322121858597,-0.002962707541882992
1726225367104100000,5.73110009765625,-0.10875985771417618,0.0810064822435379,-0.5078744292259216
1726225367114138000,5.74113818359375,-0.00395035557448864,-0.03648605942726135,-0.3311620056629181
1726225367124175000,5.751175048828125,-0.051171787083148956,0.06825973093509674,-0.027435187250375748
1726225367134212900,5.761212890625,-0.044795915484428406,0.08016273379325867,-0.10826212912797928
1726225367144250000,5.77125,-0.027629636228084564,0.028626447543501854,0.18428935110569
1726225367154288000,5.7812880859375,-0.02911141887307167,0.04965849593281746,-0.11525581032037735
1726225367164325000,5.7913251953125,-0.004565695766359568,0.08657965809106827,-0.4231322109699249
1726225367174363100,5.801363037109375,-0.0376429557800293,0.02117295376956463,0.07750799506902695
1726225367184400100,5.811400146484375,-0.026005489751696587,0.005736336577683687,-0.16723984479904175
1726225367194438000,5.82143798828125,-0.08396945893764496,0.007064454723149538,-0.2690487504005432
1726225367204475100,5.83147509765625,-0.09888473898172379,-0.02347094751894474,0.12776049971580505
1726225367214513200,5.84151318359375,-0.17083457112312317,-0.08170389384031296,-0.09585846215486526
1726225367224550000,5.8515498046875,-0.2103338986635208,-0.027017278596758842,-0.07927768677473068
1726225367234588200,5.861588134765625,-0.21661682426929474,-0.1474590003490448,0.4405630826950073
1726225367244625200,5.871625244140625,-0.21622760593891144,-0.10823549330234528,-0.18930064141750336
1726225367254663000,5.881662841796875,-0.22250068187713623,-0.01867472194135189,-0.25518831610679626
1726225367264700200,5.8917001953125,-0.17877846956253052,-0.1414443552494049,0.12232861667871475
1726225367274738200,5.90173828125,-0.23195727169513702,-0.18133051693439484,0.024509645998477936
1726225367284776000,5.91177587890625,-0.2202688753604889,-0.14888912439346313,-0.005095218773931265
1726225367294813200,5.921813232421875,-0.15462781488895416,-0.18238982558250427,0.11647035926580429
1726225367304851000,5.931850830078125,-0.22359700500965118,-0.21496132016181946,0.016453279182314873
1726225367314888000,5.941887939453125,-0.19357839226722717,-0.2515243887901306,0.20833322405815125
1726225367324926200,5.95192626953125,-0.18461249768733978,-0.2450808435678482,0.18831504881381989
1726225367334963200,5.961963134765625,-0.22810590267181396,-0.2017219215631485,-0.025673676282167435
1726225367345001000,5.9720009765625,-0.2517293095588684,-0.19878681004047394,0.07490125298500061
1726225367355038200,5.9820380859375,-0.25858479738235474,-0.13496282696723938,0.04364798963069916
1726225367365076000,5.992075927734375,-0.18931876122951508,-0.21526136994361877,0.1888105720281601
1726225367375113000,6.002113037109375,-0.2518649697303772,-0.20451657474040985,0.09506064653396606
1726225367385151200,6.012151123046875,-0.168694868683815,-0.11696825176477432,-0.029320919886231422
1726225367395189000,6.02218896484375,-0.1584041565656662,-0.13331766426563263,0.11704055219888687
1726225367405226000,6.03222607421875,-0.19055095314979553,-0.19926023483276367,0.30556079745292664
1726225367415264300,6.04226416015625,-0.1375226229429245,-0.15004262328147888,0.37899985909461975
1726225367425301000,6.052301025390625,-0.1974819302558899,-0.03350679203867912,-0.2997187674045563
1726225367435339000,6.062339111328125,-0.1237586960196495,-0.06598351150751114,-0.04038438946008682
1726225367445376300,6.072376220703125,-0.076712965965271,-0.05470436438918114,0.1211078092455864
1726225367455414000,6.0824140625,-0.08156551420688629,-0.06322488188743591,-0.11200054734945297
1726225367465451000,6.092450927734375,-0.0025576550979167223,-0.06491939723491669,-0.010524740442633629
1726225367475489000,6.102489013671875,0.0411544032394886,-0.031201373785734177,0.1862274706363678
1726225367485527000,6.112527099609375,0.02803470753133297,-0.011387290433049202,0.0665576383471489
1726225367495564000,6.12256396484375,0.021875878795981407,-0.06330348551273346,0.30061647295951843
1726225367505602000,6.13260205078125,0.07004401832818985,-0.01829778403043747,0.05622166767716408
1726225367515639000,6.14263916015625,0.02340381219983101,-0.019773710519075394,-0.10039430856704712
1726225367525677300,6.15267724609375,0.03836726397275925,-0.027476554736495018,0.05755562707781792
1726225367535714000,6.162714111328125,0.04230687767267227,-0.04031592234969139,0.06095089390873909
1726225367545752000,6.172751953125,0.004017802886664867,-0.028361666947603226,-0.1934027373790741
1726225367555789000,6.1827890625,0.04080937057733536,-0.04257575795054436,0.01592624932527542
1726225367565827000,6.1928271484375,-0.012136133387684822,-0.027458321303129196,0.0888606458902359
1726225367575865000,6.202864990234375,-0.0024392977356910706,-0.07560588419437408,0.06848639994859695
1726225367585902000,6.212902099609375,-0.014477016404271126,-0.04018013924360275,0.11891114711761475
1726225367595940000,6.222940185546875,-0.051719196140766144,-0.0278819277882576,-0.3763209581375122
1726225367605977000,6.23297705078125,-0.05331749469041824,0.006899120751768351,-0.13323932886123657
1726225367616015000,6.24301513671875,-0.06651052832603455,-0.07618538290262222,-0.26967519521713257
1726225367626052000,6.253052001953125,-0.14981268346309662,0.01018615998327732,-0.494371235370636
1726225367636090000,6.263090087890625,-0.04192376136779785,-0.0481429286301136,-0.04171349108219147
1726225367646128000,6.273128173828125,-0.10485818982124329,-0.10296190530061722,-0.05662538483738899
1726225367656165000,6.2831650390625,-0.08245887607336044,-0.04551032558083534,0.021627340465784073
1726225367666203100,6.293203125,-0.0012751792091876268,-0.14195889234542847,0.158560648560524
1726225367676240100,6.303240234375,-0.09768800437450409,-0.021886805072426796,-0.2571127414703369
1726225367686278100,6.313278076171875,-0.032929785549640656,-0.06282830983400345,-0.10857030004262924
1726225367696315100,6.323315185546875,-0.09070280194282532,-0.0694393441081047,-0.06445556879043579
1726225367706353200,6.333353271484375,-0.09721475839614868,-0.001357346773147583,-0.37444865703582764
1726225367716391200,6.34339111328125,-0.10316558927297592,-0.0949389636516571,0.10175836831331253
1726225367726428000,6.353427978515625,-0.12853531539440155,-0.08994828164577484,-0.048006992787122726
1726225367736466200,6.363466064453125,-0.06395365297794342,-0.09282636642456055,-0.11613891273736954
1726225367746503200,6.373503173828125,-0.09959724545478821,-0.09120981395244598,0.1995873898267746
1726225367756541000,6.383541015625,-0.07584850490093231,-0.11051985621452332,0.34160417318344116
1726225367766578200,6.393578125,-0.12559448182582855,-0.04092080891132355,-0.12070806324481964
1726225367776616200,6.4036162109375,-0.12601234018802643,0.08043491095304489,-0.21697281301021576
1726225367786654000,6.413654052734375,-0.1521177887916565,0.01851920783519745,-0.16182196140289307
1726225367796691200,6.423691162109375,-0.118177130818367,-0.04994773119688034,0.030940301716327667
1726225367806729000,6.43372900390625,-0.027762971818447113,-0.06377460807561874,-0.02452724799513817
1726225367816766000,6.443765869140625,0.03195655345916748,-0.07681185007095337,-0.21495312452316284
1726225367826804200,6.45380419921875,0.03674890846014023,-0.06265539675951004,0.19295522570610046
1726225367836841200,6.46384130859375,0.09419675916433334,-0.13819515705108643,0.37852591276168823
1726225367846879000,6.47387890625,0.050718601793050766,0.029696088284254074,-0.11405312269926071
1726225367856917200,6.483917236328125,0.03655724227428436,-0.014650337398052216,-0.04254378378391266
1726225367866954000,6.4939541015625,0.019041765481233597,-0.049732744693756104,0.04566781222820282
1726225367876992000,6.503991943359375,0.016492588445544243,0.008173429407179356,-0.1264946311712265
1726225367887029200,6.514029296875,0.12500204145908356,-0.03791702911257744,0.04250776022672653
1726225367897067000,6.52406689453125,0.10775567591190338,-0.03786909207701683,-0.017411233857274055
1726225367907105000,6.53410498046875,0.14220598340034485,-0.019625205546617508,-0.10276138782501221
1726225367917142300,6.544142333984375,0.20065517723560333,-0.03161395713686943,0.2908191978931427
1726225367927180000,6.554179931640625,0.11787393689155579,-0.031572550535202026,0.3136123716831207
1726225367937217000,6.564217041015625,0.1118227019906044,0.025530682876706123,-0.3216618001461029
1726225367947255000,6.574255126953125,0.02766561508178711,0.05970015749335289,0.03245183452963829
1726225367957292000,6.5842919921875,0.05897853150963783,0.040539246052503586,0.031817469745874405
1726225367967330000,6.594330078125,0.02652175910770893,0.08833728730678558,-0.2891083359718323
1726225367977368000,6.6043681640625,0.019385021179914474,0.010973785072565079,0.03525431454181671
1726225367987410700,6.61441064453125,0.05757070332765579,0.009385449811816216,-0.06381319463253021
1726225367997448700,6.62444873046875,0.024852436035871506,0.02699347212910652,-0.20042963325977325
1726225368007486000,6.63448583984375,0.044439639896154404,0.008339487947523594,0.3378833532333374
1726225368017523700,6.644523681640625,0.036854956299066544,-0.0446624793112278,0.12909899652004242
1726225368027562000,6.65456201171875,0.0268280990421772,0.07844984531402588,-0.21471884846687317
1726225368037599000,6.664598876953125,0.020184576511383057,-0.0014782785438001156,-0.010028827004134655
1726225368047636700,6.67463671875,0.0007453965954482555,0.028484854847192764,-0.16376373171806335
1726225368057673700,6.684673828125,0.04643724858760834,0.03232300281524658,-0.08424627780914307
1726225368067711700,6.694711669921875,0.06740088015794754,-0.026796502992510796,-0.0737348347902298
1726225368077749800,6.704749755859375,0.08179153501987457,0.07478498667478561,-0.23316335678100586
1726225368087787000,6.714787109375,0.15947102010250092,0.03280509635806084,0.17331677675247192
1726225368097824800,6.72482470703125,0.10383865237236023,-0.1010187491774559,0.4963805675506592
1726225368107861800,6.73486181640625,0.09316802769899368,0.11137638986110687,-0.16958090662956238
1726225368117899800,6.744899658203125,0.16918636858463287,0.14504726231098175,-0.5471494793891907
1726225368127937800,6.754937744140625,0.12418218702077866,0.08240260183811188,0.1544370800256729
1726225368137974800,6.764974853515625,0.18039460480213165,0.0029245559126138687,-0.5702095627784729
1726225368148012800,6.7750126953125,0.18782413005828857,0.1564825177192688,0.18104848265647888
1726225368158049800,6.7850498046875,0.3385598361492157,0.08577585965394974,-0.2961830794811249
1726225368168087800,6.795087890625,0.20417481660842896,0.13799558579921722,0.1260177344083786
1726225368178125800,6.805125732421875,0.24002069234848022,0.0488385409116745,0.8910461664199829
1726225368188162800,6.815162841796875,0.2966611385345459,0.2783430516719818,0.534634530544281
1726225368198200600,6.82520068359375,0.19609829783439636,0.14906497299671173,-0.35829412937164307
1726225368208237800,6.83523779296875,0.28073650598526,0.06466564536094666,-0.07956822961568832
1726225368218275800,6.84527587890625,0.1816144734621048,-0.04125332832336426,-0.15020406246185303
1726225368228312800,6.855312744140625,0.060142435133457184,0.2740940749645233,-0.7764468789100647
1726225368238350800,6.865350830078125,0.33176061511039734,-0.04410332441329956,-0.27973008155822754
1726225368248388900,6.875388916015625,0.040647588670253754,0.14271339774131775,0.10021273046731949
1726225368258425600,6.885425537109375,0.3279195725917816,0.11971087008714676,-0.03624311462044716
1726225368268463900,6.8954638671875,0.15627841651439667,0.14912377297878265,0.6650174856185913
1726225368278501600,6.905501708984375,0.1586371809244156,0.1935940384864807,-0.07024530321359634
1726225368288538600,6.91553857421875,0.1372707486152649,0.15202057361602783,-0.00653263833373785
1726225368298577000,6.925576904296875,0.08571381121873856,0.11138101667165756,-0.028495993465185165
1726225368308614000,6.93561376953125,0.09767228364944458,0.036152444779872894,0.031804632395505905
1726225368318651600,6.945651611328125,-0.05006550997495651,-0.011609751731157303,0.11168082803487778
1726225368328690000,6.95568994140625,-0.11483297497034073,0.07542888075113297,-0.08151819556951523
1726225368338726700,6.9657265625,-0.09501559287309647,-0.0017671026289463043,0.208788201212883
1726225368348765000,6.975764892578125,-0.13628743588924408,-0.07366425544023514,0.36051008105278015
1726225368358802000,6.985802001953125,-0.06323213875293732,-0.14271043241024017,0.4862230122089386
1726225368368839700,6.995839599609375,0.0007159356027841568,-0.0763523057103157,-0.09472587704658508
1726225368378878000,7.0058779296875,-0.0258506927639246,-0.2086549550294876,0.1377776712179184
1726225368388915000,7.0159150390625,-0.037253428250551224,-0.16525544226169586,0.024023674428462982
1726225368398952700,7.02595263671875,-0.11366990953683853,0.015644308179616928,-0.007995512336492538
1726225368408990000,7.035989990234375,-0.14978206157684326,-0.19047699868679047,-0.0118645541369915
1726225368419027700,7.04602783203125,-0.32938244938850403,-0.11370843648910522,0.24272459745407104
1726225368429065700,7.056065673828125,-0.18443115055561066,-0.06150160729885101,0.5985258221626282
1726225368439103000,7.06610302734375,-0.35482102632522583,-0.20643669366836548,1.0717006921768188
1726225368449140700,7.076140625,-0.28190842270851135,-0.13328595459461212,-0.24914395809173584
1726225368459177700,7.086177734375,-0.12955965101718903,-0.10889698565006256,0.22661326825618744
1726225368469215700,7.0962158203125,-0.2834114134311676,-0.19294118881225586,-0.13695774972438812
1726225368479253800,7.106253662109375,-0.2556847333908081,-0.09637283533811569,-0.362966924905777
1726225368489290800,7.116290771484375,-0.18715022504329681,-0.027281198650598526,-0.004201296716928482
1726225368499328800,7.126328857421875,-0.12764962017536163,-0.1251225471496582,-0.32144930958747864
1726225368509365800,7.13636572265625,-0.06843741983175278,-0.12632006406784058,0.33178043365478516
1726225368519403800,7.14640380859375,-0.14257130026817322,-0.11013390868902206,0.6701547503471375
1726225368529441800,7.15644189453125,-0.04407766833901405,-0.07477231323719025,-0.24753566086292267
1726225368539478800,7.166478759765625,-0.00993594340980053,0.1583312600851059,-0.04140300676226616
1726225368549516800,7.176516845703125,0.009274878539144993,-0.11326315253973007,-0.037818655371665955
1726225368559554800,7.186554931640625,-0.120440773665905,0.0341167151927948,-0.18829818069934845
1726225368569591800,7.196591796875,0.08501087874174118,0.013097124174237251,0.18465356528759003
1726225368579629800,7.2066298828125,0.03156843036413193,-0.01579151675105095,-0.15874320268630981
1726225368589666800,7.216666748046875,0.0571097694337368,0.0179192665964365,-0.2364766150712967
1726225368599704800,7.226704833984375,0.13820382952690125,-0.09945715963840485,0.49228328466415405
1726225368609742800,7.236742919921875,-0.013018688187003136,0.15450263023376465,0.29932981729507446
1726225368619779800,7.24677978515625,0.1706070601940155,0.09966015815734863,-0.6561814546585083
1726225368629817600,7.256817626953125,-0.0029169367626309395,0.18017518520355225,-0.39034023880958557
1726225368639854800,7.266854736328125,0.10476691275835037,0.05399326607584953,0.10830792784690857
1726225368649892900,7.276892822265625,0.028051109984517097,-0.09401481598615646,0.04671221226453781
1726225368659930600,7.2869306640625,0.01266549713909626,0.051836393773555756,-0.5565036535263062
1726225368669968000,7.2969677734375,0.07542703300714493,-0.01383964717388153,0.1388525366783142
1726225368680006000,7.307005859375,-0.037399645894765854,-0.1921907514333725,0.17562571167945862
1726225368690043600,7.317043701171875,-0.04962525516748428,0.024718137457966805,-0.14059749245643616
1726225368700081000,7.327080810546875,0.029070090502500534,-0.054754581302404404,-0.16037093102931976
1726225368710118700,7.33711865234375,-0.15115636587142944,-0.0780707448720932,-0.11548200994729996
1726225368720155600,7.34715576171875,-0.15061122179031372,-0.09963516145944595,-0.11681625247001648
1726225368730194000,7.35719384765625,-0.32913801074028015,-0.24415557086467743,0.30293598771095276
1726225368740231700,7.367231689453125,-0.3004131615161896,-0.001059570349752903,-0.677553653717041
1726225368750268700,7.3772685546875,-0.25507909059524536,-0.1895589381456375,-0.025237834081053734
1726225368760307000,7.387306884765625,-0.26685720682144165,-0.2769486904144287,0.11448889970779419
1726225368770343700,7.39734375,-0.26217299699783325,-0.16270197927951813,-0.281507670879364
1726225368780381700,7.407381591796875,-0.2806665003299713,-0.2556827962398529,0.3555854260921478
1726225368790419700,7.417419677734375,-0.3356381058692932,-0.226631760597229,-0.12234365195035934
1726225368800456700,7.427456787109375,-0.39662715792655945,-0.2212846577167511,-0.17005258798599243
1726225368810495000,7.437494873046875,-0.4214625358581543,-0.40424615144729614,0.5066318511962891
1726225368820532700,7.44753271484375,-0.4075043797492981,-0.14112024009227753,-0.5128440260887146
1726225368830569700,7.45756982421875,-0.24007532000541687,-0.0841740146279335,-0.5256096124649048
1726225368840608000,7.46760791015625,-0.29468557238578796,-0.2062341421842575,-0.2505575120449066
1726225368850644700,7.477644775390625,-0.31237462162971497,-0.13764050602912903,0.10373716056346893
1726225368860682800,7.487682861328125,-0.12305953353643417,-0.20881003141403198,0.38714995980262756
1726225368870720800,7.497720703125,-0.22572584450244904,-0.0533808171749115,-0.4600726068019867
1726225368880757800,7.5077578125,-0.21275758743286133,-0.11753664165735245,-0.4045107960700989
1726225368890795800,7.517795654296875,-0.1109214499592781,-0.06772322207689285,0.398196280002594
1726225368900833800,7.527833740234375,-0.10581351071596146,-0.011341972276568413,-0.21829357743263245
1726225368910870800,7.537870849609375,0.035937562584877014,-0.0678844302892685,-0.4933919906616211
1726225368920908800,7.54790869140625,0.1766190379858017,0.005752505734562874,-0.08327264338731766
1726225368930945800,7.55794580078125,0.2555931806564331,-0.06407500058412552,0.40252816677093506
1726225368940983800,7.56798388671875,0.26462212204933167,0.14489153027534485,-0.03869132325053215
1726225368951021800,7.578021728515625,0.28256043791770935,0.09467948973178864,-0.33909451961517334
1726225368961058800,7.588058837890625,0.22103585302829742,0.12757033109664917,0.010188359767198563
1726225368971096800,7.598096923828125,0.33809006214141846,0.08062851428985596,0.27255532145500183
1726225368981134800,7.608134765625,0.35648050904273987,0.2647014260292053,-0.17568106949329376
1726225368991169000,7.6181689453125,0.4036034643650055,0.1746351718902588,0.031668100506067276
1726225369001206800,7.628206787109375,0.5176908373832703,0.13064587116241455,0.38905206322669983
1726225369011244000,7.638244140625,0.5339130163192749,0.19357731938362122,-0.08907489478588104
1726225369021282000,7.648281982421875,0.5434426069259644,0.21249401569366455,-0.3310273289680481
1726225369031319800,7.65831982421875,0.4891420006752014,0.19232700765132904,-0.22072823345661163
1726225369041357000,7.668357177734375,0.4888059198856354,0.2695850431919098,0.29396679997444153
1726225369051394800,7.678394775390625,0.36639633774757385,0.2861552834510803,-0.2837965786457062
1726225369061433000,7.68843310546875,0.31146013736724854,0.24975281953811646,-0.36931896209716797
1726225369071470000,7.698469970703125,0.308366596698761,0.334407240152359,0.5857934355735779
1726225369081507800,7.7085078125,0.30994078516960144,0.3008761703968048,-0.28922170400619507
1726225369091544800,7.718544921875,0.21769753098487854,0.14015237987041473,-0.22111006081104279
1726225369101583000,7.7285830078125,0.25282517075538635,0.2510235011577606,0.558135986328125
1726225369111620900,7.738620849609375,0.19110828638076782,0.07968167215585709,-0.32368841767311096
1726225369121657900,7.748657958984375,0.01205730251967907,0.09464437514543533,-0.3319393992424011
1726225369131695900,7.75869580078125,0.08142238855361938,0.20826490223407745,-0.2228374034166336
1726225369141734000,7.76873388671875,-0.04983710125088692,0.30450329184532166,0.20820480585098267
1726225369151771100,7.778771240234375,0.022114994004368782,0.029268207028508186,0.942465603351593
1726225369161809000,7.788808837890625,0.02943975105881691,0.1282925307750702,-0.06446652859449387
1726225369171846000,7.798845947265625,-0.07455761730670929,-0.10401962697505951,0.029102738946676254
1726225369181884200,7.80888427734375,-0.17383946478366852,-0.030766988173127174,0.3431522846221924
1726225369191922000,7.818921875,-0.09399010241031647,0.12154615670442581,-0.5610350370407104
1726225369201959000,7.828958984375,-0.22102688252925873,-0.18541057407855988,-0.35092949867248535
1726225369211997000,7.838996826171875,-0.23201946914196014,0.052059274166822433,0.12272831052541733
1726225369222035000,7.849034912109375,-0.09397611767053604,-0.0054887086153030396,-0.23780269920825958
1726225369232072000,7.859072021484375,-0.29396742582321167,0.026579080149531364,0.6515012979507446
1726225369242110000,7.86910986328125,-0.1209181621670723,-0.14873521029949188,-0.09198640286922455
1726225369252148000,7.87914794921875,-0.16921545565128326,0.23568564653396606,-0.26219573616981506
1726225369262185000,7.88918505859375,-0.026484135538339615,-0.08126700669527054,0.661791980266571
1726225369272223000,7.899222900390625,-0.0762302353978157,-0.07092523574829102,0.4145324230194092
1726225369282260000,7.909260009765625,-0.11264363676309586,-0.05144288390874863,-0.6842808723449707
1726225369292298000,7.919298095703125,-0.1517510861158371,-0.1157732754945755,-0.5128383040428162
1726225369302336000,7.9293359375,-0.13892929255962372,0.08881981670856476,0.00465255556628108
1726225369312373000,7.939373046875,-0.1844014972448349,0.009707247838377953,0.35603442788124084
1726225369322411000,7.949410888671875,-0.19604483246803284,-0.05602675676345825,-0.3629138469696045
1726225369332449000,7.959448974609375,-0.13408006727695465,0.04446731135249138,0.28249797224998474
1726225369342486000,7.969486083984375,-0.0775747150182724,-0.29620161652565,0.47362667322158813
1726225369352524000,7.97952392578125,-0.019724346697330475,-0.19565385580062866,0.2019495815038681
1726225369362562000,7.98956201171875,-0.1540275514125824,-0.10509998351335526,-0.5972399711608887
1726225369372598800,7.999598876953125,-0.07744074612855911,-0.08391796052455902,-0.4074540138244629
1726225369382637000,8.009636962890625,-0.09173393249511719,-0.09083259105682373,0.23052726686000824
1726225369392674000,8.019674072265625,-0.2963729798793793,-0.11374402791261673,0.23833195865154266
1726225369402711800,8.0297119140625,-0.15879623591899872,-0.03815499693155289,-0.45514851808547974
1726225369412750000,8.03975,-0.25200384855270386,-0.10565219074487686,0.18737542629241943
1726225369422787000,8.049787109375,-0.1591263711452484,-0.24699413776397705,0.07422064244747162
1726225369432824800,8.059824951171874,-0.12604455649852753,-0.19990411400794983,-0.16128002107143402
1726225369442863000,8.069863037109375,-0.16188830137252808,-0.15254032611846924,-0.3780357539653778
1726225369452899800,8.07989990234375,-0.12755566835403442,-0.18098977208137512,-0.6535274982452393
1726225369462938000,8.089938232421876,-0.06370849907398224,-0.1556181013584137,0.019955020397901535
1726225369472976000,8.099975830078124,-0.1459125429391861,-0.14144587516784668,-0.19593296945095062
1726225369483012900,8.110012939453124,-0.14068661630153656,-0.19893047213554382,-0.09562260657548904
1726225369493051100,8.120051025390625,-0.13468852639198303,-0.19957712292671204,0.08840452134609222
1726225369503087900,8.130087890625,-0.18448404967784882,-0.17619219422340393,0.3257984220981598
1726225369513126000,8.1401259765625,-0.18639501929283142,-0.12496312707662582,0.2219112366437912
1726225369523164200,8.1501640625,-0.0506662093102932,0.008537674322724342,-0.5586399435997009
1726225369533201000,8.160200927734374,0.06638585031032562,-0.24938136339187622,-0.05275779962539673
1726225369543239000,8.170239013671875,-0.1349981427192688,-0.16887453198432922,0.3552160859107971
1726225369553277000,8.18027685546875,-0.015376572497189045,-0.010528030805289745,-0.6752765774726868
1726225369563314000,8.19031396484375,-0.17138880491256714,-0.0886092483997345,-0.15841960906982422
1726225369573352000,8.20035205078125,-0.01711135171353817,-0.23172393441200256,0.321570485830307
1726225369583390000,8.210389892578124,-0.0961449146270752,-0.09050767868757248,0.13983158767223358
1726225369593427000,8.220427001953125,0.04678225889801979,-0.23013979196548462,0.034013781696558
1726225369603465000,8.23046484375,0.06392795592546463,-0.05688251927495003,-0.24715344607830048
1726225369613503000,8.2405029296875,0.15310025215148926,-0.14781290292739868,0.6101986169815063
1726225369623540000,8.2505400390625,0.054715875536203384,-0.12679684162139893,-0.09602084755897522
1726225369633578000,8.260577880859374,0.05760229378938675,0.0491693876683712,-0.4923991858959198
1726225369643615000,8.270614990234375,0.1238873153924942,-0.1926664113998413,0.24784082174301147
1726225369653653000,8.280653076171875,-0.0510159395635128,0.02270791120827198,0.2109222412109375
1726225369663691000,8.29069091796875,0.15211214125156403,0.04799196124076843,-0.37929123640060425
1726225369673728000,8.30072802734375,0.1556093692779541,-0.19497232139110565,-0.3034791052341461
1726225369683766000,8.31076611328125,0.2123781144618988,0.0065815807320177555,0.49278634786605835
1726225369693804000,8.320803955078125,0.2034400999546051,0.03337791562080383,0.37827107310295105
1726225369703841000,8.330841064453125,0.1621299386024475,-0.06954739987850189,-0.2693396508693695
1726225369713878800,8.340878662109375,0.2177894562482834,0.0005073542706668377,0.1805192530155182
1726225369723917000,8.3509169921875,0.21200905740261078,-0.16709762811660767,0.34595242142677307
1726225369733954000,8.3609541015625,0.019826631993055344,0.11273420602083206,-0.2621312737464905
1726225369743991800,8.37099169921875,0.11721070855855942,0.17243430018424988,0.5793530344963074
1726225369754030000,8.381030029296875,0.1635781079530716,-0.04459390044212341,0.17430096864700317
1726225369764066800,8.39106689453125,0.011638644151389599,0.06224679574370384,0.0013800631277263165
1726225369774105000,8.40110498046875,0.36757591366767883,-0.07250635325908661,0.828349769115448
1726225369784142800,8.411142822265624,0.12401784211397171,-0.016169577836990356,0.5534750819206238
1726225369794179800,8.421179931640625,0.23473790287971497,0.02509152889251709,-0.6977310180664062
1726225369804218000,8.431218017578125,0.09479756653308868,-0.16016967594623566,0.10062126815319061
1726225369814255900,8.441255859375,-0.07890822738409042,0.0676669105887413,0.5415439009666443
1726225369824292900,8.45129296875,0.07229726761579514,0.18461084365844727,-0.46623167395591736
1726225369834331100,8.4613310546875,-0.029420629143714905,-0.0426027812063694,-0.4919591248035431
1726225369844369000,8.471368896484375,0.03342597559094429,-0.026339389383792877,0.48208537697792053
1726225369854406000,8.481406005859375,0.009404437616467476,-0.10139752924442291,0.3506670296192169
1726225369864444000,8.49144384765625,0.10686308145523071,-0.013078849762678146,-0.45083871483802795
1726225369874481000,8.50148095703125,0.17795254290103912,-0.19733376801013947,-0.09444823116064072
1726225369884519000,8.511518798828124,0.0592849999666214,0.0009883726015686989,0.5706469416618347
1726225369894557000,8.521556884765625,0.1798008680343628,-0.032132964581251144,-0.18133708834648132
1726225369904594000,8.531593994140625,-0.043401870876550674,0.1019798293709755,0.07947266101837158
1726225369914632000,8.5416318359375,0.006827682722359896,-0.01354440301656723,0.061493512243032455
1726225369924670000,8.551669921875,-0.04417930915951729,0.1346951276063919,0.12968428432941437
1726225369934707000,8.56170703125,0.12964273989200592,0.048944003880023956,-0.022134602069854736
1726225369944745000,8.571744873046875,0.08164377510547638,-0.007776000536978245,0.03031795099377632
1726225369954783000,8.581782958984375,0.2094084769487381,0.04680083692073822,0.4651753306388855
1726225369964820000,8.591820068359375,0.26539984345436096,-0.06807781010866165,0.4733712077140808
1726225369974858000,8.60185791015625,0.0662742555141449,0.102615587413311,-0.0807543471455574
1726225369984896000,8.61189599609375,0.16709674894809723,0.03399737924337387,-0.45796582102775574
1726225369994929700,8.6219296875,0.03544449433684349,0.15386657416820526,-0.04920005798339844
1726225370004967700,8.6319677734375,0.1913435459136963,-0.0523555651307106,-0.12287241220474243
1726225370015006000,8.642005859375,0.22975458204746246,0.10339061915874481,-0.30930063128471375
1726225370025042700,8.652042724609375,0.3549079895019531,-0.061524830758571625,-0.6455100774765015
1726225370035080700,8.662080810546875,0.3236714005470276,0.2811000645160675,0.0912865698337555
1726225370045118700,8.67211865234375,0.5516323447227478,0.11081381887197495,0.5722766518592834
1726225370055155700,8.68215576171875,0.26949453353881836,0.25554347038269043,-0.04827379807829857
1726225370065193700,8.69219384765625,0.3031563460826874,0.31250420212745667,-0.4884740710258484
1726225370075231700,8.702231689453125,0.2567451000213623,0.38570672273635864,-0.04959561675786972
1726225370085268700,8.712268798828125,0.3518093228340149,0.19604039192199707,0.08829247951507568
1726225370095306800,8.722306640625,0.3424132466316223,0.2242625653743744,-0.2717466950416565
1726225370105344800,8.7323447265625,0.3306817412376404,0.2905254662036896,-0.48063573241233826
1726225370115381800,8.7423818359375,0.39810460805892944,0.1741611212491989,-0.09696566313505173
1726225370125419500,8.75241943359375,0.37718868255615234,0.2588762640953064,0.9614227414131165
1726225370135457800,8.762457763671875,0.3199170231819153,0.3573592007160187,0.32098332047462463
1726225370145494800,8.772494873046876,0.19730478525161743,0.3147803246974945,-0.6768099665641785
1726225370155532500,8.782532470703124,0.2620583176612854,0.18911534547805786,-0.11831089109182358
1726225370165570800,8.79257080078125,0.13835127651691437,0.03866111859679222,0.5633462071418762
1726225370175607800,8.80260791015625,0.12907226383686066,-0.011456596665084362,-0.4182453751564026
1726225370185645800,8.812645751953125,0.10867778211832047,0.11527525633573532,-1.244720697402954
1726225370195683800,8.822683837890626,0.26258406043052673,0.10329412668943405,-0.04101158678531647
1726225370205720600,8.832720458984374,0.13787007331848145,0.08704937994480133,0.7963035702705383
1726225370215758800,8.8427587890625,0.0785752534866333,0.15254327654838562,-0.10002000629901886
1726225370225796600,8.852796630859375,0.025107499212026596,0.36224645376205444,-0.3335139751434326
1726225370235833600,8.86283349609375,0.047255873680114746,0.1594846546649933,0.23179258406162262
1726225370245871900,8.872871826171876,0.003133420366793871,0.05092409625649452,0.5133691430091858
1726225370255909600,8.88290966796875,0.0670880600810051,0.11431015282869339,-0.6054702997207642
1726225370265946600,8.892946533203125,-0.006463122088462114,0.04627437889575958,-0.4901604652404785
1726225370275984600,8.902984619140625,0.1388809233903885,0.09007114171981812,0.35151949524879456
1726225370286022700,8.913022705078125,-0.04363003000617027,0.06751682609319687,0.31221336126327515
1726225370296059600,8.9230595703125,0.1096285879611969,0.16796660423278809,-0.19500568509101868
1726225370306097700,8.93309765625,0.049909867346286774,0.22349591553211212,0.3361535668373108
1726225370316134700,8.943134765625,0.06165840104222298,0.12924930453300476,0.06146232783794403
1726225370326173000,8.9531728515625,0.07697264105081558,-0.005933823995292187,0.12411345541477203
1726225370336210700,8.963210693359375,-0.07330947369337082,0.18642142415046692,0.14958390593528748
1726225370346248700,8.973248779296876,0.1960599422454834,0.301116019487381,-0.7670683860778809
1726225370356285700,8.98328564453125,0.07022138684988022,0.1228543370962143,-0.16750620305538177
1726225370366323700,8.99332373046875,0.12786762416362762,0.14152787625789642,0.37037137150764465
1726225370376361700,9.00336181640625,0.174504816532135,0.07756675779819489,0.00583353266119957
1726225370386398700,9.013398681640625,-0.030308250337839127,0.18247240781784058,-0.06882206350564957
1726225370396436700,9.023436767578126,0.22447408735752106,0.1075228825211525,0.4964005649089813
1726225370406473700,9.0334736328125,-0.002921245526522398,0.048062749207019806,0.7188066840171814
1726225370416511700,9.04351171875,0.03652402013540268,0.33790716528892517,-0.20965519547462463
1726225370426549800,9.0535498046875,0.1421833336353302,0.07117800414562225,-0.3712392747402191
1726225370436586500,9.06358642578125,-0.10958455502986908,-0.031307075172662735,0.08832953870296478
1726225370446624800,9.073624755859376,0.007941542193293571,0.06016691401600838,0.06990392506122589
1726225370456662500,9.08366259765625,-0.10901853442192078,0.08578997105360031,-0.34675976634025574
1726225370466700800,9.09370068359375,0.01763661578297615,0.09926743060350418,0.23316723108291626
1726225370476737800,9.10373779296875,-0.032941579818725586,-0.08562936633825302,0.43504267930984497
1726225370486775600,9.113775634765625,-0.09081020206212997,0.13649238646030426,0.3447306454181671
1726225370496813800,9.123813720703126,0.04063462093472481,0.09996994584798813,-0.3370110094547272
1726225370506850800,9.133850830078124,-0.15481449663639069,0.02053104341030121,0.003929541911929846
1726225370516888600,9.143888671875,-0.04250007122755051,-0.0907026082277298,-0.1304924041032791
1726225370526926800,9.1539267578125,-0.12176479399204254,0.12828725576400757,-0.4377759099006653
1726225370536963600,9.163963623046875,-0.05244799703359604,-0.02645883336663246,0.23940372467041016
1726225370547001600,9.174001708984376,-0.19291509687900543,-0.18353873491287231,0.26328617334365845
1726225370557039600,9.18403955078125,-0.16230152547359467,0.00305137294344604,0.4063061773777008
1726225370567076600,9.19407666015625,-0.0996013954281807,0.026194240897893906,0.689950704574585
1726225370577115000,9.204114990234375,-0.1877998411655426,-0.10623786598443985,0.19537405669689178
1726225370587152600,9.214152587890625,-0.2879810631275177,0.11431288719177246,-0.7530465722084045
1726225370597189600,9.224189697265626,-0.09166868031024933,-0.4058951735496521,-1.0032387971878052
1726225370607228000,9.234227783203124,-0.33871814608573914,-0.03992597758769989,-0.3322995603084564
1726225370617265700,9.244265625,-0.2459697723388672,-0.0732872262597084,0.5962703227996826
1726225370627302700,9.254302734375,-0.41264984011650085,0.062296703457832336,0.040412988513708115
1726225370637340700,9.264340576171875,-0.3056950569152832,-0.05048499256372452,0.11319459229707718
1726225370647378700,9.274378662109376,-0.258408784866333,-0.1712215393781662,0.5744815468788147
1726225370657415700,9.284415771484374,-0.28416574001312256,-0.23664814233779907,0.47769221663475037
1726225370667453700,9.29445361328125,-0.1351696103811264,-0.24355585873126984,-0.43249765038490295
1726225370677491700,9.30449169921875,-0.12975619733333588,-0.26774588227272034,-0.12293526530265808
1726225370687528700,9.31452880859375,-0.3645852208137512,-0.29264724254608154,0.34746259450912476
1726225370697566700,9.324566650390626,-0.3257617950439453,-0.023067627102136612,-0.3882372975349426
1726225370707604700,9.334604736328124,-0.35708799958229065,-0.09712960571050644,-0.19173116981983185
1726225370717641700,9.344641845703125,-0.1966278851032257,-0.13702264428138733,0.09543341398239136
1726225370727679700,9.3546796875,-0.07028885185718536,-0.27336400747299194,0.3580101728439331
1726225370737717500,9.364717529296875,-0.18179604411125183,-0.266082763671875,-0.19357144832611084
1726225370747754800,9.374754638671876,-0.048587650060653687,0.07108914107084274,-0.29610422253608704
1726225370757792800,9.384792724609374,-0.00436476431787014,-0.06884457170963287,0.17115670442581177
1726225370767830500,9.39483056640625,-0.11000198125839233,-0.1981639415025711,0.6587747931480408
1726225370777867800,9.40486767578125,-0.021303830668330193,0.09808427095413208,-0.2596290409564972
1726225370787905800,9.41490576171875,0.051847077906131744,-0.02562728151679039,-0.8038933873176575
1726225370797943800,9.42494384765625,0.14631249010562897,0.047991037368774414,0.5351164937019348
1726225370807980800,9.434980712890624,0.14947205781936646,-0.03045130893588066,0.6724413633346558
1726225370818018600,9.4450185546875,0.1049581840634346,0.026603640988469124,0.08107145130634308
1726225370828056800,9.455056884765625,0.07938757538795471,0.1933569312095642,0.052098654210567474
1726225370838093800,9.46509375,0.2750164866447449,0.09184543788433075,0.20863847434520721
1726225370848131600,9.475131591796876,0.17833656072616577,0.14534221589565277,-0.5079143047332764
1726225370858169900,9.485169921875,0.2797050476074219,0.004344523884356022,-0.5767099261283875
1726225370868206800,9.495206787109375,0.27467912435531616,0.20316867530345917,0.0860547348856926
1726225370878244600,9.50524462890625,0.29551926255226135,0.1535145789384842,-0.08666477352380753
1726225370888283000,9.515282958984375,0.2655552327632904,0.012652808800339699,0.3384692370891571
1726225370898319600,9.525319580078126,0.2606602907180786,0.13124245405197144,0.23567646741867065
1726225370908357600,9.535357666015624,0.3022993505001068,0.2556386888027191,-0.1398276388645172
1726225370918395600,9.545395751953125,0.24610432982444763,0.026051649823784828,0.5099730491638184
1726225370928433700,9.55543359375,0.23740696907043457,0.24143612384796143,-0.1939837485551834
1726225370938470700,9.565470703125,0.2147933393716812,0.3061569929122925,-0.5027962327003479
1726225370948508700,9.5755087890625,0.20212174952030182,0.20041164755821228,0.3484083414077759
1726225370958546700,9.585546630859374,0.17932644486427307,0.2723848819732666,0.48274192214012146
1726225370968584000,9.595583984375,0.238600954413414,0.18678024411201477,-0.775347113609314
1726225370978621700,9.60562158203125,0.16326859593391418,-0.03382689878344536,-0.8257998824119568
1726225370988663300,9.615663330078124,0.1986505538225174,0.14977940917015076,0.6269084215164185
1726225370998700300,9.6257001953125,0.1264512687921524,0.10294948518276215,0.7119269371032715
1726225371008738300,9.63573828125,0.12927527725696564,0.18551920354366302,-0.3514493405818939
1726225371018776000,9.645776123046875,0.07785788923501968,0.11965177208185196,0.09858974069356918
1726225371028813300,9.655813232421876,-0.11023584753274918,0.0344545841217041,0.7406011819839478
1726225371038851300,9.665851318359374,-0.09727923572063446,0.003073929576203227,-0.38493382930755615
1726225371048889300,9.675889404296875,-0.13658003509044647,0.12083598226308823,-1.0471609830856323
1726225371058926300,9.68592626953125,-0.12577606737613678,-0.008194796741008759,-0.035115666687488556
1726225371068964400,9.69596435546875,-0.19928304851055145,-0.11268152296543121,-0.027118729427456856
1726225371079002400,9.70600244140625,-0.20578773319721222,0.038134098052978516,-1.0005391836166382
1726225371089039400,9.716039306640624,-0.014873174950480461,-0.0365060493350029,-0.270536333322525
1726225371099077000,9.7260771484375,-0.2281683385372162,-0.06136621534824371,0.8279531598091125
1726225371109115400,9.736115478515625,-0.10508369654417038,0.04316338524222374,0.08867612481117249
1726225371119153200,9.746153076171876,-0.30636486411094666,0.20898734033107758,-0.6337908506393433
1726225371129190100,9.756190185546876,-0.12906384468078613,-0.05846033990383148,-0.33662149310112
1726225371139228400,9.766228515625,-0.21418188512325287,0.07198508083820343,0.3793784976005554
1726225371149266200,9.77626611328125,-0.14755040407180786,0.009871115908026695,-0.29134926199913025
1726225371159303200,9.78630322265625,-0.1769462674856186,-0.0458984300494194,-0.037404030561447144
1726225371169341400,9.796341552734376,-0.07134953141212463,-0.07427334040403366,-0.010237390175461769
1726225371179379200,9.806379150390624,-0.08563751727342606,-0.09096799045801163,0.4786517024040222
1726225371189416400,9.81641650390625,-0.09175107628107071,0.009330647066235542,0.5110869407653809
1726225371199454200,9.8264541015625,-0.11832332611083984,-0.03513051196932793,-0.42162930965423584
1726225371209492200,9.8364921875,-0.1702650785446167,0.11059819161891937,-0.10436136275529861
1726225371219529500,9.846529541015625,0.09324793517589569,0.021707234904170036,-0.12184910476207733
1726225371229567200,9.856567138671876,-0.0009403475560247898,-0.042511966079473495,-0.3438776433467865
1726225371239605200,9.866605224609375,0.1813637763261795,-0.044652219861745834,-0.17535366117954254
1726225371249642500,9.876642578125,0.2774767279624939,0.07183364778757095,0.1117849051952362
1726225371259680300,9.88668017578125,0.11439769715070724,-0.11509189009666443,0.3956177234649658
1726225371269718500,9.896718505859376,0.28830665349960327,0.13180790841579437,0.047398779541254044
1726225371279755300,9.90675537109375,0.11178922653198242,0.2040334939956665,-0.23949244618415833
1726225371289793300,9.916793212890624,0.14413198828697205,0.1130596473813057,-0.09572780877351761
1726225371299831300,9.926831298828125,0.2425190806388855,0.32455024123191833,-0.4498632848262787
1726225371309869300,9.936869384765625,0.20040971040725708,0.1295413225889206,-0.5658729672431946
1726225371319906300,9.94690625,0.25835058093070984,0.059325605630874634,-0.32221662998199463
1726225371329944300,9.9569443359375,0.30946195125579834,0.1796349734067917,0.11162720620632172
1726225371339982300,9.966982421875,0.40501153469085693,0.27876347303390503,0.48028239607810974
1726225371350019300,9.977019287109375,0.38166359066963196,0.20966805517673492,0.4173963665962219
1726225371360057300,9.987057373046875,0.43299055099487305,0.23819245398044586,0.43093135952949524
1726225371370095400,9.997095458984376,0.4474683105945587,0.18686747550964355,0.08162423223257065
1726225371380132000,10.007132080078126,0.31221166253089905,0.25553786754608154,0.3584834337234497
1726225371390170400,10.01717041015625,0.40633338689804077,0.3443654775619507,-0.10348152369260788
1726225371400208100,10.0272080078125,0.2106178253889084,0.33939072489738464,-0.42508167028427124
1726225371410245000,10.0372451171875,0.21523280441761017,0.19908581674098969,0.04471031203866005
1726225371420283400,10.047283447265626,0.20136934518814087,0.07917851954698563,0.10709299892187119
1726225371430321200,10.057321044921874,0.09975829720497131,0.20196914672851562,0.24137651920318604
1726225371440359400,10.067359375,0.3445291221141815,0.014127392321825027,0.5941658020019531
1726225371450396400,10.077396484375,-0.006502934265881777,0.3060748279094696,0.40239959955215454
1726225371460434200,10.08743408203125,0.15131883323192596,0.11859418451786041,-0.4798555374145508
1726225371470472400,10.097472412109376,0.012874661013484001,0.170087993144989,-0.20941418409347534
1726225371480509200,10.10750927734375,0.09477414935827255,0.13468442857265472,0.14486604928970337
1726225371490547200,10.117547119140625,0.06562478840351105,-0.09832058846950531,0.17985519766807556
1726225371500585200,10.127585205078125,-0.11066236346960068,0.059608325362205505,-0.20121732354164124
1726225371510622200,10.137622314453125,-0.03564164415001869,0.04608532413840294,0.23707187175750732
1726225371520660500,10.147660400390626,-0.14047454297542572,0.012160600163042545,0.04702948033809662
1726225371530698200,10.1576982421875,-0.1299324333667755,-0.1830752044916153,0.12783057987689972
1726225371540735200,10.1677353515625,-0.10636541992425919,-0.043821677565574646,0.03188237547874451
1726225371550773500,10.1777734375,-0.09417640417814255,-0.02939959615468979,-0.7599776387214661
1726225371560811300,10.187811279296875,-0.18057729303836823,-0.1946508139371872,-0.14767232537269592
1726225371570849300,10.197849365234376,-0.27789053320884705,-0.21623893082141876,0.7361363172531128
1726225371580886300,10.20788623046875,-0.4253891706466675,-0.021337611600756645,0.5780872702598572
1726225371590924300,10.21792431640625,-0.3181300759315491,0.059670425951480865,0.10579802840948105
1726225371600962300,10.22796240234375,-0.3862035274505615,-0.3128027021884918,0.39213675260543823
1726225371610999300,10.237999267578125,-0.520300030708313,-0.0682411715388298,0.5015473961830139
1726225371621037300,10.248037353515626,-0.20944689214229584,-0.05411096662282944,-0.4098738133907318
1726225371631075300,10.258075439453124,-0.3793453574180603,-0.23149427771568298,-0.37362420558929443
1726225371641112300,10.2681123046875,-0.27722597122192383,-0.28909796476364136,-0.12880849838256836
1726225371651150300,10.278150390625,-0.2478978931903839,-0.18949095904827118,-0.10593701899051666
1726225371661188400,10.288188232421875,-0.312064528465271,-0.2179868221282959,0.11773815751075745
1726225371671226400,10.298226318359376,-0.1477791666984558,-0.2708313763141632,0.43018633127212524
1726225371681263000,10.30826318359375,-0.2665983736515045,-0.14635440707206726,0.46709564328193665
1726225371691301400,10.31830126953125,-0.17671559751033783,-0.05194322019815445,0.15484078228473663
1726225371701339100,10.328339111328125,-0.20398060977458954,-0.027657482773065567,-0.014600248076021671
1726225371711376100,10.338376220703125,-0.13426090776920319,-0.05284725874662399,-0.07931026816368103
1726225371721414400,10.348414306640626,-0.13816715776920319,-0.03444609418511391,-0.632232129573822
1726225371731452200,10.3584521484375,-0.08652979135513306,-0.17778967320919037,-0.5584242343902588
1726225371741489400,10.368489501953125,0.042493466287851334,0.049563802778720856,0.21696840226650238
1726225371751527400,10.37852734375,0.07109767943620682,0.007348440121859312,-0.25390297174453735
1726225371761565200,10.388565185546875,0.16758091747760773,0.010803138837218285,0.3940802216529846
1726225371771603500,10.398603515625,0.10961616039276123,-0.06250409781932831,0.7821206450462341
1726225371781640200,10.40864013671875,0.002625327557325363,-0.16796521842479706,-0.4701802432537079
1726225371791678200,10.41867822265625,-0.00012704916298389435,-0.03756992891430855,-0.29225870966911316
1726225371801716200,10.42871630859375,-0.13169585168361664,-0.03868001326918602,0.020008469000458717
1726225371811753200,10.438753173828125,-0.19022627174854279,0.02090475521981716,-0.48090600967407227
1726225371821791500,10.44879150390625,-0.08218423277139664,-0.03165820240974426,-0.6359031200408936
1726225371831829200,10.458829345703125,-0.1585509032011032,-0.08531823754310608,-0.0573955737054348
1726225371841866200,10.4688662109375,-0.053081221878528595,-0.22489191591739655,0.2579255700111389
1726225371851904500,10.478904541015625,0.026001615449786186,-0.03389773517847061,-0.1486530900001526
1726225371861942300,10.4889423828125,-0.024762552231550217,-0.04825839400291443,-0.4535931944847107
1726225371871980300,10.498980224609374,-0.009914897382259369,-0.1020055040717125,-0.01665581203997135
1726225371882017300,10.509017333984374,-0.15275703370571136,-0.11440910398960114,0.3028733432292938
1726225371892055300,10.51905517578125,-0.0728406310081482,-0.010024637915194035,0.009876882657408714
1726225371902093300,10.52909326171875,-0.027670491486787796,0.019545886665582657,-0.2433466613292694
1726225371912130300,10.53913037109375,-0.06418615579605103,0.02161809243261814,-0.28828832507133484
1726225371922168300,10.549168212890624,0.08811173588037491,0.015466888435184956,0.2040044516324997
1726225371932206300,10.559206298828125,0.09925945848226547,-0.040160953998565674,0.542016327381134
1726225371942244400,10.569244384765625,0.14712388813495636,0.1059633120894432,0.0663231611251831
1726225371952281300,10.57928125,0.19838599860668182,0.1610201746225357,-0.5549981594085693
1726225371962319400,10.5893193359375,0.1945255845785141,0.07416100054979324,-0.12727899849414825
1726225371972357400,10.599357421875,0.26888611912727356,0.12773022055625916,-0.04211430251598358
1726225371982394000,10.60939404296875,0.26438966393470764,0.1550857424736023,-0.08001808077096939
1726225371992429000,10.619428955078124,0.22955071926116943,0.23044440150260925,0.04742003232240677
1726225372002467000,10.629467041015625,0.3264603316783905,0.13960297405719757,-0.09689521789550781
1726225372012504000,10.639504150390625,0.2403712421655655,0.3113558292388916,0.5652904510498047
1726225372022542000,10.6495419921875,0.356943815946579,0.20567546784877777,-0.2297803908586502
1726225372032580000,10.659580078125,0.21705752611160278,0.15291506052017212,0.05667375028133392
1726225372042618000,10.6696181640625,0.3219348192214966,0.08767913281917572,0.5611772537231445
1726225372052655000,10.679655029296875,0.2853411138057709,0.11262096464633942,0.024143654853105545
1726225372062693000,10.689693115234375,0.25290024280548096,0.16530151665210724,-0.434250146150589
1726225372072731100,10.699731201171875,0.387160062789917,-0.041560858488082886,-0.8067685961723328
1726225372082768100,10.70976806640625,0.4413677752017975,0.09071598201990128,-0.16011005640029907
1726225372092806100,10.71980615234375,0.404601514339447,0.21477694809436798,0.6759281158447266
1726225372102844000,10.729843994140625,0.2985077500343323,0.22174593806266785,-0.22234134376049042
1726225372112882200,10.739882080078125,0.28208908438682556,0.327949583530426,0.4684078097343445
1726225372122919200,10.749919189453125,0.2122158408164978,0.29332831501960754,0.670915961265564
1726225372132957000,10.75995703125,0.07324197888374329,0.31032487750053406,0.22621308267116547
1726225372142995200,10.7699951171875,0.19015134871006012,0.4405645728111267,-0.5375764966011047
1726225372153032200,10.7800322265625,0.13868895173072815,0.3247562050819397,-0.08677364140748978
1726225372163070200,10.7900703125,0.3288578689098358,0.13022218644618988,0.9124487638473511
1726225372173108200,10.800108154296876,0.10966211557388306,0.23149502277374268,0.19299021363258362
1726225372183146000,10.81014599609375,0.10940750688314438,0.32580360770225525,-0.7562925815582275
1726225372193183200,10.820183349609374,0.04965122789144516,0.103271484375,0.09929343312978745
1726225372203221000,10.830220947265625,0.011173535138368607,0.18405666947364807,0.3847917318344116
1726225372213259000,10.840259033203125,0.08724673092365265,0.3694515526294708,-0.5639269351959229
1726225372223296300,10.850296142578125,0.04512951523065567,0.15010173618793488,0.03847156837582588
1726225372233334000,10.860333984375,0.022483056411147118,0.1956673562526703,0.9967885613441467
1726225372243372300,10.870372314453125,0.062465447932481766,0.2271176427602768,0.06372824311256409
1726225372253410000,10.88041015625,-0.01758784055709839,0.23416408896446228,-0.4962511658668518
1726225372263447000,10.890447021484375,0.012230582535266876,-0.022288141772150993,0.019688591361045837
1726225372273485000,10.900485107421876,-0.11233584582805634,0.24163031578063965,0.07474811375141144
1726225372283523000,10.910523193359374,-0.017558444291353226,0.07290501892566681,-0.41372281312942505
1726225372293560000,10.92056005859375,-0.21998851001262665,0.08130969107151031,-0.10267867147922516
1726225372303598000,10.93059814453125,-0.04541756957769394,0.06116871535778046,0.4168919026851654
1726225372313636000,10.940635986328125,-0.16883111000061035,0.07403045147657394,0.368204265832901
1726225372323674000,10.950674072265626,-0.174347385764122,0.14859001338481903,-0.925736129283905
1726225372333711000,10.960711181640624,-0.1223028227686882,-0.06889784336090088,-1.2341771125793457
1726225372343749000,10.9707490234375,-0.21683937311172485,0.2554764747619629,-0.02960713393986225
1726225372353787100,10.980787109375,0.003306838683784008,0.04797893390059471,0.5619206428527832
1726225372363825200,10.9908251953125,-0.24747158586978912,0.012469017878174782,-0.09163160622119904
1726225372373862100,11.000862060546876,-0.02713494561612606,-0.11024118959903717,0.09563016146421432
1726225372383900200,11.010900146484374,-0.08890236169099808,-0.2029363214969635,0.12286152690649033
1726225372393938200,11.020938232421875,-0.12071195244789124,-0.02298572100698948,-0.4144991338253021
1726225372403975000,11.030974853515625,-0.08619281649589539,-0.2611287832260132,-0.4405476450920105
1726225372414013200,11.04101318359375,-0.24636037647724152,0.06025457754731178,0.5804936289787292
1726225372424051000,11.051051025390626,-0.16374889016151428,-0.1001729816198349,0.2701355516910553
1726225372434089200,11.061089111328124,-0.4453565776348114,0.05908164754509926,-0.20252519845962524
1726225372444126200,11.071126220703125,-0.22616305947303772,-0.1290239840745926,-0.25168976187705994
1726225372454164000,11.0811640625,-0.39477047324180603,-0.10160646587610245,-0.11626961082220078
1726225372464202200,11.0912021484375,-0.2979484498500824,-0.08225943148136139,-0.36303314566612244
1726225372474239200,11.1012392578125,-0.2933257520198822,-0.055151376873254776,0.07577136158943176
1726225372484277000,11.111277099609374,-0.3708961308002472,-0.055443305522203445,-0.02462504804134369
1726225372494315300,11.121315185546875,-0.29676011204719543,-0.2145538628101349,0.10092595219612122
1726225372504353000,11.13135302734375,-0.3288233280181885,-0.3797934055328369,0.9053943157196045
1726225372514390000,11.14139013671875,-0.1849500685930252,-0.13052311539649963,-0.09293714910745621
1726225372524428000,11.151427978515626,-0.21390236914157867,-0.1938176155090332,-0.4416999816894531
1726225372534466000,11.161466064453125,-0.21108661592006683,-0.26758503913879395,0.10489624738693237
1726225372544504000,11.171504150390625,-0.29744476079940796,-0.16823160648345947,0.16783598065376282
1726225372554541000,11.181541015625,-0.37611427903175354,-0.01589931547641754,-0.06861837208271027
1726225372564579000,11.1915791015625,-0.4026974141597748,-0.150634765625,-0.21509520709514618
1726225372574617000,11.2016171875,-0.24317407608032227,-0.17903658747673035,0.5814568400382996
1726225372584654000,11.211654052734374,-0.3246244192123413,-0.2824017405509949,0.5470298528671265
1726225372594692000,11.221692138671875,-0.16715170443058014,-0.12547926604747772,-0.7272903323173523
1726225372604730000,11.231730224609375,-0.008192400448024273,-0.3134155869483948,-0.5686353445053101
1726225372614768000,11.24176806640625,-0.1253238171339035,-0.2676313519477844,0.6787732839584351
1726225372624804900,11.251804931640624,-0.1545095294713974,-0.17867536842823029,0.7027574777603149
1726225372634843100,11.261843017578125,-0.13563570380210876,-0.13487862050533295,-0.5075398087501526
1726225372644881000,11.271880859375,-0.10199965536594391,-0.16939879953861237,-0.3930540382862091
1726225372654919200,11.281919189453125,-0.09822329878807068,-0.036724116653203964,0.5796676874160767
1726225372664956200,11.2919560546875,0.021336549893021584,-0.09554009139537811,-0.33635151386260986
1726225372674994000,11.301993896484374,0.04889574274420738,-0.14655160903930664,-0.7903714179992676
1726225372685032200,11.3120322265625,0.12302970886230469,0.0035796090960502625,0.24891136586666107
1726225372695070000,11.322070068359375,0.21645765006542206,-0.004566734191030264,0.1372479647397995
1726225372705107000,11.33210693359375,0.1602623164653778,-0.06390182673931122,-0.33984053134918213
1726225372715145200,11.342145263671876,0.22147533297538757,0.058888278901576996,0.45557403564453125
1726225372725183000,11.352182861328124,0.2621628940105438,-0.02869892679154873,0.4663693308830261
1726225372735220200,11.36222021484375,0.16510826349258423,0.03892140090465546,0.37555181980133057
1726225372745258000,11.372258056640625,0.26713988184928894,0.05162603408098221,-0.34133127331733704
1726225372755296000,11.3822958984375,0.3043453097343445,-0.03216446936130524,0.07280146330595016
1726225372765334000,11.392333984375,0.16925880312919617,-0.07516676187515259,0.8434409499168396
1726225372775371000,11.40237109375,0.10959679633378983,0.18610559403896332,-0.6649566888809204
1726225372785409000,11.412408935546875,0.12790603935718536,0.20086735486984253,-1.5027177333831787
1726225372795447000,11.422447021484375,-0.091728575527668,0.038759149610996246,-0.8941646218299866
1726225372805485000,11.432485107421876,0.05632519721984863,0.08345304429531097,0.2608005404472351
1726225372815522300,11.442522216796876,0.08636938035488129,-0.10660956799983978,0.37756285071372986
1726225372825560000,11.45256005859375,0.19123657047748566,0.04623440280556679,-0.004815302789211273
1726225372835598000,11.46259814453125,0.3152855336666107,-0.3483451306819916,0.13008525967597961
1726225372845636000,11.472635986328125,-0.06619621068239212,-0.03767026215791702,0.9753304123878479
1726225372855673000,11.482673095703126,-0.05326789617538452,0.008069796487689018,0.20902422070503235
1726225372865710800,11.4927109375,-0.4428614377975464,0.0993242859840393,-0.8597263693809509
1726225372875749000,11.5027490234375,-0.155054971575737,-0.025052260607481003,-0.6679132580757141
1726225372885786000,11.5127861328125,-0.25923237204551697,0.0016771554946899414,0.24127866327762604
1726225372895824100,11.52282421875,-0.2600363790988922,-0.19663140177726746,0.0003230338916182518
1726225372905862100,11.532862060546876,-0.0900224894285202,-0.105520099401474,-0.2474183887243271
1726225372915900000,11.54289990234375,-0.018231650814414024,-0.15632840991020203,0.39770469069480896
1726225372925937200,11.552937255859375,-0.10125932097434998,-0.24032732844352722,0.8176369071006775
1726225372935975200,11.56297509765625,-0.14297375082969666,-0.047370389103889465,0.09024210274219513
1726225372946013000,11.573012939453125,-0.141874760389328,0.022637546062469482,-0.31124240159988403
1726225372956051200,11.58305126953125,-0.19342049956321716,-0.14921489357948303,-0.19641223549842834
1726225372966088000,11.593087890625,-0.20303304493427277,0.013547506183385849,0.44038116931915283
1726225372976126200,11.603126220703125,-0.05191144347190857,-0.07251547276973724,0.4010281562805176
1726225372986164000,11.6131640625,-0.07439320534467697,0.020535912364721298,0.05579661205410957
1726225372996206300,11.623206298828125,0.027108116075396538,-0.14558888971805573,0.5395236015319824
1726225373006243300,11.633243408203125,0.021633759140968323,-0.07859759032726288,-0.05580691620707512
1726225373016281300,11.64328125,0.05689987167716026,0.26721280813217163,-0.3406658172607422
1726225373026319400,11.6533193359375,0.08807738870382309,0.02955758199095726,0.01276269368827343
1726225373036357400,11.663357421875,0.02844841219484806,0.1234625056385994,-0.1834249198436737
1726225373046394400,11.673394287109375,0.14381061494350433,0.07088488340377808,-0.5308544635772705
1726225373056432000,11.68343212890625,0.11224416643381119,0.09352601319551468,0.07385247945785522
1726225373066470400,11.693470458984375,0.2141789197921753,0.0865025520324707,0.867854654788971
1726225373076508200,11.703508056640626,0.24513283371925354,0.1528506726026535,0.5039851069450378
1726225373086545200,11.713545166015624,0.22088485956192017,0.2216797024011612,0.10620323568582535
1726225373096583400,11.72358349609375,0.17400097846984863,0.12209852039813995,0.17464566230773926
1726225373106621200,11.73362109375,0.03791319206357002,0.20478704571723938,-0.10803714394569397
1726225373116658200,11.743658203125,0.19464927911758423,0.2548491358757019,-1.0219517946243286
1726225373126696400,11.753696533203126,0.16751493513584137,0.030243368819355965,0.10512671619653702
1726225373136734200,11.763734130859374,0.14417313039302826,-0.028722744435071945,0.2730507552623749
1726225373146772500,11.7737724609375,0.19739724695682526,0.18478550016880035,-0.5479872226715088
1726225373156809200,11.783809326171875,0.18562713265419006,0.06286145001649857,-0.3431509733200073
1726225373166847200,11.79384716796875,-0.004996290430426598,0.16015532612800598,0.3591599464416504
1726225373176885200,11.80388525390625,0.14373779296875,0.24620738625526428,-0.04170278087258339
1726225373186923300,11.81392333984375,0.01283152773976326,0.221388578414917,-0.5751013159751892
1726225373196960300,11.823960205078125,0.09385287761688232,0.1572228968143463,0.1445612907409668
1726225373206998300,11.833998291015625,0.008997194468975067,0.14747464656829834,0.09100290387868881
1726225373217036300,11.844036376953126,-0.028450312092900276,0.08219418674707413,0.31905898451805115
1726225373227074300,11.85407421875,-0.078034408390522,-0.06251443177461624,-0.17478536069393158
1726225373237111300,11.864111328125,-0.10014263540506363,0.08777360618114471,-0.03611348569393158
1726225373247149300,11.8741494140625,-0.008947391994297504,-0.21253830194473267,0.5817334055900574
1726225373257187300,11.884187255859375,-0.2958662509918213,-0.053855713456869125,-0.14304189383983612
1726225373267225300,11.894225341796876,-0.13048602640628815,-0.07643049955368042,-1.1857177019119263
1726225373277262300,11.904262451171874,-0.23280520737171173,-0.19352808594703674,-0.7062437534332275
1726225373287300400,11.91430029296875,-0.12778283655643463,-0.08182962983846664,-0.03354000672698021
1726225373297338400,11.92433837890625,-0.08385053277015686,0.013782652094960213,0.4291757047176361
1726225373307376400,11.93437646484375,-0.04402332007884979,-0.06992501020431519,-0.021060088649392128
1726225373317413400,11.944413330078126,-0.04714374244213104,-0.018347837030887604,0.25040391087532043
1726225373327451100,11.954451171875,-0.049067556858062744,-0.07276784628629684,0.8218140602111816
1726225373337489400,11.964489501953125,-0.06571124494075775,-0.15053722262382507,-0.07611620426177979
1726225373347527200,11.974527099609375,-0.07303939014673233,0.03505918011069298,0.12121011316776276
1726225373357564200,11.984564208984375,-0.008496622554957867,0.07066164910793304,0.835176944732666
1726225373367602400,11.9946025390625,-0.0949736088514328,-0.11279910057783127,-0.07803066074848175
1726225373377640200,12.00464013671875,-0.08919747918844223,0.17213915288448334,-0.6847014427185059
1726225373387678500,12.014678466796875,0.14834536612033844,-0.15994839370250702,-0.029746249318122864
1726225373397715500,12.024715576171875,-0.10275077819824219,-0.06012964993715286,0.7360174655914307
1726225373407753200,12.034753173828125,0.09782871603965759,-0.04684207960963249,-0.6666929721832275
1726225373417791500,12.04479150390625,-0.04431618005037308,-0.1389743983745575,-0.7024185061454773
1726225373427829200,12.054829345703125,-0.0054452018812298775,0.10345456004142761,0.322636216878891
1726225373437866200,12.0648662109375,-0.1259436458349228,-0.05720888078212738,0.4039768576622009
1726225373447904300,12.074904296875,-0.17776250839233398,0.01856641098856926,-0.11286503076553345
1726225373457942300,12.0849423828125,-0.034966737031936646,-0.016322065144777298,-0.4391062557697296
1726225373467980300,12.094980224609374,-0.10638128221035004,-0.15261615812778473,0.6048642992973328
1726225373478017300,12.105017333984375,-0.033323317766189575,-0.23395362496376038,0.32018786668777466
1726225373488055300,12.11505517578125,-0.17798830568790436,-0.1414361298084259,-0.20918792486190796
1726225373498093300,12.12509326171875,-0.12963834404945374,-0.29534393548965454,-0.3117523789405823
1726225373508131300,12.13513134765625,-0.1041199266910553,-0.17215962707996368,0.19567032158374786
1726225373518168300,12.145168212890624,-0.20931318402290344,-0.34276625514030457,0.7754815220832825
1726225373528206300,12.155206298828125,-0.25476837158203125,-0.2328328788280487,-0.04747670888900757
1726225373538244400,12.165244384765625,-0.23471316695213318,0.05417492985725403,-0.6474384069442749
1726225373548282400,12.175282470703126,-0.17711588740348816,-0.37494957447052,0.03600003570318222
1726225373558319400,12.1853193359375,-0.34689003229141235,-0.3034684658050537,1.0820494890213013
1726225373568357000,12.195357177734374,-0.13022814691066742,-0.07641106843948364,-0.008098296821117401
1726225373578395400,12.2053955078125,-0.07877188175916672,-0.23810116946697235,-1.3416552543640137
1726225373588433200,12.21543310546875,-0.030507739633321762,-0.2696751356124878,-0.19863301515579224
1726225373598470100,12.22547021484375,-0.15107862651348114,-0.31666529178619385,0.9783275723457336
1726225373608508400,12.23550830078125,-0.08065198361873627,-0.1987859159708023,0.1538575291633606
1726225373618546200,12.245546142578124,-0.028858555480837822,-0.045456547290086746,-0.4158823788166046
1726225373628584400,12.25558447265625,-0.017659246921539307,-0.27579572796821594,-0.16873669624328613
1726225373638621400,12.265621337890625,-0.16521595418453217,-0.3345178961753845,0.5838784575462341
1726225373648659200,12.2756591796875,-0.05187693238258362,-0.005944358184933662,-0.6912125945091248
1726225373658697500,12.285697509765624,0.07174167782068253,-0.15317721664905548,-0.9198071360588074
1726225373668735200,12.2957353515625,0.1067952811717987,0.07073688507080078,0.5219123363494873
1726225373678772200,12.305772216796875,0.11139136552810669,-0.0647469088435173,0.5020757913589478
1726225373688810200,12.315810302734375,0.22872333228588104,0.04745721444487572,-0.2515098452568054
1726225373698848300,12.32584814453125,0.30359888076782227,-0.02214610017836094,0.01807529665529728
1726225373708886300,12.33588623046875,0.21456380188465118,-0.2369895577430725,0.31827083230018616
