time,seconds_elapsed,z,y,x
1727009794037451500,0.057451416015625,-0.12153788295686244,-0.24869302127361295,0.07803206483796238
1727009794047489300,0.0674892578125,-0.1123725797265768,-0.07604395976066589,-0.07165975332707167
1727009794057527600,0.077527587890625,0.004423661661148071,0.15307283890545367,-0.32349414136633275
1727009794067565600,0.087565673828125,0.05086392579674721,0.07503098332583903,-0.4937093998610973
1727009794077603600,0.097603515625,-0.2501940734863281,-0.9172539611279964,-0.3254278859078884
1727009794087641600,0.1076416015625,-0.30789222921729087,-0.5464975717186927,0.4120464311748743
1727009794097678300,0.11767822265625,-0.09493278462588786,0.303121361553669,0.7616504347011447
1727009794107716600,0.127716552734375,0.033819267493486405,0.378288538479805,0.31665801173597574
1727009794117754400,0.13775439453125,0.14673895970880985,0.13672259260714054,-0.26065160848423835
1727009794127792600,0.147792724609375,0.16795184360742568,0.18387889605760574,-0.17648732450157403
1727009794137830400,0.157830322265625,0.04571487247049808,0.3421072180300951,0.3203273478984833
1727009794147868400,0.167868408203125,-0.07196282792687415,0.14486907418370246,0.5530937551133335
1727009794157906400,0.177906494140625,-0.17430384298264978,-0.4896487262934446,0.28165464902445675
1727009794167944400,0.1879443359375,-0.16514730758070945,-0.8019429898619651,-0.0068187401041388505
1727009794177982500,0.197982421875,-0.08352525542676448,-0.4462625890314579,0.09896350144669414
1727009794188020500,0.2080205078125,0.020655250015854835,0.2311713931083679,0.40417613619118925
1727009794198057500,0.218057373046875,0.08329495380222797,0.5029729027688503,0.44683980439752335
1727009794208095500,0.228095458984375,0.08403320494890212,0.2764975585222244,0.22937691090703008
1727009794218133500,0.238133544921875,0.06908873379528523,-0.03696984047889709,0.08226575688496232
1727009794228171500,0.248171630859375,0.007591185781359672,-0.18088029876351355,0.14739172452911734
1727009794238209500,0.25820947265625,-0.08817103540599346,-0.3061509385079145,0.2071085266061127
1727009794248247300,0.268247314453125,-0.09968787019848822,-0.48538639267385003,0.0669417848944664
1727009794258285600,0.27828564453125,-0.07809387802779674,-0.5385013122677803,-0.11509031425267457
1727009794268323300,0.2883232421875,0.002500584644079208,-0.25803601915836333,-0.09297332112118602
1727009794278361600,0.298361572265625,0.08216156585812569,0.15729484051465986,0.11471753541752695
1727009794288398600,0.308398681640625,0.10802841304242611,0.3461854272544384,0.25160583998039365
1727009794298436400,0.318436279296875,0.07867723087370396,0.1599772114664316,0.20250687802955508
1727009794308474600,0.328474609375,0.007193126374483108,-0.18941548739671707,0.0737453274294734
1727009794318512400,0.338512451171875,-0.04327566262483597,-0.38567397255599495,-0.003689940559118986
1727009794328550700,0.348550537109375,-0.04870177932679653,-0.4077180465817451,-0.026737054147571323
1727009794338588400,0.35858837890625,-0.0196153855741024,-0.3381558500558138,-0.04615063353925943
1727009794348626400,0.36862646484375,0.01935001263618469,-0.22045067712962627,-0.03461830891668796
1727009794358664400,0.37866455078125,0.043287353062629694,-0.010030980148911475,0.08345087501630187
1727009794368702500,0.388702392578125,0.039383331361413,0.18280571386814115,0.2311545881040394
1727009794378740500,0.398740478515625,0.03040039896070957,0.1963853264093399,0.2594621064387262
1727009794388777500,0.408777587890625,-0.002357376781105995,-0.028199089524149894,0.142077982160449
1727009794398815500,0.4188154296875,-0.04457797739505768,-0.26355624388456345,0.005510726245492696
1727009794408853500,0.428853515625,-0.09812135153412818,-0.3447428272306919,0.012941606898605823
1727009794418891500,0.4388916015625,-0.07052958025336264,-0.200780931019783,0.12763736887574195
1727009794428929800,0.4489296875,-0.02665770530104637,-0.003779518538713455,0.22904358729943633
1727009794438968000,0.458968017578125,-0.0652162762761116,0.08378770575523375,0.24550372371301055
1727009794449005800,0.469005859375,-0.06890344035625458,0.11158990491628647,0.1309570148177445
1727009794459043800,0.4790439453125,-0.10915537124574184,0.037009003445506096,-0.028000644342601296
1727009794469081900,0.489081787109375,-0.08584405376315116,-0.06373860493898391,-0.2069395997799933
1727009794479120000,0.499119873046875,-0.10096446600556373,-0.15240356134176253,-0.34153394818678495
1727009794489156600,0.509156494140625,-0.10358253954946994,-0.15179799666404722,-0.3596437515035271
1727009794499195000,0.51919482421875,-0.05218786787688732,0.0083785367667675,-0.2161506418481469
1727009794509232600,0.529232666015625,0.026052725145220754,0.19655659132301806,0.00934343627616763
1727009794519271000,0.53927099609375,0.02748305020928383,0.2843850969016552,0.19122779751569033
1727009794529308700,0.54930859375,-0.026116438031196593,0.15910919646024704,0.19834332860931753
1727009794539347000,0.559346923828125,-0.12659282825887203,-0.11969371639490127,0.008430266954004765
1727009794549385000,0.569385009765625,-0.15458967320919037,-0.36813890038728714,-0.23064707697331904
1727009794559422700,0.579422607421875,-0.12986498179733752,-0.4692331302523613,-0.3535359361477196
1727009794569461000,0.5894609375,-0.09826222130954265,-0.33852292980253695,-0.3063099284619093
1727009794579497700,0.599497802734375,-0.05578676915168762,-0.05045592951774597,-0.1258899406865239
1727009794589535700,0.60953564453125,0.17298223899006843,0.29940146424770353,0.09050605422481894
1727009794599573800,0.61957373046875,0.20532851132154464,0.46205753953456874,0.32673838398456573
1727009794609611800,0.62961181640625,-0.001477086815237999,0.32115210828483104,0.46278848415762186
1727009794619649800,0.63964990234375,-0.07615969509482383,0.007617489266395569,0.3094743838422
1727009794629687800,0.649687744140625,-0.19362170691490171,-0.45634149997532364,-0.031106793664395806
1727009794639725800,0.659725830078125,-0.172294841247797,-0.6858879222303629,-0.27167788328081366
1727009794649763800,0.669763916015625,0.07995967189967632,-0.6736620623856783,-0.25694807779118417
1727009794659801600,0.679801513671875,0.10559972459077835,-0.2833732895106077,0.02304462937042117
1727009794669840000,0.68983984375,-0.05980418809950351,0.1513461612433195,0.3164027218006551
1727009794679876900,0.699876953125,0.12068915717303752,0.48712534529566764,0.3804856101326644
1727009794689915000,0.709914794921875,0.27970307656526566,0.46857086695134637,0.26552374456524847
1727009794699953000,0.719952880859375,0.37666006049513817,0.25406536196172236,0.131214350579679
1727009794709990700,0.72999072265625,0.18234335705339907,-0.19629998621344566,0.23748861343115565
1727009794720029000,0.74002880859375,-0.45305531791150566,-0.5366115529984236,0.4936383804515004
1727009794730066700,0.750066650390625,-0.5028250187307596,-0.7152642388403415,0.6117097563415765
1727009794740105000,0.76010498046875,-0.5649544349074364,-0.38705928943455215,0.5070714241288602
1727009794750142700,0.770142822265625,-0.010549451065063477,0.06292261238098144,-0.05491597766652703
1727009794760180700,0.7801806640625,0.41433951054811474,0.4584522085189819,-0.7312297236047685
1727009794770218800,0.79021875,0.418945543038845,0.5292173510938882,-1.0337821992293
1727009794780255700,0.800255859375,0.3290612739741802,0.38820086068511006,-0.7194102526038885
1727009794790294000,0.8102939453125,-0.013967150554060935,0.05435702860951423,0.08661094648241996
1727009794800331800,0.820331787109375,-0.12582476649582386,-0.2751291927784681,0.8526235219158231
1727009794810369800,0.830369873046875,-0.2741536257445812,-0.6242302152186632,1.0288255997352302
1727009794820407800,0.84040771484375,-0.14167583110034465,-0.7116366959929465,0.5792641152888536
1727009794830445800,0.85044580078125,0.15509236203432084,-0.48415597409605976,-0.09623904491886497
1727009794840483800,0.86048388671875,0.41734512210488317,-0.1141635547965765,-0.4710173833206296
1727009794850521900,0.87052197265625,0.4471592456102371,0.2364694995164871,-0.28135712738260626
1727009794860560000,0.880559814453125,0.27289222750663755,0.32468086693286896,0.2060331524595618
1727009794870596900,0.890596923828125,0.09153320531547068,0.14661153393685816,0.48891602810472246
1727009794880635000,0.900634765625,-0.01156885724067688,-0.29847850418388844,0.3046083852410316
1727009794890673000,0.9106728515625,-0.00943476782143116,-0.6954635598272085,-0.1677643582113087
1727009794900711000,0.9207109375,0.07480009717941284,-0.8659925604462623,-0.5537186090134084
1727009794910748700,0.930748779296875,0.26940204730331896,-0.6146171682208776,-0.5928478194832801
1727009794920787000,0.940786865234375,0.40866731013059615,-0.15429975035190582,-0.3355516589067876
1727009794930824700,0.95082470703125,0.42693186561763286,0.23304887741804123,-0.036153117268532514
1727009794940863000,0.960863037109375,0.2742716991662979,0.25251404086649415,0.10999006850421428
1727009794950900700,0.970900634765625,0.1588496687412262,-0.028465631505846977,0.021884791810810565
1727009794960939000,0.98093896484375,-0.02951367925405502,-0.36736265531778334,-0.15621332888826728
1727009794970976800,0.990976806640625,0.08314239358901977,-0.5786316626042127,-0.2788935137480497
1727009794981013800,1.001013671875,0.14851239912211894,-0.6312637671172618,-0.27763313842341303
1727009794991052000,1.011052001953125,0.589106879389286,-0.4390793995290994,-0.1588492303498089
1727009795001089800,1.02108984375,-1.126588785481453,0.38086160383820533,0.21419453934431074
1727009795011127800,1.0311279296875,1.432072784513235,-0.5477957948356866,0.2355838027231395
1727009795021165800,1.041165771484375,0.6249041689574718,0.6514169128298759,0.4661408633254468
1727009795031203800,1.051203857421875,-0.37326632640361784,-0.3546031269878149,0.7993368990167975
1727009795041241900,1.061241943359375,0.5913496898800135,0.01448503694832325,0.7441941268570721
1727009795051280000,1.07127978515625,-0.37269115686416626,-0.9294605317503213,0.3164538674660027
1727009795061318000,1.08131787109375,0.06780161659419537,-0.5796019689410925,-0.3822138952299952
1727009795071356000,1.09135595703125,0.007543839508295059,-0.7475432911545038,-0.9705081430621445
1727009795081392600,1.101392578125,0.4652098660856485,-0.20493688165545462,-1.0200799832217395
1727009795091431000,1.111430908203125,0.2824959221541881,0.14057692994773388,-0.5018243172556162
1727009795101469000,1.121468994140625,0.4313631260633468,0.2982587239533663,0.18890958370119332
1727009795111507000,1.1315068359375,0.0031938276052474973,0.2675964591860771,0.7027911262363195
1727009795121545000,1.141544921875,-0.11776304059326648,-0.12328384984135626,0.6753327720768749
1727009795131582700,1.151582763671875,-0.07940612967014313,-0.4345014240890741,0.14019713684991
1727009795141621000,1.16162109375,0.011210545322299002,-0.7361749249219894,-0.4640047280795872
1727009795151658800,1.17165869140625,0.10950725342333316,-0.4484124605417251,-0.7067828262209892
1727009795161697000,1.181697021484375,-0.004989478850364684,-0.04986263979971409,-0.485044301237911
1727009795171734800,1.19173486328125,-0.045884968340396876,0.5030968214094639,-0.05381956073194742
1727009795181771800,1.201771728515625,-0.10114742135703562,0.699390377882123,0.25671616873145103
1727009795191809800,1.211809814453125,-0.03193886057436466,0.6336877793937921,0.3220563636481762
1727009795201847800,1.221847900390625,-0.10390811824202537,0.20952830109894274,0.15017054159268736
1727009795211885800,1.2318857421875,-0.09172492849528789,-0.2801788773834705,-0.08903320519328117
1727009795221923800,1.241923828125,-0.06241816999018192,-0.5348679242014884,-0.1691151882983744
1727009795231961600,1.251961669921875,-0.19496084656417367,-0.5788917748451232,0.057643941325694316
1727009795242000000,1.261999755859375,-0.16255086134672164,-0.32886078296601773,0.37627602961361406
1727009795252038000,1.272037841796875,-0.18321487919092178,0.0007318214058876037,0.5142826706819236
1727009795262076000,1.282075927734375,-0.08449263915419578,0.25010405711531636,0.2939187950529158
1727009795272114000,1.292114013671875,-0.018825696501135827,0.26057927390038965,-0.2147746773198247
1727009795282150700,1.302150634765625,0.011646598652005196,0.09541969135999678,-0.6782723326601088
1727009795292189000,1.31218896484375,0.025479309171438216,-0.03124094143807888,-0.8021355898246169
1727009795302226700,1.322226806640625,-0.07154372573196888,-0.0960468833476305,-0.5393807254508137
1727009795312265000,1.332264892578125,-0.08011047854721545,-0.029423078361153602,-0.05928893205374479
1727009795322302700,1.342302734375,-0.1760199992507696,0.018916297394037246,0.3216366769313812
1727009795332340700,1.3523408203125,-0.18608371262550352,0.021990298011898994,0.3426782959163189
1727009795342378800,1.362378662109375,-0.09439677805304526,-0.05476268680095672,0.04025339219421148
1727009795352416800,1.372416748046875,-0.017018939340114593,-0.17627894244790077,-0.31561332498863337
1727009795362454800,1.382454833984375,0.1830173107922077,-0.25096622690260406,-0.40545404717251654
1727009795372492800,1.392492919921875,0.48326866986751554,-0.18108137429356574,-0.08887859915345907
1727009795382529800,1.40252978515625,0.41644378935098647,-0.15018413172662257,0.5047054256498813
1727009795392567800,1.41256787109375,0.14101415232121944,-0.15870821444392202,0.9309161373861133
1727009795402605800,1.422605712890625,-0.041054479444026945,-0.3662485565960407,0.8581133515037596
1727009795412643800,1.432643798828125,-0.004805354455113411,-0.5934820257335901,0.32412659405097366
1727009795422681900,1.442681884765625,0.19175942017436026,-0.7886375180870294,-0.29276611788645385
1727009795432721000,1.452720947265625,0.2616775905311107,-0.741474200373888,-0.6089613344162702
1727009795442759000,1.462759033203125,0.17878654135465621,-0.42121582605838775,-0.4754178102366626
1727009795452797000,1.472796875,0.018697101685404775,0.03256137638688087,-0.13191972237005828
1727009795462835000,1.4828349609375,-0.06987023956179618,0.3191045281052589,0.06362871482372283
1727009795472873000,1.492873046875,-0.11810966207385062,0.3949450742483139,-0.055395724007487296
1727009795482910000,1.502909912109375,-0.07680851439237595,0.27370295936763284,-0.4191916267544031
1727009795492947700,1.51294775390625,0.023749124377965926,0.008227145597338677,-0.7573907314300536
1727009795502986000,1.522986083984375,-0.008540449330210685,-0.19510230086147784,-0.8165241806611419
1727009795513023700,1.533023681640625,-0.18416648082733153,-0.23097850088477134,-0.5191084834031761
1727009795523061800,1.543061767578125,-0.16505612216591833,-0.09661386958062648,-0.0414342725418508
1727009795533099800,1.553099853515625,-0.28850013100504873,0.09675941553115844,0.3945844242423773
1727009795543137800,1.5631376953125,-0.2444604982703924,0.23738427627384662,0.5364747748762368
1727009795553175800,1.57317578125,-0.05407645810246467,0.20120120225846766,0.3322429727502167
1727009795563213800,1.5832138671875,0.1907727472245693,0.04884089553654194,-0.01267594169974327
1727009795573251800,1.593251953125,0.3020914339840412,-0.1287117201089859,-0.1611531233780086
1727009795583289900,1.603289794921875,0.022912089031934736,-0.3501800498485565,-0.04331555624380708
1727009795593326800,1.613326904296875,-0.14884031590223312,-0.38951720398068423,0.18560864245966074
1727009795603364900,1.62336474609375,-0.2612403681576252,-0.4155132305026054,0.261171686835587
1727009795613403000,1.63340283203125,-0.11147416958212852,-0.2816805141180754,0.0644432460770011
1727009795623441000,1.64344091796875,0.11750760452747344,-0.17349895634055137,-0.26135493444800373
1727009795633479000,1.65347900390625,0.1611152755856514,0.04905307698249817,-0.5063086230628192
1727009795643516700,1.6635166015625,0.14288637593388556,0.16955460262894628,-0.5801370987311005
1727009795653555000,1.673554931640625,0.16235446199178694,0.20311083527207374,-0.4493140855565667
1727009795663592700,1.6835927734375,0.18883564168214798,0.07258300565183162,-0.21546894319429993
1727009795673631000,1.693630859375,0.1025824225962162,-0.1626315253674984,0.042693040431290866
1727009795683668700,1.703668701171875,-0.011971008300781249,-0.4148731790333986,0.20698007792085407
1727009795693705700,1.713705810546875,-0.08693827874064446,-0.5292845711112022,0.23592589415907858
1727009795703744000,1.723743896484375,-0.0011532616883516312,-0.4474374780297279,0.17875585395544766
1727009795713781800,1.73378173828125,0.0707236415207386,-0.20571663385629652,0.09779664962440729
1727009795723820000,1.743820068359375,0.16530045231580734,0.03386310663521289,0.02972673748284578
1727009795733857800,1.75385791015625,0.2623158884346485,0.16537644016146658,0.018240736220031976
1727009795743895800,1.763895751953125,0.27939737161695954,0.14112638052403925,0.1125197331123054
1727009795753933800,1.773933837890625,0.1919587421387434,-0.06049275488555431,0.22635288691073654
1727009795763971800,1.783971923828125,0.16449205854237078,-0.31918168499469757,0.278498523081094
1727009795774009900,1.794009765625,0.028854338562488556,-0.5256266331255436,0.25830621440187096
1727009795784047900,1.8040478515625,0.006555997514724731,-0.583345831644535,0.17091273923963307
1727009795794086000,1.8140859375,0.10837152739167213,-0.4298784404635429,0.08219400682300329
1727009795804123000,1.824122802734375,0.20140286231040955,-0.18871055399775505,-0.013792232378572225
1727009795814161000,1.834160888671875,0.172608144980669,0.08394961831867695,-0.08203326330333947
1727009795824199000,1.844198974609375,0.198071087539196,0.15375965212583542,-0.0892366188108921
1727009795834237000,1.85423681640625,0.11178805783689022,0.061569444206357,-0.07959332280531525
1727009795844274700,1.864274658203125,0.11035013398826121,-0.14929975010752677,-0.07506824659630656
1727009795854313000,1.87431298828125,0.08860650421380996,-0.32985680826604363,-0.08113251507133246
1727009795864350700,1.884350830078125,0.04832943888306617,-0.4431377350091934,-0.06760477884784341
1727009795874389000,1.894388916015625,0.08219780621528625,-0.35746845329105853,-0.046699499593675135
1727009795884426800,1.9044267578125,0.0649590866446495,-0.15717676709294318,0.0024959084689617156
1727009795894465000,1.914465087890625,0.05637362912893295,0.06847147867977618,0.05175853654891252
1727009795904502800,1.924502685546875,0.08558452604413032,0.15724164902269838,0.038529198750108476
1727009795914539800,1.934539794921875,0.1386357327520847,0.08532266023755072,-0.017341595423221588
1727009795924578000,1.944578125,0.14438041388392447,-0.11772796927988528,-0.05549202398881316
1727009795934615800,1.95461572265625,0.12418576711714267,-0.29160277319550515,-0.00912672478556633
1727009795944654000,1.964654052734375,-0.0595914221316576,-0.3622521804362535,0.16899945296421645
1727009795954691800,1.97469189453125,-0.06770341691672802,-0.3212579067468643,0.3496725387178361
1727009795964729900,1.984729736328125,0.009442951127886772,-0.21404197913110254,0.4111661412090063
1727009795974767900,1.994767822265625,0.0028349311649799344,-0.12377134109735488,0.2631771814391017
1727009795984806000,2.004805908203125,0.03589899637699127,-0.048242345121502876,0.016056816309690476
1727009795994844000,2.014843994140625,0.09237140970528125,-0.06096037239730358,-0.21710355865880845
1727009796004882000,2.0248818359375,0.17346856120228765,-0.06068856971859932,-0.3288122676491737
1727009796014919700,2.034919677734375,0.09012684564888476,-0.10805237843990326,-0.2953923747368157
1727009796024957000,2.04495703125,-0.1264759238809347,-0.11165770945549011,-0.17751739820167423
1727009796034995000,2.054994873046875,-0.0779167678952217,-0.17449381259679794,-0.09006590924188494
1727009796045033000,2.065032958984375,0.047751346734166145,-0.13386252700090406,-0.08376856266334652
1727009796055071000,2.075071044921875,0.11155483360290527,-0.1191173778116703,-0.18001929802000521
1727009796065108700,2.085108642578125,0.12856558963656425,-0.056490533506870264,-0.28777327803522346
1727009796075147000,2.09514697265625,0.015279986718297004,-0.031843583506345745,-0.29524273713305593
1727009796085184800,2.105184814453125,-0.18560031302273272,-0.0013315408647060394,-0.19542656437978148
1727009796095223000,2.11522314453125,-0.4748655831813812,-0.04201543343067169,-0.0954191068381071
1727009796105260800,2.1252607421875,-0.3518926989853382,-0.11984978373944759,-0.09845204479321837
1727009796115299000,2.135299072265625,0.05166179817616939,-0.12384089920222759,-0.2240714979752898
1727009796125336800,2.1453369140625,0.048260465300083155,-0.12704466367959977,-0.4227973961614072
1727009796135374800,2.155374755859375,-0.14067045345008372,-0.07846271134018898,-0.5438172465935349
1727009796145412000,2.165412109375,-0.30705051769614217,0.019919921478629112,-0.5156951678283512
1727009796155449900,2.175449951171875,-0.42397243129014967,0.04130582385659218,-0.37119697278365493
1727009796165487900,2.18548779296875,-0.17771452820897102,0.013835048606991767,-0.2540704765282571
1727009796175526000,2.19552587890625,0.045669864284992215,-0.09460077619254588,-0.26305823123455047
1727009796185564000,2.20556396484375,0.14137187971770762,-0.233463303437829,-0.3173518392190337
1727009796195602000,2.215601806640625,0.006840075153112411,-0.3344400444030762,-0.3407045116253197
1727009796205640000,2.225639892578125,-0.36038112586736676,-0.28239947604238985,-0.33012977998852727
1727009796215678000,2.235677978515625,-0.3026157501190901,-0.15795301216244698,-0.36141017665416
1727009796225716000,2.245716064453125,0.25016075573861596,-0.046163200759887696,-0.4573766882419586
1727009796235753700,2.255753662109375,0.4327852678209543,-0.016506898164749144,-0.4981223939977586
1727009796245792000,2.2657919921875,0.2971510549724102,-0.070706105864048,-0.43329964708387847
1727009796255828700,2.275828857421875,-0.05009235690236091,-0.14391864159107207,-0.2840105645008385
1727009796265866800,2.28586669921875,-0.05926058274209499,-0.26771160999834537,-0.1946631787918508
1727009796275904800,2.29590478515625,-0.21243395941257476,-0.41258009966015813,-0.15656506493538616
1727009796285942800,2.30594287109375,-0.40182606593370435,-0.5201525856286286,-0.1807813684336841
1727009796295981000,2.31598095703125,-0.6644914984583854,-0.5469587594896554,-0.20718582962602375
1727009796306018800,2.326018798828125,-0.20464345166683195,-0.31888065622150896,-0.2231296870805323
1727009796316057000,2.33605712890625,0.24577450347840785,0.08964227700233458,-0.2652124866589904
1727009796326094800,2.3460947265625,0.6772299840003252,0.3098959702551365,-0.3798679166257381
1727009796336132900,2.3561328125,1.2554916442483663,0.40466801136136055,-0.4226360681198537
1727009796346171000,2.3661708984375,0.8230559205174446,0.23477672412395476,-0.3251611977957189
1727009796356209000,2.376208984375,0.5131950215756893,-0.2560194186389446,-0.23300854540765284
1727009796366247000,2.386246826171875,0.1348544606477022,-0.6335626917093992,-0.20111761562824249
1727009796376284000,2.396283935546875,0.023615853387117386,-0.8277882097363471,-0.279316415335238
1727009796386321700,2.40632177734375,0.45117608003616333,-0.6524924331068992,-0.46523090887367724
1727009796396360000,2.41635986328125,1.0889829851865769,-0.4900263274341821,-0.6416979212395847
1727009796406397700,2.426397705078125,1.198777238857746,-0.15816402456462383,-0.6217391290552914
1727009796416436000,2.43643603515625,1.1455436613202095,-0.051067923936247824,-0.33890915264114735
1727009796426473700,2.4464736328125,0.6224427472800016,-0.16897651048004625,0.09586407412663102
1727009796436511000,2.456510986328125,0.7494348039895296,-0.49266895089745516,0.44168081419914956
1727009796446549200,2.46654931640625,0.1711959400951862,-0.899182882386446,0.551834841093421
1727009796456587000,2.4765869140625,0.29877485678195953,-1.246236324647069,0.30245179172903297
1727009796466625000,2.486625,0.953406055483222,-1.0859300273567438,-0.10518515244051814
1727009796476663000,2.4966630859375,0.7745353429764509,-0.8571130884200334,-0.3763451493270695
1727009796486700000,2.506699951171875,1.4643196881234646,-0.40074470043778415,-0.4644996719896793
1727009796496738300,2.51673828125,1.5370096612811088,-0.13723989447951315,-0.31756957362294197
1727009796506776000,2.526776123046875,1.2078607090234756,-0.25823358755707737,-0.024752163940668103
1727009796516814000,2.53681396484375,0.6733370682150125,-0.5579553698003292,0.14412497781813144
1727009796526852000,2.54685205078125,1.1841133382111788,-1.124624791932106,0.03676715751364827
1727009796536890000,2.55689013671875,1.4898124412983655,-1.1727706909418105,-0.18757599700987337
1727009796546928000,2.56692822265625,0.8512854051798582,-1.2173340552896261,-0.40178091161772606
1727009796556966100,2.576966064453125,1.2519336595058441,-0.8396136720865964,-0.5701433818526566
1727009796567004000,2.58700390625,1.317815121692419,-0.7532856341987848,-0.6437098455838859
1727009796577042200,2.597042236328125,1.1403741497278213,-0.4481453340381384,-0.5699748934179544
1727009796587080000,2.607079833984375,1.2064888361483812,-0.42542204557657237,-0.40765418756529687
1727009796597118200,2.6171181640625,1.7286434092491865,-0.6275099675416946,-0.19693316955044865
1727009796607155200,2.6271552734375,0.7838239803254604,-0.6674509327858686,0.061322045316547155
1727009796617193000,2.63719287109375,0.4780851297497749,-1.0293687667012215,0.10099924505800008
1727009796627231200,2.647231201171875,1.5921072791248558,-1.1334709462106227,-0.10765972586050629
1727009796637269000,2.65726904296875,1.3089596150636673,-1.3798054216593503,-0.21289251683503388
1727009796647307300,2.667307373046875,1.428777250099182,-1.144188739579916,-0.2056340701393783
1727009796657345000,2.677344970703125,0.9882751242905855,-1.3148755611091851,-0.07684913866370915
1727009796667383300,2.68738330078125,1.3079513148039579,-0.9734645086497068,0.04540975204408169
1727009796677421000,2.697421142578125,0.9474468548178672,-0.9565174655020237,0.01458805893138051
1727009796687459000,2.707458984375,1.5273884309768675,-0.9627063832700252,-0.2317749119594693
1727009796697497000,2.7174970703125,1.6524404595345257,-0.9172960467040538,-0.44271030337736006
1727009796707535000,2.72753515625,1.0744009176045655,-1.151335104203224,-0.3991135921046138
1727009796717573000,2.737572998046875,1.0672101293176413,-0.8967641308069229,-0.1091591706380248
1727009796727611100,2.747611083984375,0.5227402640342712,-0.9622738370716571,0.30563290598317977
1727009796737648000,2.757648193359375,1.025029860714078,-0.5856301431894302,0.49361587635874743
1727009796747686100,2.76768603515625,1.2390285852253435,-0.4761164600253105,0.47722485965862865
1727009796757724200,2.77772412109375,0.9411860408574342,-0.506819056802988,0.6569954436145723
1727009796767762200,2.78776220703125,0.32281156592965127,-0.2404126841843128,1.3482662279270587
1727009796777800200,2.79780029296875,0.24134499659836292,-0.19752105244100093,2.252540295972675
1727009796787838000,2.807837890625,0.7137386367082595,0.2654261294096708,2.86790375251621
1727009796797876200,2.817876220703125,1.0215911184370516,0.10607494088709354,2.826244585177302
1727009796807914000,2.8279140625,-0.10588614031672478,-0.029802433067560193,2.090080035518855
1727009796817952300,2.8379521484375,0.6785702926933765,-0.8408850071966648,1.1816643376238642
1727009796827990000,2.847989990234375,-0.23946985037624835,-0.6929530383110046,1.0914097739420832
1727009796838028300,2.8580283203125,-1.7026655029058455,-0.06295008490979671,1.9338044550493358
1727009796848066000,2.868066162109375,-0.6092407358795404,0.9298767113357782,2.6460019997954367
1727009796858104000,2.87810400390625,-2.552345226454735,2.2551012325018642,2.158242155988514
1727009796868141000,2.88814111328125,-1.8507172987788914,1.7544903826892375,0.5924655421674251
1727009796878179000,2.898178955078125,-3.127697136735916,1.7941595452547072,-0.7169742576286197
1727009796888217000,2.908217041015625,-1.1167553737312554,1.9824282007038592,-1.1316542521774768
1727009796898255000,2.918255126953125,0.08183189551234245,1.9813257924199104,-0.9480357606217265
1727009796908293000,2.928293212890625,-3.861088568419218,1.2042226447820663,-0.5681663826912641
1727009796918331100,2.9383310546875,-2.891497686332464,0.6893909619152545,-0.5252057773649692
1727009796928369200,2.948369140625,-1.344922908848524,0.7953320472896098,-0.6117705466181039
1727009796938407200,2.9584072265625,-4.075585890102386,0.774626528391242,-0.4103168309032917
1727009796948445200,2.968445068359375,-3.75461089195013,1.3525029887139797,-0.4499859934687614
1727009796958483000,2.97848291015625,-0.42477147271335125,2.6435370709866284,-0.6383765217319131
1727009796968521200,2.988521240234375,1.2911410497784614,2.525140408664942,-1.1177338633745908
1727009796978559000,2.99855908203125,1.3772949001431465,1.955324505200982,-1.8096143040180206
1727009796988596000,3.008595947265625,0.02925064440369606,1.238149464303255,-2.175739526495337
1727009796998634000,3.018634033203125,-3.2805858512461183,-0.7438157950639724,-1.3891840753793716
1727009797008672000,3.028672119140625,-2.9105069227069613,-1.7583862210839987,0.3754936470642686
1727009797018710000,3.0387099609375,0.7417828279316425,-1.6455997998595238,2.239545351451635
1727009797028748000,3.048748046875,-1.2445301052510738,-0.8268120581805706,2.511263859003782
1727009797038786000,3.0587861328125,-1.399122116547823,-0.749193396449089,0.33477760579437016
1727009797048824000,3.068823974609375,2.6770979798048735,0.13788403760194778,-2.286044360037148
1727009797058862000,3.078862060546875,2.9133681573569774,0.6541279253542422,-3.5231671116411682
1727009797068900000,3.088900146484375,0.7780290303111076,0.12419219685792922,-3.0616566845953463
1727009797078938000,3.098938232421875,0.41298692689537997,-1.4881465539127587,-1.0106105824783445
1727009797088976100,3.10897607421875,-0.15990648431777954,-1.204152502155304,1.5922309055045245
1727009797099014100,3.11901416015625,-1.1755927626252174,-3.1272458858370777,3.36543124936074
1727009797109052200,3.12905224609375,1.4647078106582163,-3.5632594680547713,2.6753213255211707
1727009797119089200,3.139089111328125,2.7780653684198855,-3.430557801526785,0.5576873665139078
1727009797129127000,3.149126953125,0.8934206655979156,-2.8591280331254003,-1.0651713169664143
1727009797139165200,3.159165283203125,2.0426006375938655,-2.58418939448297,-1.6963281165778636
1727009797149203000,3.169202880859375,2.071620395851135,-1.5054127460122109,-0.9603189036116003
1727009797159241000,3.179240966796875,1.7066589564561843,-1.42460317928493,0.7619494176477193
1727009797169279000,3.189279052734375,0.8065595437467098,-1.7979688744097948,2.3092679992362855
1727009797179317000,3.19931689453125,1.2966045758813618,-3.0104116505265233,2.994735357967019
1727009797189355000,3.20935498046875,1.7836890046447516,-2.6378695467442275,2.786441859360039
1727009797199393000,3.21939306640625,0.5987742869228124,-3.1766321402966975,2.041526870882511
1727009797209431300,3.229431396484375,1.2200929986089468,-2.2941543089956045,1.3359431913182138
1727009797219469000,3.239468994140625,0.404135511919856,-1.703966648632288,1.362619893580675
1727009797229507000,3.249507080078125,0.3906453312277794,-0.25290742409825323,1.9031763848125933
1727009797239545000,3.259545166015625,-0.6160784729450941,0.6789081463456154,2.130200595113635
1727009797249582000,3.26958203125,-0.19978665928542613,1.1543798787266015,1.5456009640157222
1727009797259620000,3.2796201171875,-0.002117138284444809,1.4404133273571729,0.6492652877539395
1727009797269658000,3.289658203125,-0.8661620717942714,1.3813812926739453,-0.03674889120459556
1727009797279696000,3.29969580078125,-0.4392039026916027,1.2265724237561224,-0.3486880577251315
1727009797289734100,3.309734130859375,3.2967209934890267,1.3584598512917756,-0.14088877237588165
1727009797299772000,3.31977197265625,5.5820238875091075,0.8920371022850274,0.9197907861292361
1727009797309810200,3.32981005859375,-3.9597611240953206,-2.2882757723510263,2.3682006651982666
1727009797319848000,3.339847900390625,-5.769734909075498,-3.5466976248323916,2.210437038128078
1727009797329886000,3.349885986328125,-3.7541456125259396,-2.238157696485519,0.5731327729269862
1727009797339924200,3.35992431640625,-0.46272506353259085,-1.8874521614581345,-1.0244301412552594
1727009797349962000,3.3699619140625,-2.7494004149496556,0.9123287796854972,-2.066151901312172
1727009797360000300,3.380000244140625,-2.894201684594154,1.2907359761089086,-3.2049054641008374
1727009797370038000,3.3900380859375,9.304904008677601,4.86203262014687,-3.6321824898943302
1727009797380075000,3.400074951171875,10.636993739438056,3.7666134644329547,-4.040335420762002
1727009797390113000,3.410113037109375,-2.985100683659315,-1.1861597493469715,-4.50119206007421
1727009797400151000,3.420151123046875,-1.656272585043311,-5.78148087644875,-6.561863776409625
1727009797410189000,3.43018896484375,-0.11907879936695098,-7.090555057802796,-6.066711776524782
1727009797420227000,3.44022705078125,5.929780509603023,-8.783527434211969,-0.8568456696555018
1727009797430265000,3.45026513671875,2.6036113033115864,-4.704678742921352,7.957873898416757
1727009797440303600,3.4603037109375,-3.238530085805058,-3.085866996744275,13.58994455012083
1727009797450341400,3.47034130859375,-3.2354870648473497,0.2666168004989624,12.861590528082846
1727009797460379400,3.48037939453125,0.5259107107639313,5.204715592238307,5.0733016274333
1727009797470417400,3.49041748046875,6.43557548405528,2.865262590357661,-6.648911945265531
1727009797480455400,3.500455322265625,5.976421849268674,0.8637783915281295,-18.047078272759915
1727009797490493400,3.510493408203125,3.5027415787279605,-3.5114322501838204,-20.027620805847643
1727009797500531500,3.520531494140625,2.3727134664475917,-3.270581174582243,-11.23365614877343
1727009797510568400,3.530568359375,1.297424660092592,-0.8816261829078197,1.1874952357344328
1727009797520606500,3.5406064453125,-0.5070265620738268,0.6472726526319981,11.01809850438237
1727009797530644500,3.55064453125,-2.5624761598467827,-1.0361632491469384,13.484360023099184
1727009797540682500,3.5606826171875,-1.114810669404268,-0.3593471066445112,8.919151125666499
1727009797550720500,3.570720458984375,2.2336592160224913,-0.7349573658257722,-0.46657910861223933
1727009797560758300,3.58075830078125,3.760342713600397,-0.2907195606201887,-9.203110106110572
1727009797570796500,3.590796630859375,3.0047996558636427,-0.571148613372445,-13.131661852949858
1727009797580834300,3.600834228515625,-0.40524785707592964,2.1480939792007208,-11.217836648350954
1727009797590872600,3.61087255859375,0.06468319231271744,2.8420833748221397,-5.711676103338599
1727009797600910300,3.620910400390625,-0.3531242866069078,3.588639408504963,-0.5150874477261677
1727009797610948600,3.630948486328125,-3.249275351703167,3.3370816454499956,2.7110560712471603
1727009797620986400,3.640986328125,-2.0455793611437083,1.279243106713891,2.953806550729275
1727009797631024400,3.6510244140625,-1.4743752181917429,0.48571255588829515,0.7660343488737941
1727009797641061600,3.6610615234375,-0.6181137781649828,1.045171900510788,-2.0524097916856405
1727009797651099400,3.671099365234375,0.10776771627962589,1.8825678965479133,-3.118002841195464
1727009797661137400,3.681137451171875,-1.2568617635577917,2.9101071097344158,-2.071310453119129
1727009797671175400,3.691175537109375,-2.4460288780272004,4.215669483575224,-0.4223533056557178
1727009797681213400,3.70121337890625,-2.2702052781313657,4.952508425363898,1.4326647590570152
1727009797691251500,3.71125146484375,-2.8926433492362498,3.74312269873023,2.7401512328282
1727009797701289500,3.72128955078125,-2.379101706179976,3.2726533046811817,3.656187634859979
1727009797711327500,3.731327392578125,-0.7074719775289297,2.954363600090146,4.409040722860396
1727009797721365500,3.741365478515625,-1.8887591524034737,0.8255302016764878,4.215619799214601
1727009797731403300,3.7514033203125,-2.6555975111365315,-0.06482289304435253,3.6016689859479665
1727009797741441500,3.761441650390625,-2.4578432344615457,0.21176351280510425,2.4796719121709465
1727009797751479300,3.771479248046875,-1.3389853354930876,0.030716040781140326,1.1692718159753828
1727009797761517600,3.781517578125,0.9073954149365424,2.3220038544297217,1.0175291296951472
1727009797771554600,3.791554443359375,3.040024698501825,2.831642060306668,1.7935604103177785
1727009797781592300,3.80159228515625,1.2697680068820714,2.517392571017146,2.310304064285755
1727009797791630600,3.811630615234375,-1.9574071566939353,1.6973644738882778,1.68356888050884
1727009797801668400,3.82166845703125,-1.2962597079664469,0.17698270680308342,-0.9060752722486853
1727009797811706600,3.83170654296875,-0.49667409488558767,-1.3496440921515225,-4.407738700351119
1727009797821744400,3.841744384765625,0.47313481386601924,-2.0292992574721573,-6.082428401094675
1727009797831782400,3.851782470703125,1.2682231155276298,-1.1150830566048622,-4.964010062587261
1727009797841820400,3.8618203125,0.9281839359432459,-0.6112555828332901,-2.1736476687826216
1727009797851858400,3.8718583984375,0.6659107176065444,1.3281202426075935,0.038618776729702944
1727009797861896400,3.881896484375,1.8585913931548594,-0.19398060335516928,0.9653555826045572
1727009797871934500,3.8919345703125,2.7762095114201304,-1.6227385642319916,0.9037405456908046
1727009797881972500,3.901972412109375,1.8152981948733329,-3.521983454814553,0.5232872303925454
1727009797892010500,3.912010498046875,1.2004472178965806,-5.306238861170411,0.6359083780527115
1727009797902047500,3.922047607421875,1.0371844088882207,-3.891574892097711,1.1524911423705517
1727009797912085500,3.93208544921875,2.1444781267911193,-3.434990231016278,1.2776236888185142
1727009797922123500,3.94212353515625,2.5530729562073944,-2.2024422399818895,0.9682974812753498
1727009797932161500,3.95216162109375,2.996918547224998,-1.6643968547880648,0.5792132618844509
1727009797942199600,3.962199462890625,2.6235510985344646,-1.627336997938156,0.3268611335813999
1727009797952237300,3.9722373046875,1.186761222371459,-2.172747358942032,0.24403467407375573
1727009797962275600,3.982275634765625,1.6885680039703845,-3.164963914334774,0.17068112244084477
1727009797972313300,3.992313232421875,0.7190817513018846,-3.7166777593970295,0.3115731096871197
1727009797982351600,4.0023515625,1.00221714040339,-3.5165550000250336,0.2908515164367854
1727009797992389400,4.012389404296875,0.6880114902555942,-3.0958161438286305,-0.4308599988467991
1727009798002427400,4.022427490234375,1.3423971897631883,-1.8780828600883483,-2.1653248077258467
1727009798012465400,4.03246533203125,1.1711480581760405,-1.0100602551192044,-4.263601447573304
1727009798022503400,4.04250341796875,2.490502810525894,-0.7302975573211908,-5.7489674308568235
1727009798032540700,4.052540771484375,1.3869915337711571,-0.37848201522529124,-6.042426061052083
1727009798042578400,4.062578369140625,1.5205179606854915,-0.41125966471135617,-5.220975237643718
1727009798052616400,4.072616455078125,2.0959131255865096,-0.4524959304630756,-3.9037586663663384
1727009798062654500,4.082654541015625,0.9860726458102465,-1.4608277543544768,-2.6055896176472304
1727009798072692500,4.0926923828125,0.8469540979772806,-2.104890797290206,-1.9774783232115207
1727009798082730500,4.10273046875,0.6164975751399994,-2.8147610681325195,-1.9386822902187704
1727009798092768500,4.1127685546875,1.5163848064035177,-1.6358575735241174,-2.111670082166791
1727009798102806500,4.122806640625,1.1925170094192028,-0.8170207320064306,-2.2798495970502493
1727009798112844500,4.132844482421875,1.750199992018938,0.11284428889155387,-2.316855677886307
1727009798122882300,4.14288232421875,1.5567793606340885,1.1640952170550822,-2.1447540211230516
1727009798132920600,4.152920654296875,1.8068255500823258,0.536791585740447,-1.8223852305248378
1727009798142958300,4.162958251953125,1.2454887211501597,0.11405308015942572,-1.4869234418585895
1727009798152996600,4.17299658203125,1.280413904058933,-0.8906096998304128,-1.5560922551527618
1727009798163033600,4.18303369140625,0.39339901385009285,-2.0090788917422295,-1.9351878722317515
1727009798173071400,4.1930712890625,0.4925543846070766,-1.6448510273188353,-2.276891185636073
1727009798183109600,4.203109619140625,1.2178572023808956,-1.155673425668478,-2.0936863894477487
1727009798193147400,4.2131474609375,1.7383955724567175,0.699949765330553,-1.4175973921760916
1727009798203185700,4.223185546875,1.7766612979650496,1.4972317776441573,-0.9109349872395396
1727009798213223400,4.233223388671875,1.9922668731510638,1.3415876269459723,-0.9590640081796794
1727009798223261400,4.243261474609375,1.3174369360297917,0.6197597918063402,-1.4227537520259619
1727009798233299500,4.253299560546875,0.416185430675745,-0.5011205529004336,-2.1244548910684884
1727009798243337500,4.26333740234375,-1.153312541756034,-1.017847840255499,-2.8196602383509277
1727009798253375500,4.27337548828125,0.05381459229588508,-1.0909206752508878,-3.310792773461342
1727009798263413500,4.28341357421875,1.5946224768161772,0.3355412836432457,-3.136108698989451
1727009798273451500,4.293451416015625,-0.6350508844405413,0.9610732291102408,-2.1138898040428757
1727009798283489500,4.303489501953125,-0.5498235012710094,2.4829630626708266,-0.6575640372827649
1727009798293527300,4.31352734375,-0.9022989685803652,2.9415742611438036,0.5109845424519851
1727009798303564500,4.323564453125,-0.22090134350657462,2.7243518984109163,1.2488593666270376
1727009798313602600,4.3336025390625,-0.9622948798596859,1.8237620718359946,1.4564721894934773
1727009798323640300,4.343640380859375,-3.119320938056707,0.3499719600558281,0.9735877697031945
1727009798333678600,4.3536787109375,-2.102484905192256,-0.3325982159286737,-0.09165515119470656
1727009798343716400,4.36371630859375,-1.4951350976258515,-0.8184528106361627,-1.2238616304274648
1727009798353754600,4.373754638671875,-1.3731857112586499,-0.0552168603092432,-1.2449433622270822
1727009798363792400,4.38379248046875,-0.2656201906770468,1.5983797835230826,-0.17016791222169994
1727009798373830700,4.39383056640625,-1.327227677682042,2.454966802242398,1.045843589227274
1727009798383868400,4.403868408203125,-3.074074267619848,2.9785668979763984,1.8770020791143178
1727009798393906400,4.413906494140625,-1.5681085638999939,3.6097587689012287,1.9153588439069686
1727009798403944400,4.4239443359375,-1.843720571759343,2.6428292149782178,1.0660058680944144
1727009798413982500,4.433982421875,-2.5338275729894635,0.9142343210458755,-0.22721593348085878
1727009798424020500,4.4440205078125,-0.2450011810183525,0.1260568216860294,-1.0671791496574878
1727009798434061600,4.4540615234375,-0.8490186292916536,-1.078171083793044,-1.2672436029709875
1727009798444098600,4.4640986328125,-1.3188736908346415,-0.5562427206635475,-0.69840509317182
1727009798454136600,4.474136474609375,-1.5971657315582035,-0.031867548903822894,-0.20213534130342303
1727009798464174600,4.484174560546875,-0.414708343860507,1.2995289388954638,-0.31598595769330856
1727009798474212600,4.494212646484375,-0.23704233096837996,1.77889884775877,-1.1208424969144164
1727009798484250600,4.504250732421875,-0.24708675512075423,1.4105682241916655,-1.9402173908315599
1727009798494288600,4.51428857421875,-0.04841361003518104,1.2983037810146807,-2.2460385128632185
1727009798504326700,4.52432666015625,0.31312954534888265,0.5370867692947388,-1.9511806833945213
1727009798514364400,4.534364501953125,-0.08948620965778827,-0.8900415445536375,-1.6454212284222245
1727009798524402700,4.544402587890625,-0.12552899841964243,-0.7381354113399982,-1.4648328983426093
1727009798534440400,4.5544404296875,-0.4059674035221338,-0.7991314395725727,-1.592666666573286
1727009798544478700,4.564478759765625,0.3134492788225412,-0.2123930428802967,-1.6424354906097054
1727009798554516500,4.5745166015625,0.21663433371186255,-0.09363631507456302,-1.1754005279887467
1727009798564554800,4.5845546875,0.2736059287339449,0.35037761824727054,0.030092611653171477
1727009798574591700,4.594591796875,-0.38601767142713067,0.3090063279390335,1.640040266036242
1727009798584629500,4.60462939453125,-0.016102993538975714,0.43877720171213147,2.945993246629834
1727009798594667800,4.614667724609375,0.31494565486013887,-0.07135667872726917,3.282002147784829
1727009798604705500,4.62470556640625,0.0634299773812294,-0.7584265042185783,2.4879466963022945
1727009798614743600,4.63474365234375,-0.4158008152723312,-1.424430160805583,1.1841636070936918
1727009798624781600,4.644781494140625,-0.006937690308690071,-1.221293606570363,0.061661689067073165
1727009798634819600,4.654819580078125,0.634487989860773,-0.4911807581663131,-0.3354989423388615
1727009798644857600,4.664857666015625,0.6044663610845804,0.23607085558772087,-0.12361944760442711
1727009798654895600,4.6748955078125,0.47409927498400206,0.4963064306169748,-0.07060478264773264
1727009798664933600,4.68493359375,0.42455695317983627,-0.11685352453291416,-0.7782347820162773
1727009798674971600,4.6949716796875,-0.14334873274862767,-0.8469640348494052,-2.051280057003349
1727009798685009400,4.705009521484375,0.24884675053060054,-1.9997762258678673,-3.1743013592615723
1727009798695047700,4.715047607421875,0.19996143133044242,-2.0950246523141858,-3.248276988315582
1727009798705084700,4.725084716796875,0.4487678498506546,-1.7503654117137193,-2.051817524880916
1727009798715122400,4.735122314453125,0.650752895963192,-0.1465706174045801,-0.24427609988050533
1727009798725160700,4.74516064453125,0.5549526808530092,0.5420207185655832,0.7816469285473227
1727009798735198500,4.755198486328125,0.94841131593585,0.594681464651227,0.4210771482400596
1727009798745236700,4.76523681640625,1.535827173498273,-0.16281331167519092,-0.9119790894649922
1727009798755274500,4.7752744140625,1.147549155923724,-1.5102794752657414,-2.119247677814215
1727009798765312800,4.785312744140625,0.6149678813546896,-2.2948721018761393,-2.1826384922288358
1727009798775350500,4.7953505859375,0.7262544194102287,-1.9593588752835989,-0.8855735322941094
1727009798785388500,4.805388427734375,0.7981476892322301,-1.038998764833808,1.0229336190871894
1727009798795426600,4.815426513671875,0.33107144475281236,-0.2964922988027334,2.2966002408429977
1727009798805464600,4.825464599609375,0.5265548538863659,-0.013458616510033607,2.1599521747767922
1727009798815502600,4.835502685546875,0.0977414123058319,-0.10753273847997188,0.6165795543350279
1727009798825540600,4.84554052734375,0.5235995112121105,-0.6591857932657003,-1.6353019854679702
1727009798835578600,4.85557861328125,0.42194297128915786,-1.190127483934164,-3.3744770178645846
1727009798845615600,4.86561572265625,0.7993149794459342,-1.2710989632248877,-3.7063662087410685
1727009798855653600,4.875653564453125,0.4422907627910375,-0.566939471244812,-2.6191318207874894
1727009798865691600,4.885691650390625,0.04169628447890281,0.16583645888864992,-1.3198125791199504
1727009798875729700,4.895729736328125,0.3427589599370956,1.0258920305013657,-0.8092815160565078
1727009798885767400,4.905767333984375,0.41785716328024863,0.520405683606863,-1.3557410938523708
1727009798895805700,4.9158056640625,1.1314870789170264,0.1663601905018091,-2.1861577523961664
1727009798905843500,4.925843505859375,1.6868430798739193,-0.8995470395237207,-2.402261632493138
1727009798915881700,4.9358818359375,0.8861983131289481,-0.9321534240961075,-1.6132726706199347
1727009798925919500,4.94591943359375,0.6322440103262662,-1.0045236637800932,-0.09683394207209348
1727009798935957800,4.955957763671875,0.5468973846912384,-0.6936854442387819,1.3007777699127792
1727009798945995500,4.96599560546875,0.39914135689437386,-0.8253747188538313,1.9216075290381907
1727009798956033500,4.976033447265625,-0.35725685636699195,-0.7087316222012042,1.2808429431259631
1727009798966071600,4.986071533203125,0.6208972714036702,-0.03933656961023807,-0.3647839639361948
1727009798976109600,4.996109619140625,1.2546803278654812,-0.33850539414584635,-2.4648534054845572
1727009798986146800,5.006146728515625,1.7850544477790593,-0.35906244448423386,-3.914729557713866
1727009798996184600,5.0161845703125,0.6224871709436178,-0.6598258447349071,-3.9358717144638296
1727009799006222600,5.02622265625,-0.05977671557068824,-0.31914661368131636,-2.873204489272833
1727009799016260600,5.036260498046875,-0.15221242268383503,-0.3172702984154224,-1.4194219772547483
1727009799026298600,5.046298583984375,-0.2273246545523405,-0.08957154985368251,-0.45205468950159844
1727009799036336600,5.056336669921875,-0.06471534101665019,0.0316103592723608,0.026265125786885616
1727009799046374700,5.066374755859375,-0.7673919009625911,0.48401218171119686,0.24540946955829857
1727009799056412400,5.076412353515625,-1.7473592156350612,0.5483481680214405,0.15302147404439748
1727009799066450700,5.08645068359375,-1.8399603424429893,0.5530921476781367,-0.41832127366065974
1727009799076488400,5.096488525390625,-0.6704857704371213,0.7908598703116178,-1.3949388395138085
1727009799086526700,5.106526611328125,0.6794178494334221,0.33703298350572586,-2.5217633334472773
1727009799096564500,5.116564453125,0.028175124126672745,-0.21441724218428135,-3.114582803618908
1727009799106602800,5.126602783203125,-0.20707214011847971,-0.584198064559698,-2.8341087426811455
1727009799116640500,5.136640625,0.2376332825988531,-0.62321022452116,-1.5541887596189974
1727009799126677500,5.146677490234375,1.7194845357596873,-0.7618523870140314,0.2100276289232075
1727009799136715800,5.1567158203125,1.4864385809510945,-0.4476958367049694,1.6548275008015334
1727009799146753500,5.16675341796875,0.685011139395833,-0.8527741824328899,1.9193487903259694
1727009799156791800,5.176791748046875,1.7594845377147197,-0.5966846211671829,1.2316525034993886
1727009799166829600,5.18682958984375,0.754249510794878,-1.4068775529801845,0.1899720253009349
1727009799176867600,5.19686767578125,1.6392337719589472,-1.154804241618514,-0.2702488003257662
1727009799186905600,5.206905517578125,1.679519605118036,-0.7357470548987388,-0.10420702812336384
1727009799196943600,5.216943603515625,1.7645751388520001,-0.4703869764626026,0.29557058084793386
1727009799206981600,5.226981689453125,0.5983388181149959,-0.2840922514349222,0.4307080231554806
1727009799217019600,5.23701953125,0.502660183557868,-0.7393284205168486,-0.034739085752144454
1727009799227057700,5.2470576171875,-0.4068997159361839,-0.5859130517840385,-0.7328988989260047
1727009799237095700,5.257095703125,0.19971125596165656,-0.7036527115017175,-1.5635139295861125
1727009799247133400,5.267133544921875,0.9501052603721618,-0.467249262958765,-2.2091697946712374
1727009799257170700,5.277170654296875,-0.649122664412856,-0.1678682569772005,-2.526836398927867
1727009799267208700,5.287208740234375,0.7216109775185584,0.03029927667379379,-2.5550828347250816
1727009799277246500,5.29724658203125,-0.6696949123203754,0.2944745292395353,-2.2419626417264342
1727009799287284700,5.30728466796875,-0.6758569420814514,-0.2348708321481943,-1.8401659480176864
1727009799297322500,5.317322509765625,-1.3488999957859515,-0.5233312156647444,-1.1683136384677142
1727009799307360800,5.32736083984375,-1.0214671997964382,-0.9449678974837065,-0.4685069348696619
1727009799317398500,5.3373984375,-0.8859890542924403,-0.4877086981415748,0.1626578288525343
1727009799327436800,5.347436767578125,-0.8537468268573284,-0.007523381242156029,0.3236516700156033
1727009799337474600,5.357474609375,0.32575989434123037,0.6376321331053972,0.14065043357536197
1727009799347512600,5.3675126953125,-0.47958618196249003,1.003942064499855,0.002384118657559156
1727009799357550600,5.377550537109375,-0.23264088113903997,0.383532868874073,0.06845766935013234
1727009799367588600,5.387588623046875,-0.3426438091248274,0.48385143819153303,0.2694852686073631
1727009799377626600,5.397626708984375,-0.2882107926696539,-0.8254360936522483,-0.03971497446857392
1727009799387664600,5.40766455078125,0.15324410381913184,-0.729952104884386,-0.49649442746974526
1727009799397701400,5.417701416015625,0.6555564968526363,-0.9601023382514715,-0.8299902498252689
1727009799407739600,5.42773974609375,0.7336427760958671,0.309568637996912,-0.8731368061777204
1727009799417777700,5.437777587890625,-0.6118143857598305,0.569690231257677,-0.9727331256352364
1727009799427815700,5.447815673828125,-0.1610579924404621,1.1095371129155158,-1.1467206692103296
1727009799437850400,5.457850341796875,-0.7271522450327873,0.8502905489236116,-1.1618625626321881
1727009799447888400,5.467888427734375,-0.32611060747504234,0.5890192011058331,-0.7350319654319435
1727009799457926400,5.477926513671875,0.09014496582746505,0.3633119186222553,0.17334340045265853
1727009799467964400,5.48796435546875,0.07974398332238197,-0.06678805563747882,1.0545007968049496
1727009799478002400,5.49800244140625,1.1214940926909447,0.4064788601756096,1.5536695580504833
1727009799488040400,5.50804052734375,0.3353992448240518,0.40777006902992724,1.39254872950688
1727009799498078500,5.518078369140625,-0.1413198572695255,0.26556056944429873,0.6853165520831942
1727009799508116500,5.528116455078125,-0.8571142574638128,0.5486147100031376,-0.07837426587175578
1727009799518154500,5.538154541015625,-1.6196341684758662,0.10697685816287994,-0.5075901507733389
1727009799528192500,5.548192626953125,-0.7825684273064136,0.6854454391598701,-0.2713953400123864
1727009799538229500,5.5582294921875,-0.7936825265169143,0.47176469455659387,0.35605792890600857
1727009799548267300,5.568267333984375,0.0071568860173225396,1.0440466958731411,1.0682783430710434
1727009799558305500,5.578305419921875,0.6304688173472881,1.309933428531885,1.3258219025373459
1727009799568343300,5.58834326171875,0.6597212153166532,1.0967775845855474,0.9713177058793604
1727009799578381600,5.598381591796875,-0.7513304084777832,0.5753723685473203,0.129295730542019
1727009799588419300,5.60841943359375,-2.3155817124277354,-0.20279110179841517,-0.8762029888153076
1727009799598457300,5.618457275390625,-1.616604006999731,-0.08993687603473663,-1.5929770476967096
1727009799608495400,5.628495361328125,-0.44332361297011375,0.034005729976296424,-1.7610021026708185
1727009799618533400,5.638533447265625,-0.11855448323190211,0.7099959430485964,-0.941466319103539
1727009799628571400,5.6485712890625,-0.19447744696140287,1.3279425479531288,0.4908785603493452
1727009799638609400,5.658609375,-0.12612462622523307,1.6006418832361697,1.8039536479078233
1727009799648647400,5.6686474609375,-0.13832944328188895,1.071559556698799,2.428530630737543
1727009799658685400,5.678685546875,-0.04678747013807297,0.16983692670166492,2.2327204738676545
1727009799668723500,5.688723388671875,-0.12328560340702532,-0.899576265618205,1.3192384324938058
1727009799678760400,5.698760498046875,0.2507312491029501,-1.6357207954019306,0.3371000939251855
1727009799688798500,5.708798583984375,0.07345628135502338,-2.110095964717865,-0.04794263152256608
1727009799698836500,5.71883642578125,1.0406184749901295,-1.2051789225935936,0.2676761002935469
1727009799708874500,5.72887451171875,1.943067665696144,-0.3749456577926874,0.6325521264273672
1727009799718912300,5.738912353515625,2.412375614750385,0.21795476866066454,0.6882385770097375
1727009799728950500,5.748950439453125,1.5610300038158893,-0.27787586113810536,0.4012383291736245
1727009799738988300,5.75898828125,0.7890431762784719,-1.1185510249763726,0.05534991210438311
1727009799749026600,5.769026611328125,0.572428131788969,-2.244167166033387,-0.12811353502012787
1727009799759064300,5.779064208984375,1.2751578832268715,-2.67747733451128,0.049178164666891094
1727009799769102300,5.789102294921875,1.2219155378609896,-2.542493694525957,0.4913193629194051
1727009799779140400,5.799140380859375,2.170971581441164,-2.3757295993983742,0.6547231878336519
1727009799789178400,5.809178466796875,2.2121166617780923,-1.7217495580822229,0.291450578308478
1727009799799216400,5.81921630859375,1.4403408466428518,-1.6452485022038221,-0.29760632445923985
1727009799809254400,5.82925439453125,0.8021136702537536,-1.1500853964030742,-0.5890488655917346
1727009799819291400,5.83929150390625,0.6688070235699415,-1.7453776864290236,-0.38470980369895696
1727009799829329400,5.849329345703125,1.1753700597852468,-1.4919406854987143,0.3509626515936106
1727009799839367400,5.859367431640625,0.06699030021131039,-1.6306792941033839,1.0870344814673065
1727009799849405400,5.869405517578125,0.5254015921980142,-1.8053753512740134,0.9153758192311972
1727009799859443500,5.879443359375,1.603375692114234,-1.4269640631973743,-0.39622897657901046
1727009799869481500,5.8894814453125,2.7381968838900326,-1.5555331599652766,-1.9646186955079434
1727009799879519500,5.89951953125,1.6161702917575835,-1.4597446352928876,-2.6529402746260167
1727009799889557200,5.90955712890625,0.8908136979699134,-1.5190683463990688,-2.072377936220169
1727009799899595500,5.919595458984375,0.1738718813061714,-0.6358972721368074,-0.6582112491451203
1727009799909633300,5.92963330078125,1.3249310911774634,-0.6914385420948267,0.6437560958784073
1727009799919671600,5.939671630859375,-0.03504208728671074,-0.4308879097670316,1.3809014002025126
1727009799929709300,5.949709228515625,-0.4298433691501617,-0.5216296724438667,1.1787272612586617
1727009799939747300,5.959747314453125,-0.027101941937208173,-0.2125847660601139,0.3381405794214457
1727009799949785300,5.969785400390625,-0.21888006681203842,-0.29734920789301394,-0.7827878422107547
1727009799959822300,5.979822265625,-0.8163491163551807,0.003217208480834961,-1.6238073625072835
1727009799969860600,5.989860595703125,-0.8128583516299724,0.28338030377328394,-1.7849828438475728
1727009799979898400,5.9998984375,1.2084873164892196,0.8629548001855611,-1.1493386696889996
1727009799989936400,6.009936279296875,-0.022338088536262513,0.8950152413129806,-0.25353731949962677
1727009799999974400,6.019974365234375,-1.019378703084588,1.0926163732528686,0.1894792733479291
1727009800010012400,6.030012451171875,-1.0645458785444497,1.2130705526262522,-0.006235569921322167
1727009800020050400,6.040050537109375,-0.7284715109378099,0.5861439379304647,-0.5317950926274061
1727009800030088400,6.05008837890625,0.12700900784432886,0.9035299716800451,-0.7349415837347507
1727009800040126500,6.06012646484375,-0.677282590970397,0.2417413024395704,-0.43501678973268715
1727009800050164500,6.07016455078125,-0.31768589347898957,0.4037888904392719,0.09209726893901825
1727009800060202200,6.0802021484375,-0.2750432680606842,-0.2821984005123377,0.28154969081263986
1727009800070240500,6.090240478515625,0.2700362535536289,0.08354805178046226,0.0013023878354579208
1727009800080278300,6.1002783203125,0.16720657819807527,0.6862894887685775,-0.6864053702332079
1727009800090316500,6.110316650390625,-1.0532119991034268,0.8708154505580663,-1.3848124361664056
1727009800100354600,6.1203544921875,-0.9537363103508949,0.763035459318757,-2.050552619511634
1727009800110391300,6.130391357421875,0.017251579052209854,1.1677601693034172,-2.4434007214806974
1727009800120429600,6.1404296875,-0.3365408160746097,1.0126023408174514,-2.177299030897021
1727009800130467300,6.15046728515625,-0.5796855555713176,0.08358779926896094,-0.9611638300031423
1727009800140505600,6.160505615234375,-1.7190052278101444,0.7960422413855791,0.9950538246452808
1727009800150543400,6.17054345703125,-0.24290333195626734,0.5135936655044555,2.415856150342524
1727009800160581400,6.180581298828125,-0.7621656907469033,1.2041852353811264,2.6318638765886426
1727009800170619400,6.190619384765625,-1.0840870298385619,0.7687322096556425,1.4388568916954099
1727009800180657400,6.200657470703125,0.7213666473686695,0.987382559365034,-0.198746210321784
1727009800190695400,6.2106953125,-0.5181143577992916,0.23592238702774046,-1.364679164198041
1727009800200733400,6.2207333984375,-0.4193044394791126,0.06530161647200584,-1.4373293898671864
1727009800210771500,6.230771484375,-2.0265631105065345,0.4215320524007082,-0.7197212182492018
1727009800220809500,6.2408095703125,-1.1596721399158239,-0.3180634946197271,0.006517601733095944
1727009800230847200,6.25084716796875,0.47206221619844435,0.7252759297668934,0.3748142864979803
1727009800240884500,6.260884521484375,1.6662965509295462,-0.01705868682861328,0.1944093501612544
1727009800250922500,6.270922607421875,2.483521865597367,0.7642717231154441,-0.09988872653283178
1727009800260960300,6.280960205078125,0.5996481471478938,-0.07150865441858768,-0.4350318777039647
1727009800270998500,6.29099853515625,0.07095394314527512,0.2118219649940729,-0.6609197043862194
1727009800281036300,6.301036376953125,-0.24544892478585242,-0.6808516816288233,-0.6312600407902151
1727009800291074600,6.311074462890625,-0.13122107258141041,-0.8613795136928558,0.07962189131267368
1727009800301112300,6.3211123046875,-0.42456981266140936,-0.812443341088295,1.0783271511375903
1727009800311150600,6.331150634765625,0.7590724009066819,-0.34375381619334217,1.7053871829546987
1727009800321188400,6.341188232421875,0.24903262849152086,-0.1728255871236324,1.4536761290341615
1727009800331226400,6.351226318359375,-0.9306114553511142,-0.49115387015938755,0.42119281050898133
1727009800341264400,6.361264404296875,-0.38227965394258495,-0.4851256959110498,-0.74106459665969
1727009800351302400,6.371302490234375,-0.44030631097555156,-1.2130945180237294,-1.2108189012419432
1727009800361340400,6.38134033203125,1.5465286002546548,-0.7959685916274786,-0.6508826598227023
1727009800371378400,6.39137841796875,2.2442203575253483,-0.6173550687521696,0.34669754149504006
1727009800381415400,6.40141552734375,2.712917481204867,-0.5447340691775083,0.9370348394621163
1727009800391453400,6.411453369140625,-0.32950843321979045,-1.0854279230535029,0.7588868882719427
1727009800401491500,6.421491455078125,-2.0236592057585714,-0.9355553414940834,0.0928159386023879
1727009800411529500,6.431529541015625,-2.505435591241717,-1.2071779874563215,-0.819679795147851
1727009800421567500,6.4415673828125,0.9333972866773604,-0.8089905702859163,-1.517671777474135
1727009800431605200,6.451605224609375,1.9719348637402057,0.12345394571125506,-1.427528565212339
1727009800441643300,6.461643310546875,2.1231343099892137,-0.06673369510173797,-0.9430823759980499
1727009800451681000,6.471680908203125,0.594047258400917,-0.19547814843654632,-0.441279978313297
1727009800461719000,6.481718994140625,-1.3342074535667896,-0.8743693436473607,-0.1931976362839341
1727009800471757000,6.491757080078125,-0.7448597511589526,-0.7749778260469437,-0.19945918089672923
1727009800481795000,6.501795166015625,-0.7929378456294536,-1.0990104582041502,-0.4449930074870586
1727009800491833000,6.5118330078125,0.7029296579241752,-0.8989099106639623,-0.4488280556052923
1727009800501871000,6.52187109375,0.5523164871305227,-0.16683599132001398,0.02016848941221833
1727009800511909000,6.5319091796875,1.5624521455734968,-0.36343174560964103,0.43450683091655373
1727009800521947100,6.541947021484375,0.7578998499959707,-0.18661738111078738,0.6565726881578564
1727009800531984100,6.551984130859375,0.1561521002203226,-1.0249784227877854,0.18524185497388243
1727009800542022100,6.562022216796875,-0.8666489785283803,-0.8655401405036449,-0.9296816271550953
1727009800552060200,6.57206005859375,0.5902484506398439,-1.2585685674756764,-2.283747627402097
1727009800562098000,6.582097900390625,1.347699972346425,-0.20662498087286948,-2.898435376641154
1727009800572136200,6.59213623046875,0.9151315621465445,0.1731710395604372,-2.4929338370651006
1727009800582174000,6.602174072265625,0.447821508911252,0.6274591141372918,-1.5607754445329307
1727009800592212200,6.612212158203125,-0.5301344659388065,0.7978729639440775,-0.5759442501511425
1727009800602250000,6.62225,-1.0061661702901123,0.21108429836928844,-0.04105586768351495
1727009800612288300,6.632288330078125,-0.6074293025434017,-0.44407706168591976,-0.06689509620852768
1727009800622326000,6.642325927734375,0.41124271357655523,-0.8131786696255207,-0.29964133741818366
1727009800632364000,6.652364013671875,0.6917787338346243,-0.6113800859957933,-0.42012050510235127
1727009800642402000,6.662402099609375,1.3550941742509603,0.28069617925584317,-0.2795062388189137
1727009800652440000,6.672440185546875,-0.543160536250472,0.9307879809617996,0.013641498796269297
1727009800662478300,6.682478271484375,-1.5752292095601559,1.1538538090258836,0.2663799960684031
1727009800672515000,6.69251513671875,-1.9783821401834487,1.0395236654907465,0.6248009277787059
1727009800682553000,6.702552978515625,-0.4197580284655094,0.2962888851851225,1.241549335874617
1727009800692591000,6.712591064453125,1.8015011401891707,-0.27722937992811203,1.6135206540316342
1727009800702629000,6.722629150390625,0.79922963925004,-1.5561276187270878,1.5135565972402691
1727009800712667100,6.732667236328125,0.0753682524561882,-1.8858476488709448,1.2631512190908192
1727009800722705200,6.742705078125,0.08913783461153507,-1.3475871596217155,0.9613443742018193
1727009800732743000,6.752742919921875,-0.4016425260603428,-0.21453122395277022,0.5307222757641226
1727009800742781200,6.76278125,0.3676519936531782,1.0520184054046868,-0.286202448521927
1727009800752819000,6.77281884765625,-0.18608371262550352,1.2875561770290136,-1.293370416265726
1727009800762857200,6.782857177734375,-0.32628947117328644,1.1743161668181419,-2.032108177413046
1727009800772895000,6.79289501953125,-0.30389293044805527,0.4672130226016044,-2.0667069048464297
1727009800782933200,6.802933349609375,-0.9669728085428476,-0.15147358701527117,-1.385413909190893
1727009800792971000,6.812970947265625,-1.3748387391626835,-0.7536252414166927,-0.3671249010391533
1727009800803009000,6.823009033203125,-0.2882522937238216,-0.31380875978469847,0.5714955271139741
1727009800813046300,6.83304638671875,1.6576631626188754,0.27922727574706074,1.1635106951653957
1727009800823084000,6.843083984375,0.28945874690413476,0.9720067110568285,1.5609281508766113
1727009800833122000,6.8531220703125,-1.2502315317630768,1.0206102907061576,1.5804153800264
1727009800843160000,6.86316015625,-0.7253308748245239,0.29934827275574205,1.1711666167460382
1727009800853198000,6.873197998046875,1.6348925278842448,-0.19233809684515,0.6732234517727047
1727009800863236000,6.883236083984375,0.7869166856437921,-1.4511895729154347,0.2950461916476488
1727009800873274000,6.893274169921875,0.15715923143625257,-1.5728765089541672,0.2934548308029771
1727009800883312000,6.90331201171875,0.1286205346941948,-1.469831729543209,0.44083676459044213
1727009800893350100,6.91335009765625,0.5828016417652369,-0.05087210910320282,0.5893861347220838
1727009800903388000,6.923387939453125,0.5201859033763409,0.6042343058943748,0.32495179282873865
1727009800913426200,6.93342626953125,-0.7579273225247859,1.1714981867879628,-0.31992103211991485
1727009800923464000,6.9434638671875,1.5407564465939998,1.0419535229861736,-0.8987942483950406
1727009800933502200,6.953502197265625,0.6913976255625486,0.14971476064920425,-0.967772507553175
1727009800943540200,6.963540283203125,0.6173007082164287,-0.7484919701814651,-0.5487479809939861
1727009800953578200,6.973578125,1.1135609616041182,-1.2037678867518902,0.29674020914919674
1727009800963615200,6.983615234375,-0.6770914523124695,-1.6496715793430805,0.9982387382917105
1727009800973653000,6.993653076171875,-1.0641513262689113,-0.7461041982620954,0.944294382136315
1727009800983691300,7.003691162109375,1.346933664149046,-0.24482874706089494,0.20528445298410952
1727009800993729000,7.01372900390625,1.2330109323710203,0.664645227715373,-0.44552433788478374
1727009801003767000,7.02376708984375,-0.9589186814248561,0.4346855484843254,-0.6838679607100785
1727009801013805000,7.03380517578125,0.19477029242813587,0.5074702141880989,-0.3558913401674479
1727009801023843000,7.043843017578125,-0.05702186390459537,0.1894751086294651,0.29406835959143934
1727009801033881000,7.053881103515625,0.853206728631258,-0.42440497748851774,0.7734747280076145
1727009801043919000,7.063919189453125,0.20073533831238746,-0.9418126483231782,1.0401135942079127
1727009801053957000,7.07395703125,-0.6002431904315948,-1.1209463956803083,1.1285468607466667
1727009801063995100,7.0839951171875,0.6112813017964362,-0.925126886460185,0.956733519405499
1727009801074033000,7.094032958984375,0.36348785971105096,-0.9446727139294147,0.7659810843165964
1727009801084071200,7.1040712890625,0.13437281461060047,-0.5954542025893926,0.8583809163987636
1727009801094109200,7.114109130859375,1.1161936481952666,-0.7649906850397586,1.249783203473687
1727009801104146000,7.12414599609375,1.9346423671782016,-0.2662988205909729,2.1517422725751993
1727009801114184200,7.13418408203125,0.8914134174287318,-0.46412265537083147,2.897653870874643
1727009801124222000,7.144221923828125,-1.2882833222597836,-0.8694634514272213,2.9142285735785958
1727009801134260200,7.15426025390625,-0.8450029639095068,-1.3674462908238172,2.1136412361092862
1727009801144298000,7.164298095703125,-0.2514005266666412,-0.9396510863751173,1.1203057596892119
1727009801154336300,7.174336181640625,2.68055425773859,-0.4787205050438642,0.26819077181741596
1727009801164374000,7.1843740234375,2.3067396498024464,0.7673240964233875,0.12851459010168909
1727009801174412000,7.194412109375,0.2333013908743858,0.8717758200228214,0.5177552421633154
1727009801184450000,7.204449951171875,-3.510821424809098,1.3890999042272567,0.8680489815194159
1727009801194488000,7.214488037109375,-4.6324067029148335,0.6748147395521402,0.6377111166257411
1727009801204526000,7.224526123046875,0.9956254870533943,0.9047083678096532,-0.24216866100616752
1727009801214564000,7.234564208984375,1.289775022122264,0.1750181287318468,-1.5518661618903278
1727009801224602000,7.24460205078125,1.0446376475036143,-1.0198574265122413,-2.161761854547262
1727009801234640100,7.25464013671875,0.41505379629731176,-1.122709313699603,-1.2217766408469528
1727009801244677000,7.264677001953125,-1.795853489691019,-0.999236663287878,0.5520522101711481
1727009801254715100,7.274715087890625,-1.3648334779769182,0.10010463430583476,1.626823057066649
1727009801264753200,7.284753173828125,-1.3582266270577907,0.13725392300486564,1.5017494011990724
1727009801274791000,7.294791015625,0.828107358688116,0.7319768887102603,0.6455275625303387
1727009801284829200,7.3048291015625,1.8538281242758035,0.6249480080991983,-0.3322928032413125
1727009801294867000,7.314866943359375,1.5995909128785133,0.14819500373601913,-0.9983534507125615
1727009801304905200,7.3249052734375,0.15149346075952053,-0.7181833411574363,-1.1932481001727282
1727009801314943000,7.33494287109375,-2.762562094339728,-0.641696313804388,-0.7976767107196152
1727009801324981200,7.344981201171875,1.1357856528937815,-1.0581997243881225,-0.22865480717755854
1727009801335019000,7.35501904296875,0.46915480431914325,0.26061025356054307,0.5664155935011804
1727009801345057000,7.36505712890625,-0.5568196437686681,0.16711188565194607,0.8137631915152073
1727009801355095000,7.375094970703125,0.9582722002148628,0.641041649287939,0.36156522108539935
1727009801365133000,7.385133056640625,-1.0619015015155076,0.027091420543193814,-0.5798232104763388
1727009801375171000,7.395171142578125,0.4409837718456983,-0.6357505571424961,-1.320688923563063
1727009801385209000,7.405208984375,-1.45675597487092,-0.3214548906236887,-1.2476172576114535
1727009801395246000,7.41524609375,-0.03682195644080639,-0.415118678227067,-0.9752210699934512
1727009801405284000,7.4252841796875,1.3223229545056818,0.30465222438275813,-0.699144659492746
1727009801415322000,7.435322021484375,0.9758633864849805,0.22559330071508882,-0.5034736188326031
1727009801425360100,7.445360107421875,-0.3444061426222324,0.6462585071533918,-0.30592494773231443
1727009801435401700,7.455401611328125,-0.8037789731174707,-0.15935761826336384,-0.17999262920878825
1727009801445439500,7.465439453125,-1.7183195836335419,-0.05327215598225593,-0.1696019489020109
1727009801455477500,7.4754775390625,0.43192192898988724,-0.584009848511219,-0.3393133495278656
1727009801465515500,7.485515625,1.59851539260149,-0.4613981988430023,-0.29226532875746486
1727009801475553500,7.495553466796875,1.0861463004559277,-0.1522054084211588,-0.03815715056732297
1727009801485591600,7.505591552734375,0.1376864692032337,0.3800345053642988,-0.17155746688395737
1727009801495629600,7.515629638671875,0.5358744708955288,0.24379297427237032,-0.7503888898439705
1727009801505667600,7.52566748046875,-0.6799480107873678,0.3799602710843086,-1.2254734495382755
1727009801515705600,7.53570556640625,-0.9392769923657178,-0.6559738454818725,-1.0649688531968742
1727009801525743400,7.545743408203125,-0.7378899121463298,-0.4065630313277244,0.12152568106241524
1727009801535780600,7.555780517578125,0.6715367407947779,-0.05073065480589866,1.5968261243402957
1727009801545818600,7.565818603515625,0.31427929990589615,0.4485854790210724,2.3294627921335396
1727009801555856400,7.5758564453125,2.3271102376580237,0.5251058241218328,1.6695717732079327
1727009801565894700,7.585894775390625,0.6601514234274626,0.3345043418109417,0.02819090621769428
1727009801575932400,7.595932373046875,-0.937365021264553,-1.2709528327524662,-1.7272645221114158
1727009801585970700,7.605970703125,0.7021995900839567,-0.8180483214884996,-2.5985826614946124
1727009801596008400,7.616008544921875,0.8748784622132778,-1.4471552028328178,-2.1789640414997935
1727009801606046700,7.626046630859375,-0.06039046355485916,-0.7555594243496656,-0.8404263036437332
1727009801616084500,7.63608447265625,-0.8182330304056405,-0.03489011159539222,0.24142368785776197
1727009801626122500,7.64612255859375,-2.2057406970053908,0.44123570078015323,0.34000169711820777
1727009801636160500,7.656160400390625,0.7701835775077343,0.7504401816397905,-0.5847981493446975
1727009801646198500,7.666198486328125,2.5143723464131353,0.821152717244625,-1.7128548884868622
1727009801656236500,7.676236572265625,0.5594079066962003,-0.3602507774859667,-2.2541149979434905
1727009801666274600,7.686274658203125,1.1532476598262786,-0.704929307308793,-2.1452247073747217
1727009801676311600,7.6963115234375,-1.8232722424924372,-1.1034130770772694,-1.469656372976303
1727009801686349600,7.706349609375,-0.055907180660963056,-1.4094529564261435,-1.0605592931263148
1727009801696387600,7.7163876953125,-0.11737199544906615,-0.7958341515928506,-0.77361384421736
1727009801706425600,7.726425537109375,0.32178806810081,-0.06655950757861137,-0.47712739063352344
1727009801716463600,7.736463623046875,1.929779729577899,0.7243705053597689,-0.14471724462285637
1727009801726501400,7.74650146484375,0.294210325345397,1.2863754428118466,0.16000534158237278
1727009801736539600,7.75653955078125,-1.296287180495262,1.0153700519651174,0.2895896798074245
1727009801746577400,7.766577392578125,-1.9432330853909252,-0.42039924897849557,0.3100953652847558
1727009801756615700,7.77661572265625,-1.1475210988730191,-0.3118675625890493,0.2518891869664192
1727009801766653400,7.7866533203125,-0.47137657202184197,-1.0112591095149517,0.039739085996523496
1727009801776691700,7.796691650390625,0.6848965731054544,-0.42839667747318744,-0.027125980399921534
1727009801786729500,7.8067294921875,-0.6466261714220046,-0.14877718753814698,0.21922047774754463
1727009801796767500,7.816767578125,-0.7950082221627235,0.7857388740360737,0.6776920485541225
1727009801806805500,7.826805419921875,0.5080360313773155,1.113026124075055,1.3833815265804528
1727009801816843500,7.836843505859375,1.1139163509130476,1.585113474714756,2.130045404551923
1727009801826880800,7.846880859375,0.3179676330298185,0.12467033576369285,2.2816927406989036
1727009801836918500,7.85691845703125,-0.6527467001289129,-0.7020633964836597,2.0480960201397536
1727009801846956500,7.86695654296875,-2.1800100434213876,-1.5391232924342155,1.4313625904172658
1727009801856994600,7.87699462890625,-0.284478620404005,-1.89214178057909,0.6819608119145035
1727009801867032600,7.887032470703125,0.4305541477680206,-0.4004255514860153,0.3212784380782395
1727009801877070600,7.897070556640625,1.4858721792399883,1.3144400923013686,0.16519238883145151
1727009801887108600,7.907108642578125,1.9430366860359907,2.196208898550272,0.03809000361524522
1727009801897146400,7.917146484375,-2.566442725390196,2.6011715089440344,0.11727649918533861
1727009801907184600,7.9271845703125,-1.6696458613574503,1.1116337929338216,0.10004632824733853
1727009801917222400,7.937222412109375,0.4670668921291828,0.5415916794985532,0.08139649976976215
1727009801927260700,7.9472607421875,-0.920283538082242,-1.1397826135754585,0.10570355029143393
1727009801937298400,7.95729833984375,2.5314713652521372,-2.8686475566208363,0.3708309890154749
1727009801947336700,7.967336669921875,-0.6848626708358526,-2.0837819582879544,1.3961606363937258
1727009801957374500,7.97737451171875,-0.10649112047255038,-2.0628373699367044,2.253843341395259
1727009801967412500,7.98741259765625,-2.0030729293256995,0.2919464720666408,2.4164986860297617
1727009801977449700,7.99744970703125,-2.4552865357160565,0.3897907602250576,1.3158502513602375
1727009801987487500,8.007487548828125,0.859685569256544,1.5366986956357955,-0.2270937684059143
1727009801997525800,8.01752587890625,2.8167069415032864,0.9611690907001494,-1.8514526273161171
1727009802007563500,8.0275634765625,0.9830588509470224,0.16894143916666507,-2.6016043474033475
1727009802017601500,8.0376015625,1.9363959328472613,-1.5110621500760315,-2.1998966471523045
1727009802027639600,8.0476396484375,0.3736252228438854,-1.567035966232419,-0.8420268707081675
1727009802037677600,8.057677490234376,0.10322481215298175,-1.8126947343766688,0.6355248586278408
1727009802047715600,8.067715576171874,0.5339291820466519,-1.4219979652225971,1.6480279037892818
1727009802057753600,8.077753662109375,-0.976856489175558,-0.13284721247851847,1.846480684122443
1727009802067791400,8.087791259765625,1.059535941427946,-0.1677291407674551,1.0538673942722379
1727009802077829600,8.09782958984375,2.194121570882201,0.5822235496163368,0.009248305338621138
1727009802087867400,8.107867431640624,2.000529674583673,-0.32380876027345656,-0.7012271648552268
1727009802097905700,8.11790576171875,1.4813357048541307,-0.5534568893373012,-0.39181912424750626
1727009802107943400,8.127943359375,-0.4391600635498762,-1.2378349915266036,0.7990454417895525
1727009802117981700,8.137981689453126,-0.7829203094840049,-0.9424719890147447,1.8586458998210726
1727009802128018700,8.148018798828126,-0.631140432998538,-1.1406237405747175,2.015424169115722
1727009802138056400,8.158056396484374,-0.11255436603426933,-0.44533553731441494,1.4286229363203047
1727009802148094700,8.1680947265625,0.5952338378369808,-0.107301267811656,0.56378911745511
1727009802158132500,8.178132568359375,1.387238202008605,-0.0005476970106363296,0.004954553667455911
1727009802168170800,8.188170654296876,3.208096953618526,0.10532733739018439,0.25258411042802037
1727009802178208500,8.19820849609375,1.3060855209320783,-0.2443868485122919,1.1003239519555121
1727009802188246500,8.20824658203125,-1.3951555510044098,-0.770577545261383,2.0684102016329766
1727009802198284500,8.218284423828125,-1.4455074356257915,-0.9299193814337253,2.5678920474156737
1727009802208322600,8.228322509765626,-1.8246885390311478,-0.16253624829947946,2.4910651205837726
1727009802218360600,8.238360595703124,-0.925567031443119,-0.08923603428900241,1.6997937468618154
1727009802228398600,8.248398681640625,0.9757686939388514,0.5454132836133241,0.6851377614501863
1727009802238436400,8.258436279296875,0.6503109974145889,0.6952665759503841,-0.1461946236990392
1727009802248474600,8.268474609375,1.7895780626833437,0.21194120745956896,-0.6947983739167451
1727009802258512400,8.278512451171874,-2.788866748419404,-0.03143383366167545,-0.8293665649689733
1727009802268550700,8.288550537109375,-2.8900346280425784,-0.15554770458638667,-1.3464946882098912
1727009802278587600,8.298587646484375,-0.38667350498735903,0.6547206305503844,-2.1583386021003124
1727009802288625400,8.30862548828125,-1.1465765114992856,0.6870745016664266,-2.3932585340872405
1727009802298663700,8.31866357421875,0.03159340813755989,1.159769170549512,-1.4954741203218698
1727009802308701400,8.328701416015624,-1.5816718098282814,1.1685200477600097,0.1699476205345243
1727009802318739700,8.33873974609375,0.2222866603851318,0.6026648646205663,1.3269544136986136
1727009802328777500,8.348777587890625,0.5090460852026939,-0.21365561016201973,1.430327109889686
1727009802338815700,8.358815673828126,-0.6111667355060577,-1.1628361569046974,0.6043767100397497
1727009802348853500,8.368853515625,-0.5906751516193152,-1.630753528383374,-0.33569304013885554
1727009802358891500,8.3788916015625,-0.6788122847557068,-0.5048574013411998,-0.5711041166435927
1727009802368929500,8.388929443359375,1.6133096416294574,0.9746844058334827,-0.15260639043748378
1727009802378967600,8.398967529296876,0.8854512941539288,1.7365818010330198,0.37212753163203593
1727009802389005600,8.409005615234374,0.5974906768530607,1.3777683628737927,0.42243148545846343
1727009802399043600,8.419043701171875,0.4081663748711347,1.321117670369148,0.04884966336488723
1727009802409081300,8.429081298828125,-1.0371943457603454,0.2758323726117611,-0.7937593180801719
1727009802419119600,8.43911962890625,-0.7334516374379396,-1.0501058497816325,-1.5100838065631688
1727009802429156600,8.449156494140626,-0.6767080059528351,-1.3378612998992203,-1.4493579735741018
1727009802439190300,8.459190185546875,-0.7822270665228367,-0.7925655051857232,-0.569203251458332
1727009802449228500,8.469228515625,0.7013835975259542,-0.7400912215828895,0.7284354167111218
1727009802459266300,8.479266357421874,0.6912544176995754,0.7378256147384643,1.7672260917522011
1727009802469304600,8.4893046875,0.8052513837575912,-0.23027122939825057,1.8346075832381843
1727009802479342300,8.49934228515625,-0.7337859839588403,0.4399129277437925,1.065363551602885
1727009802489380600,8.509380615234376,-0.16981062321662901,-0.4696200837433338,-0.27771570214033126
1727009802499418600,8.519418701171874,0.4033393931061029,-0.3633487435013056,-1.1913215890895574
1727009802509456400,8.529456298828125,-0.4931184482306242,-0.6284545549154281,-1.2610440176784992
1727009802519494700,8.53949462890625,-0.28528058443665505,-0.2938257099419832,-0.5054320594239979
1727009802529532400,8.549532470703125,-0.17671148864626884,0.30778818432092664,0.483498606165871
1727009802539570700,8.55957080078125,1.2822913883686065,0.9299597134441137,0.7354510676268488
1727009802549608400,8.5696083984375,1.073545762079954,0.7944897512465715,0.06661145696155726
1727009802559646700,8.579646728515625,0.19242168347537517,0.5611480283617973,-0.9133093151554464
1727009802569684500,8.5896845703125,-2.652562088963389,-0.24981647234559057,-1.3109250699177384
1727009802579721500,8.599721435546876,-1.5883651699870824,-0.42683600402772426,-0.9564147357799112
1727009802589759500,8.609759521484374,-0.4698065462261438,-0.04406476717591285,-0.047590968540683384
1727009802599797500,8.619797607421875,1.035671666237712,-0.37351357916295524,0.5798063324067741
1727009802609835300,8.629835205078125,0.5462035572081804,0.2694137377411127,0.5943395193457603
1727009802619873500,8.63987353515625,-1.2759522484749555,-0.38296997429430485,-0.17188589512072502
1727009802629911300,8.649911376953124,-0.5071487271487712,-0.3610200082927942,-1.1543600049823521
1727009802639949600,8.659949462890625,-1.7279250318467616,0.2869879728764295,-1.6824628189630806
1727009802649987600,8.669987548828125,-0.9557961654901503,0.36035482238233085,-1.6466855492696164
1727009802660025600,8.680025634765625,1.6698463523656129,0.34524142440259453,-1.1424120852962136
1727009802670063600,8.690063720703124,0.7722054387241601,0.7341665077090263,-0.25078254089877006
1727009802680101400,8.700101318359375,0.5943056170761585,-0.4170248041093349,0.2781280823335051
1727009802690139600,8.7101396484375,-0.14122808733284473,-0.21741525495648384,0.01955941760316491
1727009802700177400,8.720177490234375,-0.9449889402717352,-0.7549404156684875,-0.9223618056610227
1727009802710215700,8.730215576171876,0.5795207203984261,-0.4833130935311317,-1.7726199136197567
1727009802720253400,8.74025341796875,-1.3368974233031272,-0.16449907280504703,-1.664313414288312
1727009802730291700,8.750291748046875,0.5615922649979591,0.41324119391739367,-0.8658931917250156
1727009802740328400,8.760328369140625,1.1553016697466372,0.60290042694211,0.3059494245864451
1727009802750366500,8.770366455078126,0.8544891696572303,-0.2044675105780363,1.4640039001725613
1727009802760404500,8.780404541015624,1.9282599726647138,-0.41965106095969673,2.2260974024660882
1727009802770442500,8.7904423828125,-1.1698223625302313,-1.4485487030178308,2.275462468007207
1727009802780480500,8.80048046875,-1.3544593834787606,-1.7502292181134222,1.3170154957473277
1727009802790518500,8.8105185546875,-3.1780028441280126,-1.7116940280139445,-0.07349281397312879
1727009802800556500,8.820556640625,0.7179618073612452,-0.8932786267787217,-1.2965239118605851
1727009802810594600,8.830594482421875,3.1904315330684185,0.31038930673003196,-1.4596642635330557
1727009802820632600,8.840632568359375,2.1775673264443873,0.6292658712983131,-0.25438136910833414
1727009802830670600,8.850670654296875,-0.432845473575592,1.5247130742877721,1.2915500689707695
1727009802840708600,8.86070849609375,-1.6421312469661236,1.0707336272686718,1.9795330637842417
1727009802850746400,8.870746337890624,-1.5581594168156385,0.7837889090120792,1.5883254224985837
1727009802860784600,8.88078466796875,-0.44047640684545036,-0.03545417521893978,0.3595244359727949
1727009802870822400,8.890822509765625,0.3458884901344776,-0.28570260924100876,-0.7033654189929366
1727009802880860700,8.900860595703126,-0.16730302430987357,-0.9021662821114063,-0.8087428060699254
1727009802890898400,8.9108984375,-0.5299900890320539,-0.6754208887517452,-0.08119505891352892
1727009802900935400,8.920935302734375,-0.5376952565819024,0.12760346660614014,0.6915826267406344
1727009802910973400,8.930973388671875,-0.7598503995418548,0.2147235316544771,0.8287319933924824
1727009802921011500,8.941011474609375,-0.4596060547292232,0.9179425279140472,0.35065424323156474
1727009802931049500,8.951049560546876,0.11282032349407672,1.225540158098936,-0.21996033632941542
1727009802941087500,8.96108740234375,0.6619155104905367,-0.10156769259572028,-0.3022918519269675
1727009802951125500,8.97112548828125,-2.4010768066227435,0.23611937090456483,0.45387408694848413
1727009802961163500,8.98116357421875,0.7187544190436601,-1.4580886847794055,1.1855064730700104
1727009802971201500,8.991201416015626,0.4492021496146917,-0.2553933956950903,1.908342973795533
1727009802981239600,9.001239501953124,-1.3533879548549652,-1.5443687918722628,2.011423701302707
1727009802991277600,9.011277587890625,0.49974634193778034,-0.2107937909901142,1.5647162911131978
1727009803001315600,9.021315673828125,0.8693933088004588,-0.5639075562030077,0.7619060899626463
1727009803011353600,9.031353515625,1.825426790177822,0.04900339262187481,0.34552893610708413
1727009803021391400,9.041391357421874,0.8299298979401588,-0.3893190510600805,0.36804267347119746
1727009803031429600,9.0514296875,0.5210732076048851,-0.7472375862061977,0.5763782576542348
1727009803041467400,9.06146728515625,0.239528302565217,-0.8691425489097833,0.6215734170995653
1727009803051505700,9.071505615234376,1.585361311995983,-0.8209463810175657,0.14637911342047155
1727009803061542400,9.08154248046875,-0.5421510669469833,-0.32577041573524473,-0.4828591392185539
1727009803071580400,9.091580322265624,-0.8261042021721601,-0.47127252712547774,-0.9130465725660324
1727009803081618400,9.101618408203125,0.45307694522142405,0.4236608811229467,-0.699045217706263
1727009803091656400,9.111656494140625,0.888431186747551,0.04730184940099716,-0.16465367884486912
1727009803101694500,9.121694580078126,0.07809855420291423,-0.09711480484008789,0.347603477358818
1727009803111732500,9.131732421875,0.06785188547670841,-1.3152595919907093,0.5134001887589693
1727009803121770500,9.1417705078125,-0.6585714607596397,-0.9910726460546254,0.5199279100272804
1727009803131808500,9.15180859375,1.2196423322319985,-0.7777887918144464,0.40715668637193736
1727009803141846500,9.161846435546876,0.9110919313669205,0.5363771597206592,0.4086137533124536
1727009803151884500,9.171884521484374,-1.2834370512723923,0.6592120967507362,0.3886627791084349
1727009803161922600,9.181922607421875,-1.540291751691699,1.234184652325511,0.2341835074711591
1727009803171960600,9.191960693359375,-0.30411972494125367,0.5555366182208061,-0.11817856259159742
1727009803181998600,9.20199853515625,2.4275369435250758,0.5148042103379965,-0.3618968641925603
1727009803192036400,9.212036376953124,2.393647533404827,-0.7607821274340152,-0.1617162371534854
1727009803202074600,9.22207470703125,0.382016619092226,-1.5466513498514889,0.8779885570578276
1727009803212112400,9.2321123046875,-4.867026190650463,-1.096353221693635,2.2604610059693453
1727009803222149600,9.242149658203125,-2.944244357135892,-1.7888988482475279,2.3308666675820944
1727009803232187400,9.2521875,0.05142857394218445,0.4638566979110241,1.285284871096164
1727009803242225400,9.262225341796874,1.4167641562223434,0.5408674568772316,-0.5283101000558584
1727009803252263400,9.272263427734375,1.227278526198864,1.1697031200647354,-1.8336372769013045
1727009803262301400,9.282301513671875,-2.2499685457885263,0.9163117118418216,-1.8602999506384132
1727009803272339500,9.29233935546875,0.5336719924151897,0.8017536047697067,-1.0544849416486919
1727009803282377500,9.30237744140625,1.1098358036011458,0.27061960639953614,-0.037807679542526604
1727009803292415500,9.31241552734375,-0.6578630202293395,-0.885049727615714,0.5548750855721533
1727009803302453500,9.32245361328125,-0.6443623181432485,-1.2775707895874977,0.6544174828853457
1727009803312491500,9.332491455078125,-0.6976280443847179,-1.0447937148481607,0.32116438324451446
1727009803322529500,9.342529541015624,0.4422504307806492,-0.2880605705440044,-0.4112229128975421
1727009803332567600,9.352567626953125,0.4096586592555046,0.9282102394282817,-1.2039636285196988
1727009803342605600,9.36260546875,0.5051268659323453,1.392465581268072,-1.68189495594725
1727009803352643600,9.3726435546875,-1.0667261451929808,2.1600825231581924,-1.2392920584671199
1727009803362681300,9.382681396484376,-1.7476386170983313,1.5343173534572123,-0.4855941171403974
1727009803372719600,9.3927197265625,-0.44202422080934045,1.1669254720449447,-0.024121099495515226
1727009803382756400,9.40275634765625,-0.7379507024228572,0.462797544246912,-0.20534670456536114
1727009803392794600,9.412794677734375,0.47939971947968,-0.22133096709549427,-0.8184544180713593
1727009803402832400,9.422832275390626,-0.6026479134857654,-0.608641016420722,-1.4049189662583172
1727009803412870400,9.432870361328124,0.09902034620046615,-0.7972118696868419,-1.671117979736626
1727009803422908700,9.44290869140625,0.09880874927639961,-0.2804337289273739,-1.429880389035493
1727009803432946400,9.452946533203125,-2.0582418588399887,-0.179435945174098,-0.594618044026196
1727009803442985200,9.462985107421876,-0.4685165064156055,0.1439268248975277,0.5242177161756902
1727009803453023500,9.4730234375,-0.46756490477919577,1.4883727638840674,1.5469351352289318
1727009803463061200,9.483061279296875,1.9704279663085937,1.056419855234027,1.4857384698577225
1727009803473099300,9.493099365234375,2.354987840142846,1.1114525911480189,0.521287361812219
1727009803483137300,9.50313720703125,-0.6692845779538155,-0.4550158043295145,-0.8926670707516372
1727009803493175300,9.51317529296875,-0.05679623845517635,-1.8459224657177924,-1.9346701319679618
1727009803503213300,9.52321337890625,-1.863133712759614,-1.5029028090178966,-1.9534002591401338
1727009803513251300,9.533251220703125,0.2932762593656778,-1.7410563160985708,-1.3052441016718745
1727009803523289300,9.543289306640625,1.1636661779880524,0.09432721994817256,-0.4437883078724146
1727009803533327400,9.553327392578124,0.49800680479407305,0.8687415668934583,0.100187198022753
1727009803543364400,9.5633642578125,1.1926380054503678,1.0865069504618645,0.17003551801368594
1727009803553402400,9.57340234375,-1.268866089606285,1.1113093832850456,-0.19767105537094173
1727009803563440400,9.5834404296875,1.8136299694001674,-0.6878770502209663,-0.997472283963859
1727009803573478100,9.59347802734375,-1.3127034777671098,-1.775716710591316,-1.1969335837524384
1727009803583516400,9.603516357421874,-3.1417472893983125,-2.296671260252595,-0.7241483139764517
1727009803593554200,9.61355419921875,0.7933049253761768,-1.6714263150334356,-0.05979403203167021
1727009803603592400,9.623592529296875,1.2910551250606774,0.18319792805612087,0.3757126966424286
1727009803613630200,9.633630126953125,1.765334432786703,1.1153852544218301,-0.07931260616779327
1727009803623668500,9.64366845703125,2.3407886343985793,1.314898357462883,-1.1162860757190733
1727009803633706200,9.653706298828125,-0.8622405144363641,0.8478753044754266,-1.867126581788063
1727009803643744300,9.663744140625,-0.8887801463156938,-0.595438420498371,-2.2262430945470926
1727009803653782300,9.6737822265625,-0.22905133221447466,-1.011370168673992,-1.9632174504078923
1727009803663820300,9.6838203125,-0.7026929265588522,-1.1791922484219073,-1.2642834379911423
1727009803673858300,9.6938583984375,0.972531611713767,-0.21882979792952537,-0.5172524072077125
1727009803683896300,9.703896240234375,0.4761076921969652,0.9079922117859125,0.12028211074210703
1727009803693934300,9.713934326171875,-0.9106821815222501,1.9376801274389028,0.3866042026108131
1727009803703972400,9.723972412109376,-1.0088047021001576,1.8596078767210245,0.12367200890872626
1727009803714009300,9.73400927734375,-1.2448352256774902,0.8155489058881997,-0.5679311126306653
1727009803724047400,9.74404736328125,-1.6793863341271877,0.43072716624736784,-1.0491486951872706
1727009803734085400,9.75408544921875,-1.3454250131517649,-0.9565022679328918,-1.1769431543208657
1727009803744123100,9.764123046875,-0.8295236552268266,-0.764240158933401,-0.5932304255926981
1727009803754161400,9.774161376953124,-0.6968845325410365,0.08675356982350349,0.37444231138043105
1727009803764199200,9.78419921875,1.401052207827568,1.1485913584530354,1.0110146332345902
1727009803774237400,9.794237548828125,0.29225568414628506,1.6460960589438676,1.1662148395575582
1727009803784275200,9.804275146484375,-2.0544407129913567,1.453165841424465,0.8369195376317947
1727009803794313500,9.8143134765625,-0.04491057035028934,0.8218079662829637,0.07124112605620175
1727009803804351200,9.824351318359374,0.7663876923561096,-0.062355626147985455,-0.5938658008867874
1727009803814389200,9.83438916015625,1.622114879375696,-0.7227204000651836,-0.5891656238391995
1727009803824427300,9.84442724609375,1.5455875200122593,-0.6343436129540204,0.23383301353305577
1727009803834465300,9.85446533203125,-2.1458581829726695,-0.11594576203823088,1.428511731030792
1727009803844503300,9.86450341796875,-3.0988644254833457,0.6627554684460163,1.8094067987471818
1727009803854541300,9.874541259765625,-2.626073895010352,1.3895517396479844,1.0257035221919417
1727009803864579300,9.884579345703125,0.20064532194137571,1.25190384888947,-0.34037151681128885
1727009803874617300,9.894617431640626,3.281056391367316,1.514274682381749,-1.651460800847411
1727009803884654300,9.904654296875,0.3271054637312889,-0.25884850458502767,-2.1176336667463183
1727009803894692400,9.9146923828125,0.20089257470071314,-1.729959168022871,-1.444376093508303
1727009803904730400,9.92473046875,-2.7713685011297464,-1.7526590756088494,0.186846331028454
1727009803914768100,9.93476806640625,-2.3445950409442187,-2.2395137872695923,1.580619816557318
1727009803924806400,9.944806396484376,0.4591939667969942,0.02763794851005077,1.991958830115199
1727009803934844200,9.95484423828125,1.905058545297384,0.2460550739854574,0.9849824394207447
1727009803944882400,9.96488232421875,3.368439491266012,1.6123317365080116,-0.5524699241265654
1727009803954920200,9.974920166015625,0.07280804657936096,0.7475643339425325,-1.4649816591635345
1727009803964958500,9.98495849609375,1.3995868114501238,-0.36138358090817924,-1.1751008874550462
1727009803974996200,9.994996337890624,-1.268718790090084,-0.017199556604027746,0.24122239313200114
1727009803985034200,10.0050341796875,-1.0256272420853376,-2.23679459143877,1.5347097137756645
1727009803995072300,10.015072265625,-0.24140754044055937,-0.5881418337494134,2.050429139262438
1727009804005110300,10.0251103515625,-1.7067232538640498,-1.3313152392566203,1.2959203930094838
1727009804015148300,10.035148193359374,2.2876374744474886,-0.07732289365530014,-0.00870952228680253
1727009804025186300,10.045186279296875,0.9050497285932302,0.9842191268980502,-0.80593651647754
1727009804035224300,10.055224365234375,1.577369728720188,-0.12349661580920218,-0.9451556751407683
1727009804045262300,10.065262451171876,-1.856637920999527,0.6503671115159988,-0.15999956942871213
1727009804055299300,10.07529931640625,-0.472394809153676,-0.7564999200701713,0.7196545827537775
1727009804065337300,10.08533740234375,2.7110850050806996,0.34162089581787586,1.3329209208875894
1727009804075375400,10.095375244140625,0.7662029834389686,-0.12190730079114437,1.3299410282939672
1727009804085413000,10.1054130859375,2.2395523657143115,-0.2281657815515995,0.8920574144206941
1727009804095451400,10.115451416015626,-1.4720552508115767,0.5784194811582565,0.5978169861979782
1727009804105489200,10.1254892578125,-1.663165851688385,-0.38049861574470994,0.21033581808954477
1727009804115527400,10.13552734375,-1.6120435672163962,-0.5354717353135348,-0.13099208613112567
1727009804125565200,10.145565185546875,-2.689883227097988,-0.1461041689366102,-0.28562727898247536
1727009804135603500,10.155603515625,0.8849071042746305,-0.759119162657857,-0.09193411426655948
1727009804145641200,10.16564111328125,1.153312541756034,0.04676233569681644,0.6869909150362015
1727009804155679200,10.17567919921875,-0.7944985190749168,-0.0934065979719162,1.5650103056237101
1727009804165717200,10.18571728515625,-0.2604261291652918,-0.48161914909482,1.6894982705578208
1727009804175755300,10.19575537109375,-0.14724749375283716,-0.433304323258996,1.0797116642985491
1727009804185793300,10.205793212890624,-0.15362404304742813,-0.8092156112134457,0.24547705490179358
1727009804195831300,10.215831298828125,-1.5855869374454021,-0.571264348706603,-0.08598017429821193
1727009804205869300,10.225869384765625,-0.6931178734838962,0.04225099575221538,-0.029855770689994093
1727009804215907300,10.2359072265625,1.6030279015898703,0.7771680295675992,0.3016908903591335
1727009804225944300,10.2459443359375,0.7169558451890945,0.7675456302195787,0.7078025246575474
1727009804235982300,10.255982421875,-2.1972972783088682,0.2884106991559267,0.6986608214985579
1727009804246020400,10.266020263671875,-1.364554076513648,-0.22965689689218996,-0.16753237608633934
1727009804256058000,10.27605810546875,1.389862120771408,-0.5634025292903184,-1.4531649646416305
1727009804266096400,10.286096435546876,0.7419716285020113,-0.2676736160755157,-1.9467180048972368
1727009804276134100,10.296134033203124,-0.5110884046852588,-0.13684417316019534,-1.2129035254962741
1727009804286172400,10.30617236328125,0.6184194831132889,0.9941384633660316,0.1685446218688041
1727009804296210200,10.316210205078125,0.8627484639585018,1.4896177955091,1.2913774888828395
1727009804306248400,10.32624853515625,-1.564260656300187,0.6725181530475616,1.3225219842091203
1727009804316286200,10.3362861328125,-2.1912357863128182,-0.4879290628939867,0.19550722840055823
1727009804326324200,10.34632421875,-0.32307927695512767,-1.1839251221626996,-1.2562123597383499
1727009804336362200,10.3563623046875,-0.22323650845587253,-0.9650871409267187,-2.0545926886826753
1727009804346400300,10.366400146484375,-0.04666238245368003,0.17963059096336365,-1.8898501625105737
1727009804356438300,10.376438232421876,-0.1974012254536152,0.9284773659318685,-1.2753640733234584
1727009804366476300,10.386476318359374,0.024065935242176054,2.3663544528096914,-0.6667175770100205
1727009804376514600,10.3965146484375,2.7382266945064067,2.2301918321728706,-0.335259982483834
1727009804386552300,10.40655224609375,1.444510825803876,2.050378870379925,-0.01983377756513655
1727009804396590300,10.41659033203125,-1.3807809886932372,-0.013033084574341772,-0.009601137364283203
1727009804406627300,10.42662744140625,-1.8915958371341228,-1.8054367260724304,-0.09472601000741124
1727009804416665300,10.436665283203125,-1.8219944776415824,-2.0609055250912904,-0.0514397529233247
1727009804426703000,10.446703125,4.080536205986142,-2.5908646344631907,0.04863755498416721
1727009804436741400,10.456741455078125,1.2755518509805202,-0.510595652732253,0.6551836449522525
1727009804446778600,10.466778564453126,-2.1166747585862873,-0.40837037301063533,0.9383557128023355
1727009804456816600,10.476816650390624,-1.7496978877156972,1.458406664687395,0.26142237366102633
1727009804466854700,10.486854736328125,-2.0785779599040746,1.5423983685821294,-1.3423751240618527
1727009804476892700,10.496892578125,3.44878787022233,0.5502578010350465,-2.980005406346917
1727009804486930700,10.5069306640625,-0.17828268348574638,0.8975812924087047,-3.386852515313029
1727009804496968400,10.516968505859374,-1.8147937524825333,-1.8118407478958367,-1.8895118704669176
1727009804507006700,10.5270068359375,-1.2412035911768675,-1.3160475274980068,0.39584764911122616
1727009804517044500,10.53704443359375,-2.820452557772398,-1.3010557100713251,1.9502306891933083
1727009804527082800,10.547082763671876,2.3681536111861465,-0.6250719267398118,1.7523358350038527
1727009804537120500,10.55712060546875,2.8802415483027697,0.47623044179379936,0.563808552807942
1727009804547158800,10.56715869140625,1.8438766391038894,0.8242793248325586,-0.5510466133251786
1727009804557196500,10.577196533203125,1.670426198080182,0.9101450059056282,-1.0619900565817952
1727009804567234600,10.587234619140625,0.09257248523533344,0.035974984222650525,-1.0607362571284173
1727009804577271800,10.597271728515626,0.10346388160586356,0.11809621807038784,-0.5511375064790248
1727009804587309600,10.6073095703125,-2.100272489839792,-1.2828992911338806,0.4356262634005397
1727009804597347800,10.617347900390625,-1.7301251722395419,-0.9438947152942418,1.4321329902678728
1727009804607385600,10.627385498046875,-1.088285066050291,-0.7091320196956395,1.5947399657160042
1727009804617423600,10.637423583984376,1.0775398001521825,-0.15104688603579997,0.8050425633125007
1727009804627461600,10.647461669921874,0.09622691608965396,0.8647282395988702,-0.05874313473924994
1727009804637499600,10.657499755859375,-2.0815981845080853,1.0443635067373513,-0.18090755209662018
1727009804647537700,10.66753759765625,-2.301329315191507,2.2681109362006184,0.21272169031277297
1727009804657575700,10.67757568359375,-1.68480894369781,1.0414496651172638,0.5362819557178765
1727009804667613400,10.687613525390624,0.24109891288280486,1.3486165026694534,0.7184198533270507
1727009804677651700,10.697651611328125,-0.3830716811031103,0.026769933503866195,0.427595955549553
1727009804687689500,10.707689453125,-0.17841361638903616,-1.384880825227499,-0.01772898730561137
1727009804697727700,10.717727783203125,1.6066379087805747,-1.1154670874863863,-0.17291633414700627
1727009804707765500,10.727765625,1.1595692640632391,-1.011176691928506,-0.046378012554347516
1727009804717803800,10.7378037109375,-1.147177984523773,0.10096037435233593,0.06893076675459742
1727009804727841500,10.747841552734375,-2.028240103808045,-0.11441782181859016,0.16136011719219387
1727009804737879600,10.757879638671875,-1.333085756060481,0.8581967920035123,0.12118366269171237
1727009804747917600,10.76791748046875,0.720353086411953,0.308501885548234,-0.22230960286930201
1727009804757954600,10.77795458984375,1.9847364776462315,-0.16144962210655212,-0.5967419043123722
1727009804767992800,10.787992919921875,-0.5163689754366875,-0.6505839691370725,-0.44446657246015964
1727009804778030600,10.798030517578125,0.32108605731129647,-0.7487468217253684,0.22509126947708427
1727009804788068600,10.808068603515625,2.3257985705375672,-0.15621932023763654,1.0003494468353689
1727009804798106600,10.818106689453124,-2.2538749055773017,0.331461905375123,1.5226082109630108
1727009804808144600,10.82814453125,-1.2172668352723122,-0.2614355984687805,0.8847422691017389
1727009804818182700,10.8381826171875,-0.18919804525375364,0.2661708102971315,-0.26582616157792505
1727009804828220700,10.848220703125,-0.3669675185203552,-0.9187538442969322,-1.379590463734418
1727009804838258400,10.858258544921876,1.2576233955800533,-0.24565292292535304,-1.7090427828527985
1727009804848296700,10.868296630859374,-0.9717220488965511,-0.3976321213752031,-1.0860975659433751
1727009804858334500,10.87833447265625,2.676149300777912,0.08580430627465248,-0.07046389460600912
1727009804868372700,10.888372802734375,1.171136367738247,0.7446902398109435,1.1156537691649049
1727009804878410500,10.898410400390626,1.7112573901623487,-0.3966080390244722,1.6457064751043915
1727009804888448800,10.90844873046875,-0.08903788136839866,0.13997837953269482,1.4714192909955977
1727009804898486500,10.918486572265625,0.4819359599590301,-2.2060925791829824,0.7121620350413024
1727009804908524500,10.928524658203125,-1.0820604924470185,-1.1721803238332271,0.4296990653086453
1727009804918562600,10.9385625,-2.241832585605979,-1.9148411036431787,0.3655813979241997
1727009804928599600,10.948599609375,1.8328963954061268,0.17288462383449077,0.2575059308696538
1727009804938637800,10.958637939453125,0.5329173746556043,1.1581991447538136,0.075605933669582
1727009804948675600,10.968675537109375,0.7876514296591282,0.6075900460630655,-0.32952691872455175
1727009804958713600,10.978713623046875,-0.5768453637093305,1.480381765130162,-0.505135414564982
1727009804968751600,10.988751708984376,0.024860885012149808,-0.8529846103131771,-0.4458139684811234
1727009804978789600,10.99878955078125,2.0035791252821684,-0.35337446197569367,0.18673925392478705
1727009804988827600,11.00882763671875,-0.9042600395202636,-1.425494575166702,0.9860065948367118
1727009804998865700,11.01886572265625,-1.8617934040665625,-1.9032710773587225,1.45550685159266
1727009805008903400,11.0289033203125,-2.6140695689618587,-0.4819423896998167,1.3030825397238135
1727009805018941700,11.038941650390624,1.419219148159027,0.16367840407192705,0.2779774948816746
1727009805028979500,11.0489794921875,4.601274482548237,1.2398714657902716,-0.9138863843910395
1727009805039017700,11.059017822265625,1.0685761569738388,0.9526181199759244,-1.5507485560372472
1727009805049055500,11.069055419921876,-3.275575329607725,-0.25756898616850377,-1.240135961945355
1727009805059093800,11.07909375,-1.571470733809471,-0.49629532470107074,-0.4123609770167619
1727009805069131500,11.089131591796875,2.6906261544197796,-0.350166021323204,0.45018546156361694
1727009805079169500,11.09916943359375,1.6782734044492245,0.07670739210546017,0.8986609043389558
1727009805089207600,11.10920751953125,-5.117613062846661,-0.4450269097566604,0.8007791337143629
1727009805099245600,11.11924560546875,-4.576323581165075,0.6381260541021824,0.3766105222649872
1727009805109282800,11.12928271484375,0.4565940134316683,1.5843834068745373,-0.08729659065902233
1727009805119320600,11.139320556640625,1.4428905311256646,1.1664613616645336,-0.3105732119295746
1727009805129358600,11.149358642578125,0.7751946836680174,0.881342105269432,0.0728440677408129
1727009805139396600,11.159396728515626,-0.8881728280723095,0.11148118384480475,0.9520585133317857
1727009805149434600,11.1694345703125,-0.31193478260636326,0.0013268646895885467,1.3401762988433241
1727009805159472600,11.17947265625,1.0426303993344306,0.059624155357480044,0.6476041496086865
1727009805169510700,11.1895107421875,-1.3334656952887773,0.007164484801888466,-0.5882503356251866
1727009805179548400,11.19954833984375,-3.374907225975394,0.38515199450850485,-1.4096033246822655
1727009805189586700,11.209586669921874,-0.7336182261765003,0.1659124467343092,-1.4571443896666167
1727009805199624400,11.21962451171875,-1.190893792131543,1.1553127756625414,-0.4139071104802191
1727009805209662700,11.229662841796875,-0.28123510843813415,0.1523567995905876,0.8028807091034948
1727009805219700500,11.239700439453125,-0.09588672434985637,0.9803998608708381,1.6185690234623848
1727009805229738800,11.24973876953125,1.3909037387788294,-0.12987491866946219,1.3518256739743053
1727009805239776500,11.259776611328125,1.096304706376791,0.2852799999147653,0.12483977404646575
1727009805249814500,11.269814453125,-0.3482183943867683,-1.2576987989038229,-1.4074801950484512
1727009805259852500,11.2798525390625,3.890401172143221,-0.9656295772403478,-2.4487778844743966
1727009805269890600,11.289890625,-0.05040390706956386,-0.27881869494616984,-2.1329959249205888
1727009805279928600,11.299928466796874,4.7482080880463124,-0.4081032465070486,-1.3123153552323579
1727009805289965600,11.309965576171875,-1.357300744384527,1.9732091214597225,0.02773359090425074
1727009805300003600,11.320003662109375,-2.6583523628026247,0.3327951998054981,0.2967571602839976
1727009805310041600,11.33004150390625,-0.9477280098468065,1.0191706132918597,-0.14607961901724337
1727009805320079600,11.34007958984375,-5.37778200238049,-0.4776490764200687,-0.8016321703471243
1727009805330117600,11.35011767578125,1.3691729684859513,-1.1830512619376181,-1.2879065979018807
1727009805340155600,11.36015576171875,1.0440560482233763,-1.2243301977872847,-0.8587067142870277
1727009805350193400,11.370193359375,0.5675766001045703,-1.7503502141445875,0.20199987835548816
1727009805360231700,11.380231689453124,-1.0652239239364862,-0.034651626664400095,1.0573759138498455
1727009805370269400,11.39026953125,-0.5211661465853452,0.2384527822881937,0.5685493175942451
1727009805380307700,11.4003076171875,2.79545723272562,1.5916227104783056,-0.6749176884699613
1727009805390345500,11.410345458984375,-0.8062655292361974,0.277522225394845,-1.9372028653159736
1727009805400383700,11.4203837890625,1.3055758178442716,-0.6012918227016926,-2.575010062727332
1727009805410421500,11.43042138671875,-1.0068255109816788,-1.1527549078732728,-2.0566198105961084
1727009805420459500,11.44045947265625,-0.07195172201097011,-1.8094816175490616,-0.8723987742267548
1727009805430497500,11.45049755859375,0.4058826478481293,-0.22792729662060737,0.42275384928062554
1727009805440536600,11.46053662109375,0.4702168805927038,0.09461012854278088,1.1042590263821184
1727009805450574300,11.47057421875,1.2047048753410576,1.6007693090081214,1.0339875856082885
1727009805460612600,11.480612548828125,0.14097732744216918,0.6425199051469564,0.43625192101821303
1727009805470649600,11.490649658203125,0.6076327161610127,0.839758048993349,-0.010356851102411746
1727009805480687400,11.500687255859376,-0.8142629577308893,-0.701376583263278,-0.3480750403933227
1727009805490725600,11.5107255859375,-1.021814405798912,-1.5427040735304354,-0.3033742403361946
1727009805500763400,11.520763427734375,-2.976103722733259,-1.389587980005145,-0.028283699067682026
1727009805510801700,11.5308017578125,-0.35338439884781836,-0.9066162472575903,-0.016645429852604865
1727009805520839400,11.54083935546875,-0.005272971966862678,1.262799336913228,-0.33099903710372747
1727009805530877400,11.55087744140625,-0.5111462723523378,1.4911071572840213,-0.6988212727572769
1727009805540915500,11.56091552734375,-0.49066111820638175,2.809530181741714,-0.7216587621830404
1727009805550953500,11.570953369140625,-2.736408831429481,2.144251916819811,-0.3670058777693659
1727009805560991500,11.580991455078125,1.0875351244658231,2.0112942297041414,0.16483553821779787
1727009805571029500,11.591029541015626,0.7384639126420021,1.2883189780950546,0.42298612366653976
1727009805581067500,11.601067626953125,-2.423912323287129,-0.871121740028262,0.42223662047348914
1727009805591105500,11.61110546875,-1.086264958399534,-0.6178747087121009,0.2761757061567157
1727009805601143300,11.621143310546875,0.8096095789670944,-1.1616127525895834,0.09762553084120154
1727009805611181600,11.631181640625,3.8578514861941335,-0.02101882263123989,-0.07333411628007888
1727009805621219300,11.64121923828125,1.6356436385124922,-0.06417991896569729,-0.2077544232942164
1727009805631257600,11.651257568359375,-3.940486514782905,0.555768088889122,-0.40222171418778596
1727009805641295400,11.66129541015625,-4.145960572054982,0.18907646470069883,-0.8545474757157265
1727009805651332400,11.671332275390625,-0.3529062599420547,0.36727088538110253,-0.9962406232770532
1727009805661370600,11.68137060546875,2.2277169664919376,1.5099457132667302,-0.8335450196973979
1727009805671408400,11.691408447265625,0.33316403311789033,0.8481967915147542,-0.520841006284207
1727009805681446700,11.70144677734375,-1.1188602370560168,0.21402444347441196,0.042777576909586786
1727009805691484400,11.711484375,-3.066726827466488,0.11549743374884128,1.2474575370050967
1727009805701522400,11.7215224609375,-1.1257207704752683,-0.6262497383475303,2.1648918231360614
1727009805711560400,11.731560546875,1.2059177582621574,0.1069347725868225,2.499645025141537
1727009805721598500,11.741598388671875,2.908465187746286,-0.2216600529193878,1.72460363233909
1727009805731636500,11.751636474609375,3.8059254841238257,-0.14834288777410984,0.3487697446592152
1727009805741674500,11.761674560546876,0.13602876512408255,-0.7790081044763326,-0.5267488420885056
1727009805751712500,11.77171240234375,-2.5320079563468694,-1.4892881251633165,-0.4289413057439029
1727009805761750500,11.78175048828125,-3.573120936855674,-1.2080530167251824,0.42567017511874433
1727009805771788300,11.791788330078125,0.5717103389084339,-0.9213286632210016,1.3102603223986924
1727009805781826600,11.80182666015625,3.224977945792675,0.07760404868423938,1.959981391096115
1727009805791864300,11.8118642578125,0.4604822530418634,-0.8215174589037895,2.206495460895449
1727009805801902600,11.821902587890625,-0.528546319964528,0.23353929128348827,2.319565521366894
1727009805811940400,11.8319404296875,0.8339759584605694,-0.6080588326185942,1.9152583061419426
1727009805821978600,11.841978515625,0.6798802062481641,-0.17226736871898174,1.2663731037467718
1727009805832015600,11.852015625,-2.395038695502281,-1.6097604247152804,0.1845078416109085
1727009805842053400,11.862053466796874,-1.6186960108429194,-1.3454372881114482,-0.8541441556118429
1727009805852091600,11.872091552734375,0.8666910641044377,-0.4354477650284767,-1.5131160138659179
1727009805862129400,11.88212939453125,5.054686943334341,-0.09057985011339187,-1.334499422250688
1727009805872167400,11.89216748046875,1.6884218734979628,0.9948860668629407,-0.06731215257681906
1727009805882205400,11.902205322265624,-0.7091916409283876,-0.28458617243170736,1.4267790620192884
1727009805892243500,11.912243408203125,0.11179331853389739,-0.36589550537467,2.5029934587866065
1727009805902281500,11.922281494140625,-1.0483324103683234,-1.1022989783555268,2.584699974353611
1727009805912319500,11.932319580078126,-0.1360527305215597,-2.12312261955142,1.6037766741305588
1727009805922357500,11.942357421875,-0.040058454144001006,-1.7803204049944876,0.2713418562594801
1727009805932395500,11.9523955078125,1.998277511742711,-1.2557687076240778,-0.3837704770222306
1727009805942433300,11.962433349609375,1.3473708865225313,0.40283787332475185,0.10475582111254333
1727009805952471600,11.972471435546876,0.6264847161471844,0.7681488568097352,0.9307399040363729
1727009805962509300,11.98250927734375,-2.550233933389187,1.6254507458001375,1.1916093930549918
1727009805972547600,11.992547607421875,-4.186743248820305,0.5148790291398764,0.4283041768841445
1727009805982585300,12.00258544921875,-2.4343963079005477,1.0745499706864357,-0.5413059213597328
1727009805992623600,12.01262353515625,1.240492228037119,0.36158757904767985,-1.3978376296952366
1727009806002661400,12.022661376953126,0.9834738614886999,0.24783377409577367,-1.1105236397348344
1727009806012698400,12.032698486328124,-1.3784160131275653,-0.15977204428315162,0.47853228899538514
1727009806022736600,12.042736572265625,-1.8968577031850813,0.40025019491910935,2.275335626757145
1727009806032774400,12.0527744140625,0.09268179082870483,0.4920341601252556,2.8360931944966317
1727009806042812400,12.0628125,0.15204115777015687,0.12202420516908168,2.210528954195231
1727009806052850400,12.072850341796874,-1.687778314897418,0.44965807668864727,0.7808008331120013
1727009806062888400,12.082888427734375,-0.24331191275715827,0.2944400424480438,-1.1924790885616092
1727009806072926500,12.092926513671875,0.381615637075901,0.8141174117803573,-2.521161568161845
1727009806082964500,12.102964599609376,-0.37274727096557614,0.5633738877177238,-2.479169515606761
1727009806093002500,12.11300244140625,-0.46347383607327935,1.3452701148509978,-1.3155246726676821
1727009806103040500,12.12304052734375,-1.6522434756577014,0.709357060623169,-0.14840440870299934
1727009806113078300,12.133078369140625,0.5082651639580726,0.36285248441696166,0.5588159321524202
1727009806123116500,12.143116455078125,-0.0554869094222784,-0.09847966345250606,0.3405445718232542
1727009806133154300,12.153154296875,0.5105418767184019,-1.085631336671114,-0.5354746579229831
1727009806143192600,12.163192626953125,-0.8666314428716897,-0.5393196429133414,-1.3902178023412823
1727009806153230300,12.173230224609375,-1.6632704811066388,-1.0194541064083575,-1.7419307608455419
1727009806163268600,12.1832685546875,-2.1991899601876734,1.0518144072651863,-1.5209962457217274
1727009806173306400,12.193306396484376,-0.16523323229849338,1.1190513757139444,-1.3107798162281512
1727009806183344400,12.203344482421874,4.15305023805499,1.78710436604619,-1.2269989786051212
1727009806193382400,12.21338232421875,3.7402702319085597,0.9455418979793786,-1.1776106783188878
1727009806203419400,12.22341943359375,0.9295335969865322,-0.48459611907899375,-0.5859563064038753
1727009806213457400,12.23345751953125,-5.391459814599156,-1.3153864332407712,0.2790332144796848
1727009806223495400,12.243495361328126,-1.6917308519154786,-1.9584499437451361,0.5803180813211948
1727009806233533400,12.253533447265625,2.6002368584424254,-0.5991138941407204,0.1289339845575392
1727009806243571500,12.263571533203125,2.6116531554698943,-1.0315846891850233,-0.5359268586698919
1727009806253609500,12.273609375,0.2067459769040346,-0.02529752286374569,-0.3342695101417601
1727009806263647500,12.2836474609375,-2.382494855749607,-0.22913608788847922,0.4078367045253515
1727009806273685500,12.293685546875,-1.0417243904054165,0.14170096554160116,0.6847700241163373
1727009806283723300,12.30372314453125,2.145511561492085,-0.6294084946393966,-0.3017944237988442
1727009806293761500,12.313761474609375,2.6568916426002978,-1.2620868047297,-1.484884337246418
1727009806303799300,12.32379931640625,1.917548609036207,-2.30583714800477,-1.6361445737719535
1727009806313837600,12.333837646484374,-0.5688333221673965,-1.0950509069234131,-0.5281714953027665
1727009806323875300,12.343875244140625,-1.579098744469881,-0.019357611420750615,0.26043679668977854
1727009806333913600,12.35391357421875,-2.158099824908376,0.9856102889955043,0.38606881709247826
1727009806343951400,12.363951416015626,-1.190921849182248,1.4473679688006638,0.405178664297238
1727009806353989400,12.3739892578125,2.2022966940313577,1.0984995860725641,0.24718458947204053
1727009806364027400,12.38402734375,1.7268734769672154,0.32584348097145555,0.04955255093723535
1727009806374065400,12.3940654296875,2.620626150998473,-0.8216109824061393,-0.3481785007677972
1727009806384102400,12.404102294921875,-1.7924638472527263,-1.0150187543094158,-0.6074156393442303
1727009806394140400,12.414140380859376,-4.025720327693223,-0.547934911045432,-1.0647427162908016
1727009806404178400,12.424178466796874,-4.158284047055244,0.8313391802161931,-1.3293095985226333
1727009806414216400,12.434216552734375,-2.186056922370195,2.3374720571964978,-1.3353434718593955
1727009806424254500,12.44425439453125,3.0333161407738922,2.7887422452569006,-1.4627875101201235
1727009806434292500,12.45429248046875,4.777084638440608,2.2073417024612425,-1.4557704709649084
1727009806444330200,12.464330322265624,-0.5670224733531475,-0.45171442469656464,-0.35689774073101577
1727009806454368000,12.474367919921875,-6.14400135243237,-1.9086925178855656,1.6369607124604284
1727009806464406300,12.48440625,-2.052168676406145,-1.9657839398950336,2.9356320116132495
1727009806474444000,12.494444091796876,1.7213994294703006,-1.0667407582402229,2.681522810509801
1727009806484482300,12.504482421875,-0.15470657758712766,0.3559171321958303,1.1065065861131995
1727009806494520000,12.51452001953125,-0.9301075974822044,1.204872048601508,-0.7555628584157675
1727009806504558000,12.52455810546875,1.0174082797944546,1.87940387955904,-1.6077347641065716
1727009806514596000,12.53459619140625,0.7141548162937164,1.5637223116397856,-1.1773335418779403
1727009806524634000,12.544634033203126,1.1604933931708334,0.905025763195753,-0.19714096708223222
1727009806534672400,12.55467236328125,-3.2843782292664048,0.08992693916261196,0.6522166849054396
