time,seconds_elapsed,z,y,x
1727009794037451500,0.057451416015625,-0.10449519008398056,0.03243096545338631,-0.026266781613230705
1727009794047489300,0.0674892578125,-0.11487885564565659,0.0803324431180954,-0.013140594586730003
1727009794057527600,0.077527587890625,-0.07590791583061218,0.14962972700595856,0.0211978480219841
1727009794067565600,0.087565673828125,0.11225054413080215,0.16635890305042267,-0.04239311069250107
1727009794077603600,0.097603515625,0.14008501172065735,0.1308048665523529,-0.14430318772792816
1727009794087641600,0.1076416015625,-0.08353503048419952,0.0606745183467865,-0.1619114875793457
1727009794097678300,0.11767822265625,-0.21522623300552368,0.01030462235212326,-0.12167799472808838
1727009794107716600,0.127716552734375,-0.07862471044063568,0.016828302294015884,-0.03756044805049896
1727009794117754400,0.13775439453125,0.12680090963840485,0.05227191746234894,0.041565436869859695
1727009794127792600,0.147792724609375,0.12610796093940735,0.055318839848041534,0.11434829235076904
1727009794137830400,0.157830322265625,-0.03313441202044487,0.03483720123767853,0.11974593997001648
1727009794147868400,0.167868408203125,-0.09115723520517349,0.015361770987510681,0.06402569264173508
1727009794157906400,0.177906494140625,0.01827029138803482,0.013502802699804306,-0.04000326246023178
1727009794167944400,0.1879443359375,0.1088782250881195,0.028114235028624535,-0.10861055552959442
1727009794177982500,0.197982421875,0.05834055691957474,0.03190411999821663,-0.10424666106700897
1727009794188020500,0.2080205078125,-0.03439550846815109,0.027611371129751205,-0.039886049926280975
1727009794198057500,0.218057373046875,-0.021275298669934273,0.014426849782466888,0.04236871376633644
1727009794208095500,0.228095458984375,0.08082470297813416,0.004913505632430315,0.08996951580047607
1727009794218133500,0.238133544921875,0.11916250735521317,-0.000017869751900434494,0.09039455652236938
1727009794228171500,0.248171630859375,0.04383872076869011,0.0020487431902438402,0.05664006248116493
1727009794238209500,0.25820947265625,-0.03207334503531456,-0.004022682551294565,-0.008508647792041302
1727009794248247300,0.268247314453125,-0.015513543039560318,0.0021332139149308205,-0.06588006019592285
1727009794258285600,0.27828564453125,0.04069690778851509,0.009784442372620106,-0.09200190007686615
1727009794268323300,0.2883232421875,0.03345337510108948,0.008346602320671082,-0.06448531895875931
1727009794278361600,0.298361572265625,-0.018440861254930496,-0.0008002808317542076,0.0008877231739461422
1727009794288398600,0.308398681640625,-0.03279929608106613,-0.023023828864097595,0.05707482993602753
1727009794298436400,0.318436279296875,0.0027506346814334393,-0.04144112393260002,0.07815530896186829
1727009794308474600,0.328474609375,0.028325770050287247,-0.05480433255434036,0.05043420195579529
1727009794318512400,0.338512451171875,-0.006393992342054844,-0.045876406133174896,-0.003927989862859249
1727009794328550700,0.348550537109375,-0.05187305808067322,-0.023957259953022003,-0.052615098655223846
1727009794338588400,0.35858837890625,-0.05952775478363037,-0.006211149971932173,-0.07848194986581802
1727009794348626400,0.36862646484375,-0.02414579503238201,-0.01781294494867325,-0.059456855058670044
1727009794358664400,0.37866455078125,-0.008262023329734802,-0.038768038153648376,-0.014311377890408039
1727009794368702500,0.388702392578125,-0.030803551897406578,-0.05520613491535187,0.03458372876048088
1727009794378740500,0.398740478515625,-0.043107565492391586,-0.06273983418941498,0.05460362136363983
1727009794388777500,0.408777587890625,-0.03398890420794487,-0.053511980921030045,0.03177287429571152
1727009794398815500,0.4188154296875,-0.015243947505950928,-0.03793395310640335,-0.011870833113789558
1727009794408853500,0.428853515625,-0.02290559560060501,-0.03299964964389801,-0.05165526643395424
1727009794418891500,0.4388916015625,-0.03958413004875183,-0.036399368196725845,-0.059557002037763596
1727009794428929800,0.4489296875,-0.04075618460774422,-0.05388062447309494,-0.03750203549861908
1727009794438968000,0.458968017578125,-0.021714895963668823,-0.07851360738277435,0.005062876269221306
1727009794449005800,0.469005859375,-0.005533263087272644,-0.08723439276218414,0.0329459048807621
1727009794459043800,0.4790439453125,-0.01901615411043167,-0.07169491797685623,0.026497118175029755
1727009794469081900,0.489081787109375,-0.027666103094816208,-0.04106137901544571,0.0034567816182971
1727009794479120000,0.499119873046875,-0.02528119646012783,-0.010046400129795074,-0.034147992730140686
1727009794489156600,0.509156494140625,-0.006780748721212149,0.009810661897063255,-0.05812496319413185
1727009794499195000,0.51919482421875,0.013014588505029678,0.014159342274069786,-0.04228546470403671
1727009794509232600,0.529232666015625,0.017908679321408272,-0.010475696995854378,0.00235151220113039
1727009794519271000,0.53927099609375,0.020479321479797363,-0.048673491925001144,0.05823347717523575
1727009794529308700,0.54930859375,0.0215965174138546,-0.06778246909379959,0.07608357816934586
1727009794539347000,0.559346923828125,0.011265652254223824,-0.05425143241882324,0.04953327029943466
1727009794549385000,0.569385009765625,-0.003017680486664176,-0.017501406371593475,-0.008779305964708328
1727009794559422700,0.579422607421875,-0.0147633021697402,0.02142246812582016,-0.06605508923530579
1727009794569461000,0.5894609375,-0.014268220402300358,0.033172331750392914,-0.08830180764198303
1727009794579497700,0.599497802734375,0.0025183772668242455,0.03595073148608208,-0.0782826766371727
1727009794589535700,0.60953564453125,0.0331931971013546,0.031116031110286713,-0.01792878285050392
1727009794599573800,0.61957373046875,0.0543488934636116,-0.015416910871863365,0.07744783908128738
1727009794609611800,0.62961181640625,0.05380614101886749,-0.07226687669754028,0.12324275076389313
1727009794619649800,0.63964990234375,0.0328955240547657,-0.07976462692022324,0.10967718064785004
1727009794629687800,0.649687744140625,0.006741154473274946,-0.019651226699352264,0.01865086890757084
1727009794639725800,0.659725830078125,-0.000501411035656929,0.04368601739406586,-0.06481178104877472
1727009794649763800,0.669763916015625,-0.00047318171709775925,0.059972312301397324,-0.13003870844841003
1727009794659801600,0.679801513671875,0.0011326628737151623,0.03283212333917618,-0.11781816929578781
1727009794669840000,0.68983984375,0.01762774959206581,-0.020338688045740128,-0.0567082054913044
1727009794679876900,0.699876953125,0.049142010509967804,-0.034715984016656876,0.04083378240466118
1727009794689915000,0.709914794921875,0.07576590031385422,0.010295165702700615,0.10290700942277908
1727009794699953000,0.719952880859375,0.07886308431625366,0.06574144214391708,0.12576568126678467
1727009794709990700,0.72999072265625,0.07525556534528732,0.09504073858261108,0.0536440871655941
1727009794720029000,0.74002880859375,0.10446595400571823,0.03075822815299034,-0.030250951647758484
1727009794730066700,0.750066650390625,0.1239299327135086,-0.059723470360040665,-0.09714556485414505
1727009794740105000,0.76010498046875,0.12711012363433838,-0.10194861143827438,-0.12005040049552917
1727009794750142700,0.770142822265625,0.1287895143032074,-0.037516359239816666,-0.08373048156499863
1727009794760180700,0.7801806640625,0.14852038025856018,0.10842505097389221,0.004813130013644695
1727009794770218800,0.79021875,0.18026739358901978,0.25012174248695374,0.09662134945392609
1727009794780255700,0.800255859375,0.2039055973291397,0.2990109324455261,0.15664713084697723
1727009794790294000,0.8102939453125,0.19876223802566528,0.21430402994155884,0.13964258134365082
1727009794800331800,0.820331787109375,0.191273495554924,0.053681112825870514,0.05671902000904083
1727009794810369800,0.830369873046875,0.1851692646741867,-0.05538678169250488,-0.032091278582811356
1727009794820407800,0.84040771484375,0.17402468621730804,-0.038604676723480225,-0.09577025473117828
1727009794830445800,0.85044580078125,0.17059986293315887,0.07942263036966324,-0.10491634905338287
1727009794840483800,0.86048388671875,0.18288129568099976,0.1907707303762436,-0.05377938970923424
1727009794850521900,0.87052197265625,0.2067892998456955,0.19052517414093018,0.04201158508658409
1727009794860560000,0.880559814453125,0.2163226157426834,0.100836843252182,0.1161622405052185
1727009794870596900,0.890596923828125,0.211777925491333,0.013876107521355152,0.14549243450164795
1727009794880635000,0.900634765625,0.19273991882801056,0.013000670820474625,0.08877521008253098
1727009794890673000,0.9106728515625,0.1894887387752533,0.07528002560138702,-0.012210525572299957
1727009794900711000,0.9207109375,0.19135981798171997,0.13814446330070496,-0.09752124547958374
1727009794910748700,0.930748779296875,0.18675760924816132,0.16043485701084137,-0.11592608690261841
1727009794920787000,0.940786865234375,0.1781744658946991,0.1445567011833191,-0.04998905211687088
1727009794930824700,0.95082470703125,0.17615152895450592,0.10220763832330704,0.05242333933711052
1727009794940863000,0.960863037109375,0.18486995995044708,0.0660800188779831,0.12733900547027588
1727009794950900700,0.970900634765625,0.18613415956497192,0.05850119888782501,0.10550614446401596
1727009794960939000,0.98093896484375,0.17808149755001068,0.09058360010385513,0.030469663441181183
1727009794970976800,0.990976806640625,0.16585466265678406,0.09392213821411133,-0.03482598438858986
1727009794981013800,1.001013671875,0.1512536257505417,0.11910402029752731,-0.10069269686937332
1727009794991052000,1.011052001953125,0.14087875187397003,0.22705711424350739,-0.19631056487560272
1727009795001089800,1.02108984375,0.15614475309848785,0.2785913348197937,0.11806774139404297
1727009795011127800,1.0311279296875,0.16741816699504852,0.09254290908575058,-0.022426249459385872
1727009795021165800,1.041165771484375,0.16186361014842987,-0.0037837810814380646,0.11191348731517792
1727009795031203800,1.051203857421875,0.15894612669944763,-0.056314900517463684,0.059358395636081696
1727009795041241900,1.061241943359375,0.15964287519454956,-0.10397040843963623,0.09232757985591888
1727009795051280000,1.07127978515625,0.15130344033241272,-0.11156627535820007,-0.0259452685713768
1727009795061318000,1.08131787109375,0.1432482749223709,-0.005072072613984346,-0.08398032188415527
1727009795071356000,1.09135595703125,0.13981331884860992,0.12744149565696716,-0.10590905696153641
1727009795081392600,1.101392578125,0.14922361075878143,0.23756693303585052,-0.0966966524720192
1727009795091431000,1.111430908203125,0.1700625717639923,0.22973376512527466,0.003384945448487997
1727009795101469000,1.121468994140625,0.1838160753250122,0.12629851698875427,0.07301823794841766
1727009795111507000,1.1315068359375,0.17571526765823364,0.005756928585469723,0.14012323319911957
1727009795121545000,1.141544921875,0.15526357293128967,-0.058065496385097504,0.07954361289739609
1727009795131582700,1.151582763671875,0.1425483077764511,-0.007390604354441166,-0.000011938624083995819
1727009795141621000,1.16162109375,0.13477462530136108,0.0847972109913826,-0.11999660730361938
1727009795151658800,1.17165869140625,0.1351756900548935,0.16228985786437988,-0.148939311504364
1727009795161697000,1.181697021484375,0.14224691689014435,0.1648118793964386,-0.11741786450147629
1727009795171734800,1.19173486328125,0.15714384615421295,0.11368318647146225,-0.0057283551432192326
1727009795181771800,1.201771728515625,0.17770780622959137,0.06225309148430824,0.09215153753757477
1727009795191809800,1.211809814453125,0.19219353795051575,0.027789657935500145,0.13585296273231506
1727009795201847800,1.221847900390625,0.18656517565250397,0.047595515847206116,0.12373783439397812
1727009795211885800,1.2318857421875,0.16731558740139008,0.10970336198806763,0.040807802230119705
1727009795221923800,1.241923828125,0.15414711833000183,0.15824195742607117,-0.05008269101381302
1727009795231961600,1.251961669921875,0.1580963283777237,0.1361132264137268,-0.09087752550840378
1727009795242000000,1.261999755859375,0.1698642075061798,0.05651397630572319,-0.07897394895553589
1727009795252038000,1.272037841796875,0.17661239206790924,-0.008565159514546394,-0.025222832337021828
1727009795262076000,1.282075927734375,0.17872196435928345,-0.015242031775414944,0.02514263615012169
1727009795272114000,1.292114013671875,0.19219036400318146,0.05089517682790756,0.05282672867178917
1727009795282150700,1.302150634765625,0.20666851103305817,0.14223222434520721,0.043030139058828354
1727009795292189000,1.31218896484375,0.21620474755764008,0.21755334734916687,0.013957741670310497
1727009795302226700,1.322226806640625,0.2226024717092514,0.23551401495933533,-0.012090913020074368
1727009795312265000,1.332264892578125,0.22847554087638855,0.17918841540813446,-0.005916906986385584
1727009795322302700,1.342302734375,0.23928195238113403,0.09795256704092026,0.01858203113079071
1727009795332340700,1.3523408203125,0.2405426800251007,0.06497330963611603,0.04829332232475281
1727009795342378800,1.362378662109375,0.2311294674873352,0.10084455460309982,0.04083358868956566
1727009795352416800,1.372416748046875,0.22335569560527802,0.17691801488399506,0.021839125081896782
1727009795362454800,1.382454833984375,0.2218063920736313,0.24160301685333252,-0.004980343859642744
1727009795372492800,1.392492919921875,0.22388365864753723,0.2295016050338745,-0.0015307515859603882
1727009795382529800,1.40252978515625,0.21726199984550476,0.12759988009929657,0.02518944814801216
1727009795392567800,1.41256787109375,0.19714367389678955,-0.0027884822338819504,0.06443165987730026
1727009795402605800,1.422605712890625,0.16544821858406067,-0.06243477389216423,0.06402003765106201
1727009795412643800,1.432643798828125,0.13024096190929413,-0.03297089412808418,0.02081557922065258
1727009795422681900,1.442681884765625,0.10351783037185669,0.044145070016384125,-0.05024316534399986
1727009795432721000,1.452720947265625,0.07689660042524338,0.10206509381532669,-0.11089372634887695
1727009795442759000,1.462759033203125,0.05989712476730347,0.09727160632610321,-0.12717367708683014
1727009795452797000,1.472796875,0.06290517002344131,0.026369735598564148,-0.06565332412719727
1727009795462835000,1.4828349609375,0.07179909944534302,-0.04717514291405678,0.02348097413778305
1727009795472873000,1.492873046875,0.07648972421884537,-0.061347153037786484,0.06691206991672516
1727009795482910000,1.502909912109375,0.07015693187713623,-0.012634478509426117,0.06917327642440796
1727009795492947700,1.51294775390625,0.05980043113231659,0.056973896920681,0.025225799530744553
1727009795502986000,1.522986083984375,0.047889046370983124,0.11827448010444641,-0.028382187709212303
1727009795513023700,1.533023681640625,0.04913966730237007,0.13466277718544006,-0.0521162785589695
1727009795523061800,1.543061767578125,0.05831152945756912,0.08987981081008911,-0.04555512219667435
1727009795533099800,1.553099853515625,0.06178535521030426,0.00638118339702487,-0.014782028272747993
1727009795543137800,1.5631376953125,0.06661306321620941,-0.0478619709610939,0.029038380831480026
1727009795553175800,1.57317578125,0.07228266447782516,-0.029593756422400475,0.05782981589436531
1727009795563213800,1.5832138671875,0.07288264483213425,0.03558027371764183,0.048005782067775726
1727009795573251800,1.593251953125,0.0773511603474617,0.07116516679525375,0.030066195875406265
1727009795583289900,1.603289794921875,0.07873611897230148,0.055846139788627625,0.009189039468765259
1727009795593326800,1.613326904296875,0.06628424674272537,0.006603758316487074,-0.0068748826161026955
1727009795603364900,1.62336474609375,0.054834023118019104,-0.032813239842653275,-0.0348815880715847
1727009795613403000,1.63340283203125,0.060445304960012436,-0.03337463364005089,-0.045492950826883316
1727009795623441000,1.64344091796875,0.07690824568271637,-0.003901226446032524,-0.0568089559674263
1727009795633479000,1.65347900390625,0.08446496725082397,0.044417835772037506,-0.02973685786128044
1727009795643516700,1.6635166015625,0.08855819702148438,0.0852900967001915,0.020730450749397278
1727009795653555000,1.673554931640625,0.09362353384494781,0.10143417865037918,0.07647334039211273
1727009795663592700,1.6835927734375,0.0868333950638771,0.09360188245773315,0.0888979360461235
1727009795673631000,1.693630859375,0.07854244112968445,0.06760223954916,0.0578681156039238
1727009795683668700,1.703668701171875,0.07158903777599335,0.03380471467971802,0.0005405792035162449
1727009795693705700,1.713705810546875,0.06411141157150269,0.018378620967268944,-0.05165764316916466
1727009795703744000,1.723743896484375,0.056153468787670135,0.012872343882918358,-0.07168148458003998
1727009795713781800,1.73378173828125,0.05575639009475708,0.025484008714556694,-0.04883342236280441
1727009795723820000,1.743820068359375,0.06369370222091675,0.043580859899520874,-0.0060303909704089165
1727009795733857800,1.75385791015625,0.07133112102746964,0.05593259632587433,0.04520083963871002
1727009795743895800,1.763895751953125,0.07796764373779297,0.04700734466314316,0.07733237743377686
1727009795753933800,1.773933837890625,0.07275503873825073,0.031216660514473915,0.07778138667345047
1727009795763971800,1.783971923828125,0.06118220463395119,0.014436562545597553,0.03630524128675461
1727009795774009900,1.794009765625,0.056954167783260345,0.008135790005326271,-0.02126777358353138
1727009795784047900,1.8040478515625,0.056567758321762085,-0.00424664281308651,-0.0679386556148529
1727009795794086000,1.8140859375,0.059758227318525314,-0.006467185914516449,-0.06394550949335098
1727009795804123000,1.824122802734375,0.05740490183234215,0.010502863675355911,-0.045961249619722366
1727009795814161000,1.834160888671875,0.06309980899095535,0.026852276176214218,0.00041370606049895287
1727009795824199000,1.844198974609375,0.07230623066425323,0.03194716200232506,0.049436748027801514
1727009795834237000,1.85423681640625,0.07770925015211105,0.032891519367694855,0.07793709635734558
1727009795844274700,1.864274658203125,0.0745038390159607,0.029679451137781143,0.06041382998228073
1727009795854313000,1.87431298828125,0.0592212900519371,0.035888344049453735,0.006015569902956486
1727009795864350700,1.884350830078125,0.05849156528711319,0.04305615276098251,-0.051764290779829025
1727009795874389000,1.894388916015625,0.0624663308262825,0.039151426404714584,-0.07458305358886719
1727009795884426800,1.9044267578125,0.07321880012750626,0.02865503914654255,-0.05365020036697388
1727009795894465000,1.914465087890625,0.07570485770702362,0.028441721573472023,0.006529516540467739
1727009795904502800,1.924502685546875,0.0836680680513382,0.031934864819049835,0.05979272350668907
1727009795914539800,1.934539794921875,0.08829957246780396,0.04900625720620155,0.06928795576095581
1727009795924578000,1.944578125,0.09147864580154419,0.06766714155673981,0.04255792871117592
1727009795934615800,1.95461572265625,0.09056384861469269,0.08555665612220764,-0.009763596579432487
1727009795944654000,1.964654052734375,0.08808231353759766,0.07073324918746948,-0.029729848727583885
1727009795954691800,1.97469189453125,0.09400065243244171,0.022836023941636086,-0.025145215913653374
1727009795964729900,1.984729736328125,0.09726634621620178,-0.007250229828059673,-0.004954566713422537
1727009795974767900,1.994767822265625,0.09795556962490082,-0.008930684998631477,-0.006963122636079788
1727009795984806000,2.004805908203125,0.0973895862698555,0.012572204694151878,-0.0005095656961202621
1727009795994844000,2.014843994140625,0.10510503500699997,0.04227098077535629,0.008805372752249241
1727009796004882000,2.0248818359375,0.10387734323740005,0.07084869593381882,0.02376931719481945
1727009796014919700,2.034919677734375,0.10517697036266327,0.07317523658275604,0.015126027166843414
1727009796024957000,2.04495703125,0.10373064130544662,0.06334009766578674,0.01816645823419094
1727009796034995000,2.054994873046875,0.10259666293859482,0.04003211110830307,0.009958064183592796
1727009796045033000,2.065032958984375,0.09933656454086304,0.027757812291383743,0.0014903894625604153
1727009796055071000,2.075071044921875,0.09183976799249649,0.036917753517627716,-0.010156147181987762
1727009796065108700,2.085108642578125,0.0894140899181366,0.06415656208992004,-0.0041108508594334126
1727009796075147000,2.09514697265625,0.0873248428106308,0.07924177497625351,0.004893030971288681
1727009796085184800,2.105184814453125,0.08851510286331177,0.06770962476730347,0.02175668440759182
1727009796095223000,2.11522314453125,0.09037452191114426,0.04174939543008804,0.046279337257146835
1727009796105260800,2.1252607421875,0.08870266377925873,0.00926782563328743,0.04192750155925751
1727009796115299000,2.135299072265625,0.07682549953460693,0.005888806656002998,0.007655547000467777
1727009796125336800,2.1453369140625,0.05746456980705261,0.03201794624328613,-0.022496981546282768
1727009796135374800,2.155374755859375,0.048467349261045456,0.0655287653207779,-0.026585467159748077
1727009796145412000,2.165412109375,0.0501367449760437,0.06673869490623474,0.024133790284395218
1727009796155449900,2.175449951171875,0.04752365127205849,0.047447290271520615,0.07847213000059128
1727009796165487900,2.18548779296875,0.042546313256025314,0.027424169704318047,0.09434902667999268
1727009796175526000,2.19552587890625,0.02802489697933197,0.023077093064785004,0.05281969904899597
1727009796185564000,2.20556396484375,0.017423134297132492,0.02884357050061226,0.007544847670942545
1727009796195602000,2.215601806640625,0.006526544224470854,0.01879226788878441,-0.02662164531648159
1727009796205640000,2.225639892578125,-0.0019930347334593534,0.0023559785913676023,-0.010313932783901691
1727009796215678000,2.235677978515625,-0.0071885958313941956,0.00707430113106966,0.03233552724123001
1727009796225716000,2.245716064453125,-0.014521593227982521,0.026964319869875908,0.049501415342092514
1727009796235753700,2.255753662109375,-0.020761646330356598,0.044998448342084885,0.04267600178718567
1727009796245792000,2.2657919921875,-0.02857116237282753,0.04966696724295616,0.02275308221578598
1727009796255828700,2.275828857421875,-0.03165297210216522,0.030196329578757286,0.04547783359885216
1727009796265866800,2.28586669921875,-0.034187424927949905,0.01893376000225544,0.07727654278278351
1727009796275904800,2.29590478515625,-0.042435768991708755,0.014125421643257141,0.06875442713499069
1727009796285942800,2.30594287109375,-0.04146192967891693,0.018771901726722717,0.025676164776086807
1727009796295981000,2.31598095703125,-0.047686800360679626,0.023632168769836426,-0.013091469183564186
1727009796306018800,2.326018798828125,-0.04536953195929527,0.02095714397728443,-0.04459388181567192
1727009796316057000,2.33605712890625,-0.02190442383289337,0.03290168568491936,0.005107895936816931
1727009796326094800,2.3460947265625,0.010068750008940697,0.07716338336467743,0.10096872597932816
1727009796336132900,2.3561328125,0.027437087148427963,0.10842196643352509,0.14993147552013397
1727009796346171000,2.3661708984375,0.04343660920858383,0.10821670293807983,0.17157430946826935
1727009796356209000,2.376208984375,0.06177513301372528,0.0930798277258873,0.129872664809227
1727009796366247000,2.386246826171875,0.0661436915397644,0.07637586444616318,0.061364997178316116
1727009796376284000,2.396283935546875,0.061699144542217255,0.07352175563573837,-0.024758970364928246
1727009796386321700,2.40632177734375,0.06776821613311768,0.10128089785575867,-0.016247235238552094
1727009796396360000,2.41635986328125,0.07215337455272675,0.1532743275165558,0.005762193351984024
1727009796406397700,2.426397705078125,0.0689057856798172,0.22039403021335602,0.05015697330236435
1727009796416436000,2.43643603515625,0.07176867872476578,0.23492476344108582,0.08795282244682312
1727009796426473700,2.4464736328125,0.08822895586490631,0.19116869568824768,0.14788569509983063
1727009796436511000,2.456510986328125,0.10219909995794296,0.10429345816373825,0.15170574188232422
1727009796446549200,2.46654931640625,0.09929917007684708,0.05644424259662628,0.1228158175945282
1727009796456587000,2.4765869140625,0.07909243553876877,0.05274937301874161,0.007470843382179737
1727009796466625000,2.486625,0.06602674722671509,0.10107889771461487,-0.09231767058372498
1727009796476663000,2.4966630859375,0.07170034199953079,0.15412798523902893,-0.08003943413496017
1727009796486700000,2.506699951171875,0.08852369338274002,0.19946476817131042,0.02952839620411396
1727009796496738300,2.51673828125,0.09960297495126724,0.22266623377799988,0.1759473979473114
1727009796506776000,2.526776123046875,0.11377839744091034,0.17735381424427032,0.18139609694480896
1727009796516814000,2.53681396484375,0.1346741020679474,0.12508101761341095,0.1715133786201477
1727009796526852000,2.54685205078125,0.1312909573316574,0.10638588666915894,0.06199391186237335
1727009796536890000,2.55689013671875,0.1164555549621582,0.1314379870891571,-0.03381916880607605
1727009796546928000,2.56692822265625,0.10638456791639328,0.1525113880634308,-0.07975558936595917
1727009796556966100,2.576966064453125,0.11560842394828796,0.16953006386756897,0.029599394649267197
1727009796567004000,2.58700390625,0.10925640165805817,0.21079252660274506,0.07823148369789124
1727009796577042200,2.597042236328125,0.09789722412824631,0.23092550039291382,0.05322413891553879
1727009796587080000,2.607079833984375,0.10014614462852478,0.22941642999649048,0.10328337550163269
1727009796597118200,2.6171181640625,0.08777043223381042,0.19114920496940613,0.0750751718878746
1727009796607155200,2.6271552734375,0.0764235258102417,0.1545354723930359,0.1076117679476738
1727009796617193000,2.63719287109375,0.08082892745733261,0.10354471206665039,0.1163163110613823
1727009796627231200,2.647231201171875,0.067687027156353,0.11150974780321121,0.12058267742395401
1727009796637269000,2.65726904296875,0.022107820957899094,0.1250484585762024,0.018581487238407135
1727009796647307300,2.667307373046875,-0.013770367950201035,0.14310039579868317,0.00026078103110194206
1727009796657345000,2.677344970703125,-0.022423511371016502,0.10887850821018219,0.01028225664049387
1727009796667383300,2.68738330078125,-0.02194468304514885,0.041511617600917816,0.0345412902534008
1727009796677421000,2.697421142578125,-0.01569424569606781,0.02811964601278305,0.11223582178354263
1727009796687459000,2.707458984375,-0.026093684136867523,0.05830151215195656,0.07340233027935028
1727009796697497000,2.7174970703125,-0.035791318863630295,0.1452433466911316,0.06504426151514053
1727009796707535000,2.72753515625,-0.026412859559059143,0.19803160429000854,-0.007922506891191006
1727009796717573000,2.737572998046875,0.004117352422326803,0.18937340378761292,0.025797106325626373
1727009796727611100,2.747611083984375,0.047782137989997864,0.1413271129131317,0.05996135622262955
1727009796737648000,2.757648193359375,0.08997885882854462,0.17341260612010956,0.055985257029533386
1727009796747686100,2.76768603515625,0.14117205142974854,0.32620757818222046,0.09152712672948837
1727009796757724200,2.77772412109375,0.21127231419086456,0.47792574763298035,0.012754552066326141
1727009796767762200,2.78776220703125,0.32529476284980774,0.47836700081825256,0.027821388095617294
1727009796777800200,2.79780029296875,0.4478086829185486,0.3677595257759094,0.004877723753452301
1727009796787838000,2.807837890625,0.5170114040374756,0.22628334164619446,0.1877925992012024
1727009796797876200,2.817876220703125,0.5380354523658752,0.22212640941143036,0.15575583279132843
1727009796807914000,2.8279140625,0.6325579881668091,0.42659473419189453,0.221540629863739
1727009796817952300,2.8379521484375,0.7807229161262512,0.6247128844261169,0.025677373632788658
1727009796827990000,2.847989990234375,0.9115694165229797,0.8060580492019653,-0.20657162368297577
1727009796838028300,2.8580283203125,0.9400671124458313,0.665005087852478,-0.13213974237442017
1727009796848066000,2.868066162109375,0.9386289715766907,0.4098499119281769,-0.2212950885295868
1727009796858104000,2.87810400390625,1.0755996704101562,0.42006686329841614,0.03564269840717316
1727009796868141000,2.88814111328125,1.2859046459197998,0.6146692037582397,0.15151910483837128
1727009796878179000,2.898178955078125,1.4173692464828491,0.9334930181503296,0.24484051764011383
1727009796888217000,2.908217041015625,1.439319372177124,1.080055832862854,0.30985331535339355
1727009796898255000,2.918255126953125,1.4672999382019043,1.158212661743164,0.24965865910053253
1727009796908293000,2.928293212890625,1.5680794715881348,1.2173112630844116,0.1961331069469452
1727009796918331100,2.9383310546875,1.6821365356445312,1.1892825365066528,0.18432305753231049
1727009796928369200,2.948369140625,1.7098432779312134,1.2843527793884277,0.11563262343406677
1727009796938407200,2.9584072265625,1.7070597410202026,1.3550719022750854,0.07620985060930252
1727009796948445200,2.968445068359375,1.7708873748779297,1.3241780996322632,-0.038730330765247345
1727009796958483000,2.97848291015625,1.8786468505859375,1.1411981582641602,0.18651823699474335
1727009796968521200,2.988521240234375,1.9125648736953735,1.2115163803100586,0.5547465085983276
1727009796978559000,2.99855908203125,1.8033595085144043,1.5724104642868042,0.7115166783332825
1727009796988596000,3.008595947265625,1.6738605499267578,2.006742238998413,0.7346121668815613
1727009796998634000,3.018634033203125,1.6973363161087036,2.1321749687194824,0.6295309662818909
1727009797008672000,3.028672119140625,1.7966723442077637,1.764735460281372,0.4043664038181305
1727009797018710000,3.0387099609375,1.7895222902297974,1.0564433336257935,0.036358289420604706
1727009797028748000,3.048748046875,1.730048656463623,0.7707241177558899,0.019108792766928673
1727009797038786000,3.0587861328125,1.6380891799926758,0.9144988656044006,0.25287628173828125
1727009797048824000,3.068823974609375,1.4801030158996582,1.2672048807144165,0.3740907907485962
1727009797058862000,3.078862060546875,1.3576887845993042,1.6778571605682373,0.47172415256500244
1727009797068900000,3.088900146484375,1.3484001159667969,2.042431592941284,0.9069664478302002
1727009797078938000,3.098938232421875,1.301000952720642,1.719653844833374,0.8318535685539246
1727009797088976100,3.10897607421875,1.1675769090652466,1.2206815481185913,0.7908195853233337
1727009797099014100,3.11901416015625,1.001381278038025,0.6798962950706482,0.5626742839813232
1727009797109052200,3.12905224609375,0.8677372336387634,0.392115980386734,0.17404024302959442
1727009797119089200,3.139089111328125,0.7623277306556702,0.5881504416465759,-0.01789216510951519
1727009797129127000,3.149126953125,0.676725447177887,0.9060627222061157,0.17303234338760376
1727009797139165200,3.159165283203125,0.582427978515625,1.1144229173660278,0.3373834788799286
1727009797149203000,3.169202880859375,0.45037299394607544,1.1253142356872559,0.5190706849098206
1727009797159241000,3.179240966796875,0.3565490245819092,0.8835845589637756,0.45251959562301636
1727009797169279000,3.189279052734375,0.3490231931209564,0.6596563458442688,0.5453678369522095
1727009797179317000,3.19931689453125,0.24829259514808655,0.35317444801330566,0.30643323063850403
1727009797189355000,3.20935498046875,0.06897149980068207,0.25122272968292236,0.17598646879196167
1727009797199393000,3.21939306640625,-0.028608588501811028,0.2630500793457031,-0.008526652120053768
1727009797209431300,3.229431396484375,-0.015117419883608818,0.3946814239025116,-0.07385250926017761
1727009797219469000,3.239468994140625,-0.011148245073854923,0.4026668965816498,-0.004243070259690285
1727009797229507000,3.249507080078125,-0.068478062748909,0.26835155487060547,0.07606281340122223
1727009797239545000,3.259545166015625,-0.11218186467885971,0.08309274911880493,0.20929330587387085
1727009797249582000,3.26958203125,-0.10258394479751587,0.05049074441194534,0.22577567398548126
1727009797259620000,3.2796201171875,-0.02100386656820774,0.09181580692529678,0.18810498714447021
1727009797269658000,3.289658203125,0.05742587894201279,0.11455363035202026,0.2378794401884079
1727009797279696000,3.29969580078125,0.03336102142930031,0.328791081905365,0.47044986486434937
1727009797289734100,3.309734130859375,-0.053492724895477295,0.6547260880470276,0.5216642618179321
1727009797299772000,3.31977197265625,-0.010277078486979008,0.3458758592605591,0.7466097474098206
1727009797309810200,3.32981005859375,-0.011539462953805923,-0.444311261177063,0.6945472359657288
1727009797319848000,3.339847900390625,-0.39759954810142517,-0.6110467314720154,-0.08399835228919983
1727009797329886000,3.349885986328125,-0.9166996479034424,-0.1685200333595276,-0.30285966396331787
1727009797339924200,3.35992431640625,-1.0570228099822998,-0.5367108583450317,-0.6933233141899109
1727009797349962000,3.3699619140625,-0.671772837638855,-0.9043841361999512,-0.4089353382587433
1727009797360000300,3.380000244140625,-0.48367294669151306,-0.03301301971077919,-0.14114996790885925
1727009797370038000,3.3900380859375,-0.6826726198196411,-0.5283941626548767,0.8349844217300415
1727009797380075000,3.400074951171875,-0.769936203956604,-0.879167377948761,1.4960185289382935
1727009797390113000,3.410113037109375,-0.9537291526794434,-1.0465859174728394,1.7811967134475708
1727009797400151000,3.420151123046875,-1.667210578918457,-0.1377275586128235,0.632750928401947
1727009797410189000,3.43018896484375,-2.5193490982055664,1.3013497591018677,0.004701246507465839
1727009797420227000,3.44022705078125,-2.769421339035034,1.2107199430465698,-1.2503418922424316
1727009797430265000,3.45026513671875,-2.224959373474121,-0.1842794120311737,-1.836059808731079
1727009797440303600,3.4603037109375,-1.7378742694854736,-2.7781715393066406,-1.0401521921157837
1727009797450341400,3.47034130859375,-2.009675979614258,-4.819695949554443,-0.1876811981201172
1727009797460379400,3.48037939453125,-2.419050455093384,-4.759162425994873,0.8163334131240845
1727009797470417400,3.49041748046875,-2.8149397373199463,-3.1931254863739014,0.5114924907684326
1727009797480455400,3.500455322265625,-2.713197946548462,-0.37774550914764404,-0.023941677063703537
1727009797490493400,3.510493408203125,-2.273249626159668,1.5469677448272705,-0.4506460726261139
1727009797500531500,3.520531494140625,-2.170865297317505,1.3460361957550049,-0.03685474768280983
1727009797510568400,3.530568359375,-2.5779573917388916,0.015082480385899544,-0.07663322240114212
1727009797520606500,3.5406064453125,-3.0458929538726807,-2.2398276329040527,-0.033165112137794495
1727009797530644500,3.55064453125,-3.202570915222168,-4.077869892120361,-0.3294519782066345
1727009797540682500,3.5606826171875,-2.994920253753662,-4.558002471923828,-0.30611976981163025
1727009797550720500,3.570720458984375,-2.7274928092956543,-3.9692187309265137,-0.6586697697639465
1727009797560758300,3.58075830078125,-2.586515188217163,-2.1970489025115967,-0.5682317614555359
1727009797570796500,3.590796630859375,-2.561771869659424,-0.6670321822166443,-0.7946624159812927
1727009797580834300,3.600834228515625,-2.4568958282470703,-0.09411352872848511,-0.4656778872013092
1727009797590872600,3.61087255859375,-2.3317277431488037,-0.26396068930625916,0.0895242691040039
1727009797600910300,3.620910400390625,-2.2721283435821533,-0.9776220917701721,0.25791701674461365
1727009797610948600,3.630948486328125,-2.064678907394409,-1.8239766359329224,0.4668116867542267
1727009797620986400,3.640986328125,-1.7376339435577393,-2.088099718093872,0.2962245047092438
1727009797631024400,3.6510244140625,-1.4442793130874634,-1.6168652772903442,-0.3533261716365814
1727009797641061600,3.6610615234375,-1.1716922521591187,-0.9154866933822632,-0.7216903567314148
1727009797651099400,3.671099365234375,-0.8849635124206543,-0.33143359422683716,-0.6422824859619141
1727009797661137400,3.681137451171875,-0.621530294418335,0.003129479940980673,-0.31773048639297485
1727009797671175400,3.691175537109375,-0.35515204071998596,0.18802477419376373,-0.028833886608481407
1727009797681213400,3.70121337890625,0.027631014585494995,0.23770125210285187,0.31510189175605774
1727009797691251500,3.71125146484375,0.4286876320838928,0.18414214253425598,0.5292181968688965
1727009797701289500,3.72128955078125,0.7160069942474365,0.37481701374053955,0.2982904314994812
1727009797711327500,3.731327392578125,0.9987116456031799,0.28689202666282654,0.31028956174850464
1727009797721365500,3.741365478515625,1.2332756519317627,0.2061348557472229,0.3247068524360657
1727009797731403300,3.7514033203125,1.3466767072677612,0.3502224385738373,0.12949107587337494
1727009797741441500,3.761441650390625,1.449506402015686,0.7262767553329468,-0.03154388815164566
1727009797751479300,3.771479248046875,1.642248272895813,1.1884839534759521,-0.46549829840660095
1727009797761517600,3.781517578125,1.956717610359192,1.4557161331176758,-0.4306716024875641
1727009797771554600,3.791554443359375,2.297847270965576,1.2852510213851929,0.10922648012638092
1727009797781592300,3.80159228515625,2.5031909942626953,0.8057573437690735,0.6547489166259766
1727009797791630600,3.811630615234375,2.570120334625244,0.6499248147010803,0.9607011675834656
1727009797801668400,3.82166845703125,2.5314548015594482,1.0645393133163452,0.6518727540969849
1727009797811706600,3.83170654296875,2.482858896255493,1.8132404088974,0.02414257451891899
1727009797821744400,3.841744384765625,2.576341390609741,2.3167669773101807,-0.4249361455440521
1727009797831782400,3.851782470703125,2.723660707473755,2.4559664726257324,0.004104230087250471
1727009797841820400,3.8618203125,2.701138496398926,2.2027907371520996,0.325798898935318
1727009797851858400,3.8718583984375,2.5588366985321045,2.0215582847595215,0.8460187315940857
1727009797861896400,3.881896484375,2.4055027961730957,1.9454550743103027,0.9814945459365845
1727009797871934500,3.8919345703125,2.3093080520629883,1.7669037580490112,0.5504164695739746
1727009797881972500,3.901972412109375,2.2255566120147705,1.781341552734375,0.42981335520744324
1727009797892010500,3.912010498046875,1.9657279253005981,1.6483302116394043,0.033616285771131516
1727009797902047500,3.922047607421875,1.6645294427871704,1.5034785270690918,-0.07015404850244522
1727009797912085500,3.93208544921875,1.469028353691101,1.2881220579147339,0.015889016911387444
1727009797922123500,3.94212353515625,1.3489586114883423,1.179834246635437,0.17170551419258118
1727009797932161500,3.95216162109375,1.2118762731552124,1.0741745233535767,0.3863641321659088
1727009797942199600,3.962199462890625,1.0024540424346924,0.9712696671485901,0.42713794112205505
1727009797952237300,3.9722373046875,0.7544764876365662,0.8293731808662415,0.453764408826828
1727009797962275600,3.982275634765625,0.5042557120323181,0.642379879951477,0.3135012984275818
1727009797972313300,3.992313232421875,0.260209858417511,0.3740958869457245,0.061003029346466064
1727009797982351600,4.0023515625,-0.005744330119341612,0.013014400377869606,-0.06166776642203331
1727009797992389400,4.012389404296875,-0.3078913688659668,-0.35470274090766907,-0.14023324847221375
1727009798002427400,4.022427490234375,-0.6120965480804443,-0.5642086267471313,-0.20565779507160187
1727009798012465400,4.03246533203125,-0.8375200629234314,-0.4034441411495209,-0.07796201854944229
1727009798022503400,4.04250341796875,-1.0062776803970337,-0.18930360674858093,0.015895767137408257
1727009798032540700,4.052540771484375,-1.1672345399856567,-0.08262430876493454,0.18880222737789154
1727009798042578400,4.062578369140625,-1.3696593046188354,-0.16311834752559662,0.30550965666770935
1727009798052616400,4.072616455078125,-1.5910577774047852,-0.34615394473075867,0.3599691689014435
1727009798062654500,4.082654541015625,-1.7719777822494507,-0.6502840518951416,0.16282761096954346
1727009798072692500,4.0926923828125,-1.9077991247177124,-0.8720859885215759,-0.03727519512176514
1727009798082730500,4.10273046875,-2.0520424842834473,-0.9956584572792053,-0.3748968839645386
1727009798092768500,4.1127685546875,-2.1625099182128906,-1.140211582183838,-0.5088799595832825
1727009798102806500,4.122806640625,-2.2078511714935303,-1.1101051568984985,-0.29813551902770996
1727009798112844500,4.132844482421875,-2.2061667442321777,-1.1306813955307007,-0.2102363109588623
1727009798122882300,4.14288232421875,-2.152254581451416,-1.1252613067626953,0.04850044101476669
1727009798132920600,4.152920654296875,-2.152794361114502,-1.178052544593811,0.16006635129451752
1727009798142958300,4.162958251953125,-2.2275359630584717,-1.3208634853363037,0.12226757407188416
1727009798152996600,4.17299658203125,-2.302910089492798,-1.357828140258789,0.019121546298265457
1727009798163033600,4.18303369140625,-2.3239545822143555,-1.3980865478515625,-0.35658231377601624
1727009798173071400,4.1930712890625,-2.2774384021759033,-1.3227218389511108,-0.5159885287284851
1727009798183109600,4.203109619140625,-2.2679717540740967,-1.3660370111465454,-0.5802785158157349
1727009798193147400,4.2131474609375,-2.24763822555542,-1.3692541122436523,-0.4250255227088928
1727009798203185700,4.223185546875,-2.168889045715332,-1.4305880069732666,-0.014233717694878578
1727009798213223400,4.233223388671875,-2.0468318462371826,-1.4798940420150757,0.17045024037361145
1727009798223261400,4.243261474609375,-1.9509503841400146,-1.502662181854248,0.1526416838169098
1727009798233299500,4.253299560546875,-1.9318876266479492,-1.4544017314910889,-0.20093341171741486
1727009798243337500,4.26333740234375,-1.9358952045440674,-1.2810264825820923,-0.3732401728630066
1727009798253375500,4.27337548828125,-1.8907297849655151,-1.0598138570785522,-0.5657415986061096
1727009798263413500,4.28341357421875,-1.7261658906936646,-0.9034804105758667,-0.48084455728530884
1727009798273451500,4.293451416015625,-1.5397839546203613,-0.772567868232727,-0.40235447883605957
1727009798283489500,4.303489501953125,-1.3925814628601074,-0.7661054134368896,-0.3035011291503906
1727009798293527300,4.31352734375,-1.2366859912872314,-0.7803800106048584,-0.05077081546187401
1727009798303564500,4.323564453125,-1.0685086250305176,-0.9383781552314758,0.24915999174118042
1727009798313602600,4.3336025390625,-0.922748327255249,-1.1246205568313599,0.4061506986618042
1727009798323640300,4.343640380859375,-0.829943835735321,-1.1038074493408203,0.2899830639362335
1727009798333678600,4.3536787109375,-0.7898939847946167,-0.8803315758705139,-0.09483210742473602
1727009798343716400,4.36371630859375,-0.7502714991569519,-0.4931374788284302,-0.3923972249031067
1727009798353754600,4.373754638671875,-0.6457124948501587,-0.23088328540325165,-0.5924356579780579
1727009798363792400,4.38379248046875,-0.4562003016471863,-0.18799200654029846,-0.4395100176334381
1727009798373830700,4.39383056640625,-0.27363303303718567,-0.3605330288410187,-0.10991966724395752
1727009798383868400,4.403868408203125,-0.17246729135513306,-0.5961977243423462,0.15212658047676086
1727009798393906400,4.413906494140625,-0.08992446213960648,-0.6589581370353699,0.3882056772708893
1727009798403944400,4.4239443359375,0.03267868980765343,-0.6452924013137817,0.5842073559761047
1727009798413982500,4.433982421875,0.14353317022323608,-0.3563801646232605,0.4942837655544281
1727009798424020500,4.4440205078125,0.19189192354679108,-0.12896272540092468,0.243379607796669
1727009798434061600,4.4540615234375,0.1710086315870285,-0.014499315991997719,-0.18397347629070282
1727009798444098600,4.4640986328125,0.1531798243522644,-0.006820888724178076,-0.3571431338787079
1727009798454136600,4.474136474609375,0.18997345864772797,-0.1258237212896347,-0.26613688468933105
1727009798464174600,4.484174560546875,0.3150802552700043,-0.23634356260299683,-0.03484639525413513
1727009798474212600,4.494212646484375,0.44680672883987427,-0.08946764469146729,0.3294583857059479
1727009798484250600,4.504250732421875,0.470093697309494,0.12592455744743347,0.3925310969352722
1727009798494288600,4.51428857421875,0.4675899147987366,0.35337796807289124,0.24413326382637024
1727009798504326700,4.52432666015625,0.5299561023712158,0.26038384437561035,0.2570280134677887
1727009798514364400,4.534364501953125,0.5881044268608093,0.1921168863773346,0.11558938771486282
1727009798524402700,4.544402587890625,0.5417183041572571,0.1865633875131607,0.01239109318703413
1727009798534440400,4.5544404296875,0.4551953077316284,0.3397611677646637,-0.08767268061637878
1727009798544478700,4.564478759765625,0.4374474883079529,0.5270474553108215,-0.029034674167633057
1727009798554516500,4.5745166015625,0.5025388598442078,0.6677705645561218,0.05193372443318367
1727009798564554800,4.5845546875,0.5694555640220642,0.6662770509719849,0.13054464757442474
1727009798574591700,4.594591796875,0.5607202053070068,0.44508615136146545,0.1653243899345398
1727009798584629500,4.60462939453125,0.4915158450603485,0.1939799189567566,0.20284700393676758
1727009798594667800,4.614667724609375,0.436075359582901,-0.05022628977894783,0.25317829847335815
1727009798604705500,4.62470556640625,0.41952595114707947,-0.08779976516962051,0.18810580670833588
1727009798614743600,4.63474365234375,0.37871575355529785,-0.04323478415608406,0.01987893134355545
1727009798624781600,4.644781494140625,0.2868063151836395,0.11682119220495224,-0.22328951954841614
1727009798634819600,4.654819580078125,0.2210976481437683,0.16506318747997284,-0.23505833745002747
1727009798644857600,4.664857666015625,0.21493244171142578,-0.037902723997831345,-0.02681458555161953
1727009798654895600,4.6748955078125,0.21061061322689056,-0.26860126852989197,0.3440307378768921
1727009798664933600,4.68493359375,0.11528568714857101,-0.3146992623806,0.4282318949699402
1727009798674971600,4.6949716796875,-0.045287542045116425,-0.1404435932636261,0.2677026093006134
1727009798685009400,4.705009521484375,-0.16328449547290802,0.1287527084350586,-0.13320781290531158
1727009798695047700,4.715047607421875,-0.1870126575231552,0.29240304231643677,-0.3044625222682953
1727009798705084700,4.725084716796875,-0.18632690608501434,0.24330684542655945,-0.3489535450935364
1727009798715122400,4.735122314453125,-0.2233884632587433,-0.07319913059473038,-0.10424035787582397
1727009798725160700,4.74516064453125,-0.27873510122299194,-0.3889176845550537,0.1648920476436615
1727009798735198500,4.755198486328125,-0.32967960834503174,-0.4929378032684326,0.328967422246933
1727009798745236700,4.76523681640625,-0.3592718541622162,-0.3448900282382965,0.2843030095100403
1727009798755274500,4.7752744140625,-0.3877577781677246,-0.1301119327545166,0.07842476665973663
1727009798765312800,4.785312744140625,-0.4698449373245239,0.047376830130815506,-0.17842060327529907
1727009798775350500,4.7953505859375,-0.5897126197814941,0.016102058812975883,-0.34797006845474243
1727009798785388500,4.805388427734375,-0.6732213497161865,-0.2938489019870758,-0.29889678955078125
1727009798795426600,4.815426513671875,-0.6954700350761414,-0.7161290645599365,-0.06837227195501328
1727009798805464600,4.825464599609375,-0.7270905375480652,-1.0832325220108032,0.13330811262130737
1727009798815502600,4.835502685546875,-0.8056503534317017,-1.1081165075302124,0.16657628118991852
1727009798825540600,4.84554052734375,-0.8973594903945923,-0.8193798661231995,-0.00928529817610979
1727009798835578600,4.85557861328125,-0.9300893545150757,-0.49092546105384827,-0.20429998636245728
1727009798845615600,4.86561572265625,-0.8920911550521851,-0.3445967435836792,-0.3343008756637573
1727009798855653600,4.875653564453125,-0.8557208180427551,-0.4979557394981384,-0.20463977754116058
1727009798865691600,4.885691650390625,-0.890408992767334,-0.6966531276702881,-0.07952339947223663
1727009798875729700,4.895729736328125,-0.9077436923980713,-0.7946162223815918,0.11501362174749374
1727009798885767400,4.905767333984375,-0.836855411529541,-0.7503252029418945,0.128732368350029
1727009798895805700,4.9158056640625,-0.7330455780029297,-0.5559316873550415,0.20440571010112762
1727009798905843500,4.925843505859375,-0.7296385765075684,-0.41593438386917114,0.10003722459077835
1727009798915881700,4.9358818359375,-0.8013014197349548,-0.26863110065460205,-0.06793878972530365
1727009798925919500,4.94591943359375,-0.8169136643409729,-0.4008706212043762,-0.1736345887184143
1727009798935957800,4.955957763671875,-0.6984569430351257,-0.6115561723709106,-0.06590984016656876
1727009798945995500,4.96599560546875,-0.5657023787498474,-0.9965818524360657,0.06542474776506424
1727009798956033500,4.976033447265625,-0.5329236388206482,-1.0806936025619507,0.005456083454191685
1727009798966071600,4.986071533203125,-0.5725138783454895,-0.9339656233787537,-0.03592171519994736
1727009798976109600,4.996109619140625,-0.5440266132354736,-0.6982892751693726,-0.08962532877922058
1727009798986146800,5.006146728515625,-0.4128741919994354,-0.36054348945617676,-0.03728409856557846
1727009798996184600,5.0161845703125,-0.33258533477783203,-0.25918400287628174,0.04531683772802353
1727009799006222600,5.02622265625,-0.3848448097705841,-0.1531292200088501,0.0518045648932457
1727009799016260600,5.036260498046875,-0.4283004403114319,-0.25215020775794983,-0.032881997525691986
1727009799026298600,5.046298583984375,-0.35137316584587097,-0.26820775866508484,-0.1714787483215332
1727009799036336600,5.056336669921875,-0.2698812186717987,-0.3422502279281616,-0.24382489919662476
1727009799046374700,5.066374755859375,-0.24576391279697418,-0.44365090131759644,-0.10102888196706772
1727009799056412400,5.076412353515625,-0.21898005902767181,-0.5444114804267883,0.12615853548049927
1727009799066450700,5.08645068359375,-0.18770283460617065,-0.6074498295783997,0.06847499310970306
1727009799076488400,5.096488525390625,-0.15849851071834564,-0.5154244303703308,0.05982551351189613
1727009799086526700,5.106526611328125,-0.15897227823734283,-0.2891463041305542,0.09942033141851425
1727009799096564500,5.116564453125,-0.16684545576572418,-0.022673845291137695,0.15841886401176453
1727009799106602800,5.126602783203125,-0.1338731199502945,0.19382330775260925,0.057547640055418015
1727009799116640500,5.136640625,-0.04527141898870468,0.1983669400215149,0.12504275143146515
1727009799126677500,5.146677490234375,0.01556902565062046,-0.04497833922505379,0.022601870819926262
1727009799136715800,5.1567158203125,-0.01118488609790802,-0.3472210764884949,0.11139371246099472
1727009799146753500,5.16675341796875,-0.08688683807849884,-0.40477731823921204,0.08741993457078934
1727009799156791800,5.176791748046875,-0.09926693886518478,-0.37765082716941833,0.07342220097780228
1727009799166829600,5.18682958984375,-0.05872723087668419,-0.27816471457481384,0.016934428364038467
1727009799176867600,5.19686767578125,-0.08117756992578506,-0.2169625610113144,-0.09514690190553665
1727009799186905600,5.206905517578125,-0.1574225276708603,-0.19478587806224823,-0.04716205969452858
1727009799196943600,5.216943603515625,-0.18347111344337463,-0.3161461055278778,-0.035993482917547226
1727009799206981600,5.226981689453125,-0.1393103152513504,-0.5001524090766907,0.09368567913770676
1727009799217019600,5.23701953125,-0.11604109406471252,-0.5558122396469116,0.0326555073261261
1727009799227057700,5.2470576171875,-0.18144379556179047,-0.5615926384925842,0.016324739903211594
1727009799237095700,5.257095703125,-0.27164793014526367,-0.48540306091308594,-0.05685991421341896
1727009799247133400,5.267133544921875,-0.3173147439956665,-0.496278315782547,-0.17892883718013763
1727009799257170700,5.277170654296875,-0.3334246575832367,-0.41456544399261475,-0.07319309562444687
1727009799267208700,5.287208740234375,-0.396017462015152,-0.38567841053009033,0.019550953060388565
1727009799277246500,5.29724658203125,-0.4505396783351898,-0.3678688108921051,0.1668369174003601
1727009799287284700,5.30728466796875,-0.4716622531414032,-0.32601723074913025,0.14480885863304138
1727009799297322500,5.317322509765625,-0.4798664152622223,-0.39572036266326904,0.10276104509830475
1727009799307360800,5.32736083984375,-0.509204089641571,-0.5066596865653992,-0.12876778841018677
1727009799317398500,5.3373984375,-0.563804566860199,-0.6707009077072144,-0.2082604169845581
1727009799327436800,5.347436767578125,-0.5852813720703125,-0.6118663549423218,-0.10822463035583496
1727009799337474600,5.357474609375,-0.5473310351371765,-0.6074443459510803,-0.0816970244050026
1727009799347512600,5.3675126953125,-0.47070440649986267,-0.6145515441894531,0.21538178622722626
1727009799357550600,5.377550537109375,-0.4456539452075958,-0.6397252082824707,0.27178576588630676
1727009799367588600,5.387588623046875,-0.4507429897785187,-0.7089085578918457,0.30130690336227417
1727009799377626600,5.397626708984375,-0.4186539351940155,-0.6822562217712402,0.040692660957574844
1727009799387664600,5.40766455078125,-0.33461976051330566,-0.5972057580947876,-0.09611418843269348
1727009799397701400,5.417701416015625,-0.2505389451980591,-0.543710470199585,-0.28762516379356384
1727009799407739600,5.42773974609375,-0.17752225697040558,-0.5455581545829773,-0.18947383761405945
1727009799417777700,5.437777587890625,-0.08998816460371017,-0.4555184245109558,0.07007180899381638
1727009799427815700,5.447815673828125,0.0015721083618700504,-0.3262901306152344,0.22781243920326233
1727009799437850400,5.457850341796875,0.08600935339927673,-0.2079317718744278,0.25292009115219116
1727009799447888400,5.467888427734375,0.1473158597946167,-0.06919439882040024,0.14435125887393951
1727009799457926400,5.477926513671875,0.19405685365200043,-0.10075151920318604,0.12938843667507172
1727009799467964400,5.48796435546875,0.227209210395813,-0.17778025567531586,0.05455441400408745
1727009799478002400,5.49800244140625,0.2574503421783447,-0.31749680638313293,-0.03224983066320419
1727009799488040400,5.50804052734375,0.3175560235977173,-0.3973549008369446,0.09961952269077301
1727009799498078500,5.518078369140625,0.3777346909046173,-0.30441051721572876,0.01910695806145668
1727009799508116500,5.528116455078125,0.4259727895259857,-0.12394911795854568,0.1418275535106659
1727009799518154500,5.538154541015625,0.4616160988807678,0.07741695642471313,0.012274118140339851
1727009799528192500,5.548192626953125,0.5304990410804749,0.15117718279361725,0.0781031996011734
1727009799538229500,5.5582294921875,0.6076926589012146,0.13538570702075958,0.0518106073141098
1727009799548267300,5.568267333984375,0.6658454537391663,0.04921460896730423,0.042858392000198364
1727009799558305500,5.578305419921875,0.7360601425170898,0.004488162696361542,0.11779066175222397
1727009799568343300,5.58834326171875,0.8321408629417419,-0.017873069271445274,0.16120471060276031
1727009799578381600,5.598381591796875,0.9304725527763367,0.032894477248191833,0.2305092066526413
1727009799588419300,5.60841943359375,0.9759430885314941,0.27186310291290283,0.08853022009134293
1727009799598457300,5.618457275390625,1.0189718008041382,0.5486100912094116,-0.05127149075269699
1727009799608495400,5.628495361328125,1.1044120788574219,0.8373462557792664,-0.14591649174690247
1727009799618533400,5.638533447265625,1.2258076667785645,0.9507817625999451,-0.06875129044055939
1727009799628571400,5.6485712890625,1.3501296043395996,0.915367603302002,0.0539432056248188
1727009799638609400,5.658609375,1.4577245712280273,0.7517367601394653,0.28744298219680786
1727009799648647400,5.6686474609375,1.5068247318267822,0.5913236737251282,0.47259578108787537
1727009799658685400,5.678685546875,1.4875110387802124,0.5536525845527649,0.45277756452560425
1727009799668723500,5.688723388671875,1.4455723762512207,0.7147756814956665,0.19061492383480072
1727009799678760400,5.698760498046875,1.4175971746444702,0.9139630794525146,0.014240424148738384
1727009799688798500,5.708798583984375,1.3873748779296875,0.9959085583686829,-0.1510699838399887
1727009799698836500,5.71883642578125,1.3326128721237183,0.8985127806663513,-0.11391674727201462
1727009799708874500,5.72887451171875,1.2752493619918823,0.8362837433815002,0.05960098281502724
1727009799718912300,5.738912353515625,1.225760579109192,0.7654590606689453,0.26856663823127747
1727009799728950500,5.748950439453125,1.1822242736816406,0.7388511896133423,0.35332971811294556
1727009799738988300,5.75898828125,1.1121189594268799,0.7376863360404968,0.38140982389450073
1727009799749026600,5.769026611328125,0.9885860085487366,0.8166157603263855,0.21858972311019897
1727009799759064300,5.779064208984375,0.8191341161727905,0.741982102394104,-0.03869374096393585
1727009799769102300,5.789102294921875,0.6871779561042786,0.5670832395553589,-0.06716373562812805
1727009799779140400,5.799140380859375,0.5747981071472168,0.39234107732772827,-0.05551794916391373
1727009799789178400,5.809178466796875,0.4588624835014343,0.34756800532341003,0.029047269374132156
1727009799799216400,5.81921630859375,0.30316904187202454,0.356975793838501,-0.06733471155166626
1727009799809254400,5.82925439453125,0.18186737596988678,0.4286334812641144,0.11034446954727173
1727009799819291400,5.83929150390625,0.0991867259144783,0.42004963755607605,0.09987019747495651
1727009799829329400,5.849329345703125,0.027656877413392067,0.17635172605514526,-0.0019837236031889915
1727009799839367400,5.859367431640625,-0.07925860583782196,-0.19128495454788208,0.024159587919712067
1727009799849405400,5.869405517578125,-0.2404906451702118,-0.4243088960647583,-0.02624393254518509
1727009799859443500,5.879443359375,-0.40468522906303406,-0.3474409878253937,-0.034106552600860596
1727009799869481500,5.8894814453125,-0.49883806705474854,-0.17242202162742615,-0.1693868786096573
1727009799879519500,5.89951953125,-0.554828941822052,-0.007188350427895784,-0.07520564645528793
1727009799889557200,5.90955712890625,-0.6695811152458191,0.018750572577118874,-0.1576070487499237
1727009799899595500,5.919595458984375,-0.7700430750846863,-0.08122874051332474,-0.057250380516052246
1727009799909633300,5.92963330078125,-0.7987064123153687,-0.38269510865211487,-0.11141587793827057
1727009799919671600,5.939671630859375,-0.7766851782798767,-0.6316030025482178,-0.11823785305023193
1727009799929709300,5.949709228515625,-0.7804604768753052,-0.7663685083389282,-0.14773954451084137
1727009799939747300,5.959747314453125,-0.8277196288108826,-0.8094987869262695,-0.08555033802986145
1727009799949785300,5.969785400390625,-0.861374020576477,-0.6957737803459167,-0.16355060040950775
1727009799959822300,5.979822265625,-0.8583393096923828,-0.4909447133541107,-0.2260383516550064
1727009799969860600,5.989860595703125,-0.8207783102989197,-0.33165305852890015,-0.22077088057994843
1727009799979898400,5.9998984375,-0.7750402688980103,-0.4764871895313263,-0.058401525020599365
1727009799989936400,6.009936279296875,-0.767067551612854,-0.6399146914482117,-0.03737080842256546
1727009799999974400,6.019974365234375,-0.7899314165115356,-0.6964018940925598,-0.14619235694408417
1727009800010012400,6.030012451171875,-0.7646089792251587,-0.6819859147071838,-0.0573013573884964
1727009800020050400,6.040050537109375,-0.7111346125602722,-0.6063573360443115,-0.049260832369327545
1727009800030088400,6.05008837890625,-0.6795406937599182,-0.5012751221656799,0.09558983147144318
1727009800040126500,6.06012646484375,-0.6474672555923462,-0.4905763268470764,0.02083992399275303
1727009800050164500,6.07016455078125,-0.5683774948120117,-0.6204472184181213,0.04663529992103577
1727009800060202200,6.0802021484375,-0.5145359635353088,-0.7192022204399109,-0.05531474947929382
1727009800070240500,6.090240478515625,-0.49732473492622375,-0.71262526512146,-0.29081833362579346
1727009800080278300,6.1002783203125,-0.42868244647979736,-0.6680083870887756,-0.32344502210617065
1727009800090316500,6.110316650390625,-0.30198603868484497,-0.6603177189826965,-0.04804832488298416
1727009800100354600,6.1203544921875,-0.26265203952789307,-0.5043091773986816,0.1910153478384018
1727009800110391300,6.130391357421875,-0.3097652196884155,-0.19739556312561035,0.07277100533246994
1727009800120429600,6.1404296875,-0.25115737318992615,0.09528009593486786,0.06943748891353607
1727009800130467300,6.15046728515625,-0.11999455094337463,0.061863549053668976,-0.2063749134540558
1727009800140505600,6.160505615234375,-0.009411832317709923,-0.12311648577451706,-0.0556110180914402
1727009800150543400,6.17054345703125,0.025050535798072815,-0.40693384408950806,-0.0010724086314439774
1727009800160581400,6.180581298828125,0.04845152795314789,-0.6380634903907776,0.09700017422437668
1727009800170619400,6.190619384765625,0.11633044481277466,-0.5334217548370361,0.02937772125005722
1727009800180657400,6.200657470703125,0.24341729283332825,-0.2631415128707886,0.004721908830106258
1727009800190695400,6.2106953125,0.3508257567882538,0.010162471793591976,0.08098125457763672
1727009800200733400,6.2207333984375,0.3742328882217407,0.11269956827163696,-0.04470517113804817
1727009800210771500,6.230771484375,0.3804628252983093,0.1452290266752243,0.1619262993335724
1727009800220809500,6.2408095703125,0.403433233499527,0.08540058135986328,0.03182944655418396
1727009800230847200,6.25084716796875,0.49610134959220886,0.06613287329673767,0.09431758522987366
1727009800240884500,6.260884521484375,0.5852608680725098,0.05988987907767296,-0.0584104061126709
1727009800250922500,6.270922607421875,0.619533896446228,0.06420765817165375,0.10199231654405594
1727009800260960300,6.280960205078125,0.6019472479820251,0.1787068247795105,0.07434425503015518
1727009800270998500,6.29099853515625,0.6041842699050903,0.35571327805519104,0.1379711776971817
1727009800281036300,6.301036376953125,0.6376177668571472,0.5237988829612732,0.14450480043888092
1727009800291074600,6.311074462890625,0.6763857007026672,0.47825247049331665,0.01961241103708744
1727009800301112300,6.3211123046875,0.6949516534805298,0.3162246644496918,-0.04994882643222809
1727009800311150600,6.331150634765625,0.6797322034835815,0.11163397878408432,-0.05385328456759453
1727009800321188400,6.341188232421875,0.6564151644706726,0.03568235784769058,0.09871592372655869
1727009800331226400,6.351226318359375,0.6496480703353882,0.12872308492660522,0.13055747747421265
1727009800341264400,6.361264404296875,0.6459759473800659,0.32957029342651367,0.19689615070819855
1727009800351302400,6.371302490234375,0.6109769344329834,0.55384361743927,0.14993636310100555
1727009800361340400,6.38134033203125,0.5355260968208313,0.5061711072921753,0.006791452877223492
1727009800371378400,6.39137841796875,0.4910297393798828,0.37267005443573,-0.04004502668976784
1727009800381415400,6.40141552734375,0.464571475982666,0.1664651334285736,0.06818012148141861
1727009800391453400,6.411453369140625,0.4243670701980591,0.07213144749403,0.0006285067647695541
1727009800401491500,6.421491455078125,0.38900405168533325,0.005385042168200016,-0.029989684000611305
1727009800411529500,6.431529541015625,0.35981473326683044,0.18622273206710815,0.030191630125045776
1727009800421567500,6.4415673828125,0.27683353424072266,0.3692711591720581,-0.037875257432460785
1727009800431605200,6.451605224609375,0.20334413647651672,0.37176308035850525,0.024120204150676727
1727009800441643300,6.461643310546875,0.2205430418252945,0.30354782938957214,0.07500088214874268
1727009800451681000,6.471680908203125,0.2341129034757614,0.16800756752490997,0.1597336232662201
1727009800461719000,6.481718994140625,0.18523971736431122,0.16873908042907715,0.08794547617435455
1727009800471757000,6.491757080078125,0.13555392622947693,0.15711010992527008,0.008640799671411514
1727009800481795000,6.501795166015625,0.1323672980070114,0.23464390635490417,0.0015284968540072441
1727009800491833000,6.5118330078125,0.09159430116415024,0.2593543231487274,-0.11736326664686203
1727009800501871000,6.52187109375,0.043245911598205566,0.1774156391620636,0.08777106553316116
1727009800511909000,6.5319091796875,0.015500301495194435,0.10017625242471695,0.08038851618766785
1727009800521947100,6.541947021484375,-0.01956317573785782,-0.1259041577577591,0.22114039957523346
1727009800531984100,6.551984130859375,-0.0823993980884552,-0.27406537532806396,-0.0369100496172905
1727009800542022100,6.562022216796875,-0.15052081644535065,-0.16643179953098297,-0.08105893433094025
1727009800552060200,6.57206005859375,-0.20797106623649597,0.018475204706192017,-0.21793848276138306
1727009800562098000,6.582097900390625,-0.23194195330142975,0.20971614122390747,-0.1801486313343048
1727009800572136200,6.59213623046875,-0.2195710390806198,0.23639437556266785,-0.028400903567671776
1727009800582174000,6.602174072265625,-0.23000630736351013,0.17976710200309753,0.05967656522989273
1727009800592212200,6.612212158203125,-0.2686745822429657,0.06935696303844452,0.1693846881389618
1727009800602250000,6.62225,-0.2736290693283081,-0.02817624993622303,0.19991178810596466
1727009800612288300,6.632288330078125,-0.2631434202194214,-0.0383995920419693,0.13281743228435516
1727009800622326000,6.642325927734375,-0.2770441472530365,-0.04304993897676468,-0.08682308346033096
1727009800632364000,6.652364013671875,-0.3189031779766083,0.018212083727121353,-0.30254602432250977
1727009800642402000,6.662402099609375,-0.34697362780570984,0.020109323784708977,-0.3165334165096283
1727009800652440000,6.672440185546875,-0.292823851108551,0.04919850081205368,-0.09728549420833588
1727009800662478300,6.682478271484375,-0.1896723508834839,0.09233643859624863,0.16398879885673523
1727009800672515000,6.69251513671875,-0.1355246901512146,0.09868168830871582,0.46105480194091797
1727009800682553000,6.702552978515625,-0.17019502818584442,-0.044419411569833755,0.516737699508667
1727009800692591000,6.712591064453125,-0.23880338668823242,-0.12160207331180573,0.27154073119163513
1727009800702629000,6.722629150390625,-0.2717309594154358,-0.1251622587442398,-0.07227154821157455
1727009800712667100,6.732667236328125,-0.2356182187795639,-0.16748547554016113,-0.32802262902259827
1727009800722705200,6.742705078125,-0.2025897055864334,-0.28847581148147583,-0.3453496992588043
1727009800732743000,6.752742919921875,-0.20622438192367554,-0.3123166859149933,-0.2026420682668686
1727009800742781200,6.76278125,-0.19675730168819427,-0.23031483590602875,-0.016352325677871704
1727009800752819000,6.77281884765625,-0.13919919729232788,-0.11959258466959,0.07829402387142181
1727009800762857200,6.782857177734375,-0.0859769955277443,0.06113724410533905,0.18121640384197235
1727009800772895000,6.79289501953125,-0.08357056230306625,0.1995457261800766,0.22593753039836884
1727009800782933200,6.802933349609375,-0.10247647017240524,0.2275235503911972,0.14676187932491302
1727009800792971000,6.812970947265625,-0.11507800966501236,0.15952719748020172,-0.09870009124279022
1727009800803009000,6.823009033203125,-0.12880752980709076,0.05694882944226265,-0.24482204020023346
1727009800813046300,6.83304638671875,-0.13942848145961761,0.03137369453907013,-0.24618051946163177
1727009800823084000,6.843083984375,-0.1343458741903305,-0.054258789867162704,-0.046809788793325424
1727009800833122000,6.8531220703125,-0.07764477282762527,-0.17748858034610748,0.2540334165096283
1727009800843160000,6.86316015625,-0.006384820211678743,-0.12831689417362213,0.42683398723602295
1727009800853198000,6.873197998046875,-0.009208036586642265,-0.04339374601840973,0.31498920917510986
1727009800863236000,6.883236083984375,-0.04840546101331711,0.006393902003765106,-0.06272837519645691
1727009800873274000,6.893274169921875,-0.04746962711215019,-0.00868305191397667,-0.3502022325992584
1727009800883312000,6.90331201171875,-0.026310497894883156,-0.022087255492806435,-0.427639365196228
1727009800893350100,6.91335009765625,0.02781745046377182,-0.12216431647539139,-0.19112910330295563
1727009800903388000,6.923387939453125,0.09503894299268723,-0.192935049533844,-0.015732577070593834
1727009800913426200,6.93342626953125,0.1248391792178154,-0.05309804528951645,0.18492010235786438
1727009800923464000,6.9434638671875,0.09127520769834518,0.097007155418396,0.29191410541534424
1727009800933502200,6.953502197265625,0.09234260767698288,0.21181043982505798,0.23623275756835938
1727009800943540200,6.963540283203125,0.1344819962978363,0.25732672214508057,0.08769753575325012
1727009800953578200,6.973578125,0.14296603202819824,0.11534776538610458,-0.05190350487828255
1727009800963615200,6.983615234375,0.12741781771183014,-0.04556003957986832,-0.25480103492736816
1727009800973653000,6.993653076171875,0.1158791333436966,-0.06586823612451553,-0.23258359730243683
1727009800983691300,7.003691162109375,0.13436651229858398,0.008353857323527336,-0.16608655452728271
1727009800993729000,7.01372900390625,0.21526455879211426,0.1214790865778923,0.014625703915953636
1727009801003767000,7.02376708984375,0.2862377166748047,0.3039737939834595,0.12914106249809265
1727009801013805000,7.03380517578125,0.2815806567668915,0.33279213309288025,0.156927689909935
1727009801023843000,7.043843017578125,0.2698991894721985,0.3157363831996918,0.21186219155788422
1727009801033881000,7.053881103515625,0.302921861410141,0.2862301766872406,0.077593594789505
1727009801043919000,7.063919189453125,0.3430062532424927,0.17441047728061676,0.007078354712575674
1727009801053957000,7.07395703125,0.32146555185317993,0.09564696997404099,-0.12101703137159348
1727009801063995100,7.0839951171875,0.2643108367919922,0.1620340347290039,0.05813080444931984
1727009801074033000,7.094032958984375,0.23018617928028107,0.21737052500247955,-0.02574891597032547
1727009801084071200,7.1040712890625,0.2686842679977417,0.24785852432250977,0.04650172218680382
1727009801094109200,7.114109130859375,0.25349998474121094,0.37120524048805237,-0.0729501023888588
1727009801104146000,7.12414599609375,0.1714574247598648,0.2219814509153366,0.03177512809634209
1727009801114184200,7.13418408203125,0.1273685246706009,0.02780292183160782,0.00031733838841319084
1727009801124222000,7.144221923828125,0.14630277454853058,-0.1418866366147995,0.10434609651565552
1727009801134260200,7.15426025390625,0.13980679214000702,-0.2503840923309326,-0.07794168591499329
1727009801144298000,7.164298095703125,0.10656599700450897,-0.1409100443124771,-0.1305939257144928
1727009801154336300,7.174336181640625,0.042256779968738556,0.009788116440176964,-0.37984851002693176
1727009801164374000,7.1843740234375,0.02516675926744938,0.08977007120847702,-0.23106731474399567
1727009801174412000,7.194412109375,0.07926327735185623,0.017638087272644043,-0.2274073362350464
1727009801184450000,7.204449951171875,0.14060772955417633,-0.13019664585590363,0.019758930429816246
1727009801194488000,7.214488037109375,0.11144398152828217,-0.2977110743522644,0.37640440464019775
1727009801204526000,7.224526123046875,0.05770719051361084,-0.20387357473373413,0.3536374866962433
1727009801214564000,7.234564208984375,0.058955416083335876,0.10193055123090744,0.1701425015926361
1727009801224602000,7.24460205078125,0.08055415004491806,0.32333630323410034,-0.14984340965747833
1727009801234640100,7.25464013671875,0.06811638921499252,0.29407933354377747,-0.19258101284503937
1727009801244677000,7.264677001953125,0.014686642214655876,0.06021067500114441,-0.1794910728931427
1727009801254715100,7.274715087890625,-0.004426863975822926,-0.14486204087734222,-0.004218321293592453
1727009801264753200,7.284753173828125,0.028177980333566666,-0.25342002511024475,0.059732332825660706
1727009801274791000,7.294791015625,0.059956151992082596,-0.24305661022663116,0.09526476263999939
1727009801284829200,7.3048291015625,0.02978336624801159,-0.20279213786125183,0.11528684943914413
1727009801294867000,7.314866943359375,-0.039152827113866806,-0.06051275506615639,0.21894587576389313
1727009801304905200,7.3249052734375,-0.09102717787027359,0.08474443852901459,-0.09340494126081467
1727009801314943000,7.33494287109375,-0.05366275832056999,0.09113495796918869,-0.07552554458379745
1727009801324981200,7.344981201171875,-0.013981534168124199,0.007126613520085812,-0.21789024770259857
1727009801335019000,7.35501904296875,-0.05190787464380264,-0.14342853426933289,-0.1307217925786972
1727009801345057000,7.36505712890625,-0.12756527960300446,-0.2469986081123352,0.06306741386651993
1727009801355095000,7.375094970703125,-0.125319704413414,-0.2696261703968048,0.051800377666950226
1727009801365133000,7.385133056640625,-0.06408809870481491,-0.19778473675251007,0.12923356890678406
1727009801375171000,7.395171142578125,-0.06934943795204163,-0.09319254755973816,-0.0677679106593132
1727009801385209000,7.405208984375,-0.12453074753284454,-0.08393480628728867,-0.07670364528894424
1727009801395246000,7.41524609375,-0.15004409849643707,-0.05983053520321846,-0.1161557137966156
1727009801405284000,7.4252841796875,-0.11151700466871262,-0.04183720797300339,-0.034300606697797775
1727009801415322000,7.435322021484375,-0.05274902656674385,-0.09801525622606277,-0.1059524193406105
1727009801425360100,7.445360107421875,-0.04197901859879494,-0.07757996022701263,0.11891155689954758
1727009801435401700,7.455401611328125,-0.08344550430774689,-0.09826020896434784,0.1117686852812767
1727009801445439500,7.465439453125,-0.09561771899461746,-0.07253958284854889,0.07705055922269821
1727009801455477500,7.4754775390625,-0.0742248073220253,-0.00588225619867444,0.00253478204831481
1727009801465515500,7.485515625,-0.06090787425637245,-0.04076401889324188,-0.12655149400234222
1727009801475553500,7.495553466796875,-0.04284098744392395,-0.20305918157100677,-0.26424142718315125
1727009801485591600,7.505591552734375,-0.022195929661393166,-0.20193791389465332,-0.031216884031891823
1727009801495629600,7.515629638671875,-0.0010975687764585018,-0.06760833412408829,0.04552476853132248
1727009801505667600,7.52566748046875,0.06232058256864548,0.14551429450511932,0.2227279543876648
1727009801515705600,7.53570556640625,0.09174931049346924,0.3019062876701355,0.09891705214977264
1727009801525743400,7.545743408203125,0.05657374486327171,0.24878625571727753,-0.07178730517625809
1727009801535780600,7.555780517578125,0.037805650383234024,0.029273338615894318,-0.2375650852918625
1727009801545818600,7.565818603515625,0.09266677498817444,-0.24301885068416595,-0.06679601222276688
1727009801555856400,7.5758564453125,0.16845500469207764,-0.41429898142814636,0.11662227660417557
1727009801565894700,7.585894775390625,0.20810618996620178,-0.25268206000328064,0.4006415009498596
1727009801575932400,7.595932373046875,0.13965469598770142,0.04362284392118454,0.12964968383312225
1727009801585970700,7.605970703125,0.05552007630467415,0.32560646533966064,-0.1391577273607254
1727009801596008400,7.616008544921875,0.05172906816005707,0.3909662961959839,-0.30109867453575134
1727009801606046700,7.626046630859375,0.0968843623995781,0.17206010222434998,-0.23146146535873413
1727009801616084500,7.63608447265625,0.128751739859581,-0.05392429977655411,-0.08083947002887726
1727009801626122500,7.64612255859375,0.10992405563592911,-0.15610839426517487,0.1466185450553894
1727009801636160500,7.656160400390625,0.06920085847377777,-0.07132187485694885,0.15498273074626923
1727009801646198500,7.666198486328125,0.05913412570953369,0.11190646886825562,0.13883832097053528
1727009801656236500,7.676236572265625,0.06002228707075119,0.2022981494665146,0.1393323391675949
1727009801666274600,7.686274658203125,-0.010167542845010757,0.1768013834953308,-0.012982613407075405
1727009801676311600,7.6963115234375,-0.08473898470401764,0.1894138604402542,0.08656901121139526
1727009801686349600,7.706349609375,-0.10797503590583801,0.21766288578510284,-0.07921764999628067
1727009801696387600,7.7163876953125,-0.08600369095802307,0.15201862156391144,-0.2501148283481598
1727009801706425600,7.726425537109375,-0.06703896075487137,0.20974981784820557,-0.2531644403934479
1727009801716463600,7.736463623046875,-0.06513133645057678,0.18243031203746796,-0.04921982064843178
1727009801726501400,7.74650146484375,-0.04076140746474266,0.16054603457450867,0.046803224831819534
1727009801736539600,7.75653955078125,0.013599300757050514,0.16191543638706207,0.37733933329582214
1727009801746577400,7.766577392578125,0.023175060749053955,0.04141440615057945,0.23101112246513367
1727009801756615700,7.77661572265625,-0.024787671864032745,0.09077636152505875,0.02536769211292267
1727009801766653400,7.7866533203125,-0.09303861856460571,0.15286657214164734,-0.21274691820144653
1727009801776691700,7.796691650390625,-0.110669806599617,0.17529810965061188,-0.215176522731781
1727009801786729500,7.8067294921875,-0.04246643930673599,0.28151610493659973,-0.19055768847465515
1727009801796767500,7.816767578125,0.030339593067765236,0.33395615220069885,0.052190233021974564
1727009801806805500,7.826805419921875,0.04880043491721153,0.18272718787193298,0.12945576012134552
1727009801816843500,7.836843505859375,0.04282590001821518,0.061735786497592926,0.3355516791343689
1727009801826880800,7.846880859375,0.02065492793917656,0.013157138600945473,0.3860560655593872
1727009801836918500,7.85691845703125,-0.021140189841389656,-0.05809813365340233,0.08813115954399109
1727009801846956500,7.86695654296875,-0.008427057415246964,-0.013795116916298866,-0.06350657343864441
1727009801856994600,7.87699462890625,0.019500447437167168,0.031714845448732376,-0.3404087424278259
1727009801867032600,7.887032470703125,0.03422932326793671,0.07558349519968033,-0.52554851770401
1727009801877070600,7.897070556640625,0.07749477028846741,0.1264464110136032,-0.30230021476745605
1727009801887108600,7.907108642578125,0.1741066724061966,0.2064739316701889,-0.06734056770801544
1727009801897146400,7.917146484375,0.2737109959125519,0.19041267037391663,0.3725055158138275
1727009801907184600,7.9271845703125,0.27730312943458557,0.1563967764377594,0.7585146427154541
1727009801917222400,7.937222412109375,0.1881442368030548,0.24834534525871277,0.4646472930908203
1727009801927260700,7.9472607421875,0.13343532383441925,0.3685464560985565,0.3800555169582367
1727009801937298400,7.95729833984375,0.09472069889307022,0.3713605999946594,-0.4118940234184265
1727009801947336700,7.967336669921875,0.08099833130836487,0.24651974439620972,-0.36028924584388733
1727009801957374500,7.97737451171875,0.05815613642334938,0.00781315192580223,-0.47780653834342957
1727009801967412500,7.98741259765625,0.09367215633392334,-0.22744913399219513,-0.1417582780122757
1727009801977449700,7.99744970703125,0.1231384426355362,-0.31274861097335815,0.09561379998922348
1727009801987487500,8.007487548828125,0.13028782606124878,-0.1629744917154312,0.38429850339889526
1727009801997525800,8.01752587890625,0.09607738256454468,0.09971386194229126,0.25795865058898926
1727009802007563500,8.0275634765625,0.04007406905293465,0.3502226769924164,0.3675606846809387
1727009802017601500,8.0376015625,-0.01467067003250122,0.4330102503299713,0.1100391373038292
1727009802027639600,8.0476396484375,-0.03317441791296005,0.3416445255279541,-0.1518866866827011
1727009802037677600,8.057677490234376,-0.04686626046895981,0.1490151584148407,-0.14719898998737335
1727009802047715600,8.067715576171874,-0.09402675926685333,-0.041404128074645996,-0.2675025165081024
1727009802057753600,8.077753662109375,-0.11036605387926102,-0.19006550312042236,-0.07780128717422485
1727009802067791400,8.087791259765625,-0.10754958540201187,-0.20840130746364594,0.02755177766084671
1727009802077829600,8.09782958984375,-0.08018214255571365,-0.015446222387254238,0.1818031370639801
1727009802087867400,8.107867431640624,-0.05534863471984863,0.24042098224163055,0.15902280807495117
1727009802097905700,8.11790576171875,-0.05239518731832504,0.3047235310077667,0.02733561024069786
1727009802107943400,8.127943359375,-0.06503567844629288,0.14516103267669678,-0.14008142054080963
1727009802117981700,8.137981689453126,-0.05402936786413193,-0.06483907252550125,-0.11321039497852325
1727009802128018700,8.148018798828126,-0.04717123880982399,-0.1819482296705246,-0.035844095051288605
1727009802138056400,8.158056396484374,-0.02557939849793911,-0.16771070659160614,-0.07346390932798386
1727009802148094700,8.1680947265625,0.030349284410476685,-0.04531484469771385,-0.03373512253165245
1727009802158132500,8.178132568359375,0.05463491752743721,0.1255871206521988,0.05322907119989395
1727009802168170800,8.188170654296876,0.030288897454738617,0.20125813782215118,0.13823164999485016
1727009802178208500,8.19820849609375,-0.0067277103662490845,0.13665544986724854,0.04157409071922302
1727009802188246500,8.20824658203125,-0.03611622750759125,-0.05858351290225983,-0.05271406099200249
1727009802198284500,8.218284423828125,-0.05617755278944969,-0.1926742047071457,-0.26564791798591614
1727009802208322600,8.228322509765626,-0.07084771990776062,-0.3423116207122803,-0.18177708983421326
1727009802218360600,8.238360595703124,-0.07531889528036118,-0.35283082723617554,0.06976327300071716
1727009802228398600,8.248398681640625,-0.07404866814613342,-0.28520825505256653,0.04854055866599083
1727009802238436400,8.258436279296875,-0.05067383125424385,-0.25124603509902954,0.10282962769269943
1727009802248474600,8.268474609375,-0.050360988825559616,-0.24767103791236877,-0.07237257808446884
1727009802258512400,8.278512451171874,-0.10556432604789734,-0.3626865744590759,-0.12252122908830643
1727009802268550700,8.288550537109375,-0.16706576943397522,-0.2883238196372986,-0.18011315166950226
1727009802278587600,8.298587646484375,-0.1336231231689453,0.01752796769142151,-0.1484375149011612
1727009802288625400,8.30862548828125,-0.027263423427939415,0.25644394755363464,-0.049300190061330795
1727009802298663700,8.31866357421875,0.06090958043932915,0.2668483853340149,0.07959654182195663
1727009802308701400,8.328701416015624,0.05073000490665436,0.03932322934269905,0.31613585352897644
1727009802318739700,8.33873974609375,-0.003897286718711257,-0.18207919597625732,0.39590150117874146
1727009802328777500,8.348777587890625,-0.022612400352954865,-0.27779313921928406,0.1367754340171814
1727009802338815700,8.358815673828126,-0.002896486548706889,-0.2580311596393585,-0.1142629086971283
1727009802348853500,8.368853515625,-0.02368387207388878,-0.06795218586921692,-0.36800122261047363
1727009802358891500,8.3788916015625,-0.06936907023191452,0.09271712601184845,-0.4098394811153412
1727009802368929500,8.388929443359375,-0.03712417185306549,-0.006780230440199375,-0.19542160630226135
1727009802378967600,8.398967529296876,0.05433144420385361,-0.14043761789798737,0.18720273673534393
1727009802389005600,8.409005615234374,0.07326056808233261,-0.24312664568424225,0.318933367729187
1727009802399043600,8.419043701171875,0.02053850144147873,-0.25359418988227844,0.12709414958953857
1727009802409081300,8.429081298828125,-0.005670529790222645,-0.11642143130302429,0.07656297832727432
1727009802419119600,8.43911962890625,-0.0018851126078516245,0.05182616412639618,0.09294035285711288
1727009802429156600,8.449156494140626,-0.01522411871701479,0.169203519821167,-0.1565745621919632
1727009802439190300,8.459190185546875,-0.030985504388809204,0.22222839295864105,-0.04517454281449318
1727009802449228500,8.469228515625,-0.059570107609033585,0.028785819187760353,-0.22874543070793152
1727009802459266300,8.479266357421874,-0.031222887337207794,-0.20921076834201813,0.0679062232375145
1727009802469304600,8.4893046875,0.022977549582719803,-0.4157670736312866,0.02845640853047371
1727009802479342300,8.49934228515625,0.05263557657599449,-0.4220505356788635,0.0926058292388916
1727009802489380600,8.509380615234376,0.014316806569695473,-0.1966770440340042,0.07090256363153458
1727009802499418600,8.519418701171874,-0.03284937143325806,0.045771270990371704,-0.03160757198929787
1727009802509456400,8.529456298828125,-0.009517310187220573,0.16211265325546265,-0.14232243597507477
1727009802519494700,8.53949462890625,0.044264692813158035,0.10052944719791412,-0.14365960657596588
1727009802529532400,8.549532470703125,0.0875408723950386,-0.10837136209011078,-0.08909113705158234
1727009802539570700,8.55957080078125,0.11904314160346985,-0.20941941440105438,0.040004801005125046
1727009802549608400,8.5696083984375,0.13754521310329437,-0.1671213060617447,0.09925391525030136
1727009802559646700,8.579646728515625,0.17023205757141113,0.046993911266326904,-0.020286064594984055
1727009802569684500,8.5896845703125,0.222389817237854,0.23164406418800354,0.023418491706252098
1727009802579721500,8.599721435546876,0.22021427750587463,0.24942226707935333,-0.04259035363793373
1727009802589759500,8.609759521484374,0.17262598872184753,0.12289547920227051,0.15190961956977844
1727009802599797500,8.619797607421875,0.11890283972024918,0.004615709185600281,-0.01021403819322586
1727009802609835300,8.629835205078125,0.13940280675888062,-0.11496055871248245,-0.13627400994300842
1727009802619873500,8.63987353515625,0.20970946550369263,-0.07533325254917145,-0.06791919469833374
1727009802629911300,8.649911376953124,0.2225244790315628,0.04901284724473953,-0.08235244452953339
1727009802639949600,8.659949462890625,0.1986476480960846,0.2980588674545288,-0.02814672701060772
1727009802649987600,8.669987548828125,0.22928617894649506,0.43279436230659485,0.1792977750301361
1727009802660025600,8.680025634765625,0.27263447642326355,0.33098676800727844,0.04486459866166115
1727009802670063600,8.690063720703124,0.27367401123046875,0.2096901535987854,0.19041205942630768
1727009802680101400,8.700101318359375,0.20779487490653992,0.06450046598911285,0.10127658396959305
1727009802690139600,8.7101396484375,0.14833854138851166,0.0434662401676178,-0.03125900775194168
1727009802700177400,8.720177490234375,0.16183197498321533,0.14841528236865997,-0.11368118226528168
1727009802710215700,8.730215576171876,0.1879255473613739,0.3379368782043457,-0.1118939220905304
1727009802720253400,8.74025341796875,0.17735253274440765,0.5056347846984863,0.03032607212662697
1727009802730291700,8.750291748046875,0.15681222081184387,0.5517738461494446,0.169939786195755
1727009802740328400,8.760328369140625,0.1624453365802765,0.47601836919784546,0.2991366386413574
1727009802750366500,8.770366455078126,0.16753287613391876,0.3172386586666107,0.25609272718429565
1727009802760404500,8.780404541015624,0.13023343682289124,0.032778166234493256,0.09222576022148132
1727009802770442500,8.7904423828125,0.062498874962329865,-0.13701985776424408,0.03684718534350395
1727009802780480500,8.80048046875,-0.006394443102180958,-0.15986019372940063,-0.09075178951025009
1727009802790518500,8.8105185546875,-0.035508446395397186,0.01583699695765972,-0.10399949550628662
1727009802800556500,8.820556640625,-0.0050376225262880325,0.31954336166381836,-0.20843109488487244
1727009802810594600,8.830594482421875,0.02581286057829857,0.5027157068252563,-0.015185674652457237
1727009802820632600,8.840632568359375,-0.010061783716082573,0.4070800244808197,-0.05629236623644829
1727009802830670600,8.850670654296875,-0.04373156651854515,0.21043556928634644,0.036463841795921326
1727009802840708600,8.86070849609375,-0.044658079743385315,-0.0789451077580452,0.11196153610944748
1727009802850746400,8.870746337890624,0.016096455976366997,-0.1662549078464508,0.3054009675979614
1727009802860784600,8.88078466796875,0.0493558794260025,-0.008305221796035767,0.19632987678050995
1727009802870822400,8.890822509765625,0.014518262818455696,0.2561057209968567,0.10297942906618118
1727009802880860700,8.900860595703126,-0.031086239963769913,0.3959810733795166,-0.05168205499649048
1727009802890898400,8.9108984375,-0.02687748335301876,0.2585303485393524,-0.27858465909957886
1727009802900935400,8.920935302734375,0.00880567729473114,0.07220494747161865,-0.12983271479606628
1727009802910973400,8.930973388671875,-0.003924154676496983,0.017435159534215927,0.05835852026939392
1727009802921011500,8.941011474609375,-0.042899250984191895,0.07734643667936325,0.0011285217478871346
1727009802931049500,8.951049560546876,-0.030836164951324463,0.2884542644023895,0.30859464406967163
1727009802941087500,8.96108740234375,-0.008817149326205254,0.3232540488243103,0.03732211887836456
1727009802951125500,8.97112548828125,0.015475498512387276,0.3066611588001251,0.2944202125072479
1727009802961163500,8.98116357421875,0.0013903062790632248,0.2094469964504242,0.015877798199653625
1727009802971201500,8.991201416015626,-0.023834500461816788,0.03184431046247482,0.016446277499198914
1727009802981239600,9.001239501953124,-0.05327947437763214,-0.07618602365255356,-0.13922400772571564
1727009802991277600,9.011277587890625,-0.06126367300748825,-0.08573223650455475,-0.08278349786996841
1727009803001315600,9.021315673828125,-0.059546466916799545,0.02750323712825775,0.06576283276081085
1727009803011353600,9.031353515625,-0.050437986850738525,0.1208033487200737,0.11054673045873642
1727009803021391400,9.041391357421874,-0.018861420452594757,0.07825402915477753,0.17829249799251556
1727009803031429600,9.0514296875,-0.016736691817641258,-0.0197417214512825,-0.02479582652449608
1727009803041467400,9.06146728515625,-0.05640287697315216,-0.10920395702123642,0.010620752349495888
1727009803051505700,9.071505615234376,-0.09312095493078232,-0.0890994742512703,-0.27542534470558167
1727009803061542400,9.08154248046875,-0.04974551871418953,0.024030007421970367,-0.10732634365558624
1727009803071580400,9.091580322265624,-0.028406593948602676,0.14719821512699127,-0.0724082812666893
1727009803081618400,9.101618408203125,-0.04793795198202133,0.1667594015598297,0.21426023542881012
1727009803091656400,9.111656494140625,-0.0892709344625473,0.13939514756202698,0.17284385859966278
1727009803101694500,9.121694580078126,-0.07458014041185379,0.07350960373878479,0.23064270615577698
1727009803111732500,9.131732421875,-0.051360227167606354,0.024226680397987366,-0.07677207142114639
1727009803121770500,9.1417705078125,-0.06180887296795845,0.02955247089266777,-0.18360717594623566
1727009803131808500,9.15180859375,-0.09194876998662949,0.050990473479032516,-0.3180738687515259
1727009803141846500,9.161846435546876,-0.09068456292152405,0.02905108779668808,-0.14777055382728577
1727009803151884500,9.171884521484374,-0.06281863152980804,-0.023238234221935272,-0.014899713918566704
1727009803161922600,9.181922607421875,-0.026110416278243065,-0.043588779866695404,0.2876862585544586
1727009803171960600,9.191960693359375,-0.026715992018580437,0.02615560218691826,0.3326222002506256
1727009803181998600,9.20199853515625,-0.046861473470926285,0.14608892798423767,0.23656944930553436
1727009803192036400,9.212036376953124,-0.08044961839914322,0.3062765300273895,0.17373085021972656
1727009803202074600,9.22207470703125,-0.1536543220281601,0.14188973605632782,-0.3696434795856476
1727009803212112400,9.2321123046875,-0.18288230895996094,-0.2658863067626953,-0.1129169836640358
1727009803222149600,9.242149658203125,-0.21789036691188812,-0.4913599193096161,-0.16222913563251495
1727009803232187400,9.2521875,-0.2866652011871338,-0.5451095700263977,-0.08161807805299759
1727009803242225400,9.262225341796874,-0.3128794729709625,-0.3328348398208618,-0.0801546722650528
1727009803252263400,9.272263427734375,-0.2970760762691498,-0.039686381816864014,-0.13723161816596985
1727009803262301400,9.282301513671875,-0.28221139311790466,0.041666798293590546,0.1257113218307495
1727009803272339500,9.29233935546875,-0.27577248215675354,0.0320020467042923,0.3834725618362427
1727009803282377500,9.30237744140625,-0.2584291696548462,-0.14854350686073303,0.39961692690849304
1727009803292415500,9.31241552734375,-0.2697313725948334,-0.27703312039375305,0.06668152660131454
1727009803302453500,9.32245361328125,-0.3112785518169403,-0.33000847697257996,-0.3080446720123291
1727009803312491500,9.332491455078125,-0.3373276889324188,-0.41438546776771545,-0.3670724034309387
1727009803322529500,9.342529541015624,-0.29876938462257385,-0.3961385488510132,-0.2970600426197052
1727009803332567600,9.352567626953125,-0.21700988709926605,-0.22051207721233368,-0.06031564995646477
1727009803342605600,9.36260546875,-0.16291256248950958,0.04319386184215546,-0.09035876393318176
1727009803352643600,9.3726435546875,-0.12236767262220383,0.0020750209223479033,0.025667820125818253
1727009803362681300,9.382681396484376,-0.08804085850715637,-0.09858101606369019,0.23952658474445343
1727009803372719600,9.3927197265625,-0.07371338456869125,-0.18158002197742462,0.25612837076187134
1727009803382756400,9.40275634765625,-0.0537298209965229,-0.20895972847938538,0.15794722735881805
1727009803392794600,9.412794677734375,-0.01960679516196251,-0.1813923418521881,-0.07951361685991287
1727009803402832400,9.422832275390626,-0.02322070486843586,-0.07927555590867996,-0.09668008983135223
1727009803412870400,9.432870361328124,-0.07397721707820892,0.10219484567642212,-0.06909336149692535
1727009803422908700,9.44290869140625,-0.0809730738401413,0.2358647584915161,-0.10797365009784698
1727009803432946400,9.452946533203125,-0.03651324287056923,0.24712000787258148,-0.015543974936008453
1727009803442985200,9.462985107421876,-0.016474289819598198,0.07548993080854416,-0.22449666261672974
1727009803453023500,9.4730234375,-0.015712030231952667,-0.1680886447429657,0.005044201388955116
1727009803463061200,9.483061279296875,-0.005527568981051445,-0.2778193950653076,0.23410747945308685
1727009803473099300,9.493099365234375,0.037028711289167404,-0.28595200181007385,0.2961617112159729
1727009803483137300,9.50313720703125,0.07516278326511383,-0.09293649345636368,0.37923476099967957
1727009803493175300,9.51317529296875,0.024158116430044174,0.08292299509048462,-0.11876100301742554
1727009803503213300,9.52321337890625,-0.04273063689470291,0.21251161396503448,-0.23323510587215424
1727009803513251300,9.533251220703125,-0.04207207262516022,0.18911956250667572,-0.35287243127822876
1727009803523289300,9.543289306640625,-0.0006950721144676208,0.04788228124380112,-0.33190828561782837
1727009803533327400,9.553327392578124,0.009786220267415047,-0.0696239173412323,0.07082351297140121
1727009803543364400,9.5633642578125,-0.06340943276882172,-0.1991203874349594,0.15508778393268585
1727009803553402400,9.57340234375,-0.12188911437988281,-0.11865990608930588,0.4264086186885834
1727009803563440400,9.5834404296875,-0.16289301216602325,0.01358201913535595,0.31858202815055847
1727009803573478100,9.59347802734375,-0.20264314115047455,0.046329256147146225,-0.09876894950866699
1727009803583516400,9.603516357421874,-0.2429780513048172,0.03383583575487137,-0.3039953410625458
1727009803593554200,9.61355419921875,-0.2960529923439026,-0.16810815036296844,-0.44498172402381897
1727009803603592400,9.623592529296875,-0.3131773769855499,-0.3415670096874237,-0.3423522710800171
1727009803613630200,9.633630126953125,-0.2809785306453705,-0.40570545196533203,0.05154919624328613
1727009803623668500,9.64366845703125,-0.24756036698818207,-0.27657172083854675,0.18754911422729492
1727009803633706200,9.653706298828125,-0.2403268665075302,-0.10523305088281631,0.3065444827079773
1727009803643744300,9.663744140625,-0.28695377707481384,-0.03402172401547432,0.1638653427362442
1727009803653782300,9.6737822265625,-0.33240804076194763,0.005090395454317331,-0.15819163620471954
1727009803663820300,9.6838203125,-0.35062697529792786,-0.054472532123327255,-0.3947461247444153
1727009803673858300,9.6938583984375,-0.33195385336875916,-0.09637996554374695,-0.430362731218338
1727009803683896300,9.703896240234375,-0.3131103813648224,-0.17596134543418884,-0.3305634558200836
1727009803693934300,9.713934326171875,-0.26420700550079346,-0.3303934633731842,-0.005691769998520613
1727009803703972400,9.723972412109376,-0.195937380194664,-0.35564103722572327,0.39523887634277344
1727009803714009300,9.73400927734375,-0.18064624071121216,-0.20946358144283295,0.30320143699645996
1727009803724047400,9.74404736328125,-0.19195109605789185,-0.10361862927675247,0.1166965439915657
1727009803734085400,9.75408544921875,-0.19254526495933533,0.05457267165184021,-0.1345159262418747
1727009803744123100,9.764123046875,-0.1913985013961792,0.014080105349421501,-0.3397338092327118
1727009803754161400,9.774161376953124,-0.14613454043865204,-0.03113090991973877,-0.28637924790382385
1727009803764199200,9.78419921875,-0.059380993247032166,-0.13188070058822632,-0.07575463503599167
1727009803774237400,9.794237548828125,-0.0012132758274674416,-0.2514849305152893,0.11559583991765976
1727009803784275200,9.804275146484375,0.0266369991004467,-0.2500483989715576,0.3240395784378052
1727009803794313500,9.8143134765625,0.04258358106017113,-0.1190311461687088,0.3483288884162903
1727009803804351200,9.824351318359374,0.057558801025152206,0.10482165217399597,0.1598585695028305
1727009803814389200,9.83438916015625,0.06711950153112411,0.22213968634605408,-0.17674194276332855
1727009803824427300,9.84442724609375,0.06999251991510391,0.21686182916164398,-0.4052816331386566
1727009803834465300,9.85446533203125,0.09920909255743027,-0.01608770154416561,-0.38325756788253784
1727009803844503300,9.86450341796875,0.16592474281787872,-0.3112868666648865,-0.1833050400018692
1727009803854541300,9.874541259765625,0.22278933227062225,-0.33334779739379883,0.2508999705314636
1727009803864579300,9.884579345703125,0.20684951543807983,-0.1811196357011795,0.4254917502403259
1727009803874617300,9.894617431640626,0.15997523069381714,0.11645038425922394,0.2664799988269806
1727009803884654300,9.904654296875,0.12862928211688995,0.35842281579971313,0.26846325397491455
1727009803894692400,9.9146923828125,0.10337436199188232,0.3837129473686218,-0.0881151556968689
1727009803904730400,9.92473046875,0.11821908503770828,0.23265284299850464,-0.0340665727853775
1727009803914768100,9.93476806640625,0.10913611203432083,-0.1120012030005455,-0.3015347719192505
1727009803924806400,9.944806396484376,0.0872260183095932,-0.36282676458358765,-0.22603493928909302
1727009803934844200,9.95484423828125,0.07461300492286682,-0.297218918800354,-0.08914016932249069
1727009803944882400,9.96488232421875,0.09338828921318054,-0.008982345461845398,0.02798912115395069
1727009803954920200,9.974920166015625,0.1415412724018097,0.31624943017959595,0.4628162086009979
1727009803964958500,9.98495849609375,0.12903986871242523,0.3609343469142914,0.13611850142478943
1727009803974996200,9.994996337890624,0.10840567201375961,0.24879933893680573,0.24297763407230377
1727009803985034200,10.0050341796875,0.06619749963283539,0.009283946827054024,-0.156831294298172
1727009803995072300,10.015072265625,0.07236388325691223,-0.23645643889904022,-0.31189921498298645
1727009804005110300,10.0251103515625,0.13264000415802002,-0.2324473261833191,-0.10047482699155807
1727009804015148300,10.035148193359374,0.16152158379554749,-0.05467844754457474,-0.2083633840084076
1727009804025186300,10.045186279296875,0.18707755208015442,0.13224510848522186,0.24351434409618378
1727009804035224300,10.055224365234375,0.18359623849391937,0.2968296408653259,0.0420505590736866
1727009804045262300,10.065262451171876,0.15745384991168976,0.20821695029735565,0.16771341860294342
1727009804055299300,10.07529931640625,0.1317940205335617,0.15366077423095703,0.012588010169565678
1727009804065337300,10.08533740234375,0.1518966257572174,0.007281727157533169,-0.1632770299911499
1727009804075375400,10.095375244140625,0.2136211097240448,-0.04039566591382027,0.009975078515708447
1727009804085413000,10.1054130859375,0.2183641940355301,0.0435333214700222,-0.1641828715801239
1727009804095451400,10.115451416015626,0.1996091902256012,0.003067455254495144,-0.03208889067173004
1727009804105489200,10.1254892578125,0.19386449456214905,0.0362701490521431,0.19152316451072693
1727009804115527400,10.13552734375,0.1648164987564087,0.10715857893228531,-0.03686148673295975
1727009804125565200,10.145565185546875,0.1485927850008011,0.21788349747657776,0.04213825613260269
1727009804135603500,10.155603515625,0.13624559342861176,0.24871531128883362,0.015892978757619858
1727009804145641200,10.16564111328125,0.11608599126338959,0.135416179895401,-0.060538943856954575
1727009804155679200,10.17567919921875,0.08418582379817963,-0.12491513788700104,0.13942700624465942
1727009804165717200,10.18571728515625,0.034052614122629166,-0.20377425849437714,0.11434055119752884
1727009804175755300,10.19575537109375,-0.0190109945833683,-0.13882781565189362,0.052424293011426926
1727009804185793300,10.205793212890624,-0.07202254980802536,-0.06681141257286072,-0.15348386764526367
1727009804195831300,10.215831298828125,-0.09527650475502014,-0.012349370867013931,-0.25660669803619385
1727009804205869300,10.225869384765625,-0.07576058804988861,0.003043966367840767,-0.1553972363471985
1727009804215907300,10.2359072265625,-0.051210273057222366,-0.0659208595752716,0.09625638276338577
1727009804225944300,10.2459443359375,-0.04583148658275604,-0.25859683752059937,0.17300841212272644
1727009804235982300,10.255982421875,-0.08377758413553238,-0.46136415004730225,0.15129287540912628
1727009804246020400,10.266020263671875,-0.17260199785232544,-0.34044891595840454,0.04631080478429794
1727009804256058000,10.27605810546875,-0.2370738834142685,-0.06328485906124115,-0.1850341409444809
1727009804266096400,10.286096435546876,-0.19279590249061584,0.11057029664516449,-0.2719424068927765
1727009804276134100,10.296134033203124,-0.12351798266172409,0.08406716585159302,-0.2029203474521637
1727009804286172400,10.30617236328125,-0.15967358648777008,-0.07241085916757584,-0.03502214699983597
1727009804296210200,10.316210205078125,-0.20448534190654755,-0.3166933059692383,0.1945769339799881
1727009804306248400,10.32624853515625,-0.1533297449350357,-0.5237265825271606,0.24980024993419647
1727009804316286200,10.3362861328125,-0.0908118337392807,-0.489535391330719,0.17950065433979034
1727009804326324200,10.34632421875,-0.11482688784599304,-0.2519100606441498,-0.11844474822282791
1727009804336362200,10.3563623046875,-0.20014207065105438,-0.08406830579042435,-0.4769141674041748
1727009804346400300,10.366400146484375,-0.2085334211587906,-0.05537300929427147,-0.3726958930492401
1727009804356438300,10.376438232421876,-0.12795469164848328,-0.05619161203503609,-0.20635272562503815
1727009804366476300,10.386476318359374,-0.03867966681718826,-0.05284268781542778,0.20019851624965668
1727009804376514600,10.3965146484375,0.013875567354261875,-0.05348062887787819,0.33457159996032715
1727009804386552300,10.40655224609375,0.04683058708906174,-0.1108136922121048,0.3623555600643158
1727009804396590300,10.41659033203125,0.07068902254104614,-0.07184673100709915,0.4385443925857544
1727009804406627300,10.42662744140625,0.04789689555764198,-0.051888737827539444,0.06331778317689896
1727009804416665300,10.436665283203125,0.022969942539930344,0.058555345982313156,0.05282342806458473
1727009804426703000,10.446703125,-0.005625482648611069,0.026184091344475746,-0.4989260137081146
1727009804436741400,10.456741455078125,0.029667887836694717,-0.055861905217170715,-0.5473305583000183
1727009804446778600,10.466778564453126,0.09650737047195435,-0.36588847637176514,-0.3809770345687866
1727009804456816600,10.476816650390624,0.14713433384895325,-0.5499501824378967,-0.11911026388406754
1727009804466854700,10.486854736328125,0.1614229828119278,-0.1716417670249939,0.599264919757843
1727009804476892700,10.496892578125,0.14016495645046234,0.2768472135066986,0.29937314987182617
1727009804486930700,10.5069306640625,0.15699000656604767,0.6226964592933655,0.2333827167749405
1727009804496968400,10.516968505859374,0.14629122614860535,0.49245259165763855,-0.001248534768819809
1727009804507006700,10.5270068359375,0.10406842082738876,0.17525601387023926,-0.15974177420139313
1727009804517044500,10.53704443359375,0.08028127998113632,-0.14177021384239197,-0.03423244133591652
1727009804527082800,10.547082763671876,0.12806318700313568,-0.16864044964313507,-0.12911634147167206
1727009804537120500,10.55712060546875,0.175847589969635,-0.05943472683429718,-0.1935262531042099
1727009804547158800,10.56715869140625,0.16210541129112244,-0.011643238365650177,-0.07696287333965302
1727009804557196500,10.577196533203125,0.12798461318016052,0.18079185485839844,0.27318745851516724
1727009804567234600,10.587234619140625,0.101724773645401,0.31325429677963257,0.20319320261478424
1727009804577271800,10.597271728515626,0.1197444498538971,0.37346842885017395,0.09230922162532806
1727009804587309600,10.6073095703125,0.15382999181747437,0.2664218544960022,-0.08200425654649734
1727009804597347800,10.617347900390625,0.15424077212810516,-0.03112587332725525,-0.1726170927286148
1727009804607385600,10.627385498046875,0.12547090649604797,-0.1465190351009369,-0.06891386210918427
1727009804617423600,10.637423583984376,0.07484142482280731,-0.07179293781518936,-0.20357196033000946
1727009804627461600,10.647461669921874,0.05207139998674393,0.16836586594581604,-0.22755053639411926
1727009804637499600,10.657499755859375,0.07393822818994522,0.168889120221138,-0.36654773354530334
1727009804647537700,10.66753759765625,0.1395483911037445,0.1776764839887619,0.1470940113067627
1727009804657575700,10.67757568359375,0.14567197859287262,0.0539911612868309,0.5499996542930603
1727009804667613400,10.687613525390624,0.122202068567276,-0.0056620510295033455,0.49665123224258423
1727009804677651700,10.697651611328125,0.13203737139701843,0.0783417820930481,0.29450881481170654
1727009804687689500,10.707689453125,0.1025489941239357,0.04517317935824394,-0.18602688610553741
1727009804697727700,10.717727783203125,0.037431854754686356,0.11248558014631271,-0.21908120810985565
1727009804707765500,10.727765625,-0.004044482484459877,0.0915486067533493,-0.28046494722366333
1727009804717803800,10.7378037109375,0.04566396400332451,0.13954035937786102,0.016835128888487816
1727009804727841500,10.747841552734375,0.10452727973461151,0.0014549177139997482,0.05691516771912575
1727009804737879600,10.757879638671875,0.10875844210386276,-0.034673262387514114,0.20368029177188873
1727009804747917600,10.76791748046875,0.04501568526029587,0.08865879476070404,0.3109934329986572
1727009804757954600,10.77795458984375,-0.0027726246044039726,0.22136524319648743,0.09888096153736115
1727009804767992800,10.787992919921875,0.02760472148656845,0.3115563690662384,-0.14967158436775208
1727009804778030600,10.798030517578125,0.05935513973236084,0.1854282170534134,-0.1485944241285324
1727009804788068600,10.808068603515625,0.03069925680756569,0.02644629217684269,-0.17722606658935547
1727009804798106600,10.818106689453124,0.009748652577400208,-0.15449239313602448,0.11870213598012924
1727009804808144600,10.82814453125,0.03887671232223511,-0.1896389275789261,0.1366041749715805
1727009804818182700,10.8381826171875,0.0576583668589592,-0.0984756201505661,0.1332739293575287
1727009804828220700,10.848220703125,0.013038434088230133,0.1620803326368332,0.03595777228474617
1727009804838258400,10.858258544921876,-0.0439729318022728,0.3057970404624939,-0.20481538772583008
1727009804848296700,10.868296630859374,-0.030375627800822258,0.3343762159347534,-0.004948606714606285
1727009804858334500,10.87833447265625,-0.01144308503717184,0.2234279215335846,-0.06342138350009918
1727009804868372700,10.888372802734375,-0.029596256092190742,0.0027096495032310486,0.3554064929485321
1727009804878410500,10.898410400390626,-0.07642235606908798,-0.1492583006620407,0.0534815713763237
1727009804888448800,10.90844873046875,-0.0709596797823906,-0.09669549018144608,0.24836663901805878
1727009804898486500,10.918486572265625,-0.06596105545759201,-0.012582534924149513,-0.09938935190439224
1727009804908524500,10.928524658203125,-0.06553760915994644,-0.030940236523747444,-0.19260026514530182
1727009804918562600,10.9385625,-0.0825289860367775,-0.06801968812942505,-0.24887242913246155
1727009804928599600,10.948599609375,-0.11888166517019272,-0.10681795328855515,-0.4154137670993805
1727009804938637800,10.958637939453125,-0.10271789133548737,-0.11919434368610382,0.1079280897974968
1727009804948675600,10.968675537109375,-0.05558527261018753,-0.014207737520337105,0.08700203150510788
1727009804958713600,10.978713623046875,0.004080913495272398,0.06133656203746796,0.4416876435279846
1727009804968751600,10.988751708984376,-0.01893891766667366,0.15739253163337708,0.33515000343322754
1727009804978789600,10.99878955078125,-0.08111572265625,0.16069211065769196,-0.08475622534751892
1727009804988827600,11.00882763671875,-0.0861767902970314,-0.0010813386179506779,-0.10957129299640656
1727009804998865700,11.01886572265625,-0.056227341294288635,-0.1741759032011032,-0.35742977261543274
1727009805008903400,11.0289033203125,-0.04145398736000061,-0.34852293133735657,-0.20083406567573547
1727009805018941700,11.038941650390624,-0.06272595375776291,-0.27483606338500977,0.004119255114346743
1727009805028979500,11.0489794921875,-0.08391273766756058,-0.06638166308403015,0.06995952129364014
1727009805039017700,11.059017822265625,-0.052622485905885696,0.11824717372655869,0.07473546266555786
1727009805049055500,11.069055419921876,-0.012043636292219162,0.17604176700115204,0.10923990607261658
1727009805059093800,11.07909375,-0.04841070994734764,0.1394675225019455,0.12068755179643631
1727009805069131500,11.089131591796875,-0.1284877061843872,-0.03826092928647995,-0.10298068821430206
1727009805079169500,11.09916943359375,-0.11484703421592712,-0.12290269136428833,-0.31381022930145264
1727009805089207600,11.10920751953125,-0.08322972059249878,-0.20827005803585052,-0.41691237688064575
1727009805099245600,11.11924560546875,-0.09594975411891937,-0.15544362366199493,-0.1351819783449173
1727009805109282800,11.12928271484375,-0.07207904756069183,0.02462947368621826,0.3496270477771759
1727009805119320600,11.139320556640625,-0.00027594342827796936,0.1493244767189026,0.42318111658096313
1727009805129358600,11.149358642578125,0.034835170954465866,0.12152718752622604,0.08464033901691437
1727009805139396600,11.159396728515626,-0.016455041244626045,-0.11600547283887863,-0.16438400745391846
1727009805149434600,11.1694345703125,-0.08211341500282288,-0.27763405442237854,-0.19244414567947388
1727009805159472600,11.17947265625,-0.06880271434783936,-0.317812979221344,-0.004761990159749985
1727009805169510700,11.1895107421875,-0.006264503579586744,-0.15140721201896667,-0.16025809943675995
1727009805179548400,11.19954833984375,0.031276583671569824,0.09051841497421265,0.048320379108190536
1727009805189586700,11.209586669921874,-0.01467040367424488,0.26115378737449646,-0.06678251177072525
1727009805199624400,11.21962451171875,-0.03876311704516411,0.2187550812959671,0.20730145275592804
1727009805209662700,11.229662841796875,-0.019479965791106224,-0.014737038873136044,0.0932217538356781
1727009805219700500,11.239700439453125,-0.005124584771692753,-0.28896039724349976,0.15629589557647705
1727009805229738800,11.24973876953125,-0.042834945023059845,-0.46401503682136536,0.0448620468378067
1727009805239776500,11.259776611328125,-0.09128547459840775,-0.3629034757614136,0.0625251829624176
1727009805249814500,11.269814453125,-0.10264518857002258,-0.12757350504398346,0.2409428507089615
1727009805259852500,11.2798525390625,-0.11211992055177689,0.06766582280397415,-0.35316896438598633
1727009805269890600,11.289890625,-0.10421618819236755,0.16877326369285583,-0.13990674912929535
1727009805279928600,11.299928466796874,-0.14888149499893188,0.1213558092713356,-0.59723961353302
1727009805289965600,11.309965576171875,-0.14183343946933746,-0.1322208046913147,-0.17518216371536255
1727009805300003600,11.320003662109375,-0.08054627478122711,-0.2508821189403534,0.26096343994140625
1727009805310041600,11.33004150390625,-0.03324613720178604,-0.2567184269428253,0.2946116626262665
1727009805320079600,11.34007958984375,-0.07510266453027725,-0.06476351618766785,0.4357098937034607
1727009805330117600,11.35011767578125,-0.15799729526042938,0.13747428357601166,-0.04090673103928566
1727009805340155600,11.36015576171875,-0.1894800215959549,0.1330336630344391,-0.15924665331840515
1727009805350193400,11.370193359375,-0.18014325201511383,-0.0935337096452713,-0.4771074652671814
1727009805360231700,11.380231689453124,-0.15714742243289948,-0.3962548077106476,-0.2635279595851898
1727009805370269400,11.39026953125,-0.15160244703292847,-0.43634098768234253,-0.01990971341729164
1727009805380307700,11.4003076171875,-0.12895715236663818,-0.32624417543411255,0.2733674645423889
1727009805390345500,11.410345458984375,-0.09622903913259506,-0.039781540632247925,0.43588075041770935
1727009805400383700,11.4203837890625,-0.09862922132015228,0.12898005545139313,0.09968715906143188
1727009805410421500,11.43042138671875,-0.11394426226615906,0.1819079965353012,-0.0485350601375103
1727009805420459500,11.44045947265625,-0.15310794115066528,0.06484813988208771,-0.4041561484336853
1727009805430497500,11.45049755859375,-0.18131402134895325,-0.06454446911811829,-0.2881786823272705
1727009805440536600,11.46053662109375,-0.16339102387428284,-0.20464864373207092,-0.2334904670715332
1727009805450574300,11.47057421875,-0.0970388874411583,-0.2761681079864502,0.10601623356342316
1727009805460612600,11.480612548828125,-0.09462951123714447,-0.22228436172008514,0.25494706630706787
1727009805470649600,11.490649658203125,-0.15792939066886902,-0.20291493833065033,0.24445690214633942
1727009805480687400,11.500687255859376,-0.17143671214580536,-0.045196861028671265,0.16359035670757294
1727009805490725600,11.5107255859375,-0.16371966898441315,-0.17726701498031616,-0.24083516001701355
1727009805500763400,11.520763427734375,-0.15902090072631836,-0.23007670044898987,-0.29135945439338684
1727009805510801700,11.5308017578125,-0.16877499222755432,-0.30560502409935,-0.5143174529075623
1727009805520839400,11.54083935546875,-0.13772909343242645,-0.18516689538955688,-0.27028167247772217
1727009805530877400,11.55087744140625,-0.07390670478343964,-0.09166517853736877,-0.1396925151348114
1727009805540915500,11.56091552734375,-0.0048693264834582806,0.011048166081309319,0.04841432720422745
1727009805550953500,11.570953369140625,0.01931324228644371,0.06196621060371399,0.35538360476493835
1727009805560991500,11.580991455078125,-0.00019156886264681816,-0.16929511725902557,0.3723510801792145
1727009805571029500,11.591029541015626,0.009394745342433453,-0.09153028577566147,0.40130123496055603
1727009805581067500,11.601067626953125,0.013423437252640724,-0.07863472402095795,0.03783371299505234
1727009805591105500,11.61110546875,0.07527481764554977,-0.047278400510549545,-0.08682405948638916
1727009805601143300,11.621143310546875,0.16218887269496918,-0.10534483939409256,-0.1227157786488533
1727009805611181600,11.631181640625,0.17779766023159027,-0.11125119775533676,0.041772764176130295
1727009805621219300,11.64121923828125,0.14622841775417328,0.0012816681992262602,-0.1617957502603531
1727009805631257600,11.651257568359375,0.21031180024147034,0.05197760462760925,-0.21059870719909668
1727009805641295400,11.66129541015625,0.35193488001823425,0.16368909180164337,0.06823459267616272
1727009805651332400,11.671332275390625,0.38034123182296753,0.14629492163658142,0.15884092450141907
1727009805661370600,11.68137060546875,0.3234649896621704,0.29660871624946594,0.12894666194915771
1727009805671408400,11.691408447265625,0.33117854595184326,0.48721301555633545,0.09530854225158691
1727009805681446700,11.70144677734375,0.38330525159835815,0.5474529266357422,-0.08859296143054962
1727009805691484400,11.711484375,0.43787768483161926,0.36490708589553833,0.17491216957569122
1727009805701522400,11.7215224609375,0.43254801630973816,0.1814149022102356,0.26210644841194153
1727009805711560400,11.731560546875,0.37079092860221863,-0.03586522489786148,0.15671825408935547
1727009805721598500,11.741598388671875,0.3251921236515045,-0.05612920969724655,-0.04828215390443802
1727009805731636500,11.751636474609375,0.328367680311203,0.10940036177635193,-0.20900259912014008
1727009805741674500,11.761674560546876,0.3520220220088959,0.33137404918670654,0.08801401406526566
1727009805751712500,11.77171240234375,0.3318949043750763,0.42913469672203064,0.1369788944721222
1727009805761750500,11.78175048828125,0.2575719654560089,0.4215496778488159,0.1883634328842163
1727009805771788300,11.791788330078125,0.1592443287372589,0.31406742334365845,-0.18118931353092194
1727009805781826600,11.80182666015625,0.15468335151672363,0.20267337560653687,-0.06945439428091049
1727009805791864300,11.8118642578125,0.2046639621257782,0.09195538610219955,-0.17334190011024475
1727009805801902600,11.821902587890625,0.24082159996032715,-0.05539818853139877,0.18896417319774628
1727009805811940400,11.8319404296875,0.21444006264209747,-0.04837729409337044,0.16405536234378815
1727009805821978600,11.841978515625,0.18845237791538239,-0.11662626266479492,0.14357656240463257
1727009805832015600,11.852015625,0.19164469838142395,-0.0337366983294487,-0.03594367578625679
1727009805842053400,11.862053466796874,0.1586468517780304,0.0666661411523819,-0.33184337615966797
1727009805852091600,11.872091552734375,0.0965653657913208,0.34960970282554626,-0.019239675253629684
1727009805862129400,11.88212939453125,0.07242555171251297,0.520043671131134,-0.07721418887376785
1727009805872167400,11.89216748046875,0.1494303196668625,0.39582666754722595,0.13637612760066986
1727009805882205400,11.902205322265624,0.20013321936130524,0.16131414473056793,0.25152280926704407
1727009805892243500,11.912243408203125,0.11878963559865952,-0.07948408275842667,0.1915401667356491
1727009805902281500,11.922281494140625,0.015064040198922157,-0.201393261551857,0.2182532697916031
1727009805912319500,11.932319580078126,-0.012877047061920166,-0.21331383287906647,-0.14022845029830933
1727009805922357500,11.942357421875,-0.01150500774383545,0.032900046557188034,-0.3128909766674042
1727009805932395500,11.9523955078125,-0.050544288009405136,0.1893216073513031,-0.48549336194992065
1727009805942433300,11.962433349609375,-0.047279734164476395,0.18613573908805847,-0.1808159053325653
1727009805952471600,11.972471435546876,-0.01210789941251278,-0.08447364717721939,-0.09237419813871384
1727009805962509300,11.98250927734375,0.03320666775107384,-0.2931331694126129,0.14051927626132965
1727009805972547600,11.992547607421875,0.019175268709659576,-0.24874679744243622,0.09666073322296143
1727009805982585300,12.00258544921875,-0.04113650321960449,-0.08693784475326538,0.1709577590227127
1727009805992623600,12.01262353515625,-0.0805044174194336,0.23364149034023285,0.08669642359018326
1727009806002661400,12.022661376953126,-0.12045875936746597,0.31100502610206604,0.01665475405752659
1727009806012698400,12.032698486328124,-0.1916903257369995,0.1977996528148651,-0.13542214035987854
1727009806022736600,12.042736572265625,-0.21354998648166656,-0.14131274819374084,-0.10748745501041412
1727009806032774400,12.0527744140625,-0.170257106423378,-0.41399887204170227,0.10588687658309937
1727009806042812400,12.0628125,-0.16131030023097992,-0.6458107829093933,0.04367540404200554
1727009806052850400,12.072850341796874,-0.1829327791929245,-0.5526328682899475,-0.09524572640657425
1727009806062888400,12.082888427734375,-0.16920873522758484,-0.24564555287361145,-0.26841580867767334
1727009806072926500,12.092926513671875,-0.12583117187023163,0.011314323171973228,-0.12228097021579742
1727009806082964500,12.102964599609376,-0.09055794030427933,0.23326130211353302,0.0232740119099617
1727009806093002500,12.11300244140625,-0.0350952073931694,0.12089455872774124,0.15207166969776154
1727009806103040500,12.12304052734375,0.0036120424047112465,0.005406792741268873,0.29966041445732117
1727009806113078300,12.133078369140625,-0.042220693081617355,-0.28913962841033936,0.12350348383188248
1727009806123116500,12.143116455078125,-0.09098051488399506,-0.1896294802427292,0.11125853657722473
1727009806133154300,12.153154296875,-0.07577839493751526,-0.18003597855567932,-0.261344850063324
1727009806143192600,12.163192626953125,-0.006112494971603155,-0.03593526780605316,-0.14238624274730682
1727009806153230300,12.173230224609375,0.009665668942034245,0.06804732233285904,-0.3268998861312866
1727009806163268600,12.1832685546875,0.001203224528580904,0.025565043091773987,-0.07214196026325226
1727009806173306400,12.193306396484376,0.026092328131198883,0.10465613007545471,0.21740010380744934
1727009806183344400,12.203344482421874,0.0695025771856308,0.15068700909614563,0.33339935541152954
1727009806193382400,12.21338232421875,0.10639401525259018,0.323139488697052,0.3003727197647095
1727009806203419400,12.22341943359375,0.12100332975387573,0.20926056802272797,-0.07105253636837006
1727009806213457400,12.23345751953125,0.10782681405544281,0.049138277769088745,0.06175930052995682
1727009806223495400,12.243495361328126,0.02757403254508972,-0.08830367028713226,-0.016728265210986137
1727009806233533400,12.253533447265625,-0.023986363783478737,0.0941937044262886,0.02940167859196663
1727009806243571500,12.263571533203125,0.01675274409353733,0.2572824954986572,-0.3077801465988159
1727009806253609500,12.273609375,0.07193983346223831,0.1007424145936966,-0.21452876925468445
1727009806263647500,12.2836474609375,0.014267239719629288,-0.036080002784729004,0.1375248283147812
1727009806273685500,12.293685546875,-0.0792912095785141,-0.12597686052322388,0.5817933678627014
1727009806283723300,12.30372314453125,-0.05523551627993584,0.08755717426538467,0.3291201591491699
1727009806293761500,12.313761474609375,0.05377485603094101,0.16584132611751556,-0.05107884854078293
1727009806303799300,12.32379931640625,0.034012068063020706,0.21095846593379974,-0.4729624390602112
1727009806313837600,12.333837646484374,-0.10731896013021469,0.09445955604314804,-0.46429678797721863
