time,seconds_elapsed,z,y,x
1727009794017375500,0.03737548828125,0.02455487847328186,0.028619127348065376,0.062252454459667206
1727009794027413500,0.04741357421875,-0.052432846277952194,0.0322578065097332,0.015585350804030895
1727009794037451500,0.057451416015625,-0.0994349792599678,0.027533091604709625,-0.018801383674144745
1727009794047489300,0.0674892578125,-0.10981864482164383,0.07543457299470901,-0.005675196181982756
1727009794057527600,0.077527587890625,-0.07084807753562927,0.1447334885597229,0.028657743707299232
1727009794067565600,0.087565673828125,0.11731038242578506,0.161462664604187,-0.034933216869831085
1727009794077603600,0.097603515625,0.1451452076435089,0.1259070634841919,-0.13683800399303436
1727009794087641600,0.1076416015625,-0.07847483456134796,0.05577671155333519,-0.1544463038444519
1727009794097678300,0.11767822265625,-0.21016602218151093,0.005406749434769154,-0.11421259492635727
1727009794107716600,0.127716552734375,-0.07356449961662292,0.011930429376661777,-0.03009505197405815
1727009794117754400,0.13775439453125,0.13186109066009521,0.0473741739988327,0.04903039336204529
1727009794127792600,0.147792724609375,0.13116814196109772,0.0504210963845253,0.12181325256824493
1727009794137830400,0.157830322265625,-0.028074245899915695,0.029939522966742516,0.12721067667007446
1727009794147868400,0.167868408203125,-0.08609706908464432,0.010464092716574669,0.07149042934179306
1727009794157906400,0.177906494140625,0.023330623283982277,0.00860440731048584,-0.0325361043214798
1727009794167944400,0.1879443359375,0.11393855512142181,0.02321583963930607,-0.10114339739084244
1727009794177982500,0.197982421875,0.06340081244707108,0.027006050571799278,-0.09678060561418533
1727009794188020500,0.2080205078125,-0.029335251078009605,0.022713301703333855,-0.03241999074816704
1727009794198057500,0.218057373046875,-0.016214922070503235,0.009528257884085178,0.04983653128147125
1727009794208095500,0.228095458984375,0.08588507771492004,0.000014913702216290403,0.09743733704090118
1727009794218133500,0.238133544921875,0.12422288209199905,-0.0049164616502821445,0.0978623777627945
1727009794228171500,0.248171630859375,0.048899099230766296,-0.00284984870813787,0.06410787999629974
1727009794238209500,0.25820947265625,-0.0270135086029768,-0.008918926119804382,-0.0010487528052181005
1727009794248247300,0.268247314453125,-0.010453706607222557,-0.0027630296535789967,-0.05842016637325287
1727009794258285600,0.27828564453125,0.04575710371136665,0.004886634182184935,-0.08453672379255295
1727009794268323300,0.2883232421875,0.03851357102394104,0.003448793664574623,-0.057020142674446106
1727009794278361600,0.298361572265625,-0.013380786404013634,-0.005697567015886307,0.008351140655577183
1727009794288398600,0.308398681640625,-0.02773921936750412,-0.02792111411690712,0.06453824788331985
1727009794298436400,0.318436279296875,0.007810784969478846,-0.04633873701095581,0.08561982959508896
1727009794308474600,0.328474609375,0.03338592126965523,-0.05970194563269615,0.05789871886372566
1727009794318512400,0.338512451171875,-0.0013339773286134005,-0.05077343061566353,0.003534547286108136
1727009794328550700,0.348550537109375,-0.04681304469704628,-0.028854284435510635,-0.045152563601732254
1727009794338588400,0.35858837890625,-0.05446776747703552,-0.011108044534921646,-0.07101985067129135
1727009794348626400,0.36862646484375,-0.019085809588432312,-0.022709839046001434,-0.05199475958943367
1727009794358664400,0.37866455078125,-0.0032019184436649084,-0.04366545379161835,-0.006847519893199205
1727009794368702500,0.388702392578125,-0.025743447244167328,-0.06010355055332184,0.04204758629202843
1727009794378740500,0.398740478515625,-0.03804725036025047,-0.06763816624879837,0.062070559710264206
1727009794388777500,0.408777587890625,-0.028928587213158607,-0.05841031298041344,0.03923981264233589
1727009794398815500,0.4188154296875,-0.010183661244809628,-0.042832151055336,-0.0044043357484042645
1727009794408853500,0.428853515625,-0.017845310270786285,-0.03789784759283066,-0.04418876767158508
1727009794418891500,0.4388916015625,-0.03452388942241669,-0.04129737243056297,-0.05209116265177727
1727009794428929800,0.4489296875,-0.03569594398140907,-0.05877862870693207,-0.03003619611263275
1727009794438968000,0.458968017578125,-0.016654610633850098,-0.083411805331707,0.012529374100267887
1727009794449005800,0.469005859375,-0.000472977408207953,-0.09213259071111679,0.040412403643131256
1727009794459043800,0.4790439453125,-0.01395576260983944,-0.07659357786178589,0.033965155482292175
1727009794469081900,0.489081787109375,-0.022605709731578827,-0.04596003517508507,0.01092481892555952
1727009794479120000,0.499119873046875,-0.02022084966301918,-0.014944860711693764,-0.026680612936615944
1727009794489156600,0.509156494140625,-0.0017204020405188203,0.004912200383841991,-0.05065758526325226
1727009794499195000,0.51919482421875,0.018074873834848404,0.00926114246249199,-0.03481896594166756
1727009794509232600,0.529232666015625,0.022968964651226997,-0.0153738958761096,0.009818010032176971
1727009794519271000,0.53927099609375,0.025539714843034744,-0.0535721480846405,0.06570151448249817
1727009794529308700,0.54930859375,0.02665691077709198,-0.07268112897872925,0.08355161547660828
1727009794539347000,0.559346923828125,0.016326243057847023,-0.05915093794465065,0.057004164904356
1727009794549385000,0.569385009765625,0.002042910782620311,-0.022400913760066032,-0.0013084110105410218
1727009794559422700,0.579422607421875,-0.009703227318823338,0.016525181010365486,-0.05859167501330376
1727009794569461000,0.5894609375,-0.009208145551383495,0.02827504649758339,-0.0808383896946907
1727009794579497700,0.599497802734375,0.0075785573571920395,0.03105298988521099,-0.07081771641969681
1727009794589535700,0.60953564453125,0.03825337812304497,0.026218287646770477,-0.010463826358318329
1727009794599573800,0.61957373046875,0.059408999979496,-0.020314326509833336,0.08491169661283493
1727009794609611800,0.62961181640625,0.05886624753475189,-0.07716429233551025,0.13070660829544067
1727009794619649800,0.63964990234375,0.03795590251684189,-0.08466321974992752,0.11714500188827515
1727009794629687800,0.649687744140625,0.011801531538367271,-0.0245498176664114,0.02611868642270565
1727009794639725800,0.659725830078125,0.00455879932269454,0.038788143545389175,-0.05734638124704361
1727009794649763800,0.669763916015625,0.00458702864125371,0.05507443845272064,-0.12257331609725952
1727009794659801600,0.679801513671875,0.006192648317664862,0.027935227379202843,-0.11035607010126114
1727009794669840000,0.68983984375,0.02268773503601551,-0.025235582143068314,-0.049246110022068024
1727009794679876900,0.699876953125,0.05420225113630295,-0.039613988250494,0.04829962179064751
1727009794689915000,0.709914794921875,0.08082614094018936,0.005397162400186062,0.11037284880876541
1727009794699953000,0.719952880859375,0.08392339944839478,0.06084311008453369,0.13323262333869934
1727009794709990700,0.72999072265625,0.08031588047742844,0.09014240652322769,0.061111025512218475
1727009794720029000,0.74002880859375,0.10952622443437576,0.025860093533992767,-0.022784674540162086
1727009794730066700,0.750066650390625,0.12899020314216614,-0.06462160497903824,-0.0896792858839035
1727009794740105000,0.76010498046875,0.13217028975486755,-0.10684628784656525,-0.11258566379547119
1727009794750142700,0.770142822265625,0.13384968042373657,-0.04241403564810753,-0.07626574486494064
1727009794760180700,0.7801806640625,0.15358076989650726,0.10352639108896255,0.012281167320907116
1727009794770218800,0.79021875,0.18532778322696686,0.24522307515144348,0.10408938676118851
1727009794780255700,0.800255859375,0.2089657336473465,0.2941133975982666,0.1641114354133606
1727009794790294000,0.8102939453125,0.20382237434387207,0.20940648019313812,0.14710688591003418
1727009794800331800,0.820331787109375,0.19633382558822632,0.04878271743655205,0.06418617814779282
1727009794810369800,0.830369873046875,0.190229594707489,-0.06028517708182335,-0.024624120444059372
1727009794820407800,0.84040771484375,0.17908506095409393,-0.04350326955318451,-0.08830243349075317
1727009794830445800,0.85044580078125,0.17566023766994476,0.07452403753995895,-0.09744852781295776
1727009794840483800,0.86048388671875,0.18794167041778564,0.1858721375465393,-0.046311572194099426
1727009794850521900,0.87052197265625,0.21184967458248138,0.1856265813112259,0.0494794026017189
1727009794860560000,0.880559814453125,0.2213829904794693,0.09593825042247772,0.12363006174564362
1727009794870596900,0.890596923828125,0.2168383002281189,0.008977515622973442,0.15296025574207306
1727009794880635000,0.900634765625,0.1978001594543457,0.008102667517960072,0.0962410494685173
1727009794890673000,0.9106728515625,0.19454897940158844,0.0703820213675499,-0.004744687583297491
1727009794900711000,0.9207109375,0.1964201182126999,0.13324619829654694,-0.09005452692508698
1727009794910748700,0.930748779296875,0.19181790947914124,0.15553659200668335,-0.10845936834812164
1727009794920787000,0.940786865234375,0.1832347959280014,0.13965830206871033,-0.042521893978118896
1727009794930824700,0.95082470703125,0.18121185898780823,0.09730923920869827,0.0598904974758625
1727009794940863000,0.960863037109375,0.1899299919605255,0.06118293106555939,0.13480176031589508
1727009794950900700,0.970900634765625,0.19119419157505035,0.05360410735011101,0.11296889930963516
1727009794960939000,0.98093896484375,0.18314185738563538,0.08568507432937622,0.037937261164188385
1727009794970976800,0.990976806640625,0.17091502249240875,0.08902361243963242,-0.027358386665582657
1727009794981013800,1.001013671875,0.1563137024641037,0.11420673131942749,-0.093229278922081
1727009794991052000,1.011052001953125,0.14593882858753204,0.22215983271598816,-0.188847154378891
1727009795001089800,1.02108984375,0.16120487451553345,0.27369385957717896,0.12553182244300842
1727009795011127800,1.0311279296875,0.17247828841209412,0.08764542639255524,-0.014962171204388142
1727009795021165800,1.041165771484375,0.16692399978637695,-0.008682438172399998,0.11938152462244034
1727009795031203800,1.051203857421875,0.16400651633739471,-0.06121355667710304,0.06682643294334412
1727009795041241900,1.061241943359375,0.16470293700695038,-0.10886763036251068,0.0997907742857933
1727009795051280000,1.07127978515625,0.15636350214481354,-0.11646349728107452,-0.01848207227885723
1727009795061318000,1.08131787109375,0.14830851554870605,-0.009970076382160187,-0.07651448249816895
1727009795071356000,1.09135595703125,0.14487355947494507,0.12254349142313004,-0.09844321757555008
1727009795081392600,1.101392578125,0.15428385138511658,0.232668936252594,-0.08923081308603287
1727009795091431000,1.111430908203125,0.17512281239032745,0.22483576834201813,0.010850783437490463
1727009795101469000,1.121468994140625,0.1888764500617981,0.12139993160963058,0.08048605173826218
1727009795111507000,1.1315068359375,0.18077564239501953,0.0008583368035033345,0.14759105443954468
1727009795121545000,1.141544921875,0.1603236347436905,-0.06296271830797195,0.08700680732727051
1727009795131582700,1.151582763671875,0.14760836958885193,-0.012287825345993042,0.007451258134096861
1727009795141621000,1.16162109375,0.13983513414859772,0.07989802956581116,-0.11252681165933609
1727009795151658800,1.17165869140625,0.14023619890213013,0.15739068388938904,-0.14146950840950012
1727009795161697000,1.181697021484375,0.14730742573738098,0.15991270542144775,-0.109948068857193
1727009795171734800,1.19173486328125,0.16220435500144958,0.10878400504589081,0.0017414409667253494
1727009795181771800,1.201771728515625,0.18276821076869965,0.05735436826944351,0.0996197983622551
1727009795191809800,1.211809814453125,0.19725394248962402,0.022890934720635414,0.1433212161064148
1727009795201847800,1.221847900390625,0.19162562489509583,0.042696598917245865,0.13120675086975098
1727009795211885800,1.2318857421875,0.17237603664398193,0.10480444133281708,0.04827671870589256
1727009795221923800,1.241923828125,0.15920722484588623,0.1533445417881012,-0.04261883348226547
1727009795231961600,1.251961669921875,0.1631564348936081,0.13121581077575684,-0.08341366797685623
1727009795242000000,1.261999755859375,0.17492467164993286,0.05161499232053757,-0.07150480896234512
1727009795252038000,1.272037841796875,0.1816728562116623,-0.013464143499732018,-0.01775369606912136
1727009795262076000,1.282075927734375,0.18378235399723053,-0.020140688866376877,0.03261067345738411
1727009795272114000,1.292114013671875,0.19725075364112854,0.045996520668268204,0.06029476597905159
1727009795282150700,1.302150634765625,0.2117287665605545,0.13733415305614471,0.05049619823694229
1727009795292189000,1.31218896484375,0.2212650030851364,0.21265527606010437,0.02142379991710186
1727009795302226700,1.322226806640625,0.22766298055648804,0.23061484098434448,-0.0046211169101297855
1727009795312265000,1.332264892578125,0.23353604972362518,0.17428924143314362,0.00155288923997432
1727009795322302700,1.342302734375,0.2443423718214035,0.09305378049612045,0.02605050802230835
1727009795332340700,1.3523408203125,0.24560309946537018,0.06007452309131622,0.05576179921627045
1727009795342378800,1.362378662109375,0.23618990182876587,0.09594570100307465,0.04830228537321091
1727009795352416800,1.372416748046875,0.22841612994670868,0.17201916873455048,0.02930782176554203
1727009795362454800,1.382454833984375,0.2268667072057724,0.23670469224452972,0.0024865935556590557
1727009795372492800,1.392492919921875,0.22894397377967834,0.22460328042507172,0.005936185829341412
1727009795382529800,1.40252978515625,0.2223222851753235,0.12270168215036392,0.03265594691038132
1727009795392567800,1.41256787109375,0.20220395922660828,-0.00768668157979846,0.07189815491437912
1727009795402605800,1.422605712890625,0.17050862312316895,-0.06733349710702896,0.07148829847574234
1727009795412643800,1.432643798828125,0.1353013664484024,-0.037869617342948914,0.02828383632004261
1727009795422681900,1.442681884765625,0.1085781455039978,0.03924673795700073,-0.04277622699737549
1727009795432721000,1.452720947265625,0.08195691555738449,0.0971667617559433,-0.10342679172754288
1727009795442759000,1.462759033203125,0.06495742499828339,0.09237334132194519,-0.11970695853233337
1727009795452797000,1.472796875,0.06796547025442123,0.021471470594406128,-0.0581866055727005
1727009795462835000,1.4828349609375,0.07685963064432144,-0.05207438766956329,0.030950991436839104
1727009795472873000,1.492873046875,0.08155025541782379,-0.066246397793293,0.07438208907842636
1727009795482910000,1.502909912109375,0.07521752268075943,-0.017533985897898674,0.0766441747546196
1727009795492947700,1.51294775390625,0.06486102193593979,0.05207438766956329,0.032696694135665894
1727009795502986000,1.522986083984375,0.05294949933886528,0.11337555944919586,-0.020913271233439445
1727009795513023700,1.533023681640625,0.05420012027025223,0.12976385653018951,-0.04464736208319664
1727009795523061800,1.543061767578125,0.06337178498506546,0.08498173952102661,-0.03808906301856041
1727009795533099800,1.553099853515625,0.0668456107378006,0.0014831144362688065,-0.007315969560295343
1727009795543137800,1.5631376953125,0.07167365401983261,-0.05276148021221161,0.03650927543640137
1727009795553175800,1.57317578125,0.07734325528144836,-0.03449326381087303,0.06530071049928665
1727009795563213800,1.5832138671875,0.07794300466775894,0.03068174608051777,0.05547337979078293
1727009795573251800,1.593251953125,0.0824115201830864,0.06626664102077484,0.03753379359841347
1727009795583289900,1.603289794921875,0.08379635959863663,0.0509481355547905,0.016654876992106438
1727009795593326800,1.613326904296875,0.07134448736906052,0.0017057546647265553,0.0005909554311074317
1727009795603364900,1.62336474609375,0.059894490987062454,-0.0377122238278389,-0.027412449941039085
1727009795613403000,1.63340283203125,0.06550577282905579,-0.03827361762523651,-0.03802381455898285
1727009795623441000,1.64344091796875,0.08196863532066345,-0.008799883536994457,-0.04934091866016388
1727009795633479000,1.65347900390625,0.08952535688877106,0.03951917961239815,-0.02226882055401802
1727009795643516700,1.6635166015625,0.09361863136291504,0.08039124310016632,0.028199147433042526
1727009795653555000,1.673554931640625,0.09868396818637848,0.096535325050354,0.08394204080104828
1727009795663592700,1.6835927734375,0.09189397096633911,0.08870244026184082,0.09636861085891724
1727009795673631000,1.693630859375,0.08360301703214645,0.06270279735326767,0.06533879041671753
1727009795683668700,1.703668701171875,0.07664977014064789,0.028904618695378304,0.008013451471924782
1727009795693705700,1.713705810546875,0.06917214393615723,0.013478524051606655,-0.04418477043509483
1727009795703744000,1.723743896484375,0.06121408939361572,0.00797270517796278,-0.06421014666557312
1727009795713781800,1.73378173828125,0.06081701070070267,0.02058437094092369,-0.04136208817362785
1727009795723820000,1.743820068359375,0.06875429302453995,0.03868135064840317,0.0014405038673430681
1727009795733857800,1.75385791015625,0.07639171183109283,0.05103309080004692,0.05267173424363136
1727009795743895800,1.763895751953125,0.08302830904722214,0.04210750758647919,0.08480437099933624
1727009795753933800,1.773933837890625,0.0778157040476799,0.026316825300455093,0.08525338023900986
1727009795763971800,1.783971923828125,0.06624267250299454,0.00953757856041193,0.043774377554655075
1727009795774009900,1.794009765625,0.062014635652303696,0.003236806020140648,-0.013798636384308338
1727009795784047900,1.8040478515625,0.06162821128964424,-0.00914556160569191,-0.06046973541378975
1727009795794086000,1.8140859375,0.06481868028640747,-0.011366104707121849,-0.056476593017578125
1727009795804123000,1.824122802734375,0.06246550753712654,0.005603291094303131,-0.038490135222673416
1727009795814161000,1.834160888671875,0.06816041469573975,0.021952703595161438,0.00788482092320919
1727009795824199000,1.844198974609375,0.07736696302890778,0.027047064155340195,0.05690962076187134
1727009795834237000,1.85423681640625,0.0827699825167656,0.02799142152070999,0.0854099690914154
1727009795844274700,1.864274658203125,0.07956406474113464,0.02478151209652424,0.06787944585084915
1727009795854313000,1.87431298828125,0.06428151577711105,0.03099040687084198,0.013481187634170055
1727009795864350700,1.884350830078125,0.06355208158493042,0.03815697133541107,-0.04429449513554573
1727009795874389000,1.894388916015625,0.06752684712409973,0.03425224497914314,-0.06711325794458389
1727009795884426800,1.9044267578125,0.07827936112880707,0.023755662143230438,-0.046179745346307755
1727009795894465000,1.914465087890625,0.08076541870832443,0.023542344570159912,0.013999971561133862
1727009795904502800,1.924502685546875,0.08872853964567184,0.027035878971219063,0.06726185977458954
1727009795914539800,1.934539794921875,0.0933600440621376,0.04410727322101593,0.07675709575414658
1727009795924578000,1.944578125,0.09653932601213455,0.06276724487543106,0.050030142068862915
1727009795934615800,1.95461572265625,0.09562452882528305,0.0806567594408989,-0.0022913836874067783
1727009795944654000,1.964654052734375,0.09314299374818802,0.06583334505558014,-0.02225763536989689
1727009795954691800,1.97469189453125,0.09906133264303207,0.01793612353503704,-0.017673002555966377
1727009795964729900,1.984729736328125,0.1023269072175026,-0.012149606831371784,0.0025158883072435856
1727009795974767900,1.994767822265625,0.10301613062620163,-0.013830062001943588,0.0005073322099633515
1727009795984806000,2.004805908203125,0.10245020687580109,0.007672566920518875,0.006961769424378872
1727009795994844000,2.014843994140625,0.11016565561294556,0.03737134113907814,0.016276707872748375
1727009796004882000,2.0248818359375,0.10893793404102325,0.06594918668270111,0.03124021179974079
1727009796014919700,2.034919677734375,0.11023756116628647,0.06827572733163834,0.022596921771764755
1727009796024957000,2.04495703125,0.10879146307706833,0.05843960866332054,0.02564064785838127
1727009796034995000,2.054994873046875,0.10765748471021652,0.03513162210583687,0.017432253807783127
1727009796045033000,2.065032958984375,0.1043972447514534,0.0228579118847847,0.008962602354586124
1727009796055071000,2.075071044921875,0.09690044820308685,0.03201785311102867,-0.002683933824300766
1727009796065108700,2.085108642578125,0.09447483718395233,0.05925640091300011,0.0033622407354414463
1727009796075147000,2.09514697265625,0.09238559007644653,0.07434161007404327,0.01236612256616354
1727009796085184800,2.105184814453125,0.09357575327157974,0.06280985474586487,0.029228458181023598
1727009796095223000,2.11522314453125,0.09543517231941223,0.036849625408649445,0.05375111103057861
1727009796105260800,2.1252607421875,0.09376323968172073,0.0043683829717338085,0.04939817637205124
1727009796115299000,2.135299072265625,0.08188607543706894,0.0009893643436953425,0.015126221813261509
1727009796125336800,2.1453369140625,0.06252516061067581,0.027118436992168427,-0.015026086941361427
1727009796135374800,2.155374755859375,0.053527940064668655,0.060629259794950485,-0.019114572554826736
1727009796145412000,2.165412109375,0.055197473615407944,0.061838600784540176,0.03160666301846504
1727009796155449900,2.175449951171875,0.05258437991142273,0.04254719242453575,0.0859450027346611
1727009796165487900,2.18548779296875,0.04760719835758209,0.022523418068885803,0.10182409733533859
1727009796175526000,2.19552587890625,0.03308578208088875,0.01817634142935276,0.06029476597905159
1727009796185564000,2.20556396484375,0.022484004497528076,0.02394288405776024,0.015019696205854416
1727009796195602000,2.215601806640625,0.01158741395920515,0.013891580514609814,-0.019146796315908432
1727009796205640000,2.225639892578125,0.003067695302888751,-0.002544117858633399,-0.002841060282662511
1727009796215678000,2.235677978515625,-0.002127865795046091,0.002174204681068659,0.039808399975299835
1727009796225716000,2.245716064453125,-0.009460879489779472,0.022064289078116417,0.05697406828403473
1727009796235753700,2.255753662109375,-0.01570093259215355,0.040098417550325394,0.050148654729127884
1727009796245792000,2.2657919921875,-0.023510385304689407,0.04476667195558548,0.030226612463593483
1727009796255828700,2.275828857421875,-0.0265921950340271,0.025296036154031754,0.05295136570930481
1727009796265866800,2.28586669921875,-0.02912672609090805,0.014033793471753597,0.08474897593259811
1727009796275904800,2.29590478515625,-0.0373750701546669,0.009225456044077873,0.0762268602848053
1727009796285942800,2.30594287109375,-0.03640115261077881,0.01387160737067461,0.03314969688653946
1727009796295981000,2.31598095703125,-0.042626023292541504,0.018731875345110893,-0.005617938470095396
1727009796306018800,2.326018798828125,-0.04030853882431984,0.016055932268500328,-0.03711727634072304
1727009796316057000,2.33605712890625,-0.01684342883527279,0.028000475838780403,0.012584500946104527
1727009796326094800,2.3460947265625,0.01512941811233759,0.07226354628801346,0.10844071954488754
1727009796336132900,2.3561328125,0.03249775618314743,0.10352212935686111,0.15740346908569336
1727009796346171000,2.3661708984375,0.04849722981452942,0.10331706702709198,0.1790456473827362
1727009796356209000,2.376208984375,0.06683575361967087,0.08818019181489944,0.13734400272369385
1727009796366247000,2.386246826171875,0.07120466977357864,0.07147471606731415,0.06884138286113739
1727009796376284000,2.396283935546875,0.0667601227760315,0.06862060725688934,-0.017282584682106972
1727009796386321700,2.40632177734375,0.07282893359661102,0.09638086706399918,-0.008774583227932453
1727009796396360000,2.41635986328125,0.07721409201622009,0.1483742892742157,0.013234845362603664
1727009796406397700,2.426397705078125,0.07396663725376129,0.21549341082572937,0.05763160437345505
1727009796416436000,2.43643603515625,0.07682953029870987,0.23002414405345917,0.09542745351791382
1727009796426473700,2.4464736328125,0.09328973293304443,0.1862684041261673,0.15535922348499298
1727009796436511000,2.456510986328125,0.10725987702608109,0.09939316660165787,0.15917927026748657
1727009796446549200,2.46654931640625,0.10435996204614639,0.051543883979320526,0.13028956949710846
1727009796456587000,2.4765869140625,0.08415322750806808,0.04784901440143585,0.014944594353437424
1727009796466625000,2.486625,0.07108749449253082,0.09617873281240463,-0.08484458178281784
1727009796476663000,2.4966630859375,0.07676108926534653,0.1492278277873993,-0.07256634533405304
1727009796486700000,2.506699951171875,0.09358454495668411,0.19456414878368378,0.03700302541255951
1727009796496738300,2.51673828125,0.10466382652521133,0.21776561439037323,0.1834220290184021
1727009796506776000,2.526776123046875,0.11883930116891861,0.17245300114154816,0.1888713836669922
1727009796516814000,2.53681396484375,0.13973499834537506,0.12018020451068878,0.17898866534233093
1727009796526852000,2.54685205078125,0.13635198771953583,0.10148454457521439,0.06947095692157745
1727009796536890000,2.55689013671875,0.12151657789945602,0.12653663754463196,-0.026342125609517097
1727009796546928000,2.56692822265625,0.11144530028104782,0.14761129021644592,-0.07228271663188934
1727009796556966100,2.576966064453125,0.1206691563129425,0.1646299660205841,0.03707226738333702
1727009796567004000,2.58700390625,0.11431725323200226,0.2058919072151184,0.08570611476898193
1727009796577042200,2.597042236328125,0.1029580757021904,0.22602488100528717,0.06069876626133919
1727009796587080000,2.607079833984375,0.10520684719085693,0.22451646625995636,0.1107558086514473
1727009796597118200,2.6171181640625,0.09283113479614258,0.186249241232872,0.08254760503768921
1727009796607155200,2.6271552734375,0.08148420602083206,0.14963556826114655,0.1150839775800705
1727009796617193000,2.63719287109375,0.08588960766792297,0.09864481538534164,0.12378852069377899
1727009796627231200,2.647231201171875,0.07274797558784485,0.10660873353481293,0.12805862724781036
1727009796637269000,2.65726904296875,0.027168769389390945,0.12014744430780411,0.02605743333697319
1727009796647307300,2.667307373046875,-0.008709868416190147,0.1382012814283371,0.007730357814580202
1727009796657345000,2.677344970703125,-0.017363011837005615,0.10397939383983612,0.01775183342397213
1727009796667383300,2.68738330078125,-0.016883641481399536,0.036610208451747894,0.04201855510473251
1727009796677421000,2.697421142578125,-0.010633203200995922,0.02321823686361313,0.11971308290958405
1727009796687459000,2.707458984375,-0.021032581105828285,0.053399842232465744,0.08088047057390213
1727009796697497000,2.7174970703125,-0.030730215832591057,0.14034166932106018,0.07252240180969238
1727009796707535000,2.72753515625,-0.021352160722017288,0.19313164055347443,-0.0004500742070376873
1727009796717573000,2.737572998046875,0.009178051725029945,0.1844734400510788,0.03326953947544098
1727009796727611100,2.747611083984375,0.05284297466278076,0.13642655313014984,0.06743576377630234
1727009796737648000,2.757648193359375,0.09503969550132751,0.16851204633712769,0.06345966458320618
1727009796747686100,2.76768603515625,0.14623311161994934,0.32130610942840576,0.09900461137294769
1727009796757724200,2.77772412109375,0.21633337438106537,0.47302427887916565,0.020232034847140312
1727009796767762200,2.78776220703125,0.33035555481910706,0.4734666347503662,0.035295139998197556
1727009796777800200,2.79780029296875,0.4528694748878479,0.36285915970802307,0.012351474724709988
1727009796787838000,2.807837890625,0.5220722556114197,0.2213827222585678,0.1952672302722931
1727009796797876200,2.817876220703125,0.5430963039398193,0.2172257900238037,0.16323046386241913
1727009796807914000,2.8279140625,0.6376188397407532,0.42169424891471863,0.2290148138999939
1727009796817952300,2.8379521484375,0.7857837677001953,0.6198123693466187,0.03315156325697899
1727009796827990000,2.847989990234375,0.916630208492279,0.8011576533317566,-0.1990976482629776
1727009796838028300,2.8580283203125,0.9451279044151306,0.6601046919822693,-0.124665766954422
1727009796848066000,2.868066162109375,0.9436898231506348,0.4049493670463562,-0.213820680975914
1727009796858104000,2.87810400390625,1.0806604623794556,0.41516631841659546,0.043117109686136246
1727009796868141000,2.88814111328125,1.2909656763076782,0.609767735004425,0.15899658203125
1727009796878179000,2.898178955078125,1.4224302768707275,0.9285915493965149,0.25231799483299255
1727009796888217000,2.908217041015625,1.444380283355713,1.0751551389694214,0.31732815504074097
1727009796898255000,2.918255126953125,1.4723608493804932,1.1533119678497314,0.25713351368904114
1727009796908293000,2.928293212890625,1.5731403827667236,1.2124102115631104,0.20360904932022095
1727009796918331100,2.9383310546875,1.6871974468231201,1.1843814849853516,0.19179899990558624
1727009796928369200,2.948369140625,1.7149039506912231,1.279452919960022,0.12310461699962616
1727009796938407200,2.9584072265625,1.7121204137802124,1.3501720428466797,0.08368184417486191
1727009796948445200,2.968445068359375,1.775948166847229,1.3192775249481201,-0.031255923211574554
1727009796958483000,2.97848291015625,1.8837076425552368,1.136297583580017,0.19399264454841614
1727009796968521200,2.988521240234375,1.9176256656646729,1.206615924835205,0.5622204542160034
1727009796978559000,2.99855908203125,1.8084203004837036,1.5675100088119507,0.7189906239509583
1727009796988596000,3.008595947265625,1.6789212226867676,2.0018422603607178,0.742084801197052
1727009796998634000,3.018634033203125,1.7023969888687134,2.127274990081787,0.6370036005973816
1727009797008672000,3.028672119140625,1.801733136177063,1.759834885597229,0.4118408262729645
1727009797018710000,3.0387099609375,1.7945830821990967,1.0515427589416504,0.043832700699567795
1727009797028748000,3.048748046875,1.735109567642212,0.7658231258392334,0.026584738865494728
1727009797038786000,3.0587861328125,1.6431500911712646,0.9095978736877441,0.260352224111557
1727009797048824000,3.068823974609375,1.485163927078247,1.2623039484024048,0.38156652450561523
1727009797058862000,3.078862060546875,1.362749695777893,1.6729562282562256,0.4791998863220215
1727009797068900000,3.088900146484375,1.3534610271453857,2.0375306606292725,0.9144421815872192
1727009797078938000,3.098938232421875,1.306061863899231,1.7147529125213623,0.8393293023109436
1727009797088976100,3.10897607421875,1.172637701034546,1.2157809734344482,0.7982940077781677
1727009797099014100,3.11901416015625,1.0064420700073242,0.6749957203865051,0.5701487064361572
1727009797109052200,3.12905224609375,0.8727983236312866,0.3872143030166626,0.18151839077472687
1727009797119089200,3.139089111328125,0.7673888206481934,0.5832487940788269,-0.01041402481496334
1727009797129127000,3.149126953125,0.681786298751831,0.9011620283126831,0.18050719797611237
1727009797139165200,3.159165283203125,0.5874888300895691,1.1095222234725952,0.344858318567276
1727009797149203000,3.169202880859375,0.45543384552001953,1.1204136610031128,0.5265452861785889
1727009797159241000,3.179240966796875,0.36160987615585327,0.8786839246749878,0.45999422669410706
1727009797169279000,3.189279052734375,0.3540840446949005,0.654755711555481,0.5528424382209778
1727009797179317000,3.19931689453125,0.25335344672203064,0.3482738137245178,0.3139078617095947
1727009797189355000,3.20935498046875,0.07403215020895004,0.24632295966148376,0.18345823884010315
1727009797199393000,3.21939306640625,-0.023547936230897903,0.2581503093242645,-0.0010548781137913465
1727009797209431300,3.229431396484375,-0.010056628845632076,0.38978105783462524,-0.06637875735759735
1727009797219469000,3.239468994140625,-0.006087453570216894,0.3977665305137634,0.003230680711567402
1727009797229507000,3.249507080078125,-0.06341705471277237,0.2634502649307251,0.08353963494300842
1727009797239545000,3.259545166015625,-0.10712085664272308,0.07819147408008575,0.21677012741565704
1727009797249582000,3.26958203125,-0.09752309322357178,0.0455901212990284,0.23325030505657196
1727009797259620000,3.2796201171875,-0.0159430131316185,0.08691518753767014,0.1955796182155609
1727009797269658000,3.289658203125,0.062486547976732254,0.10965379327535629,0.24535143375396729
1727009797279696000,3.29969580078125,0.038421690464019775,0.3238912522792816,0.47792184352874756
1727009797289734100,3.309734130859375,-0.04843198135495186,0.649825930595398,0.529137372970581
1727009797299772000,3.31977197265625,-0.005216333549469709,0.34097570180892944,0.7540828585624695
1727009797309810200,3.32981005859375,-0.006478671915829182,-0.44921162724494934,0.7020210027694702
1727009797319848000,3.339847900390625,-0.39253875613212585,-0.6159470677375793,-0.07652460038661957
1727009797329886000,3.349885986328125,-0.9116386771202087,-0.17342105507850647,-0.2953837215900421
1727009797339924200,3.35992431640625,-1.051961898803711,-0.5416118502616882,-0.6858473420143127
1727009797349962000,3.3699619140625,-0.6667117476463318,-0.9092857241630554,-0.40145742893218994
1727009797360000300,3.380000244140625,-0.47861185669898987,-0.03791462630033493,-0.13367204368114471
1727009797370038000,3.3900380859375,-0.6776115298271179,-0.5332958698272705,0.8424627780914307
1727009797380075000,3.400074951171875,-0.764875054359436,-0.8840690851211548,1.5034968852996826
1727009797390113000,3.410113037109375,-0.9486683011054993,-1.051486611366272,1.788671612739563
1727009797400151000,3.420151123046875,-1.6621496677398682,-0.1426282525062561,0.6402257680892944
1727009797410189000,3.43018896484375,-2.5142879486083984,1.2964481115341187,0.012179167941212654
1727009797420227000,3.44022705078125,-2.764360189437866,1.2058182954788208,-1.2428640127182007
1727009797430265000,3.45026513671875,-2.2198987007141113,-0.18917977809906006,-1.8285861015319824
1727009797440303600,3.4603037109375,-1.7328134775161743,-2.783071994781494,-1.032678484916687
1727009797450341400,3.47034130859375,-2.004615068435669,-4.824596405029297,-0.1802067905664444
1727009797460379400,3.48037939453125,-2.413989543914795,-4.764062881469727,0.8238078355789185
1727009797470417400,3.49041748046875,-2.8098785877227783,-3.1980268955230713,0.5189699530601501
1727009797480455400,3.500455322265625,-2.708136796951294,-0.38264697790145874,-0.016464194282889366
1727009797490493400,3.510493408203125,-2.268188714981079,1.5420669317245483,-0.44317078590393066
1727009797500531500,3.520531494140625,-2.165804386138916,1.3411353826522827,-0.029379460960626602
1727009797510568400,3.530568359375,-2.5728964805603027,0.010181531310081482,-0.06915749609470367
1727009797520606500,3.5406064453125,-3.040832042694092,-2.2447285652160645,-0.0256893839687109
1727009797530644500,3.55064453125,-3.197510242462158,-4.082769870758057,-0.3219791054725647
1727009797540682500,3.5606826171875,-2.9898595809936523,-4.562902450561523,-0.2986468970775604
1727009797550720500,3.570720458984375,-2.7224314212799072,-3.97412109375,-0.6511889696121216
1727009797560758300,3.58075830078125,-2.581453800201416,-2.201951265335083,-0.5607509613037109
1727009797570796500,3.590796630859375,-2.556710720062256,-0.6719338893890381,-0.7871840596199036
1727009797580834300,3.600834228515625,-2.4518346786499023,-0.0990152657032013,-0.45819953083992004
1727009797590872600,3.61087255859375,-2.326666831970215,-0.2688615620136261,0.09699977934360504
1727009797600910300,3.620910400390625,-2.2670674324035645,-0.9825229644775391,0.2653925120830536
1727009797610948600,3.630948486328125,-2.0596179962158203,-1.8288779258728027,0.4742887318134308
1727009797620986400,3.640986328125,-1.7325729131698608,-2.093001127243042,0.3037015497684479
1727009797631024400,3.6510244140625,-1.439218282699585,-1.6217668056488037,-0.3458484709262848
1727009797641061600,3.6610615234375,-1.1666312217712402,-0.9203882217407227,-0.7142126560211182
1727009797651099400,3.671099365234375,-0.8799025416374207,-0.33633461594581604,-0.6348065137863159
1727009797661137400,3.681137451171875,-0.6164693236351013,-0.0017715347930788994,-0.3102545440196991
1727009797671175400,3.691175537109375,-0.3500911593437195,0.18312402069568634,-0.02135881781578064
1727009797681213400,3.70121337890625,0.03269189968705177,0.23280049860477448,0.32257696986198425
1727009797691251500,3.71125146484375,0.4337485134601593,0.1792413890361786,0.536693274974823
1727009797701289500,3.72128955078125,0.7210679054260254,0.36991626024246216,0.3057655096054077
1727009797711327500,3.731327392578125,1.0037726163864136,0.2819909453392029,0.3177657127380371
1727009797721365500,3.741365478515625,1.2383365631103516,0.20123377442359924,0.33218300342559814
1727009797731403300,3.7514033203125,1.3517377376556396,0.3453209102153778,0.13696877658367157
1727009797741441500,3.761441650390625,1.4545674324035645,0.7213752269744873,-0.02406618744134903
1727009797751479300,3.771479248046875,1.647309422492981,1.183582067489624,-0.458019495010376
1727009797761517600,3.781517578125,1.9617787599563599,1.4508142471313477,-0.4231927990913391
1727009797771554600,3.791554443359375,2.302908420562744,1.280348777770996,0.11670637875795364
1727009797781592300,3.80159228515625,2.5082521438598633,0.8008551597595215,0.6622288227081299
1727009797791630600,3.811630615234375,2.575181245803833,0.6450240015983582,0.9681764841079712
1727009797801668400,3.82166845703125,2.536515712738037,1.059638500213623,0.6593480706214905
1727009797811706600,3.83170654296875,2.487920045852661,1.8083380460739136,0.031622909009456635
1727009797821744400,3.841744384765625,2.581402540206909,2.3118646144866943,-0.4174558222293854
1727009797831782400,3.851782470703125,2.7287216186523438,2.4510655403137207,0.011579956859350204
1727009797841820400,3.8618203125,2.7061994075775146,2.197889804840088,0.33327463269233704
1727009797851858400,3.8718583984375,2.5638976097106934,2.016657590866089,0.8534935712814331
1727009797861896400,3.881896484375,2.4105637073516846,1.9405543804168701,0.9889693856239319
1727009797871934500,3.8919345703125,2.314368963241577,1.7620033025741577,0.5578904151916504
1727009797881972500,3.901972412109375,2.2306175231933594,1.7764410972595215,0.4372873306274414
1727009797892010500,3.912010498046875,1.9707887172698975,1.6434299945831299,0.04108937829732895
1727009797902047500,3.922047607421875,1.6695902347564697,1.4985783100128174,-0.06268095970153809
1727009797912085500,3.93208544921875,1.47408926486969,1.2832214832305908,0.023363646119832993
1727009797922123500,3.94212353515625,1.3540195226669312,1.174933671951294,0.17918014526367188
1727009797932161500,3.95216162109375,1.2169370651245117,1.0692740678787231,0.393838107585907
1727009797942199600,3.962199462890625,1.0075148344039917,0.9663692712783813,0.4346119165420532
1727009797952237300,3.9722373046875,0.7595375180244446,0.8244717717170715,0.4612416625022888
1727009797962275600,3.982275634765625,0.5093167424201965,0.6374784708023071,0.3209785521030426
1727009797972313300,3.992313232421875,0.26527082920074463,0.36919480562210083,0.06847919523715973
1727009797982351600,4.0023515625,-0.0006833671359345317,0.008113319985568523,-0.054191600531339645
1727009797992389400,4.012389404296875,-0.30283042788505554,-0.3596037030220032,-0.1327575147151947
1727009798002427400,4.022427490234375,-0.6070356369018555,-0.5691095590591431,-0.19818206131458282
1727009798012465400,4.03246533203125,-0.8324591517448425,-0.40834489464759827,-0.07048694789409637
1727009798022503400,4.04250341796875,-1.0012167692184448,-0.19420436024665833,0.023370835930109024
1727009798032540700,4.052540771484375,-1.1621736288070679,-0.08752532303333282,0.1962781697511673
1727009798042578400,4.062578369140625,-1.3645983934402466,-0.1680193692445755,0.3129855990409851
1727009798052616400,4.072616455078125,-1.5859968662261963,-0.35105496644973755,0.36744511127471924
1727009798062654500,4.082654541015625,-1.7669168710708618,-0.6551850438117981,0.1703035533428192
1727009798072692500,4.0926923828125,-1.902738332748413,-0.8769861459732056,-0.029802104458212852
1727009798082730500,4.10273046875,-2.0469818115234375,-1.000558614730835,-0.36742380261421204
1727009798092768500,4.1127685546875,-2.157449245452881,-1.1451117992401123,-0.5014066696166992
1727009798102806500,4.122806640625,-2.2027904987335205,-1.115005373954773,-0.2906621992588043
1727009798112844500,4.132844482421875,-2.2011055946350098,-1.1355830430984497,-0.20275816321372986
1727009798122882300,4.14288232421875,-2.147193431854248,-1.1301629543304443,0.05597858130931854
1727009798132920600,4.152920654296875,-2.147733449935913,-1.1829534769058228,0.16754186153411865
1727009798142958300,4.162958251953125,-2.222475051879883,-1.3257644176483154,0.1297430843114853
1727009798152996600,4.17299658203125,-2.297849416732788,-1.3627283573150635,0.0265948586165905
1727009798163033600,4.18303369140625,-2.3188939094543457,-1.402986764907837,-0.3491089940071106
1727009798173071400,4.1930712890625,-2.2723774909973145,-1.3276231288909912,-0.5085117220878601
1727009798183109600,4.203109619140625,-2.262910842895508,-1.3709383010864258,-0.5728017091751099
1727009798193147400,4.2131474609375,-2.242577314376831,-1.3741551637649536,-0.41754958033561707
1727009798203185700,4.223185546875,-2.163828134536743,-1.4354890584945679,-0.006757771130651236
1727009798213223400,4.233223388671875,-2.041771173477173,-1.484793782234192,0.17792180180549622
1727009798223261400,4.243261474609375,-1.9458897113800049,-1.5075619220733643,0.16011324524879456
1727009798233299500,4.253299560546875,-1.9268265962600708,-1.459303379058838,-0.19345548748970032
1727009798243337500,4.26333740234375,-1.930834174156189,-1.2859281301498413,-0.36576226353645325
1727009798253375500,4.27337548828125,-1.8856685161590576,-1.0647163391113281,-0.5582606196403503
1727009798263413500,4.28341357421875,-1.721104621887207,-0.9083829522132874,-0.47336357831954956
1727009798273451500,4.293451416015625,-1.5347230434417725,-0.7774686217308044,-0.39487940073013306
1727009798283489500,4.303489501953125,-1.3875205516815186,-0.771006166934967,-0.2960260510444641
1727009798293527300,4.31352734375,-1.231624960899353,-0.785281240940094,-0.043294209986925125
1727009798303564500,4.323564453125,-1.0634475946426392,-0.9432793855667114,0.2566365897655487
1727009798313602600,4.3336025390625,-0.9176872372627258,-1.1295222043991089,0.41362860798835754
1727009798323640300,4.343640380859375,-0.8248827457427979,-1.1087090969085693,0.29746097326278687
1727009798333678600,4.3536787109375,-0.7848330140113831,-0.8852326273918152,-0.08735594153404236
1727009798343716400,4.36371630859375,-0.7452105283737183,-0.49803856015205383,-0.38492104411125183
1727009798353754600,4.373754638671875,-0.6406516432762146,-0.23578377068042755,-0.584961473941803
1727009798363792400,4.38379248046875,-0.4511394798755646,-0.19289249181747437,-0.4320358335971832
1727009798373830700,4.39383056640625,-0.268572062253952,-0.3654341697692871,-0.10244328528642654
1727009798383868400,4.403868408203125,-0.16740630567073822,-0.601098895072937,0.15960296988487244
1727009798393906400,4.413906494140625,-0.08486375957727432,-0.6638581156730652,0.3956781029701233
1727009798403944400,4.4239443359375,0.03773938864469528,-0.650192379951477,0.5916798114776611
1727009798413982500,4.433982421875,0.14859426021575928,-0.36128178238868713,0.5017616748809814
1727009798424020500,4.4440205078125,0.19695301353931427,-0.13386432826519012,0.25085753202438354
1727009798434061600,4.4540615234375,0.17606957256793976,-0.019400330260396004,-0.17649753391742706
1727009798444098600,4.4640986328125,0.15824076533317566,-0.011721903458237648,-0.34966719150543213
1727009798454136600,4.474136474609375,0.1950344741344452,-0.13072499632835388,-0.25866004824638367
1727009798464174600,4.484174560546875,0.3201412558555603,-0.241244837641716,-0.02736957184970379
1727009798474212600,4.494212646484375,0.45186784863471985,-0.09436938166618347,0.33693674206733704
1727009798484250600,4.504250732421875,0.4751548171043396,0.12102282792329788,0.4000094532966614
1727009798494288600,4.51428857421875,0.4726509153842926,0.348476767539978,0.2516098618507385
1727009798504326700,4.52432666015625,0.5350170731544495,0.25548264384269714,0.264504611492157
1727009798514364400,4.534364501953125,0.5931658744812012,0.18721383810043335,0.12307213246822357
1727009798524402700,4.544402587890625,0.5467797517776489,0.18166033923625946,0.019873838871717453
1727009798534440400,4.5544404296875,0.46025627851486206,0.33486002683639526,-0.08019629865884781
1727009798544478700,4.564478759765625,0.4425084590911865,0.5221462845802307,-0.021558288484811783
1727009798554516500,4.5745166015625,0.5075998306274414,0.6628693342208862,0.05941032990813255
1727009798564554800,4.5845546875,0.5745165348052979,0.6613758206367493,0.13802124559879303
1727009798574591700,4.594591796875,0.5657813549041748,0.4401842951774597,0.17280319333076477
1727009798584629500,4.60462939453125,0.4965769946575165,0.18907804787158966,0.21032580733299255
1727009798594667800,4.614667724609375,0.4411363899707794,-0.05512769892811775,0.26065555214881897
1727009798604705500,4.62470556640625,0.4245869815349579,-0.09270117431879044,0.19558307528495789
1727009798614743600,4.63474365234375,0.3837772309780121,-0.04813796654343605,0.027362115681171417
1727009798624781600,4.644781494140625,0.29186779260635376,0.11191800981760025,-0.21580633521080017
1727009798634819600,4.654819580078125,0.22615882754325867,0.16016118228435516,-0.22757910192012787
1727009798644857600,4.664857666015625,0.21999362111091614,-0.04280472174286842,-0.019335348159074783
1727009798654895600,4.6748955078125,0.2156718373298645,-0.27350345253944397,0.3515106439590454
1727009798664933600,4.68493359375,0.12034691870212555,-0.319601446390152,0.4357118010520935
1727009798674971600,4.6949716796875,-0.040226515382528305,-0.14534494280815125,0.2751796543598175
1727009798685009400,4.705009521484375,-0.1582234650850296,0.12385137379169464,-0.12573076784610748
1727009798695047700,4.715047607421875,-0.18195141851902008,0.2875007688999176,-0.29698240756988525
1727009798705084700,4.725084716796875,-0.1812656670808792,0.23840458691120148,-0.34147343039512634
1727009798715122400,4.735122314453125,-0.21832726895809174,-0.07810119539499283,-0.09676089882850647
1727009798725160700,4.74516064453125,-0.2736738920211792,-0.39381974935531616,0.172371506690979
1727009798735198500,4.755198486328125,-0.32461854815483093,-0.4978393316268921,0.3364451229572296
1727009798745236700,4.76523681640625,-0.3542107939720154,-0.349791556596756,0.2917807102203369
1727009798755274500,4.7752744140625,-0.3826967775821686,-0.13501320779323578,0.08590158820152283
1727009798765312800,4.785312744140625,-0.4647839367389679,0.04247555509209633,-0.17094378173351288
1727009798775350500,4.7953505859375,-0.5846514701843262,0.011200190521776676,-0.34049126505851746
1727009798785388500,4.805388427734375,-0.6681602001190186,-0.29875075817108154,-0.2914179861545563
1727009798795426600,4.815426513671875,-0.6904090642929077,-0.7210301160812378,-0.06089610606431961
1727009798805464600,4.825464599609375,-0.7220295667648315,-1.0881335735321045,0.14078427851200104
1727009798815502600,4.835502685546875,-0.800589382648468,-1.1130175590515137,0.17405222356319427
1727009798825540600,4.84554052734375,-0.8922985196113586,-0.824280858039856,-0.0018093516118824482
1727009798835578600,4.85557861328125,-0.9250282049179077,-0.495827317237854,-0.1968211829662323
1727009798845615600,4.86561572265625,-0.8870300054550171,-0.34949859976768494,-0.32682207226753235
1727009798855653600,4.875653564453125,-0.8506597280502319,-0.5028572678565979,-0.19716207683086395
1727009798865691600,4.885691650390625,-0.8853479027748108,-0.7015546560287476,-0.07204569876194
1727009798875729700,4.895729736328125,-0.9026827216148376,-0.7995174527168274,0.12249022722244263
1727009798885767400,4.905767333984375,-0.8317944407463074,-0.7552264332771301,0.13620896637439728
1727009798895805700,4.9158056640625,-0.7279844284057617,-0.5608335137367249,0.2118842899799347
1727009798905843500,4.925843505859375,-0.7245774269104004,-0.4208361804485321,0.10751580446958542
1727009798915881700,4.9358818359375,-0.7962401509284973,-0.27353355288505554,-0.06045801565051079
1727009798925919500,4.94591943359375,-0.8118523955345154,-0.4057730734348297,-0.16615381836891174
1727009798935957800,4.955957763671875,-0.6933957934379578,-0.6164581179618835,-0.05843082070350647
1727009798945995500,4.96599560546875,-0.5606412291526794,-1.0014837980270386,0.07290376722812653
1727009798956033500,4.976033447265625,-0.5278627872467041,-1.0855941772460938,0.012930712662637234
1727009798966071600,4.986071533203125,-0.5674530267715454,-0.9388662576675415,-0.028447087854146957
1727009798976109600,4.996109619140625,-0.5389654636383057,-0.7031911611557007,-0.0821465328335762
1727009798986146800,5.006146728515625,-0.40781304240226746,-0.3654453456401825,-0.029805298894643784
1727009798996184600,5.0161845703125,-0.3275246024131775,-0.2640841007232666,0.05278971046209335
1727009799006222600,5.02622265625,-0.37978407740592957,-0.15802931785583496,0.05927743762731552
1727009799016260600,5.036260498046875,-0.42323967814445496,-0.25705042481422424,-0.025408687070012093
1727009799026298600,5.046298583984375,-0.34631240367889404,-0.27310797572135925,-0.16400544345378876
1727009799036336600,5.056336669921875,-0.2648199498653412,-0.34715262055397034,-0.2363443523645401
1727009799046374700,5.066374755859375,-0.24070262908935547,-0.44855329394340515,-0.09354832768440247
1727009799056412400,5.076412353515625,-0.21391893923282623,-0.5493131875991821,0.13363689184188843
1727009799066450700,5.08645068359375,-0.18264171481132507,-0.6123515367507935,0.07595335692167282
1727009799076488400,5.096488525390625,-0.15343749523162842,-0.5203257203102112,0.06730233877897263
1727009799086526700,5.106526611328125,-0.1539112627506256,-0.29404759407043457,0.10689715296030045
1727009799096564500,5.116564453125,-0.1617841124534607,-0.027576500549912453,0.16590029001235962
1727009799106602800,5.126602783203125,-0.128811776638031,0.18892064690589905,0.0650290697813034
1727009799116640500,5.136640625,-0.04021026939153671,0.19346506893634796,0.13252155482769012
1727009799126677500,5.146677490234375,0.02063017711043358,-0.04988020658493042,0.03008067049086094
1727009799136715800,5.1567158203125,-0.00612393906340003,-0.35212209820747375,0.11886966228485107
1727009799146753500,5.16675341796875,-0.08182588964700699,-0.4096783399581909,0.09489588439464569
1727009799156791800,5.176791748046875,-0.0942055955529213,-0.38255348801612854,0.08090363442897797
1727009799166829600,5.18682958984375,-0.053665891289711,-0.28306737542152405,0.024415859952569008
1727009799176867600,5.19686767578125,-0.07611633837223053,-0.2218647599220276,-0.08766700327396393
1727009799186905600,5.206905517578125,-0.15236130356788635,-0.19968807697296143,-0.039682164788246155
1727009799196943600,5.216943603515625,-0.17840994894504547,-0.3210480511188507,-0.02851446531713009
1727009799206981600,5.226981689453125,-0.13424915075302124,-0.5050543546676636,0.10116469860076904
1727009799217019600,5.23701953125,-0.11098004877567291,-0.5607136487960815,0.04013277217745781
1727009799227057700,5.2470576171875,-0.17638275027275085,-0.5664940476417542,0.023802002891898155
1727009799237095700,5.257095703125,-0.26658695936203003,-0.49030420184135437,-0.04938352853059769
1727009799247133400,5.267133544921875,-0.31225377321243286,-0.5011794567108154,-0.17145244777202606
1727009799257170700,5.277170654296875,-0.3283635079860687,-0.4194673001766205,-0.06571429967880249
1727009799267208700,5.287208740234375,-0.390956312417984,-0.39058026671409607,0.027029752731323242
1727009799277246500,5.29724658203125,-0.4454786777496338,-0.3727701008319855,0.1743137389421463
1727009799287284700,5.30728466796875,-0.46660125255584717,-0.3309185206890106,0.15228568017482758
1727009799297322500,5.317322509765625,-0.47480538487434387,-0.4006217122077942,0.11023809015750885
1727009799307360800,5.32736083984375,-0.5041430592536926,-0.5115610361099243,-0.12129074335098267
1727009799317398500,5.3373984375,-0.5587437152862549,-0.675601601600647,-0.2007855623960495
1727009799327436800,5.347436767578125,-0.5802205204963684,-0.6167670488357544,-0.10074978321790695
1727009799337474600,5.357474609375,-0.5422699451446533,-0.6123459339141846,-0.07421910017728806
1727009799347512600,5.3675126953125,-0.4656433165073395,-0.6194531321525574,0.2228597104549408
1727009799357550600,5.377550537109375,-0.44059282541275024,-0.6446269154548645,0.2792641222476959
1727009799367588600,5.387588623046875,-0.4456818699836731,-0.7138102650642395,0.30878525972366333
1727009799377626600,5.397626708984375,-0.4135929048061371,-0.6871576309204102,0.048169925808906555
1727009799387664600,5.40766455078125,-0.32955873012542725,-0.6021071672439575,-0.08863692730665207
1727009799397701400,5.417701416015625,-0.24547767639160156,-0.5486127734184265,-0.2801448404788971
1727009799407739600,5.42773974609375,-0.17246098816394806,-0.5504604578018188,-0.1819934993982315
1727009799417777700,5.437777587890625,-0.08492687344551086,-0.4604208767414093,0.07755257934331894
1727009799427815700,5.447815673828125,0.00663340138271451,-0.33119258284568787,0.2352932095527649
1727009799437850400,5.457850341796875,0.0910705178976059,-0.2128337025642395,0.26039910316467285
1727009799447888400,5.467888427734375,0.15237702429294586,-0.07409632951021194,0.1518302708864212
1727009799457926400,5.477926513671875,0.19911789894104004,-0.10565292835235596,0.13686570525169373
1727009799467964400,5.48796435546875,0.2322702556848526,-0.18268166482448578,0.06203167885541916
1727009799478002400,5.49800244140625,0.2625115215778351,-0.3223988115787506,-0.024770593270659447
1727009799488040400,5.50804052734375,0.32261720299720764,-0.40225690603256226,0.10709875822067261
1727009799498078500,5.518078369140625,0.3827958405017853,-0.3093123137950897,0.026585537940263748
1727009799508116500,5.528116455078125,0.4310339391231537,-0.12885092198848724,0.14930613338947296
1727009799518154500,5.538154541015625,0.46667715907096863,0.07251548022031784,0.019751600921154022
1727009799528192500,5.548192626953125,0.5355600714683533,0.14627571403980255,0.08558068424463272
1727009799538229500,5.5582294921875,0.612753689289093,0.13048423826694489,0.05928809195756912
1727009799548267300,5.568267333984375,0.6709064841270447,0.044313136488199234,0.050335872918367386
1727009799558305500,5.578305419921875,0.7411209940910339,-0.00041252365917898715,0.12526550889015198
1727009799568343300,5.58834326171875,0.837201714515686,-0.022773755714297295,0.16867956519126892
1727009799578381600,5.598381591796875,0.935533881187439,0.02799195423722267,0.23799020051956177
1727009799588419300,5.60841943359375,0.9810044169425964,0.26696059107780457,0.0960112139582634
1727009799598457300,5.618457275390625,1.0240328311920166,0.543708860874176,-0.04379488527774811
1727009799608495400,5.628495361328125,1.1094731092453003,0.8324450254440308,-0.13843989372253418
1727009799618533400,5.638533447265625,1.2308685779571533,0.9458807706832886,-0.06127534061670303
1727009799628571400,5.6485712890625,1.3551905155181885,0.9104666113853455,0.06141915172338486
1727009799638609400,5.658609375,1.4627859592437744,0.7468339800834656,0.29492485523223877
1727009799648647400,5.6686474609375,1.5118861198425293,0.5864208936691284,0.4800776541233063
1727009799658685400,5.678685546875,1.4925720691680908,0.5487509965896606,0.4602554738521576
1727009799668723500,5.688723388671875,1.4506334066390991,0.7098740935325623,0.19809284806251526
1727009799678760400,5.698760498046875,1.4226582050323486,0.9090614914894104,0.0217183455824852
1727009799688798500,5.708798583984375,1.392435908317566,0.9910069704055786,-0.14359205961227417
1727009799698836500,5.71883642578125,1.3376739025115967,0.8936111927032471,-0.10643882304430008
1727009799708874500,5.72887451171875,1.2803103923797607,0.831382155418396,0.06707890331745148
1727009799718912300,5.738912353515625,1.2308214902877808,0.7605583071708679,0.276041716337204
1727009799728950500,5.748950439453125,1.1872851848602295,0.7339504361152649,0.36080479621887207
1727009799738988300,5.75898828125,1.1171798706054688,0.7327852845191956,0.3888859748840332
1727009799749026600,5.769026611328125,0.9936469793319702,0.8117147088050842,0.22606588900089264
1727009799759064300,5.779064208984375,0.8241953253746033,0.737079918384552,-0.031213846057653427
1727009799769102300,5.789102294921875,0.6922391653060913,0.5621810555458069,-0.05968383699655533
1727009799779140400,5.799140380859375,0.5798593759536743,0.3874388039112091,-0.04803783446550369
1727009799789178400,5.809178466796875,0.46392372250556946,0.34266573190689087,0.03652738407254219
1727009799799216400,5.81921630859375,0.30823028087615967,0.352073609828949,-0.059854812920093536
1727009799809254400,5.82925439453125,0.18692860007286072,0.4237312972545624,0.11782436817884445
1727009799819291400,5.83929150390625,0.1042475774884224,0.4151490032672882,0.10734482854604721
1727009799829329400,5.849329345703125,0.03271773084998131,0.17145110666751862,0.0054909056052565575
1727009799839367400,5.859367431640625,-0.07419726252555847,-0.19618761539459229,0.03164101764559746
1727009799849405400,5.869405517578125,-0.2354293018579483,-0.4292115569114685,-0.018762502819299698
1727009799859443500,5.879443359375,-0.39962437748908997,-0.35234153270721436,-0.026632143184542656
1727009799869481500,5.8894814453125,-0.49377721548080444,-0.17732258141040802,-0.1619124710559845
1727009799879519500,5.89951953125,-0.549767792224884,-0.012090218253433704,-0.06772685050964355
1727009799889557200,5.90955712890625,-0.6645199656486511,0.013848704285919666,-0.15012824535369873
1727009799899595500,5.919595458984375,-0.7649821043014526,-0.0861298218369484,-0.04977421462535858
1727009799909633300,5.92963330078125,-0.793645441532135,-0.3875961899757385,-0.1039397120475769
1727009799919671600,5.939671630859375,-0.7716240286827087,-0.6365048289299011,-0.11075927317142487
1727009799929709300,5.949709228515625,-0.7753993272781372,-0.7712703347206116,-0.1402609646320343
1727009799939747300,5.959747314453125,-0.8226584196090698,-0.8144007921218872,-0.07807110249996185
1727009799949785300,5.969785400390625,-0.8563128113746643,-0.7006757855415344,-0.15607136487960815
1727009799959822300,5.979822265625,-0.8532781600952148,-0.4958465099334717,-0.21855977177619934
1727009799969860600,5.989860595703125,-0.8157171607017517,-0.3365548551082611,-0.21329230070114136
1727009799979898400,5.9998984375,-0.7699792385101318,-0.48138847947120667,-0.05092469975352287
1727009799989936400,6.009936279296875,-0.7620065212249756,-0.644815981388092,-0.029893983155488968
1727009799999974400,6.019974365234375,-0.7848703265190125,-0.7013035416603088,-0.13871420919895172
1727009800010012400,6.030012451171875,-0.7595478892326355,-0.6868875622749329,-0.04982321709394455
1727009800020050400,6.040050537109375,-0.706073522567749,-0.611258864402771,-0.041783131659030914
1727009800030088400,6.05008837890625,-0.674479603767395,-0.5061766505241394,0.10306753218173981
1727009800040126500,6.06012646484375,-0.6424061059951782,-0.49547818303108215,0.028318723663687706
1727009800050164500,6.07016455078125,-0.5633163452148438,-0.6253491044044495,0.054114099591970444
1727009800060202200,6.0802021484375,-0.5094746947288513,-0.7241044640541077,-0.04783463478088379
1727009800070240500,6.090240478515625,-0.4922634959220886,-0.7175275087356567,-0.2833382189273834
1727009800080278300,6.1002783203125,-0.4236215651035309,-0.672909140586853,-0.31596994400024414
1727009800090316500,6.110316650390625,-0.2969251573085785,-0.6652184724807739,-0.04057325795292854
1727009800100354600,6.1203544921875,-0.2575910687446594,-0.5092102289199829,0.19849151372909546
1727009800110391300,6.130391357421875,-0.3047042489051819,-0.202296644449234,0.0802471712231636
1727009800120429600,6.1404296875,-0.24609605967998505,0.0903775691986084,0.07691848278045654
1727009800130467300,6.15046728515625,-0.11493324488401413,0.056961022317409515,-0.19889391958713531
1727009800140505600,6.160505615234375,-0.0043505397625267506,-0.12801894545555115,-0.04813024401664734
1727009800150543400,6.17054345703125,0.030111828818917274,-0.41183629631996155,0.00640836451202631
1727009800160581400,6.180581298828125,0.05351275950670242,-0.6429656744003296,0.1044800728559494
1727009800170619400,6.190619384765625,0.1213916763663292,-0.5383239388465881,0.036857616156339645
1727009800180657400,6.200657470703125,0.24847851693630219,-0.2680436968803406,0.012201804667711258
1727009800190695400,6.2106953125,0.3558869957923889,0.005260275676846504,0.08846115320920944
1727009800200733400,6.2207333984375,0.3792940676212311,0.10779757052659988,-0.037225931882858276
1727009800210771500,6.230771484375,0.3855240046977997,0.14032702147960663,0.16940553486347198
1727009800220809500,6.2408095703125,0.4084942936897278,0.08049910515546799,0.03930692747235298
1727009800230847200,6.25084716796875,0.5011624097824097,0.061231400817632675,0.10179506987333298
1727009800240884500,6.260884521484375,0.5903221368789673,0.05498761683702469,-0.050930291414260864
1727009800250922500,6.270922607421875,0.6245951652526855,0.059305399656295776,0.10947243124246597
1727009800260960300,6.280960205078125,0.6070084571838379,0.17380481958389282,0.08182349056005478
1727009800270998500,6.29099853515625,0.6092454791069031,0.35081127285957336,0.1454504132270813
1727009800281036300,6.301036376953125,0.6426787972450256,0.5188974738121033,0.15198206901550293
1727009800291074600,6.311074462890625,0.6814467310905457,0.47335106134414673,0.027089674025774002
1727009800301112300,6.3211123046875,0.7000126838684082,0.31132325530052185,-0.04247156158089638
1727009800311150600,6.331150634765625,0.68479323387146,0.1067325696349144,-0.04637601971626282
1727009800321188400,6.341188232421875,0.661476194858551,0.030781082808971405,0.10619274526834488
1727009800331226400,6.351226318359375,0.6547091007232666,0.12382180988788605,0.13803429901599884
1727009800341264400,6.361264404296875,0.6510371565818787,0.32466810941696167,0.20437604188919067
1727009800351302400,6.371302490234375,0.6160381436347961,0.548941433429718,0.15741625428199768
1727009800361340400,6.38134033203125,0.5405870676040649,0.501270055770874,0.014267618767917156
1727009800371378400,6.39137841796875,0.49609071016311646,0.3677689731121063,-0.03256886079907417
1727009800381415400,6.40141552734375,0.46963247656822205,0.16156385838985443,0.0756569430232048
1727009800391453400,6.411453369140625,0.4294280707836151,0.06723017245531082,0.008105331100523472
1727009800401491500,6.421491455078125,0.3940650224685669,0.00048389637959189713,-0.02251329831779003
1727009800411529500,6.431529541015625,0.3648757040500641,0.18132159113883972,0.03766801580786705
1727009800421567500,6.4415673828125,0.2818945348262787,0.3643699586391449,-0.030398651957511902
1727009800431605200,6.451605224609375,0.20840513706207275,0.36686187982559204,0.03159680962562561
1727009800441643300,6.461643310546875,0.2256041020154953,0.29864636063575745,0.082478366792202
1727009800451681000,6.471680908203125,0.23917396366596222,0.16310609877109528,0.16721110045909882
1727009800461719000,6.481718994140625,0.19030070304870605,0.16383793950080872,0.09542185813188553
1727009800471757000,6.491757080078125,0.14061491191387177,0.15220896899700165,0.016117185354232788
1727009800481795000,6.501795166015625,0.1374284327030182,0.2297421097755432,0.009007076732814312
1727009800491833000,6.5118330078125,0.09665543586015701,0.25445252656936646,-0.10988468676805496
1727009800501871000,6.52187109375,0.04830707982182503,0.1725137084722519,0.09525008499622345
1727009800511909000,6.5319091796875,0.020561467856168747,0.09527432173490524,0.08786753565073013
1727009800521947100,6.541947021484375,-0.01450197771191597,-0.13080622255802155,0.22861985862255096
1727009800531984100,6.551984130859375,-0.07733819633722305,-0.2789674401283264,-0.02943059243261814
1727009800542022100,6.562022216796875,-0.14545972645282745,-0.1713334023952484,-0.07358101010322571
1727009800552060200,6.57206005859375,-0.20290997624397278,0.01357359904795885,-0.21046055853366852
1727009800562098000,6.582097900390625,-0.22688108682632446,0.20481546223163605,-0.1726737767457962
1727009800572136200,6.59213623046875,-0.21451017260551453,0.23149368166923523,-0.020926054567098618
1727009800582174000,6.602174072265625,-0.22494523227214813,0.17486555874347687,0.06715426594018936
1727009800592212200,6.612212158203125,-0.2636135220527649,0.06445541977882385,0.17686238884925842
1727009800602250000,6.62225,-0.2685680687427521,-0.03307752683758736,0.20738860964775085
1727009800612288300,6.632288330078125,-0.25808241963386536,-0.04330086708068848,0.14029425382614136
1727009800622326000,6.642325927734375,-0.2719830572605133,-0.04795154556632042,-0.07934515923261642
1727009800632364000,6.652364013671875,-0.3138420879840851,0.013310479000210762,-0.2950681149959564
1727009800642402000,6.662402099609375,-0.3419125974178314,0.015207981690764427,-0.3090563714504242
1727009800652440000,6.672440185546875,-0.2877628207206726,0.04429715871810913,-0.08980844914913177
1727009800662478300,6.682478271484375,-0.18461112678050995,0.08743423968553543,0.17146869003772736
1727009800672515000,6.69251513671875,-0.13046346604824066,0.09377948939800262,0.4685347080230713
1727009800682553000,6.702552978515625,-0.16513383388519287,-0.04932147637009621,0.5242171287536621
1727009800692591000,6.712591064453125,-0.23374219238758087,-0.12650413811206818,0.27902019023895264
1727009800702629000,6.722629150390625,-0.26666978001594543,-0.13006426393985748,-0.06479231268167496
1727009800712667100,6.732667236328125,-0.23055703938007355,-0.1723874807357788,-0.3205433785915375
1727009800722705200,6.742705078125,-0.19752852618694305,-0.2933778166770935,-0.33787044882774353
1727009800732743000,6.752742919921875,-0.20116320252418518,-0.31721869111061096,-0.195162832736969
1727009800742781200,6.76278125,-0.1916961967945099,-0.23521651327610016,-0.008874185383319855
1727009800752819000,6.77281884765625,-0.1341380923986435,-0.12449425458908081,0.08577216416597366
1727009800762857200,6.782857177734375,-0.0809158906340599,0.056235574185848236,0.1886945515871048
1727009800772895000,6.79289501953125,-0.07850945740938187,0.1946440488100052,0.23341567814350128
1727009800782933200,6.802933349609375,-0.09741523861885071,0.222621351480484,0.15424177050590515
1727009800792971000,6.812970947265625,-0.11001677811145782,0.15462499856948853,-0.0912201926112175
1727009800803009000,6.823009033203125,-0.12374643981456757,0.05204722285270691,-0.23734411597251892
1727009800813046300,6.83304638671875,-0.13436739146709442,0.02647208794951439,-0.23870259523391724
1727009800823084000,6.843083984375,-0.12928475439548492,-0.05916052684187889,-0.039331428706645966
1727009800833122000,6.8531220703125,-0.0725836530327797,-0.18239031732082367,0.26151177287101746
1727009800843160000,6.86316015625,-0.001323857344686985,-0.1332179754972458,0.4343101680278778
1727009800853198000,6.873197998046875,-0.004147074185311794,-0.048294827342033386,0.3224653899669647
1727009800863236000,6.883236083984375,-0.04334427788853645,0.0014919028617441654,-0.05524913966655731
1727009800873274000,6.893274169921875,-0.04240844398736954,-0.013585050590336323,-0.34272298216819763
1727009800883312000,6.90331201171875,-0.02124962769448757,-0.026987941935658455,-0.4201645255088806
1727009800893350100,6.91335009765625,0.032878320664167404,-0.1270650029182434,-0.18365424871444702
1727009800903388000,6.923387939453125,0.10009996592998505,-0.19783638417720795,-0.008255532942712307
1727009800913426200,6.93342626953125,0.12990020215511322,-0.057999387383461,0.19239714741706848
1727009800923464000,6.9434638671875,0.09633638709783554,0.09210515767335892,0.29939335584640503
1727009800933502200,6.953502197265625,0.09740378707647324,0.2069084346294403,0.24371199309825897
1727009800943540200,6.963540283203125,0.13954298198223114,0.25242558121681213,0.0951739177107811
1727009800953578200,6.973578125,0.14802701771259308,0.11044661700725555,-0.04442711919546127
1727009800963615200,6.983615234375,0.13247895240783691,-0.050461843609809875,-0.2473224401473999
1727009800973653000,6.993653076171875,0.12094026803970337,-0.07077004015445709,-0.22510501742362976
1727009800983691300,7.003691162109375,0.13942766189575195,0.0034519892651587725,-0.15860775113105774
1727009800993729000,7.01372900390625,0.22032570838928223,0.11657721549272537,0.022104503586888313
1727009801003767000,7.02376708984375,0.29129868745803833,0.2990727126598358,0.13661722838878632
1727009801013805000,7.03380517578125,0.2866416275501251,0.3278910517692566,0.16440385580062866
1727009801023843000,7.043843017578125,0.2749601900577545,0.3108350932598114,0.2193390130996704
1727009801033881000,7.053881103515625,0.307982861995697,0.28132888674736023,0.0850704163312912
1727009801043919000,7.063919189453125,0.34806716442108154,0.1695096641778946,0.014553642831742764
1727009801053957000,7.07395703125,0.3265264630317688,0.09074614942073822,-0.11354174464941025
1727009801063995100,7.0839951171875,0.2693720757961273,0.1571318358182907,0.06561069935560226
1727009801074033000,7.094032958984375,0.235247403383255,0.21246832609176636,-0.018269019201397896
1727009801084071200,7.1040712890625,0.27374526858329773,0.2429572492837906,0.05397854745388031
1727009801094109200,7.114109130859375,0.25856098532676697,0.366303950548172,-0.0654732808470726
1727009801104146000,7.12414599609375,0.17651857435703278,0.21707957983016968,0.039253927767276764
1727009801114184200,7.13418408203125,0.13242967426776886,0.022901054471731186,0.007796137593686581
1727009801124222000,7.144221923828125,0.15136395394802094,-0.14678864181041718,0.11182533204555511
1727009801134260200,7.15426025390625,0.14486797153949738,-0.2552860975265503,-0.07046245038509369
1727009801144298000,7.164298095703125,0.11162693053483963,-0.14581099152565002,-0.12311819940805435
1727009801154336300,7.174336181640625,0.047317713499069214,0.004887166898697615,-0.3723727762699127
1727009801164374000,7.1843740234375,0.030228210613131523,0.0848669558763504,-0.2235843539237976
1727009801174412000,7.194412109375,0.08432473242282867,0.012734970077872276,-0.21992437541484833
1727009801184450000,7.204449951171875,0.14566905796527863,-0.13509923219680786,0.027240142226219177
1727009801194488000,7.214488037109375,0.11650530993938446,-0.30261367559432983,0.38388562202453613
1727009801204526000,7.224526123046875,0.06276831030845642,-0.20877531170845032,0.36111584305763245
1727009801214564000,7.234564208984375,0.06401653587818146,0.09702881425619125,0.17762085795402527
1727009801224602000,7.24460205078125,0.08561529964208603,0.3184344470500946,-0.14236460626125336
1727009801234640100,7.25464013671875,0.07317753881216049,0.28917747735977173,-0.1851022094488144
1727009801244677000,7.264677001953125,0.019747605547308922,0.05530959367752075,-0.17201490700244904
1727009801254715100,7.274715087890625,0.0006340986583381891,-0.14976312220096588,0.003257844829931855
1727009801264753200,7.284753173828125,0.033239178359508514,-0.2583220899105072,0.06721179187297821
1727009801274791000,7.294791015625,0.06501735001802444,-0.24795867502689362,0.1027442216873169
1727009801284829200,7.3048291015625,0.0348445326089859,-0.20769406855106354,0.12276586890220642
1727009801294867000,7.314866943359375,-0.034091658890247345,-0.06541468948125839,0.22642488777637482
1727009801304905200,7.3249052734375,-0.08596604317426682,0.07984263449907303,-0.0859263613820076
1727009801314943000,7.33494287109375,-0.04860162362456322,0.08623315393924713,-0.06804696470499039
1727009801324981200,7.344981201171875,-0.008920524269342422,0.002225337317213416,-0.21041342616081238
1727009801335019000,7.35501904296875,-0.046846866607666016,-0.14832980930805206,-0.12324497103691101
1727009801345057000,7.36505712890625,-0.12250407785177231,-0.25190067291259766,0.07054687291383743
1727009801355095000,7.375094970703125,-0.12025850266218185,-0.27452823519706726,0.05927983671426773
1727009801365133000,7.385133056640625,-0.05902683362364769,-0.202687069773674,0.136713907122612
1727009801375171000,7.395171142578125,-0.0642881765961647,-0.0980948731303215,-0.06028757616877556
1727009801385209000,7.405208984375,-0.11946940422058105,-0.08883745968341827,-0.06922221183776855
1727009801395246000,7.41524609375,-0.14498275518417358,-0.06473319232463837,-0.10867428034543991
1727009801405284000,7.4252841796875,-0.10645586997270584,-0.04673900827765465,-0.026822026818990707
1727009801415322000,7.435322021484375,-0.047687891870737076,-0.10291706025600433,-0.09847383946180344
1727009801425360100,7.445360107421875,-0.036917805671691895,-0.08248209208250046,0.1263912320137024
1727009801435401700,7.455401611328125,-0.07838428765535355,-0.10316234081983566,0.11924836039543152
1727009801445439500,7.465439453125,-0.090556800365448,-0.07744046300649643,0.08452606946229935
1727009801455477500,7.4754775390625,-0.06916388869285583,-0.010783139616250992,0.010010289959609509
1727009801465515500,7.485515625,-0.05584675446152687,-0.04566575586795807,-0.11907313019037247
1727009801475553500,7.495553466796875,-0.03777986764907837,-0.20796091854572296,-0.2567630708217621
1727009801485591600,7.505591552734375,-0.017135044559836388,-0.2068386673927307,-0.023741815239191055
1727009801495629600,7.515629638671875,0.003963316325098276,-0.07250908762216568,0.0529998354613781
1727009801505667600,7.52566748046875,0.06738197058439255,0.1406114399433136,0.23021003603935242
1727009801515705600,7.53570556640625,0.09681069850921631,0.29700344800949097,0.10639914125204086
1727009801525743400,7.545743408203125,0.061634600162506104,0.24388563632965088,-0.06431267410516739
1727009801535780600,7.555780517578125,0.042866505682468414,0.02437271736562252,-0.2300904542207718
1727009801545818600,7.565818603515625,0.09772789478302002,-0.24792058765888214,-0.05931765213608742
1727009801555856400,7.5758564453125,0.17351612448692322,-0.41920071840286255,0.12410064041614532
1727009801565894700,7.585894775390625,0.21316713094711304,-0.2575830817222595,0.4081174433231354
1727009801575932400,7.595932373046875,0.14471563696861267,0.038721829652786255,0.137125626206398
1727009801585970700,7.605970703125,0.06058105453848839,0.3207053244113922,-0.13168133795261383
1727009801596008400,7.616008544921875,0.05679004639387131,0.38606515526771545,-0.29362228512763977
1727009801606046700,7.626046630859375,0.10194554179906845,0.1671580970287323,-0.22398222982883453
1727009801616084500,7.63608447265625,0.13381291925907135,-0.058826297521591187,-0.07336023449897766
1727009801626122500,7.64612255859375,0.11498544365167618,-0.1610112488269806,0.15410062670707703
1727009801636160500,7.656160400390625,0.07426224648952484,-0.07622472941875458,0.16246481239795685
1727009801646198500,7.666198486328125,0.06419549882411957,0.10700368136167526,0.1463201940059662
1727009801656236500,7.676236572265625,0.06508366018533707,0.19739536941051483,0.14681421220302582
1727009801666274600,7.686274658203125,-0.005106344819068909,0.17189931869506836,-0.0055031562224030495
1727009801676311600,7.6963115234375,-0.07967778295278549,0.18451179563999176,0.09404847025871277
1727009801686349600,7.706349609375,-0.10291413217782974,0.21276207268238068,-0.07174236327409744
1727009801696387600,7.7163876953125,-0.0809427872300148,0.14711780846118927,-0.24263954162597656
1727009801706425600,7.726425537109375,-0.06197761744260788,0.20484715700149536,-0.2456829994916916
1727009801716463600,7.736463623046875,-0.06006999313831329,0.17752765119075775,-0.04173839092254639
1727009801726501400,7.74650146484375,-0.03569994121789932,0.15564285218715668,0.0542864091694355
1727009801736539600,7.75653955078125,0.018660768866539,0.15701225399971008,0.3848225176334381
1727009801746577400,7.766577392578125,0.028236165642738342,0.03651273623108864,0.2384892702102661
1727009801756615700,7.77661572265625,-0.019726566970348358,0.08587469160556793,0.03284583240747452
1727009801766653400,7.7866533203125,-0.08797752857208252,0.1479649692773819,-0.205268993973732
1727009801776691700,7.796691650390625,-0.10560871660709381,0.17039650678634644,-0.20769859850406647
1727009801786729500,7.8067294921875,-0.03740542754530907,0.27661481499671936,-0.18308086693286896
1727009801796767500,7.816767578125,0.03540060296654701,0.3290548622608185,0.059667058289051056
1727009801806805500,7.826805419921875,0.05386163294315338,0.17782512307167053,0.13693521916866302
1727009801816843500,7.836843505859375,0.04788709804415703,0.056833721697330475,0.3430311381816864
1727009801826880800,7.846880859375,0.025716016069054604,0.008255532942712307,0.39353397488594055
1727009801836918500,7.85691845703125,-0.016079101711511612,-0.06299974024295807,0.09560908377170563
1727009801846956500,7.86695654296875,-0.0033659692853689194,-0.018696721643209457,-0.05602864921092987
1727009801856994600,7.87699462890625,0.024561535567045212,0.026813238859176636,-0.3329308331012726
1727009801867032600,7.887032470703125,0.0392904132604599,0.07068189233541489,-0.5180705785751343
1727009801877070600,7.897070556640625,0.0825558602809906,0.12154480814933777,-0.2948223054409027
1727009801887108600,7.907108642578125,0.17916789650917053,0.2015717327594757,-0.05986066907644272
1727009801897146400,7.917146484375,0.278772234916687,0.18551047146320343,0.37998542189598083
1727009801907184600,7.9271845703125,0.2823645770549774,0.15149365365505219,0.765997588634491
1727009801917222400,7.937222412109375,0.19320568442344666,0.24344222247600555,0.47213026881217957
1727009801927260700,7.9472607421875,0.13849662244319916,0.363644003868103,0.38753628730773926
1727009801937298400,7.95729833984375,0.09978199005126953,0.36645814776420593,-0.40441325306892395
1727009801947336700,7.967336669921875,0.08605978637933731,0.2416166216135025,-0.3528062701225281
1727009801957374500,7.97737451171875,0.06321758776903152,0.002910036128014326,-0.4703235626220703
1727009801967412500,7.98741259765625,0.09873323142528534,-0.2323506772518158,-0.13428057730197906
1727009801977449700,7.99744970703125,0.1281995177268982,-0.3176501393318176,0.10309150069952011
1727009801987487500,8.007487548828125,0.13534903526306152,-0.16787661612033844,0.3917781710624695
1727009801997525800,8.01752587890625,0.10113859921693802,0.09481173008680344,0.2654383182525635
1727009802007563500,8.0275634765625,0.04513552039861679,0.34531956911087036,0.375043660402298
1727009802017601500,8.0376015625,-0.009609217755496502,0.4281071424484253,0.11752210557460785
1727009802027639600,8.0476396484375,-0.028113126754760742,0.3367420732975006,-0.14440591633319855
1727009802037677600,8.057677490234376,-0.0418049693107605,0.1441127061843872,-0.1397182196378708
1727009802047715600,8.067715576171874,-0.0889652892947197,-0.046307310461997986,-0.26001933217048645
1727009802057753600,8.077753662109375,-0.10530458390712738,-0.19496868550777435,-0.07031810283660889
1727009802067791400,8.087791259765625,-0.10248829424381256,-0.21330375969409943,0.03503255173563957
1727009802077829600,8.09782958984375,-0.07512085139751434,-0.02034868113696575,0.18928390741348267
1727009802087867400,8.107867431640624,-0.050287406891584396,0.23551878333091736,0.1665026992559433
1727009802097905700,8.11790576171875,-0.047333959490060806,0.2998213469982147,0.034815505146980286
1727009802107943400,8.127943359375,-0.05997438728809357,0.1402585804462433,-0.13260065019130707
1727009802117981700,8.137981689453126,-0.04896807670593262,-0.06974153220653534,-0.10572962462902069
1727009802128018700,8.148018798828126,-0.04211016744375229,-0.18684977293014526,-0.028366394340991974
1727009802138056400,8.158056396484374,-0.02051832526922226,-0.1726122498512268,-0.06598620861768723
1727009802148094700,8.1680947265625,0.035410720854997635,-0.050217896699905396,-0.026252375915646553
1727009802158132500,8.178132568359375,0.05969635397195816,0.12068407237529755,0.0607118159532547
1727009802168170800,8.188170654296876,0.035350002348423004,0.19635646045207977,0.1457097977399826
1727009802178208500,8.19820849609375,-0.0016666061710566282,0.13175377249717712,0.04905223101377487
1727009802188246500,8.20824658203125,-0.03105485439300537,-0.06348630040884018,-0.04523219168186188
1727009802198284500,8.218284423828125,-0.051116179674863815,-0.19757698476314545,-0.25816604495048523
1727009802208322600,8.228322509765626,-0.06578647345304489,-0.34721389412879944,-0.17429697513580322
1727009802218360600,8.238360595703124,-0.07025764882564545,-0.3577331006526947,0.0772433876991272
1727009802228398600,8.248398681640625,-0.06898732483386993,-0.29011091589927673,0.05602198839187622
1727009802238436400,8.258436279296875,-0.04561249166727066,-0.25614869594573975,0.11031106114387512
1727009802248474600,8.268474609375,-0.04530010372400284,-0.25257179141044617,-0.06489750742912292
1727009802258512400,8.278512451171874,-0.10050343722105026,-0.3675873279571533,-0.11504615843296051
1727009802268550700,8.288550537109375,-0.16200435161590576,-0.29322680830955505,-0.17263062298297882
1727009802278587600,8.298587646484375,-0.12856170535087585,0.012624981813132763,-0.14095498621463776
1727009802288625400,8.30862548828125,-0.02220224030315876,0.25154194235801697,-0.0418209508061409
1727009802298663700,8.31866357421875,0.0659707635641098,0.2619463801383972,0.08707577735185623
1727009802308701400,8.328701416015624,0.05579109489917755,0.03442162275314331,0.3236137628555298
1727009802318739700,8.33873974609375,0.0011638014111667871,-0.18698079884052277,0.4033794105052948
1727009802328777500,8.348777587890625,-0.017551297321915627,-0.28269481658935547,0.14425358176231384
1727009802338815700,8.358815673828126,0.0021646174136549234,-0.26293283700942993,-0.10678476840257645
1727009802348853500,8.368853515625,-0.018622420728206635,-0.07285530120134354,-0.3605182468891144
1727009802358891500,8.3788916015625,-0.06430761516094208,0.08781401067972183,-0.40235650539398193
1727009802368929500,8.388929443359375,-0.03206286206841469,-0.011682755313813686,-0.18794061243534088
1727009802378967600,8.398967529296876,0.05939275398850441,-0.14534014463424683,0.1946837306022644
1727009802389005600,8.409005615234374,0.07832170277833939,-0.2480284422636032,0.3264119327068329
1727009802399043600,8.419043701171875,0.025599636137485504,-0.2584959864616394,0.13457272946834564
1727009802409081300,8.429081298828125,-0.0006093312404118478,-0.12132349610328674,0.08404243737459183
1727009802419119600,8.43911962890625,0.0031760858837515116,0.04692409932613373,0.10041981190443039
1727009802429156600,8.449156494140626,-0.010162889026105404,0.1643013209104538,-0.14909467101097107
1727009802439190300,8.459190185546875,-0.02592427469789982,0.21732619404792786,-0.037694647908210754
1727009802449228500,8.469228515625,-0.05450878292322159,0.02388322912156582,-0.22126421332359314
1727009802459266300,8.479266357421874,-0.026161562651395798,-0.21411335468292236,0.07538743317127228
1727009802469304600,8.4893046875,0.02803882583975792,-0.42066946625709534,0.03593696281313896
1727009802479342300,8.49934228515625,0.05769685283303261,-0.42695292830467224,0.10008638352155685
1727009802489380600,8.509380615234376,0.01937795802950859,-0.20157891511917114,0.07838135957717896
1727009802499418600,8.519418701171874,-0.027788221836090088,0.04086940363049507,-0.02412877231836319
1727009802509456400,8.529456298828125,-0.004456001333892345,0.15721012651920319,-0.1348414421081543
1727009802519494700,8.53949462890625,0.04932600259780884,0.09562692046165466,-0.1361786127090454
1727009802529532400,8.549532470703125,0.09260210394859314,-0.11327356100082397,-0.08161123842000961
1727009802539570700,8.55957080078125,0.12410437315702438,-0.21432161331176758,0.04748469591140747
1727009802549608400,8.5696083984375,0.1426066756248474,-0.17202448844909668,0.10673709958791733
1727009802559646700,8.579646728515625,0.17529352009296417,0.042090728878974915,-0.012802880257368088
1727009802569684500,8.5896845703125,0.22745099663734436,0.22674205899238586,0.030897729098796844
1727009802579721500,8.599721435546876,0.225275456905365,0.24452026188373566,-0.035111114382743835
1727009802589759500,8.609759521484374,0.1776871681213379,0.11799348145723343,0.15938885509967804
1727009802599797500,8.619797607421875,0.12396401911973953,-0.00028628981090150774,-0.0027348001021891832
1727009802609835300,8.629835205078125,0.14446397125720978,-0.11986248940229416,-0.12879499793052673
1727009802619873500,8.63987353515625,0.2147706300020218,-0.08023518323898315,-0.060440175235271454
1727009802629911300,8.649911376953124,0.22758601605892181,0.04410940408706665,-0.07486838102340698
1727009802639949600,8.659949462890625,0.2037091851234436,0.2931554317474365,-0.020662667229771614
1727009802649987600,8.669987548828125,0.23434752225875854,0.42789170145988464,0.1867792010307312
1727009802660025600,8.680025634765625,0.27769580483436584,0.32608410716056824,0.05234602838754654
1727009802670063600,8.690063720703124,0.278735488653183,0.2047869712114334,0.19789524376392365
1727009802680101400,8.700101318359375,0.21285633742809296,0.059597283601760864,0.10875976830720901
1727009802690139600,8.7101396484375,0.15339967608451843,0.03856443613767624,-0.023780429735779762
1727009802700177400,8.720177490234375,0.1668931096792221,0.143513485789299,-0.10620260238647461
1727009802710215700,8.730215576171876,0.19298677146434784,0.3330346941947937,-0.10441402345895767
1727009802720253400,8.74025341796875,0.1824137568473816,0.5007326006889343,0.03780596703290939
1727009802730291700,8.750291748046875,0.16187359392642975,0.5468710660934448,0.1774216592311859
1727009802740328400,8.760328369140625,0.16750670969486237,0.4711155891418457,0.30661851167678833
1727009802750366500,8.770366455078126,0.17259414494037628,0.3123363256454468,0.2635730504989624
1727009802760404500,8.780404541015624,0.13529470562934875,0.027875838801264763,0.09970609098672867
1727009802770442500,8.7904423828125,0.06756040453910828,-0.14192330837249756,0.04433124512434006
1727009802780480500,8.80048046875,-0.001332912128418684,-0.1647636443376541,-0.08326772600412369
1727009802790518500,8.8105185546875,-0.03044712170958519,0.010934406891465187,-0.09651828557252884
1727009802800556500,8.820556640625,0.00002370213405811228,0.31464076042175293,-0.20094987750053406
1727009802810594600,8.830594482421875,0.03087402693927288,0.49781379103660583,-0.007706655655056238
1727009802820632600,8.840632568359375,-0.005000617355108261,0.4021780788898468,-0.048813346773386
1727009802830670600,8.850670654296875,-0.03867016360163689,0.20553265511989594,0.043946150690317154
1727009802840708600,8.86070849609375,-0.03959667682647705,-0.0838480293750763,0.11944384127855301
1727009802850746400,8.870746337890624,0.021157748997211456,-0.1711573600769043,0.312881737947464
1727009802860784600,8.88078466796875,0.05441717058420181,-0.01320768054574728,0.2038106471300125
1727009802870822400,8.890822509765625,0.019579825922846794,0.25120213627815247,0.11046392470598221
1727009802880860700,8.900860595703126,-0.026024676859378815,0.3910774886608124,-0.044197555631399155
1727009802890898400,8.9108984375,-0.021816348657011986,0.25362855195999146,-0.2711060643196106
1727009802900935400,8.920935302734375,0.01386681292206049,0.0673031434416771,-0.12235414236783981
1727009802910973400,8.930973388671875,0.0011371697764843702,0.012532569468021393,0.0658397302031517
1727009802921011500,8.941011474609375,-0.0378379262983799,0.07244384288787842,0.008609733544290066
1727009802931049500,8.951049560546876,-0.025774871930480003,0.28355181217193604,0.3160754144191742
1727009802941087500,8.96108740234375,-0.0037558560725301504,0.3183515965938568,0.044802892953157425
1727009802951125500,8.97112548828125,0.020536966621875763,0.3017579913139343,0.3019033968448639
1727009802961163500,8.98116357421875,0.006451773922890425,0.2045438140630722,0.023360982537269592
1727009802971201500,8.991201416015626,-0.01877288892865181,0.026940537616610527,0.023931432515382767
1727009802981239600,9.001239501953124,-0.04821786284446716,-0.0810897946357727,-0.13173885643482208
1727009802991277600,9.011277587890625,-0.05620228499174118,-0.09063509106636047,-0.0753014087677002
1727009803001315600,9.021315673828125,-0.054485078901052475,0.022600384429097176,0.07324492186307907
1727009803011353600,9.031353515625,-0.04537653550505638,0.11590023338794708,0.11802969872951508
1727009803021391400,9.041391357421874,-0.013799968175590038,0.07335091382265091,0.18577545881271362
1727009803031429600,9.0514296875,-0.0116750318557024,-0.024645691737532616,-0.017310013994574547
1727009803041467400,9.06146728515625,-0.0513412170112133,-0.11410792917013168,0.01810656487941742
1727009803051505700,9.071505615234376,-0.08805955201387405,-0.09400239586830139,-0.26794302463531494
1727009803061542400,9.08154248046875,-0.044684115797281265,0.01912708953022957,-0.09984403848648071
1727009803071580400,9.091580322265624,-0.02334526926279068,0.14229562878608704,-0.06492707133293152
1727009803081618400,9.101618408203125,-0.042876627296209335,0.16185681521892548,0.2217414528131485
1727009803091656400,9.111656494140625,-0.08420941978693008,0.13449177145957947,0.18032769858837128
1727009803101694500,9.121694580078126,-0.06951862573623657,0.06860622763633728,0.23812654614448547
1727009803111732500,9.131732421875,-0.0462987907230854,0.01932363025844097,-0.06928932666778564
1727009803121770500,9.1417705078125,-0.0567474365234375,0.024649420753121376,-0.1761244237422943
1727009803131808500,9.15180859375,-0.08688776195049286,0.04608919844031334,-0.3105970323085785
1727009803141846500,9.161846435546876,-0.08562355488538742,0.024149810895323753,-0.14029373228549957
1727009803151884500,9.171884521484374,-0.05775730684399605,-0.028140824288129807,-0.007418501656502485
1727009803161922600,9.181922607421875,-0.02104909159243107,-0.04849136993288994,0.295167475938797
1727009803171960600,9.191960693359375,-0.02165442891418934,0.021252024918794632,0.34010669589042664
1727009803181998600,9.20199853515625,-0.04179991036653519,0.14118535816669464,0.2440539449453354
1727009803192036400,9.212036376953124,-0.07538823038339615,0.301373690366745,0.18121293187141418
1727009803202074600,9.22207470703125,-0.14859293401241302,0.1369868814945221,-0.36216139793395996
1727009803212112400,9.2321123046875,-0.1778208613395691,-0.27078941464424133,-0.10543401539325714
1727009803222149600,9.242149658203125,-0.21282891929149628,-0.4962630271911621,-0.1547461748123169
1727009803232187400,9.2521875,-0.28160372376441956,-0.5500128269195557,-0.07413467764854431
1727009803242225400,9.262225341796874,-0.3078179955482483,-0.3377380967140198,-0.07267127186059952
1727009803252263400,9.272263427734375,-0.29201480746269226,-0.04458877444267273,-0.1297510713338852
1727009803262301400,9.282301513671875,-0.27715012431144714,0.03676440566778183,0.13319186866283417
1727009803272339500,9.29233935546875,-0.27071112394332886,0.027099261060357094,0.3909544348716736
1727009803282377500,9.30237744140625,-0.2533678114414215,-0.1534462869167328,0.40709879994392395
1727009803292415500,9.31241552734375,-0.2646702826023102,-0.2819347381591797,0.07415945082902908
1727009803302453500,9.32245361328125,-0.3062174618244171,-0.3349100947380066,-0.30056676268577576
1727009803312491500,9.332491455078125,-0.33226636052131653,-0.4192880690097809,-0.35959118604660034
1727009803322529500,9.342529541015624,-0.29370805621147156,-0.4010411500930786,-0.2895788252353668
1727009803332567600,9.352567626953125,-0.21194873750209808,-0.2254139482975006,-0.05283685028553009
1727009803342605600,9.36260546875,-0.1578514128923416,0.038291994482278824,-0.08287996798753738
1727009803352643600,9.3726435546875,-0.11730585247278214,-0.002829608740285039,0.03315582126379013
1727009803362681300,9.382681396484376,-0.08297903835773468,-0.10348564386367798,0.247014582157135
1727009803372719600,9.3927197265625,-0.06865149736404419,-0.1864849179983139,0.26361724734306335
1727009803382756400,9.40275634765625,-0.04866793751716614,-0.21386462450027466,0.16543610394001007
1727009803392794600,9.412794677734375,-0.014545120298862457,-0.18629637360572815,-0.07202758640050888
1727009803402832400,9.422832275390626,-0.018159030005335808,-0.0841795951128006,-0.08919405937194824
1727009803412870400,9.432870361328124,-0.06891568750143051,0.09729140251874924,-0.06160930171608925
1727009803422908700,9.44290869140625,-0.07591154426336288,0.23096130788326263,-0.10048958659172058
1727009803432946400,9.452946533203125,-0.03145166486501694,0.24221636354923248,-0.00805925764143467
1727009803442985200,9.462985107421876,-0.011412710882723331,0.07058628648519516,-0.2170119434595108
1727009803453023500,9.4730234375,-0.0106505136936903,-0.1729920208454132,0.012528042308986187
1727009803463061200,9.483061279296875,-0.00046605319948866963,-0.2827227711677551,0.24159131944179535
1727009803473099300,9.493099365234375,0.042090196162462234,-0.2908552587032318,0.3036451041698456
1727009803483137300,9.50313720703125,0.08022426813840866,-0.09783974289894104,0.38671815395355225
1727009803493175300,9.51317529296875,0.029219936579465866,0.07801836729049683,-0.11127299815416336
1727009803503213300,9.52321337890625,-0.03766881674528122,0.2076069861650467,-0.22574710845947266
1727009803513251300,9.533251220703125,-0.03701074793934822,0.18421697616577148,-0.3453912138938904
1727009803523289300,9.543289306640625,0.004366252571344376,0.04297969117760658,-0.32442706823349
1727009803533327400,9.553327392578124,0.014847655780613422,-0.07452696561813354,0.07830625772476196
1727009803543364400,9.5633642578125,-0.058347996324300766,-0.20402343571186066,0.1625705361366272
1727009803553402400,9.57340234375,-0.11682754755020142,-0.1235634833574295,0.4338931143283844
1727009803563440400,9.5834404296875,-0.15783144533634186,0.008678442798554897,0.3260665237903595
1727009803573478100,9.59347802734375,-0.19758178293704987,0.041426535695791245,-0.09128729999065399
1727009803583516400,9.603516357421874,-0.23791669309139252,0.028933115303516388,-0.2965136766433716
1727009803593554200,9.61355419921875,-0.2909916341304779,-0.1730109304189682,-0.43749985098838806
1727009803603592400,9.623592529296875,-0.30811601877212524,-0.34646978974342346,-0.3348703980445862
1727009803613630200,9.633630126953125,-0.27591708302497864,-0.41060855984687805,0.05903216078877449
1727009803623668500,9.64366845703125,-0.24249891936779022,-0.2814748287200928,0.19503207504749298
1727009803633706200,9.653706298828125,-0.23526524007320404,-0.11013688892126083,0.31402984261512756
1727009803643744300,9.663744140625,-0.28189215064048767,-0.03892556205391884,0.17135071754455566
1727009803653782300,9.6737822265625,-0.32734644412994385,0.00018668759730644524,-0.1507066935300827
1727009803663820300,9.6838203125,-0.3455653786659241,-0.05937623977661133,-0.38726118206977844
1727009803673858300,9.6938583984375,-0.3268923759460449,-0.10128321498632431,-0.42287933826446533
1727009803683896300,9.703896240234375,-0.30804890394210815,-0.1808645874261856,-0.32308006286621094
1727009803693934300,9.713934326171875,-0.2591455578804016,-0.33529651165008545,0.001790975802578032
1727009803703972400,9.723972412109376,-0.19087594747543335,-0.3605440855026245,0.4027216136455536
1727009803714009300,9.73400927734375,-0.17558486759662628,-0.2143663614988327,0.31068331003189087
1727009803724047400,9.74404736328125,-0.18688972294330597,-0.10852141678333282,0.12417840957641602
1727009803734085400,9.75408544921875,-0.18748387694358826,0.049669817090034485,-0.12703384459018707
1727009803744123100,9.764123046875,-0.18633711338043213,0.009177252650260925,-0.33225172758102417
1727009803754161400,9.774161376953124,-0.14107324182987213,-0.03603336960077286,-0.2788984775543213
1727009803764199200,9.78419921875,-0.05431969836354256,-0.1367831528186798,-0.0682738646864891
1727009803774237400,9.794237548828125,0.0038480013608932495,-0.256387323141098,0.12307639420032501
1727009803784275200,9.804275146484375,0.03169827535748482,-0.25495079159736633,0.331520140171051
1727009803794313500,9.8143134765625,0.04764501750469208,-0.12393419444561005,0.35581162571907043
1727009803804351200,9.824351318359374,0.06262023746967316,0.09991860389709473,0.16734132170677185
1727009803814389200,9.83438916015625,0.07218098640441895,0.2172364443540573,-0.16925853490829468
1727009803824427300,9.84442724609375,0.07505400478839874,0.21195858716964722,-0.39779824018478394
1727009803834465300,9.85446533203125,0.10427021235227585,-0.020989438518881798,-0.3757792115211487
1727009803844503300,9.86450341796875,0.1709858626127243,-0.31618860363960266,-0.17582668364048004
1727009803854541300,9.874541259765625,0.227851003408432,-0.33825182914733887,0.2583860158920288
1727009803864579300,9.884579345703125,0.2119111865758896,-0.18602366745471954,0.4329777956008911
1727009803874617300,9.894617431640626,0.16503609716892242,0.11154969781637192,0.273954838514328
1727009803884654300,9.904654296875,0.13369014859199524,0.3535221219062805,0.27593809366226196
1727009803894692400,9.9146923828125,0.10843592882156372,0.3788093626499176,-0.08063066005706787
1727009803904730400,9.92473046875,0.12328065186738968,0.2277492731809616,-0.026582075282931328
1727009803914768100,9.93476806640625,0.11419767886400223,-0.11690478026866913,-0.29405027627944946
1727009803924806400,9.944806396484376,0.0922875851392746,-0.36773034930229187,-0.218550443649292
1727009803934844200,9.95484423828125,0.07967458665370941,-0.302122563123703,-0.08165545016527176
1727009803944882400,9.96488232421875,0.09844987094402313,-0.013885987922549248,0.035473838448524475
1727009803954920200,9.974920166015625,0.14660274982452393,0.311346173286438,0.4702996015548706
1727009803964958500,9.98495849609375,0.13410134613513947,0.3560310900211334,0.1436019092798233
1727009803974996200,9.994996337890624,0.11346717178821564,0.243896022439003,0.25046125054359436
1727009803985034200,10.0050341796875,0.07125899940729141,0.0043806335888803005,-0.1493476778268814
1727009803995072300,10.015072265625,0.0774252861738205,-0.24135935306549072,-0.3044168949127197
1727009804005110300,10.0251103515625,0.13770140707492828,-0.2373502403497696,-0.09299252182245255
1727009804015148300,10.035148193359374,0.166582852602005,-0.05958077311515808,-0.20088304579257965
1727009804025186300,10.045186279296875,0.19213882088661194,0.12734277546405792,0.2509946823120117
1727009804035224300,10.055224365234375,0.18865753710269928,0.29192718863487244,0.04953133314847946
1727009804045262300,10.065262451171876,0.16251514852046967,0.20331449806690216,0.17519418895244598
1727009804055299300,10.07529931640625,0.1368553191423416,0.14875832200050354,0.020068783313035965
1727009804065337300,10.08533740234375,0.15695792436599731,0.0023792681749910116,-0.15579625964164734
1727009804075375400,10.095375244140625,0.21868281066417694,-0.04529983550310135,0.017461547628045082
1727009804085413000,10.1054130859375,0.22342589497566223,0.03862915188074112,-0.1566964089870453
1727009804095451400,10.115451416015626,0.20467084646224976,-0.0018365158466622233,-0.02460308000445366
1727009804105489200,10.1254892578125,0.1989261507987976,0.03136617690324783,0.199008971452713
1727009804115527400,10.13552734375,0.16987799108028412,0.10225526243448257,-0.029377862811088562
1727009804125565200,10.145565185546875,0.1536542773246765,0.21298018097877502,0.04962188005447388
1727009804135603500,10.155603515625,0.1413070559501648,0.24381212890148163,0.023376163095235825
1727009804145641200,10.16564111328125,0.12114746123552322,0.130512997508049,-0.05305575951933861
1727009804155679200,10.17567919921875,0.08924732357263565,-0.12981845438480377,0.14691062271595
1727009804165717200,10.18571728515625,0.03911411389708519,-0.20867757499217987,0.12182417511940002
1727009804175755300,10.19575537109375,-0.013949637301266193,-0.1437305361032486,0.059905942529439926
1727009804185793300,10.205793212890624,-0.06696119159460068,-0.0717141330242157,-0.14600221812725067
1727009804195831300,10.215831298828125,-0.09021511673927307,-0.017252223566174507,-0.24912460148334503
1727009804205869300,10.225869384765625,-0.07069920003414154,-0.0018588864477351308,-0.14791515469551086
1727009804215907300,10.2359072265625,-0.04614885151386261,-0.07082384079694748,0.10373891144990921
1727009804225944300,10.2459443359375,-0.040770065039396286,-0.26349982619285583,0.18049094080924988
1727009804235982300,10.255982421875,-0.07871611416339874,-0.46626731753349304,0.15877605974674225
1727009804246020400,10.266020263671875,-0.1675405353307724,-0.34535208344459534,0.05379398912191391
1727009804256058000,10.27605810546875,-0.23201246559619904,-0.06818784028291702,-0.17755161225795746
1727009804266096400,10.286096435546876,-0.1877344846725464,0.10566730797290802,-0.26445987820625305
1727009804276134100,10.296134033203124,-0.11845634132623672,0.07916326075792313,-0.19543474912643433
1727009804286172400,10.30617236328125,-0.15461194515228271,-0.07731476426124573,-0.027536552399396896
1727009804296210200,10.316210205078125,-0.1994238942861557,-0.3215964138507843,0.20205989480018616
1727009804306248400,10.32624853515625,-0.14826829731464386,-0.528629720211029,0.25728321075439453
1727009804316286200,10.3362861328125,-0.08575005829334259,-0.4944398105144501,0.1869879961013794
1727009804326324200,10.34632421875,-0.10976511240005493,-0.25681447982788086,-0.11095740646123886
1727009804336362200,10.3563623046875,-0.19508054852485657,-0.08897168189287186,-0.4694303274154663
1727009804346400300,10.366400146484375,-0.20347189903259277,-0.06027638912200928,-0.3652120530605316
1727009804356438300,10.376438232421876,-0.12289290130138397,-0.061096109449863434,-0.1988651603460312
1727009804366476300,10.386476318359374,-0.03361788019537926,-0.05774718523025513,0.20768608152866364
1727009804376514600,10.3965146484375,0.018936939537525177,-0.05838341638445854,0.34205347299575806
1727009804386552300,10.40655224609375,0.051891960203647614,-0.11571647971868515,0.3698374330997467
1727009804396590300,10.41659033203125,0.0757506862282753,-0.07675070315599442,0.4460301995277405
1727009804406627300,10.42662744140625,0.05295855551958084,-0.05679270997643471,0.07080359756946564
1727009804416665300,10.436665283203125,0.02803163416683674,0.053651243448257446,0.06030967831611633
1727009804426703000,10.446703125,-0.0005637911963276565,0.021279988810420036,-0.4914397597312927
1727009804436741400,10.456741455078125,0.0347294844686985,-0.06076561287045479,-0.5398456454277039
1727009804446778600,10.466778564453126,0.10156896710395813,-0.3707921802997589,-0.3734920918941498
1727009804456816600,10.476816650390624,0.15219593048095703,-0.5548539161682129,-0.11162532866001129
1727009804466854700,10.486854736328125,0.16648457944393158,-0.17654547095298767,0.6067498326301575
1727009804476892700,10.496892578125,0.14522697031497955,0.27194178104400635,0.30686378479003906
1727009804486930700,10.5069306640625,0.16205202043056488,0.6177910566329956,0.2408733367919922
1727009804496968400,10.516968505859374,0.15135276317596436,0.48754915595054626,0.006235525477677584
1727009804507006700,10.5270068359375,0.10912995040416718,0.17035256326198578,-0.15225771069526672
1727009804517044500,10.53704443359375,0.08534286171197891,-0.14667385816574097,-0.026747724041342735
1727009804527082800,10.547082763671876,0.13312476873397827,-0.17354409396648407,-0.12163162976503372
1727009804537120500,10.55712060546875,0.18090906739234924,-0.06433797627687454,-0.18604284524917603
1727009804547158800,10.56715869140625,0.16716688871383667,-0.01654648594558239,-0.06947947293519974
1727009804557196500,10.577196533203125,0.13304594159126282,0.1758892685174942,0.2806686758995056
1727009804567234600,10.587234619140625,0.1067861020565033,0.30835169553756714,0.21067441999912262
1727009804577271800,10.597271728515626,0.12480611354112625,0.3685644567012787,0.09979503601789474
1727009804587309600,10.6073095703125,0.15889164805412292,0.26151788234710693,-0.07451844215393066
1727009804597347800,10.617347900390625,0.15930257737636566,-0.03603043779730797,-0.16512930393218994
1727009804607385600,10.627385498046875,0.13053271174430847,-0.1514236032962799,-0.0614260770380497
1727009804617423600,10.637423583984376,0.07990308851003647,-0.07669690996408463,-0.19608615338802338
1727009804627461600,10.647461669921874,0.057133059948682785,0.16346189379692078,-0.22006472945213318
1727009804637499600,10.657499755859375,0.07899974286556244,0.1639857441186905,-0.35906389355659485
1727009804647537700,10.66753759765625,0.14460991322994232,0.1727731078863144,0.1545778512954712
1727009804657575700,10.67757568359375,0.1507335901260376,0.04908738657832146,0.5574848055839539
1727009804667613400,10.687613525390624,0.12726368010044098,-0.010565824806690216,0.5041363835334778
1727009804677651700,10.697651611328125,0.13709872961044312,0.07343906164169312,0.30199047923088074
1727009804687689500,10.707689453125,0.10761035233736038,0.04027045890688896,-0.17854523658752441
1727009804697727700,10.717727783203125,0.04249313101172447,0.107583187520504,-0.211600661277771
1727009804707765500,10.727765625,0.0010167949367314577,0.08664621412754059,-0.2729843854904175
1727009804717803800,10.7378037109375,0.05072549358010292,0.13463690876960754,0.02431918866932392
1727009804727841500,10.747841552734375,0.10958880931138992,-0.003448527306318283,0.06439922749996185
1727009804737879600,10.757879638671875,0.11382003873586655,-0.03957697004079819,0.21116523444652557
1727009804747917600,10.76791748046875,0.05007728189229965,0.08375508338212967,0.31847837567329407
1727009804757954600,10.77795458984375,0.0022889869287610054,0.21646146476268768,0.1063661202788353
1727009804767992800,10.787992919921875,0.03266633301973343,0.30665260553359985,-0.14218643307685852
1727009804778030600,10.798030517578125,0.0644165426492691,0.1805253028869629,-0.14111211895942688
1727009804788068600,10.808068603515625,0.03576065972447395,0.02154337428510189,-0.16974376142024994
1727009804798106600,10.818106689453124,0.014810104854404926,-0.1593955159187317,0.1261851042509079
1727009804808144600,10.82814453125,0.04393816366791725,-0.1945420503616333,0.14408713579177856
1727009804818182700,10.8381826171875,0.06272010505199432,-0.10337992012500763,0.14076083898544312
1727009804828220700,10.848220703125,0.018100174143910408,0.15717603266239166,0.0434446781873703
1727009804838258400,10.858258544921876,-0.038911446928977966,0.30089378356933594,-0.1973319798707962
1727009804848296700,10.868296630859374,-0.025314144790172577,0.32947295904159546,0.00253479671664536
1727009804858334500,10.87833447265625,-0.006381200160831213,0.2185230255126953,-0.055932506918907166
1727009804868372700,10.888372802734375,-0.024534370750188828,-0.00219524372369051,0.3628953695297241
1727009804878410500,10.898410400390626,-0.07136072963476181,-0.15416213870048523,0.06096694618463516
1727009804888448800,10.90844873046875,-0.06589805334806442,-0.1015993282198906,0.25585201382637024
1727009804898486500,10.918486572265625,-0.06089957058429718,-0.017485782504081726,-0.09190595149993896
1727009804908524500,10.928524658203125,-0.06047612801194191,-0.03584348410367966,-0.18511685729026794
1727009804918562600,10.9385625,-0.07746762782335281,-0.07292240858078003,-0.24139077961444855
1727009804928599600,10.948599609375,-0.11382030695676804,-0.11172067373991013,-0.4079321026802063
1727009804938637800,10.958637939453125,-0.09765625,-0.12409824877977371,0.11541368067264557
1727009804948675600,10.968675537109375,-0.050523627549409866,-0.019111642614006996,0.09448762238025665
1727009804958713600,10.978713623046875,0.00914236530661583,0.05643344670534134,0.44917061924934387
1727009804968751600,10.988751708984376,-0.013877466320991516,0.15248940885066986,0.3426329791545868
1727009804978789600,10.99878955078125,-0.07605428993701935,0.1557890623807907,-0.07727348059415817
1727009804988827600,11.00882763671875,-0.08111535757780075,-0.0059843892231583595,-0.1020885482430458
1727009804998865700,11.01886572265625,-0.05116571485996246,-0.17907974123954773,-0.34994441270828247
1727009805008903400,11.0289033203125,-0.03639236092567444,-0.3534267842769623,-0.193348690867424
1727009805018941700,11.038941650390624,-0.05766436085104942,-0.27973976731300354,0.011604191735386848
1727009805028979500,11.0489794921875,-0.0788511410355568,-0.07128536701202393,0.07744445651769638
1727009805039017700,11.059017822265625,-0.047560859471559525,0.11334333568811417,0.08222083747386932
1727009805049055500,11.069055419921876,-0.006982009392231703,0.17113792896270752,0.11672528088092804
1727009805059093800,11.07909375,-0.043349336832761765,0.13456474244594574,0.12816941738128662
1727009805069131500,11.089131591796875,-0.12342633306980133,-0.0431637167930603,-0.09549882262945175
1727009805079169500,11.09916943359375,-0.10978588461875916,-0.12780456244945526,-0.30633142590522766
1727009805089207600,11.10920751953125,-0.07816857099533081,-0.21317192912101746,-0.4094335734844208
1727009805099245600,11.11924560546875,-0.09088809788227081,-0.1603475958108902,-0.1276961714029312
1727009805109282800,11.12928271484375,-0.06701738387346268,0.019725501537322998,0.357112854719162
1727009805119320600,11.139320556640625,0.004785700235515833,0.1444205641746521,0.4306667149066925
1727009805129358600,11.149358642578125,0.03989681601524353,0.11662328243255615,0.09212592989206314
1727009805139396600,11.159396728515626,-0.011393269523978233,-0.1209099069237709,-0.1568966656923294
1727009805149434600,11.1694345703125,-0.07705163955688477,-0.2825384736061096,-0.18495680391788483
1727009805159472600,11.17947265625,-0.06374089419841766,-0.3227176070213318,0.0027260116767138243
1727009805169510700,11.1895107421875,-0.0012026835465803742,-0.15631183981895447,-0.15277010202407837
1727009805179548400,11.19954833984375,0.03633803501725197,0.08561529964208603,0.055803343653678894
1727009805189586700,11.209586669921874,-0.009608951397240162,0.25625067949295044,-0.059299543499946594
1727009805199624400,11.21962451171875,-0.03370150551199913,0.21385130286216736,0.2147866040468216
1727009805209662700,11.229662841796875,-0.014418354257941246,-0.019640812650322914,0.10070690512657166
1727009805219700500,11.239700439453125,-0.00006311691686278209,-0.29386356472969055,0.16377907991409302
1727009805229738800,11.24973876953125,-0.03777347877621651,-0.46891820430755615,0.05234523117542267
1727009805239776500,11.259776611328125,-0.08622410148382187,-0.36780625581741333,0.07000704854726791
1727009805249814500,11.269814453125,-0.0975838154554367,-0.13247628509998322,0.2484247237443924
1727009805259852500,11.2798525390625,-0.10705827921628952,0.06276191771030426,-0.34568336606025696
1727009805269890600,11.289890625,-0.09915454685688019,0.16386936604976654,-0.13242115080356598
1727009805279928600,11.299928466796874,-0.14381974935531616,0.11645150929689407,-0.589752733707428
1727009805289965600,11.309965576171875,-0.13677169382572174,-0.13712510466575623,-0.16769525408744812
1727009805300003600,11.320003662109375,-0.07548490166664124,-0.25578489899635315,0.26844531297683716
1727009805310041600,11.33004150390625,-0.028184765949845314,-0.2616212069988251,0.3020935356616974
1727009805320079600,11.34007958984375,-0.07004113495349884,-0.06966695934534073,0.4431939423084259
1727009805330117600,11.35011767578125,-0.15293575823307037,0.13257083296775818,-0.033422671258449554
1727009805340155600,11.36015576171875,-0.18441857397556305,0.12813054025173187,-0.1517636924982071
1727009805350193400,11.370193359375,-0.17508180439472198,-0.09843682497739792,-0.46962448954582214
1727009805360231700,11.380231689453124,-0.15208594501018524,-0.40115806460380554,-0.25604456663131714
1727009805370269400,11.39026953125,-0.14654096961021423,-0.4412442445755005,-0.012426309287548065
1727009805380307700,11.4003076171875,-0.12389557808637619,-0.33114781975746155,0.28085216879844666
1727009805390345500,11.410345458984375,-0.09116745740175247,-0.044685181230306625,0.4433654546737671
1727009805400383700,11.4203837890625,-0.09356776624917984,0.12407694011926651,0.10717012733221054
1727009805410421500,11.43042138671875,-0.10888280719518661,0.177004873752594,-0.04105209559202194
1727009805420459500,11.44045947265625,-0.14804644882678986,0.05994482710957527,-0.3966725170612335
1727009805430497500,11.45049755859375,-0.17625252902507782,-0.06944778561592102,-0.2806950509548187
1727009805440536600,11.46053662109375,-0.15832972526550293,-0.20955109596252441,-0.22600969672203064
1727009805450574300,11.47057421875,-0.09197759628295898,-0.2810705602169037,0.11349700391292572
1727009805460612600,11.480612548828125,-0.08956796675920486,-0.2271878719329834,0.2624313533306122
1727009805470649600,11.490649658203125,-0.15286783874034882,-0.20781844854354858,0.25194117426872253
1727009805480687400,11.500687255859376,-0.16637539863586426,-0.050099387764930725,0.1710713505744934
1727009805490725600,11.5107255859375,-0.15865835547447205,-0.18216954171657562,-0.23335416615009308
1727009805500763400,11.520763427734375,-0.1539594680070877,-0.2349797487258911,-0.2838767170906067
1727009805510801700,11.5308017578125,-0.16371355950832367,-0.3105080723762512,-0.5068346858024597
1727009805520839400,11.54083935546875,-0.13266749680042267,-0.19007059931755066,-0.2627967298030853
1727009805530877400,11.55087744140625,-0.06884510815143585,-0.09656888246536255,-0.13220757246017456
1727009805540915500,11.56091552734375,0.00019201391842216253,0.006145510356873274,0.05589575693011284
1727009805550953500,11.570953369140625,0.0243745818734169,0.05706355348229408,0.36286503076553345
1727009805560991500,11.580991455078125,0.004870122764259577,-0.17419922351837158,0.3798373341560364
1727009805571029500,11.591029541015626,0.014456436969339848,-0.09643439203500748,0.40878748893737793
1727009805581067500,11.601067626953125,0.018485000357031822,-0.08353830128908157,0.04531821236014366
1727009805591105500,11.61110546875,0.08033638447523117,-0.05218197777867317,-0.07933956384658813
1727009805601143300,11.621143310546875,0.16725051403045654,-0.11024874448776245,-0.11523018777370453
1727009805611181600,11.631181640625,0.18285930156707764,-0.11615510284900665,0.049258358776569366
1727009805621219300,11.64121923828125,0.1512901782989502,-0.003622697899118066,-0.15430861711502075
1727009805631257600,11.651257568359375,0.21537356078624725,0.04707323759794235,-0.20311157405376434
1727009805641295400,11.66129541015625,0.35699647665023804,0.1587853878736496,0.07571952790021896
1727009805651332400,11.671332275390625,0.3854028284549713,0.14139121770858765,0.1663258671760559
1727009805661370600,11.68137060546875,0.3285267651081085,0.29170429706573486,0.13643400371074677
1727009805671408400,11.691408447265625,0.33624032139778137,0.48230859637260437,0.10279588401317596
1727009805681446700,11.70144677734375,0.3883669078350067,0.5425490140914917,-0.08110737055540085
1727009805691484400,11.711484375,0.4429393410682678,0.36000317335128784,0.1823977679014206
1727009805701522400,11.7215224609375,0.43760955333709717,0.17651139199733734,0.26959073543548584
1727009805711560400,11.731560546875,0.37585246562957764,-0.040768735110759735,0.1642025262117386
1727009805721598500,11.741598388671875,0.330253541469574,-0.06103219464421272,-0.04079962894320488
1727009805731636500,11.751636474609375,0.33342909812927246,0.10449738055467606,-0.20152007043361664
1727009805741674500,11.761674560546876,0.3570835590362549,0.3264705240726471,0.09549829363822937
1727009805751712500,11.77171240234375,0.3369564414024353,0.4242311716079712,0.1444631665945053
1727009805761750500,11.78175048828125,0.262633740901947,0.4166451692581177,0.19585099816322327
1727009805771788300,11.791788330078125,0.16430611908435822,0.3091629147529602,-0.17370174825191498
1727009805781826600,11.80182666015625,0.15974491834640503,0.19776980578899384,-0.06196989491581917
1727009805791864300,11.8118642578125,0.2097255289554596,0.08705180883407593,-0.16585740447044373
1727009805801902600,11.821902587890625,0.2458832710981369,-0.06030222401022911,0.19645020365715027
1727009805811940400,11.8319404296875,0.21950173377990723,-0.053281329572200775,0.17154139280319214
1727009805821978600,11.841978515625,0.19351407885551453,-0.1215304285287857,0.15106302499771118
1727009805832015600,11.852015625,0.1967063993215561,-0.03864086791872978,-0.02845720760524273
1727009805842053400,11.862053466796874,0.16370850801467896,0.06176216900348663,-0.3243575692176819
1727009805852091600,11.872091552734375,0.10162702202796936,0.344705730676651,-0.011753861792385578
1727009805862129400,11.88212939453125,0.07748706638813019,0.5151402950286865,-0.06973034888505936
1727009805872167400,11.89216748046875,0.1544918417930603,0.39092329144477844,0.14385996758937836
1727009805882205400,11.902205322265624,0.20519496500492096,0.1564098447561264,0.2590097188949585
1727009805892243500,11.912243408203125,0.12385137379169464,-0.0843883827328682,0.19902707636356354
1727009805902281500,11.922281494140625,0.020125508308410645,-0.20629644393920898,0.22573645412921906
1727009805912319500,11.932319580078126,-0.007815578952431679,-0.21821701526641846,-0.13274526596069336
1727009805922357500,11.942357421875,-0.006443251855671406,0.027995681390166283,-0.30540385842323303
1727009805932395500,11.9523955078125,-0.04548253118991852,0.1844172477722168,-0.4780062437057495
1727009805942433300,11.962433349609375,-0.04221802577376366,0.1812315732240677,-0.1733294427394867
1727009805952471600,11.972471435546876,-0.0070461914874613285,-0.08937781304121017,-0.08488772809505463
1727009805962509300,11.98250927734375,0.03826829418540001,-0.29803702235221863,0.1480046510696411
1727009805972547600,11.992547607421875,0.024236897006630898,-0.25365063548088074,0.10414610803127289
1727009805982585300,12.00258544921875,-0.036075178533792496,-0.09184043854475021,0.1784389764070511
1727009805992623600,12.01262353515625,-0.0754430890083313,0.2287389039993286,0.09417763352394104
1727009806002661400,12.022661376953126,-0.11539716273546219,0.30610132217407227,0.02413969114422798
1727009806012698400,12.032698486328124,-0.18662872910499573,0.19289594888687134,-0.1279371976852417
1727009806022736600,12.042736572265625,-0.20848849415779114,-0.14621606469154358,-0.10000383108854294
1727009806032774400,12.0527744140625,-0.16519561409950256,-0.418902188539505,0.11337050050497055
1727009806042812400,12.0628125,-0.15624871850013733,-0.6507143974304199,0.05116012319922447
1727009806052850400,12.072850341796874,-0.1778711974620819,-0.5575364828109741,-0.08776100724935532
1727009806062888400,12.082888427734375,-0.16414685547351837,-0.25055044889450073,-0.2609269320964813
1727009806072926500,12.092926513671875,-0.12076929211616516,0.00640942994505167,-0.11479209363460541
1727009806082964500,12.102964599609376,-0.08549626171588898,0.22835727035999298,0.030760042369365692
1727009806093002500,12.11300244140625,-0.03003353253006935,0.1159905195236206,0.15955770015716553
1727009806103040500,12.12304052734375,0.008673382923007011,0.0005041363765485585,0.30714184045791626
1727009806113078300,12.133078369140625,-0.037159353494644165,-0.29404228925704956,0.13098491728305817
1727009806123116500,12.143116455078125,-0.08591890335083008,-0.19453325867652893,0.11874369531869888
1727009806133154300,12.153154296875,-0.07071678340435028,-0.18493975698947906,-0.2538596987724304
1727009806143192600,12.163192626953125,-0.0010508833220228553,-0.04083904251456261,-0.13490109145641327
1727009806153230300,12.173230224609375,0.014727280475199223,0.06314355134963989,-0.31941473484039307
1727009806163268600,12.1832685546875,0.006264820229262114,0.020661335438489914,-0.06465702503919601
1727009806173306400,12.193306396484376,0.031153924763202667,0.09975242614746094,0.22488504648208618
1727009806183344400,12.203344482421874,0.07456398010253906,0.14578409492969513,0.34088167548179626
1727009806193382400,12.21338232421875,0.11145541816949844,0.3182365596294403,0.3078550398349762
1727009806203419400,12.22341943359375,0.1260649859905243,0.2043565958738327,-0.06356672197580338
1727009806213457400,12.23345751953125,0.11288847029209137,0.04423430562019348,0.0692451149225235
1727009806223495400,12.243495361328126,0.032635707408189774,-0.0932077094912529,-0.009242233820259571
1727009806233533400,12.253533447265625,-0.018924688920378685,0.08928966522216797,0.03688770905137062
1727009806243571500,12.263571533203125,0.021814484149217606,0.2523781955242157,-0.3002932369709015
1727009806253609500,12.273609375,0.07700157165527344,0.09583811461925507,-0.20704185962677002
1727009806263647500,12.2836474609375,0.019328691065311432,-0.04098311811685562,0.14500778913497925
1727009806273685500,12.293685546875,-0.07422975450754166,-0.1308799833059311,0.5892763137817383
1727009806283723300,12.30372314453125,-0.05017395317554474,0.08265359699726105,0.33660465478897095
1727009806293761500,12.313761474609375,0.05883641913533211,0.16093775629997253,-0.043594349175691605
1727009806303799300,12.32379931640625,0.039073631167411804,0.2060548961162567,-0.46547794342041016
