time,seconds_elapsed,z,y,x
1726225777741768400,0.0297685546875,0.3172013248324394,1.5725667123526335,-1.0206642128504813
1726225777751803400,0.039803466796875,1.1765753439217805,2.2086843492418526,-0.87069679261446
1726225777761839400,0.04983935546875,3.398400329765677,-0.25446225232481956,-0.2003245655544102
1726225777771875300,0.059875244140625,0.5822744030207395,-1.8956670320957898,-0.1663845942907035
1726225777781910500,0.06991064453125,-1.5718711313039064,0.6912351284772157,-0.4803310089804232
1726225777791946500,0.079946533203125,-2.384016950750351,0.6527396858662367,-0.6023391397975385
1726225777801982500,0.089982421875,-2.2163643823504446,-0.3470756540924311,-0.4186097352132201
1726225777812018400,0.100018310546875,-0.7999018394231796,-1.5606763680726288,-0.13294877315685152
1726225777822053400,0.110053466796875,0.0817728588014841,-0.9060147742331027,-0.36234146615490315
1726225777832089300,0.12008935546875,1.084375783652067,0.7588304088443517,0.5510951286420226
1726225777842125300,0.130125244140625,1.4024094676554202,0.21000877809226512,0.9478094045199453
1726225777852160500,0.140160400390625,1.6650035885095595,0.18975392557084558,0.09673457335084676
1726225777862196500,0.150196533203125,2.064046745726466,-0.8502291741251945,0.36050445998609065
1726225777872232400,0.160232421875,1.3147124795019627,-1.7653122209548948,0.04036678944081068
1726225777882267400,0.170267333984375,-0.18036299689114094,0.27342881860136986,-0.21247896759808063
1726225777892303400,0.180303466796875,-2.8157623541295527,1.03664489518404,0.5032249778337776
1726225777902339600,0.190339599609375,-2.0574387257635594,-1.630421519950032,0.2024645001925528
1726225777912375600,0.20037548828125,-0.8986123890221118,-3.0503724895149467,0.4676471031699329
1726225777922410500,0.210410400390625,-2.2251129214733836,-1.5996669007241724,1.0178644991293548
1726225777932446500,0.220446533203125,-2.504201081010699,2.4276269598960876,0.300516878143698
1726225777942482400,0.230482421875,-0.4625958841949701,0.553097408375144,1.0471067410308867
1726225777952517600,0.240517578125,1.1670260098099707,-0.9537053306907415,1.0646706009026616
1726225777962553600,0.2505537109375,0.9319763139635324,0.691273706921935,0.9224639508612453
1726225777972589600,0.260589599609375,0.22248072165250776,2.4073995799034833,1.261554451418668
1726225777982624500,0.27062451171875,0.7407885561972856,0.879148979139328,0.4207963585373014
1726225777992660500,0.280660400390625,1.3476865283429622,-1.6945359724640845,-0.2518449094332754
1726225778002696400,0.290696533203125,1.7753133904874323,-0.01337093822658062,-0.4564147844072431
1726225778012732400,0.300732421875,0.11295417900681495,2.5212989308059215,0.09480638176724314
1726225778022767600,0.310767578125,-0.40988603827059267,2.30503576849401,-0.12163389067724346
1726225778032803600,0.320803466796875,0.2003285110771656,-0.3249871564030647,0.4328074796527624
1726225778042839600,0.330839599609375,-0.8491209206223488,-0.7820172231644391,0.5524475661642849
1726225778052874500,0.34087451171875,-2.744576355794072,2.1373487133026123,0.2736809667315334
1726225778062910500,0.350910400390625,-2.7981606464654205,1.4991156916946171,0.9267557297710328
1726225778072946400,0.360946533203125,-0.8325438798308372,-0.509204490634799,0.015503566341102122
1726225778082981400,0.3709814453125,0.33310733449459073,-0.9295528862088918,-0.4857251231089234
1726225778093017300,0.381017333984375,-0.3359966261953115,1.192896948647499,-0.052711161098629236
1726225778103053600,0.391053466796875,-1.3642244061678648,3.008899492397904,-0.60906662142165
1726225778113089500,0.401089599609375,0.9337363093733787,1.148812307727337,-0.9177636642158031
1726225778123124500,0.41112451171875,3.2440660926222797,-2.210956970348954,-0.8436753685675561
1726225778133160400,0.421160400390625,3.004716653755307,-0.6383399891138076,-0.8087815306451172
1726225778143196400,0.431196533203125,-1.1392770021408796,2.762728098556399,-0.2145302741046995
1726225778153231400,0.4412314453125,-2.432275077962875,2.216744906100631,-0.12487360325083136
1726225778163267300,0.451267333984375,-1.167199028289318,-1.9892811353385447,-0.6906973683387041
1726225778173303300,0.46130322265625,-2.572298465681076,-3.6187393632143734,-0.39105924579091367
1726225778183338500,0.47133837890625,-3.773185244038701,0.5041922154307366,-0.4550390390746295
1726225778193374500,0.48137451171875,-2.688155964913964,1.367209559458494,0.43671464315913616
1726225778203410400,0.491410400390625,0.3171761903911829,-1.151505200073123,2.005810975987464
1726225778213446400,0.5014462890625,0.49136663612723347,-0.8089671894103289,0.1495307093191892
1726225778223481300,0.5114814453125,-0.1924333739131689,2.526705758285522,0.28338344557844103
1726225778233517300,0.521517333984375,1.267972940158844,2.2297627931058406,0.8112176717508583
1726225778243553300,0.53155322265625,3.1746681467473503,-2.558258834412694,0.6407718193706124
1726225778253588500,0.54158837890625,4.517892434984446,-2.1364006187975404,-0.05259652174301445
1726225778263624400,0.55162451171875,3.1970272780716416,1.1850871516793966,0.276036809142679
1726225778273660400,0.561660400390625,-0.22215923461318016,2.368067101946473,2.0830022060871123
1726225778283695400,0.5716953125,0.0033317747712135314,-0.16587620637714862,1.5978762179151176
1726225778293731300,0.5817314453125,-1.028397875842452,-2.372283842858672,1.2406078172408044
1726225778303767600,0.591767578125,-2.6961241673141716,-0.08805939172506332,1.544333136036992
1726225778313803500,0.601803466796875,-3.173649325093627,0.6382838750123977,1.8100427585631609
1726225778323838500,0.61183837890625,-0.339854470667243,-1.8096178111493586,1.4017106717363
1726225778333874400,0.62187451171875,1.4930056843817232,-1.7108330272704362,0.37628680673595516
1726225778343910400,0.631910400390625,1.315060270026326,1.410091838851571,-0.1547951691860333
1726225778353945600,0.641945556640625,2.269085918712616,1.365132168662548,-0.7245970075920224
1726225778363981600,0.651981689453125,4.033530124661326,-1.0355173524588346,0.7671528315097094
1726225778374017500,0.662017578125,2.8729379472911356,-0.3799783912628889,0.8930057281214744
1726225778384052500,0.672052490234375,-0.9370996483266353,0.7142635373651981,1.7022653976723552
1726225778394088400,0.68208837890625,-0.8368857084274292,-0.3639537236571312,1.9389381646759807
1726225778404124400,0.69212451171875,-0.8197755836725235,-1.732279135403037,0.9124092975758016
1726225778414164000,0.7021640625,-2.0869734478056428,-0.5932347729742526,0.17218290530592203
1726225778424199000,0.712198974609375,-1.1024036077737807,-1.229745793095231,0.12296871034442447
1726225778434235000,0.72223486328125,0.0931453166872263,-2.2584780154585835,-0.27002463618107136
1726225778444270800,0.732270751953125,1.358088095369935,-0.49020928278565407,-0.5211321712505073
1726225778454305800,0.742305908203125,1.429786134880781,0.1352080963909626,-0.9066117172129452
1726225778464341800,0.752341796875,0.7946680304229259,0.30431963142752644,0.07583503885087557
1726225778474378000,0.7623779296875,1.6791987026005983,0.7910989397644996,0.5583544521205127
1726225778484413000,0.772412841796875,2.7172867823302744,-1.1999100422799587,0.0354137701433152
1726225778494449000,0.782448974609375,4.035812682640552,-1.2353881828963755,-0.2373120878204703
1726225778504484900,0.79248486328125,1.181606323826313,-0.7923714439183474,0.7563388842895626
1726225778514520800,0.802520751953125,1.4853174679666756,0.13721534456014634,0.5029518234482034
1726225778524556000,0.81255615234375,-0.3121569009244442,-0.6331541109085083,0.5068528860073537
1726225778534592000,0.822592041015625,-1.0552233389258383,-0.4637549911022186,-0.2712782529713586
1726225778544628000,0.8326279296875,-0.3667103288888931,-2.1532810264497995,0.23824960613260043
1726225778554663000,0.842662841796875,-0.7784393646776676,-1.6608938151031731,0.5822171564081683
1726225778564699000,0.852698974609375,0.32132512676417824,-0.18054010702371595,-0.33183154240511353
1726225778574734800,0.86273486328125,-0.15245499926805495,-1.508228387954831,-0.7857073098540306
1726225778584770000,0.87277001953125,0.8796773869276047,-0.07468319280147552,-0.2486325232580304
1726225778594806000,0.882805908203125,3.8499779763400555,-0.25254502052664757,-1.3590372127883135
1726225778604842000,0.892842041015625,6.122672733199596,-1.208389701333642,-1.7684775531180201
1726225778614878000,0.9028779296875,4.013957409185171,0.6075982293695211,-0.6224876824002713
1726225778624913000,0.912912841796875,1.3212813364982605,1.2713164053678512,-0.5285418629851192
1726225778634948900,0.922948974609375,-3.6224855640053746,-0.32691081794202326,0.3697062227692455
1726225778644985000,0.932985107421875,-6.470932628640532,-1.7816414244651793,0.8074591229349374
1726225778655020000,0.94302001953125,-6.441999964144825,-2.708831673195958,0.985868355409801
1726225778665056000,0.953055908203125,-3.906583076137304,-1.515031638228893,0.960922495527938
1726225778675092000,0.963092041015625,-1.0056775099903346,-0.9347937094718217,0.4268082392379641
1726225778685127000,0.973126953125,1.0289683692067861,0.7217243747651576,0.38604404797740277
1726225778695163100,0.9831630859375,-0.10157412233650684,0.6668219872325658,1.5637088676363229
1726225778705199000,0.99319921875,0.8621329624086618,-1.1067571268081664,0.7845782327588647
1726225778715235000,1.003235107421875,0.6576379793018102,-1.6570622741162775,0.8846694230612366
1726225778725270000,1.01327001953125,-2.5093665009498594,1.54439275726974,1.3831225833833216
1726225778735306000,1.023305908203125,-0.42796939197182654,0.8153121745228767,-0.8634975287601351
1726225778745342000,1.033342041015625,3.374232103192806,-1.9269483055442571,-1.1778445601399987
1726225778755377200,1.043377197265625,3.676958327949047,-0.7001917573928833,-0.24783556419406086
1726225778765413000,1.0534130859375,2.6569483412235972,2.0311592061251402,-1.984442024744302
1726225778775449000,1.063448974609375,0.33297640159130093,1.626701038122177,-1.0036270072013138
1726225778785485000,1.073485107421875,-1.626943614706397,-0.30567922934293745,-0.7239025955870747
1726225778795520000,1.08352001953125,-0.8499141168266534,0.46566462411582465,-1.1873454520002007
1726225778805556000,1.093555908203125,0.6389478918790817,0.412860085645318,-0.6166023506887257
1726225778815592000,1.103592041015625,-0.17007891876399517,0.07961597302854061,-0.8780535851180553
1726225778825627000,1.113626953125,1.0753595335036517,0.7743003651767969,-0.3173922442946583
1726225778835662800,1.123662841796875,0.3671194942116737,0.22648878825008867,-0.3495142794162035
1726225778845699000,1.133698974609375,-1.1897019519984722,2.110901435881853,-0.7288447281643747
1726225778855735000,1.143735107421875,-1.4036188434451817,0.4096551521241665,-0.2602035359231755
1726225778865770000,1.15377001953125,-2.2049153520971534,-1.1346762303471565,-0.07546320073064416
1726225778875806000,1.163805908203125,-2.169324983277917,0.5712912367135285,-0.66503788029477
1726225778885842000,1.173842041015625,-2.4619506697803732,1.140400453212857,0.41331513593643904
1726225778895876900,1.183876953125,-0.3432651558935642,1.0872568920463324,0.4678371093166992
1726225778905912800,1.193912841796875,4.834507484361529,-1.0233943684667348,-0.1481497946211137
1726225778915948800,1.20394873046875,3.3909365697562692,-2.013826378530264,0.17706042994810267
1726225778925984000,1.21398388671875,0.2576870595902204,0.8612158475637436,0.6737696144133806
1726225778936020000,1.22402001953125,-1.8875024303406476,1.5446820956051348,0.7347286716364324
1726225778946056000,1.234055908203125,-2.628990659239888,-0.6053647712290287,0.46056229600813237
1726225778956092000,1.244091796875,-2.4646938310086726,-2.595959911775589,0.734140058093518
1726225778966126800,1.254126953125,-1.8415362134575843,-1.313490244230628,0.26664788975697007
1726225778976162800,1.264162841796875,-1.512723361286521,1.2479320226490498,-0.057249352517537766
1726225778986198800,1.27419873046875,-0.9749404264211654,1.8572411475896835,0.15517448735982178
1726225778996234000,1.28423388671875,1.6077350563675163,1.3749918838977813,-0.30517770956158635
1726225779006270000,1.29427001953125,4.52172572953701,-1.1740098773479462,-0.7625155270978808
1726225779016306000,1.304305908203125,4.9527176842004055,-1.470950504440069,-0.8104705797106028
1726225779026342000,1.314341796875,0.308874810513854,0.702279085060954,0.12437215653471648
1726225779036376800,1.324376953125,-1.346799224114418,0.525581040418148,0.07744714108947665
1726225779046413000,1.3344130859375,-3.2051182300686833,-2.1737340318918226,-0.025990217835642395
1726225779056449000,1.344448974609375,-3.883914148211479,-3.3546599722385406,0.6503717146258801
1726225779066484000,1.35448388671875,-3.202675513091683,-1.845253772675991,0.0822345945617184
1726225779076520000,1.36452001953125,-1.331582365760207,-0.12125614340603351,-0.3191353251023218
1726225779086556000,1.374555908203125,1.744390428957343,0.2297550965696573,-0.021277546632662413
1726225779096591000,1.384591064453125,3.3488615150928496,-1.8282506154268978,-0.6770627376746385
1726225779106627000,1.394626953125,1.6348188781261443,0.3011450930446386,-0.38703167077526446
1726225779116663000,1.4046630859375,-1.6643495085150002,4.027203259727359,0.3805235309902578
1726225779126699000,1.414698974609375,-0.8816063091635703,0.9278419906377792,0.43116015083715314
1726225779136734000,1.42473388671875,-0.22722119417786596,-3.8238878417938946,0.39638884331583973
1726225779146770000,1.43477001953125,-3.1823119394987818,-1.2328560340702532,0.45059828014820813
1726225779156806000,1.444805908203125,-1.967465609371662,1.8059423375070094,0.628271161172539
1726225779166841000,1.454841064453125,1.3518734586387873,-0.0853764362514019,0.49767647686116395
1726225779176877000,1.464876953125,3.4197219347357746,-1.7076707638472317,0.4359175744973123
1726225779186913000,1.4749130859375,2.956765985056758,0.32675884225070473,0.4016732134595513
1726225779196949000,1.484948974609375,1.3622218341737984,1.5419769282996654,0.4064261801403016
1726225779206984000,1.49498388671875,1.7936030804157257,0.8842384112328291,0.2558203158702701
1726225779217020200,1.505020263671875,5.328085366797447,-0.7396119136333466,0.22795878773741424
1726225779227056000,1.51505615234375,3.7704146102815863,-0.4750970538496971,0.025187121291831135
1726225779237091000,1.525091064453125,2.276894546636939,1.6430208892822264,0.01126001048721373
1726225779247127000,1.535126953125,0.5058686242103576,-0.7729360910862684,0.4947316555809229
1726225779257163000,1.5451630859375,-1.8525649724721907,-1.5228601398974657,0.5444469227991998
1726225779267199000,1.555198974609375,-2.511562549689412,-1.1405711336046456,0.762396723023802
1726225779277234000,1.56523388671875,-2.6154841119349,-1.323009183204174,-0.06953669675849378
1726225779287270100,1.575270263671875,-1.2947481343597174,0.10285597884058952,-0.021751447754725813
1726225779297306000,1.58530615234375,0.3371691771060228,0.5020891056716442,-0.16430362329818307
1726225779307340800,1.5953408203125,2.3186393464326858,0.18767770381867885,-0.8314956128869205
1726225779317376800,1.605376708984375,4.007800640121102,0.2784761651188135,-0.5926468900837004
1726225779327412700,1.615412841796875,2.418815876930952,0.48185704950392244,-0.4874510701186955
1726225779337449000,1.625448974609375,1.6475813290655612,1.4991355654388665,-0.028952172913774846
1726225779347484000,1.63548388671875,-0.19961656341552733,-0.164282799705863,0.32908648148067293
1726225779357520000,1.645519775390625,-2.796087347322702,-0.19911036745905875,-0.042278029889613385
1726225779367555800,1.655555908203125,-3.5670968542605634,0.0067775313109159465,0.39916166903004047
1726225779377590800,1.6655908203125,-3.1385774271905422,-0.759700761938095,0.004913417939469218
1726225779387627000,1.675626953125,-2.7393238420933486,0.27428222056031226,-0.2911482343610376
1726225779397663000,1.6856630859375,-0.6869014831870794,1.1104010362684726,-0.041665231753513214
1726225779407699200,1.69569921875,2.3920190554201604,-0.839776753693819,0.35161570867486297
1726225779417734000,1.70573388671875,4.63968692305088,0.22945231423079965,0.37311924608312547
1726225779427769900,1.715769775390625,0.807692931690812,2.222262208217382,0.5923484916590154
1726225779437805800,1.725805908203125,-1.5840993292361496,2.414457097199559,-0.04542977191880345
1726225779447841000,1.735841064453125,-4.134274810436367,-0.5365162759304046,0.17323614068590104
1726225779457877000,1.745876953125,-6.010345161658525,-0.8039841403007507,0.3828037508819252
1726225779467913000,1.755912841796875,-5.642209183880686,-0.023405425506830214,-0.5059553526457399
1726225779477949000,1.765948974609375,-3.1416110957980155,-0.6139502287447453,-0.27752324830815195
1726225779487983900,1.77598388671875,0.21535306172966956,0.0543845011383295,-0.28493915058784186
1726225779498019800,1.786019775390625,2.7141478997826574,0.24667700527608394,-0.4493438961729407
1726225779508055800,1.796055908203125,3.3127193576097484,0.1646399425804615,-0.22377865250855683
1726225779518092000,1.806092041015625,1.8542016337633132,1.358509535652399,0.18114150698296724
1726225779528127000,1.816126953125,-0.5269207645893097,1.9912953977704047,0.23220051696039734
1726225779538163000,1.826162841796875,-0.8935995292961597,-1.1416758799761533,0.3550714751519263
1726225779548199000,1.836198974609375,-3.5729414886355397,-2.245313997980952,0.5385200169682502
1726225779558233900,1.84623388671875,-2.9968396367698906,0.8768237510621547,0.42673079008758064
1726225779568270000,1.85627001953125,-1.240757016453147,-0.1330991414129734,-0.3126492144860327
1726225779578306000,1.86630615234375,0.31383681683540343,-1.1869634669452904,-0.16513298679441213
1726225779588342000,1.876342041015625,0.0045662850022315975,0.32889819236695766,-0.24568799423873422
1726225779598377000,1.886376953125,-0.4160065669775009,3.797658006516099,-0.7184800590816884
1726225779608413000,1.896412841796875,3.012014409548044,2.76753812918663,-0.8773237364735453
1726225779618449000,1.906448974609375,4.042562156900764,-2.6065128699719904,-0.09815598445609211
1726225779628484000,1.916484130859375,0.786965200960636,-0.8574649705976247,-0.955401247888431
1726225779638520000,1.92652001953125,-0.8118149800568819,1.4335773438572883,-1.0221971215061842
1726225779648556000,1.93655615234375,-1.9702602085262535,-1.201621522372961,-0.215360149057582
1726225779658592000,1.946592041015625,-2.5060300500035284,-3.0661195092231033,-0.32650749783813954
1726225779668627000,1.956626953125,-1.4581255096584558,-1.9049159219563006,-0.40324455442950125
1726225779678663000,1.966662841796875,-0.5431821635603904,-0.20161153662502765,-0.2282178039997816
1726225779688699000,1.976698974609375,0.034922260299324985,0.35414719991385935,-0.34821664082109927
1726225779698734000,1.986734130859375,1.3451660699546337,1.2835054403334856,0.258907175969705
1726225779708770000,1.99677001953125,3.5082360844910143,0.6478513293027878,0.852568722988665
1726225779718806000,2.006805908203125,2.650349089089036,0.1770271304666996,1.11417989722006
1726225779728842000,2.016842041015625,0.6523579930722713,1.1845002917021512,0.841890823238343
1726225779738877200,2.026877197265625,0.10387421597242355,-0.30335400126576423,0.7143404019936919
1726225779748913200,2.0369130859375,-1.1430664575517178,-2.230485846683383,0.8774288773484528
1726225779758949000,2.04694921875,-1.951295980337262,-0.1413461607545614,0.5785330610679462
1726225779768985000,2.056985107421875,-0.7978115891456603,-0.7919096716254949,0.3973492493132129
1726225779779020000,2.06702001953125,0.5358434912353753,-2.2548586559176442,0.8209395128853618
1726225779789056000,2.077055908203125,-0.05508651192784309,0.5159475351542234,0.5799773781247437
1726225779799092000,2.087092041015625,0.9435632913827896,2.45279997959733,-0.22491759341061113
1726225779809127200,2.097127197265625,3.9380022967517374,-0.5532908851206302,0.5460387220352888
1726225779819163100,2.1071630859375,3.310042247354984,-1.104443589168787,0.3867787189275026
1726225779829199000,2.11719921875,0.2892553332865238,0.8218594042092561,-0.07259243106730282
1726225779839235000,2.127235107421875,-1.603437066912651,-0.2653302678197622,-0.10017769954204558
1726225779849270000,2.13727001953125,-3.2721459396809336,-2.6781454430311915,-0.14208433883599936
1726225779859306000,2.147305908203125,-3.045418666499853,-1.7947265314877032,-0.13777285057874394
1726225779869342200,2.15734228515625,-1.4680886852681636,-1.1463473789185286,-0.3215691646531224
1726225779879378200,2.167378173828125,-0.7638029365599155,-0.8354770106732845,0.21121616285433992
1726225779889412900,2.177412841796875,0.24421967525184152,1.1312871724307536,-0.0824796553639695
1726225779899449000,2.187448974609375,3.457635193544626,0.12685060241222382,0.10661067346530034
1726225779909485000,2.197485107421875,7.961509624570608,-0.3882353474766016,0.12540159091399983
1726225779919520000,2.20752001953125,3.635875791454315,1.434403857809305,-0.325704657022655
1726225779929556000,2.217555908203125,0.2501204237282276,2.1299124258220195,-0.225232924703788
1726225779939592000,2.227592041015625,-2.679347804558277,-0.44716976700425143,-0.7661585597753524
1726225779949628200,2.237628173828125,-5.124941798299551,-1.7863602696806191,-0.14245405806438066
1726225779959662800,2.247662841796875,-4.0089644232034685,-1.0751327390104533,-0.1807127784431912
1726225779969698800,2.25769873046875,-1.4596452665716408,-1.5306132382422686,-0.5306772675786167
1726225779979734800,2.26773486328125,0.7180196750283241,-0.6472334896653891,-0.4065942301835865
1726225779989771000,2.27777099609375,2.4480934093415736,1.1044441736906767,-0.4180387303922325
1726225779999806000,2.287805908203125,2.8306214850872755,-0.4425274941563606,-0.7794565058309585
1726225780009842000,2.297842041015625,1.6922633513569831,0.02601063956916332,-0.09034073499473742
1726225780019878000,2.3078779296875,0.9266846372961998,2.1135078189879652,0.886998158269748
1726225780029912800,2.317912841796875,-1.7522908268183468,1.261352060714364,0.9235073954995721
1726225780039949000,2.327948974609375,-2.173921078896522,0.4254162003576755,0.9692150345116853
1726225780049985000,2.337985107421875,-2.197006770929694,-0.3086971158593893,1.3884979928113519
1726225780060021000,2.34802099609375,-1.7295850740134715,0.7695756747424602,1.1600140121560543
1726225780070056000,2.358055908203125,-1.0732821427077055,1.5524562367379664,0.7888448772273957
1726225780080092000,2.368091796875,-0.5001233585566282,0.3497182775557041,1.1785258204024285
1726225780090128000,2.3781279296875,0.9727548990756273,-0.18084113579690456,0.5890983307566493
1726225780100163800,2.388163818359375,4.125936021158099,0.13930091866254807,-0.5651698312237858
1726225780110199000,2.398198974609375,3.94581209371984,1.7353244944483042,0.7686228309970349
1726225780120235000,2.408235107421875,-0.39704233878850936,3.0313784507095813,0.10327198489611036
1726225780130271000,2.41827099609375,-2.16346339776814,0.0007347440153360367,0.08125028709894977
1726225780140306000,2.428305908203125,-4.4225335339009755,-1.5651432843536137,1.2749157450340687
1726225780150342000,2.438341796875,-4.682580308359861,0.3214046217411756,0.01494903773088008
1726225780160377900,2.4483779296875,-2.7352842113137243,-0.6750456256985664,-0.10327902655825018
1726225780170414000,2.4584140625,-0.8627028712511062,-0.9812053320348262,-0.11941823305492288
1726225780180449000,2.468448974609375,1.9173177228897809,1.4485153852701187,-1.0062851204946637
1726225780190485000,2.478485107421875,3.541309502053261,0.676782824754715,-0.8762782460086047
1726225780200521000,2.48852099609375,4.417358761611581,0.03981646208167076,-0.8078839242182672
1726225780210557000,2.498556884765625,0.03657879533469677,1.2542512887984514,0.49432059056200084
1726225780220592000,2.508592041015625,-1.634421987763047,1.2870102335840463,0.6092534857632592
1726225780230628000,2.518628173828125,-3.3007050946891305,-1.7127216174960136,0.5807556324882432
1726225780240664000,2.5286640625,-3.90700100928843,-2.042746183544397,0.10922427176348865
1726225780250700000,2.538699951171875,-2.9851439382791516,-0.7431681448101997,-0.45774354879297313
1726225780260735000,2.54873486328125,-1.62768361941874,-0.9414332936167716,-0.4840395811747759
1726225780270771000,2.55877099609375,0.0800473501831293,1.2210890239089727,-0.2328175711465068
1726225780280807000,2.568806884765625,2.9742993036597967,1.4535551330029963,0.06978130090301855
1726225780290843100,2.578843017578125,4.296436380204558,-0.9009691812813282,-0.2774109470400959
1726225780300878000,2.588878173828125,6.278550692653655,-0.41388592156171794,-0.3654586483273655
1726225780310914000,2.5989140625,3.623772096684575,1.0202671763569116,0.11616302151810377
1726225780320950000,2.608949951171875,0.02663549346923828,0.7580225995928048,0.47359596510436386
1726225780330985000,2.61898486328125,-3.659912500602007,-2.2041133880645036,0.850022107245773
1726225780341021200,2.629021240234375,-5.555146401977539,-2.166087316530943,0.27734398275110866
1726225780351057200,2.63905712890625,-5.301021418783068,-0.9787012402594089,0.00998882150761783
1726225780361093000,2.649093017578125,-2.840402289867401,-1.3746557838112115,0.4470204581940546
1726225780371128000,2.659128173828125,0.15024141487181186,-1.0365379276782274,0.29456702982857824
1726225780381164000,2.6691640625,2.598777891805768,0.8242185345560312,0.7330704561006277
1726225780391200000,2.679199951171875,5.323839399790764,1.3185270693540572,1.395830089265108
1726225780401236000,2.689236083984375,4.359167853927612,0.8508855922073125,0.9321052010402083
1726225780411267800,2.699267822265625,2.85952083183527,1.3414321441233157,0.7014329896256327
1726225780421303800,2.7093037109375,0.4503787921786308,-0.3366659037590027,0.46029564442858095
1726225780431339800,2.71933984375,-2.4536089578926563,-1.980985016158223,0.2629770192245021
1726225780441375700,2.729375732421875,-3.6640421477526424,-1.9213696286290882,-0.20685827817209063
1726225780451410700,2.73941064453125,-3.5437422821581364,-2.2699013267487285,-0.07190258563961834
1726225780461446700,2.74944677734375,-2.145236251682043,-0.6575239975333214,0.11231807306036352
1726225780471483000,2.75948291015625,-0.06700608230233192,0.813785987868905,0.5214635586293414
1726225780481517800,2.769517822265625,3.412874845319986,-0.2649637725949287,0.47836332563664763
1726225780491553800,2.7795537109375,4.636370345848799,0.9467495202034711,0.25656309706158936
1726225780501589800,2.78958984375,2.7428742280513045,2.871258615902066,0.28434301132559775
1726225780511625700,2.799625732421875,1.2884312062978744,-0.030644729110598564,0.6165242439512163
1726225780521661000,2.809660888671875,-2.9423604430854318,-1.5048106884658337,0.4392474130397662
1726225780531697000,2.81969677734375,-3.632222529643774,0.3931798181414604,-0.17659060221295803
1726225780541732900,2.82973291015625,-2.9158634813040494,-0.676209993302822,-0.18509835484996437
1726225780551768800,2.839768798828125,-1.836288960453868,-1.8017267656385898,0.08772855233550071
1726225780561803800,2.8498037109375,-1.0864748017579315,0.4785252747327089,-0.02391582271438092
1726225780571839700,2.85983984375,3.3674516492724416,2.120211700540781,0.480116416381672
1726225780581875700,2.869875732421875,7.612392235517501,-0.3302466843664646,0.7537148193962872
1726225780591911700,2.87991162109375,5.033373521670699,1.119316748651862,0.6829786106549203
1726225780601947000,2.88994677734375,4.170065670263767,1.248487318444252,1.3878265232905744
1726225780611982800,2.89998291015625,-1.1198510016590357,-0.7137088260918856,1.4076277868255973
1726225780622018800,2.910018798828125,-5.428370033845305,-0.6904372560977935,0.9933489204235374
1726225780632054800,2.9200546875,-6.394320513603091,-0.9973562563687562,0.9944766092792153
1726225780642089700,2.93008984375,-5.659656577765941,0.18077976099848747,0.6905149975091218
1726225780652126000,2.9401259765625,-4.350262662938237,1.7069436186164617,-0.17014580998774617
1726225780662162000,2.950161865234375,1.1991899113118647,1.8079203595817088,-0.10742989916000514
1726225780672198000,2.960197998046875,4.7562458485513925,-2.216875254482031,-0.020594021347910163
1726225780682232800,2.97023291015625,2.7162287977099417,0.1538736338943243,-0.4330513714112341
1726225780692268800,2.980268798828125,1.1747189024001359,2.52178642206192,0.16562880748733877
1726225780702304800,2.9903046875,-0.38238662144839763,-0.2802835068017244,0.5680306274823844
1726225780712340700,3.0003408203125,-1.9757190584540365,-1.8208143279463052,0.3761924429833889
1726225780722376000,3.0103759765625,-3.0375510018646716,0.7257230890125036,0.5506869131673127
1726225780732412000,3.020411865234375,-3.243181711003184,0.6896592574626207,0.24121943398993462
1726225780742447900,3.03044775390625,-2.6443606623291966,0.4585048154890537,-0.39945984825901687
1726225780752483800,3.04048388671875,0.5334639026224612,0.45506490416824813,-0.2197542558306828
1726225780762518800,3.050518798828125,3.9460535012602804,-0.48298108509778975,-0.7924169635605066
1726225780772554800,3.0605546875,2.4097692316442725,0.9214701175183058,-2.405523849159479
1726225780782591000,3.070591064453125,1.785230388867855,1.8608979165315627,-1.248742754510045
1726225780792626000,3.0806259765625,-0.06453297018706798,-0.40456864264011383,-1.4507799692012369
1726225780802662000,3.090661865234375,-2.5626836651176212,-0.7666413748562335,-1.760446076223254
1726225780812697900,3.10069775390625,-4.311753191801905,-0.25320436121821405,-1.0001679527886211
1726225780822733800,3.11073388671875,-3.9891093836545943,-0.43719957713186736,-1.224342399681732
1726225780832769000,3.12076904296875,-2.3411095369160173,-0.12743980047702788,-1.2945641560949384
1726225780842805000,3.130804931640625,-0.10095160652399063,0.05152326648831367,-1.001108886900544
1726225780852841000,3.140841064453125,2.8752357028394937,-0.4586714042276144,-0.6543205983821302
1726225780862877000,3.150876953125,7.534263286176324,0.2336725622743368,-0.49320064662136137
1726225780872912000,3.160911865234375,4.669047457569837,1.8962316802412271,-0.4729142299178987
1726225780882947800,3.17094775390625,2.1649247024923564,1.99669404194355,-0.4279344667889178
1726225780892983800,3.18098388671875,-3.274141497412324,-0.9105050713896751,-0.42122137901633977
1726225780903020000,3.19102001953125,-6.186198572170734,-2.3901047462314366,0.04225296851359307
1726225780913055000,3.201054931640625,-6.848765824568272,-1.492168649035692,0.3222344966940582
1726225780923091000,3.211091064453125,-4.383513775154948,-1.4411673605948685,1.5404440196439624
1726225780933127000,3.221126953125,-0.7327186469882726,0.2113993556678295,0.8461783643644303
1726225780943163000,3.231162841796875,3.574056171879172,0.9602888007342815,0.684644790301472
1726225780953197800,3.24119775390625,8.23711403364539,0.29152853891551495,1.3840923051983118
1726225780963234000,3.251234130859375,5.572784934520721,0.49601533871591086,0.5971119066685437
1726225780973270000,3.26127001953125,3.004768676203489,1.4817290880858898,0.9518871022876352
1726225780983306000,3.271305908203125,-0.9688935474723577,-0.21019933222830295,1.0435661458145826
1726225780993340700,3.281340576171875,-2.286250988525152,-2.552488434317708,0.9996663599420338
1726225781003376600,3.291376708984375,-3.706538642698526,-2.2273545629203317,1.340924194601178
1726225781013412600,3.30141259765625,-2.6372984688580035,-0.5878636013299227,0.3960429890202358
1726225781023448800,3.31144873046875,-0.2709972075402737,-0.9422031089454889,0.0603272986581549
1726225781033483800,3.32148388671875,1.4997159956753252,-1.4571002582639454,0.6162295718535781
1726225781043519700,3.331519775390625,3.7938989462435244,0.36343174560964103,-0.1939873618895188
1726225781053555700,3.3415556640625,1.9058499879360198,1.1404571518361568,-0.34658666499909013
1726225781063591700,3.351591796875,1.1909054825693368,0.81299337618649,0.10574033863786607
1726225781073627000,3.361626953125,-1.2410966236710548,-0.6287678586483001,-0.6586966945745051
1726225781083662800,3.371662841796875,-2.1960978393912316,0.33708383691012855,0.17430428137406706
1726225781093698800,3.38169873046875,-2.805586412551999,-0.6694593499988317,0.11472151747290045
1726225781103734800,3.39173486328125,-1.6862720019876956,-1.2329863824516534,0.5248452004242689
1726225781113769700,3.401769775390625,0.08791033864319324,-0.02818915265202522,-0.08876501924376934
1726225781123805700,3.4118056640625,1.4605956991642712,-0.21004677201509475,0.40883828278332945
1726225781133841700,3.421841552734375,1.228669688296318,-0.02879354828596115,-0.5964128915537148
1726225781143877600,3.431877685546875,1.5253069485276936,0.06766600751578808,-0.622458821631968
1726225781153912800,3.441912841796875,0.07783259674310684,0.11661503960192203,-0.17272504935860633
1726225781163948800,3.45194873046875,-0.36781039908528324,0.9874211378097534,-0.7469668795060366
1726225781173984800,3.46198486328125,-0.08417232115864753,-0.8405231881469488,-0.2958342732854187
1726225781184020700,3.472020751953125,-0.060703767287731164,-0.28865619834959505,0.36491343553476036
1726225781194055700,3.4820556640625,-1.1117086117357016,1.2543459813445805,0.3469793541111052
1726225781204092000,3.492091796875,-2.7850211789071557,1.5112357530772684,0.4497577376708388
1726225781214127900,3.5021279296875,-0.2233732865780592,2.376226443004608,0.38582488880138843
1726225781224163800,3.512163818359375,2.775548417162895,-0.5976490822851658,0.24737538107009602
1726225781234198800,3.52219873046875,2.4431325720638037,-0.46001405100822446,-0.1739387725299224
1726225781244234800,3.53223486328125,1.2222042916744946,1.57811207152009,0.18011325991377233
1726225781254270700,3.542270751953125,-0.7648492307424545,-0.12578501900732517,-0.10608158982358873
1726225781264306700,3.552306640625,-2.3243168075472114,-1.549342488631606,-0.14774808195242659
1726225781274342000,3.562341796875,-3.5187960569500922,-0.24612287852466105,0.29364019730724394
1726225781284377900,3.5723779296875,-4.297373953315615,0.9959405443519354,0.457728935745731
1726225781294413800,3.582413818359375,-2.0873545560777185,1.727829170256853,-0.22606190460752695
1726225781304449800,3.59244970703125,3.0433646565794943,-0.3480927221804857,0.11138680182592943
1726225781314484700,3.602484619140625,5.5708980978608125,-1.0541641852617263,-0.5565596045929938
1726225781324520700,3.612520751953125,3.0683816089361904,1.944862147897482,-0.8007211199168115
1726225781334557000,3.622556884765625,0.3339022842645645,2.102137699189782,0.0324272286131978
1726225781344593000,3.632593017578125,-3.4844454590588807,-0.15587269875705242,-0.17623375159930438
1726225781354627800,3.6426279296875,-5.245371427753567,-1.4671002587527036,0.030586167323775587
1726225781364663800,3.652663818359375,-4.478332578012347,-2.2134324205517766,-0.14047330517647788
1726225781374699800,3.66269970703125,-3.644602118745446,-0.788546917194128,-0.6421572823796421
1726225781384735700,3.67273583984375,-0.5088514394134283,0.4417050718575716,-0.35262853897921737
1726225781394771000,3.68277099609375,3.1379297769367693,-2.000008281058073,0.027780535318516195
1726225781404807000,3.692806884765625,2.10305598307848,-0.3501473166227341,0.37756080872714515
1726225781414841900,3.702841796875,1.9137258358776568,2.540233348378539,0.7985827927138656
1726225781424877800,3.7128779296875,0.1384323191344738,0.47299745122194287,0.8266570868145674
1726225781434913000,3.7229130859375,-0.4715513440668583,-0.8239899864971637,0.3539281868683174
1726225781444949000,3.732948974609375,-0.6461608919978141,-0.2138753903925419,0.9898572789154946
1726225781454985000,3.74298486328125,-1.470917186692357,0.1323848556637764,1.0509393779963254
1726225781465021000,3.75302099609375,-1.122052895617485,1.0317933634996415,0.5282094892255962
1726225781475055900,3.763055908203125,0.8330997601479292,-0.9758049342960119,1.256743690136075
1726225781485091800,3.773091796875,2.9698662896484134,-1.3542542162954807,-0.23888954800395293
1726225781495127800,3.7831279296875,4.580297745493054,2.1108558431744573,-0.2707943419119343
1726225781505164000,3.7931640625,2.861215360793471,2.0155407812327146,1.8522998917952178
1726225781515199000,3.803198974609375,1.5081348644524812,-0.36411096004545684,0.817078745803982
1726225781525235000,3.81323486328125,-2.785611546015739,-0.0030541268736124037,1.3900781016096473
1726225781535271000,3.82327099609375,-4.622358187109231,0.5977899520605802,2.5853221979051826
1726225781545307000,3.833306884765625,-3.235347364115715,-1.353272804042697,0.7808726562391967
1726225781555342000,3.843342041015625,-2.0878367866367102,-1.8212252468347547,0.7381950325727462
1726225781565378000,3.8533779296875,0.1154004031151533,0.9788619837790727,1.278105334855616
1726225781575414000,3.8634140625,3.124767513024807,0.9649123688817024,0.24594209686396643
1726225781585450000,3.873449951171875,4.030858275103569,-0.6968488767057657,-0.1778122894950211
1726225781595485000,3.88348486328125,3.2052088309615847,0.21536650573313235,0.1832193909692578
1726225781605521000,3.89352099609375,0.5046867209494114,0.6793219878435135,0.30567610580408944
1726225781615556900,3.903556884765625,-2.248027933114767,0.526097757768631,0.6453516945067793
1726225781625592800,3.9135927734375,-2.604141464665532,-1.182159866055846,0.6684014384437352
1726225781635628000,3.9236279296875,-2.357449846342206,-1.5262708251237869,-0.1434327577702701
1726225781645664000,3.9336640625,-2.328269929087162,0.7019605206310748,-0.19889343677274882
1726225781655700000,3.943699951171875,-0.4645663074851036,2.386157469910383,-0.036422791922232134
1726225781665736000,3.95373583984375,5.033261877989768,0.17191022584438323,-0.6677835988063365
1726225781675772000,3.96377197265625,5.591275699979066,-0.5726847368985414,-0.0008700516996439546
1726225781685807000,3.97380712890625,4.15894514131248,1.013856140270829,0.45804348158761854
1726225781695843000,3.983843017578125,1.2762415868103503,1.136512213602662,0.6556989740632474
1726225781705879000,3.993879150390625,-1.3921002550870178,-0.32482816644907,0.9235815567143261
1726225781715915000,4.0039150390625,-3.217206727269292,-1.6695359712421893,0.9618491819187999
1726225781725950000,4.013949951171875,-4.565189608210325,-1.1993699440538883,0.43530426490455865
1726225781735986000,4.02398583984375,-3.04644976311326,1.1292962908744812,0.17501498692668974
1726225781746022000,4.03402197265625,3.9595243927299975,0.5935077446967363,-0.3833128694478422
1726225781756057900,4.044057861328125,2.363458731368184,-1.038884783065319,-0.10223759121391922
1726225781766093000,4.054093017578125,1.2440268319040537,1.374227913787961,0.8812098571918904
1726225781776129000,4.06412890625,-2.697156432971358,0.6679214729070663,2.390169335900247
1726225781786165000,4.0741650390625,-5.38688242368102,-0.44533261470496655,2.215540060355514
1726225781796201000,4.084200927734375,-2.3608225376456975,-2.2211703213274476,1.3440677533239125
1726225781806236000,4.09423583984375,0.2652776608496904,-1.9347873286068438,1.1867036469653247
1726225781816272100,4.104272216796875,0.5782756887733936,1.8540140022367237,0.8313804620746522
1726225781826308000,4.11430810546875,0.19536592023372648,3.5060511416673656,1.4544203715302049
1726225781836344000,4.124343994140625,2.905589340049028,0.7999895177066325,0.48063583714589475
1726225781846379000,4.13437890625,7.096820547938346,-0.6009101299077272,-1.2055199180509895
1726225781856415000,4.1444150390625,0.4604179556339979,2.5529291638225318,-0.5597179955586791
1726225781866451000,4.154450927734375,-1.1753279742091893,3.002823387354612,-0.7411345200907439
1726225781876487000,4.16448681640625,3.5598552125692366,-1.4671692323356866,-1.470120483356714
1726225781886522000,4.174522216796875,-8.109124198070168,-1.4194798449218273,-0.8703015096865594
1726225781896558000,4.18455810546875,-13.830587535929679,-0.1423842716306448,-0.033393991286121305
1726225781906594000,4.194593994140625,-10.326964498192071,-4.375176154920458,-0.5787056776884942
1726225781916630000,4.204630126953125,-1.7623025177448988,-2.331794011560082,-1.2387706649415193
1726225781926666000,4.214666015625,1.2187760707914828,-0.09063537969291209,-0.4391552777769044
1726225781936701200,4.224701171875,6.6870017296850675,-0.22890812435150146,0.1322945835644379
1726225781946737200,4.234737060546875,7.375853177896142,0.8371697860658168,-0.9098509913951158
1726225781956773000,4.244773193359375,1.8488930059611797,2.4853882439911366,0.6132830700729042
1726225781966809000,4.25480908203125,2.868000490888953,0.8021200999945401,-0.18548125322032719
1726225781976844000,4.264843994140625,-2.2984978911578655,-0.9125263480842113,-0.6894403540149331
1726225781986880000,4.2748798828125,-1.5096370857089758,0.5625982271701098,-0.546031853903085
1726225781996916000,4.284916015625,-1.4788853890925644,-0.617443916079402,-0.9197137023050338
1726225782006952000,4.294951904296875,0.2050771669089794,0.7732675149977206,-1.0567328667059541
1726225782016987100,4.304987060546875,5.75294568683803,0.3087187431693077,-1.2768161718279123
1726225782027023000,4.315023193359375,0.6383358974605798,1.0652157406300307,-0.5714395226104184
1726225782037059000,4.32505908203125,-2.9366338821321722,1.7208756978571413,-0.3053428369954228
1726225782047095000,4.335094970703125,-4.686094453960657,-1.8745073396891354,-0.3233080076770857
1726225782057130000,4.3451298828125,-9.15518457185328,-3.412127241823077,-0.01923942840117961
1726225782067166200,4.355166259765625,-3.877084594452381,-1.2235118671417236,0.150493416871503
1726225782077202200,4.3652021484375,-2.827597168830037,-2.19677237765193,1.0956702809307723
1726225782087238100,4.375238037109375,-0.5755068085819482,2.207055871257186,0.7540951970160007
1726225782097273000,4.385273193359375,8.8047280431509,1.2982757239639757,0.10595843836795538
1726225782107309000,4.39530908203125,8.427991410288215,-0.5067027369469403,-0.13735055177975444
1726225782117345000,4.405344970703125,8.166872038161754,2.581436296382546,-0.09280552680622786
1726225782127381000,4.415381103515625,6.628217532283068,3.2295553367108103,0.2924087558161467
1726225782137417000,4.4254169921875,-0.30756957313418387,-0.040727731707692144,0.2916316339638084
1726225782147452000,4.435451904296875,-9.514412436032295,0.3618517829418182,0.626925445652008
1726225782157488000,4.445488037109375,-13.11009650235176,-0.6911585561096668,1.5763836402922868
1726225782167524000,4.455524169921875,-15.505689324605465,-3.4461937620759007,0.9290146876789629
1726225782177560000,4.46556005859375,-3.7337224177002906,-3.780840727227926,0.15790358353015035
1726225782187595000,4.475594970703125,7.543391180005669,-2.1420897703498603,-1.9273592244327067
1726225782197631000,4.485630859375,8.720288010966778,-0.47366965139508244,-0.5568933665920048
1726225782207667200,4.495667236328125,10.287414578092097,4.714733103945851,-2.2375722978129984
1726225782217703200,4.505703125,9.389719888436794,5.664597541299462,-1.1664512786619365
1726225782227737900,4.51573779296875,11.336589284503459,-2.4906010102033616,1.140800339250639
1726225782237773800,4.52577392578125,-4.167055967053771,-4.2234219973981375,1.5656852822758256
1726225782247809800,4.535809814453125,-11.968518237531184,1.1259195079177617,-1.379261524040997
1726225782257845800,4.545845703125,-8.458262629911303,-1.7443787385195493,-0.9973195776201784
1726225782267881000,4.555880859375,1.2191256148815155,-5.285355063095689,0.3496613597366959
1726225782277917000,4.5659169921875,-0.09411386945843696,-4.177624122819304,0.3830800836052745
1726225782287953000,4.575952880859375,-1.2135083595216274,4.431258107626438,0.7747208556111902
1726225782297988900,4.58598876953125,1.972570239034295,4.850282561120391,-1.8305059931382537
1726225782308024800,4.59602490234375,3.442114383807778,-3.028040830719471,-1.974670426183939
1726225782318060000,4.60606005859375,-0.7824924394607543,-2.736071562299132,-0.4483676715519279
1726225782328096000,4.616095947265625,-4.3167374099552625,5.43388149074316,-1.9667573149718343
1726225782338132000,4.626132080078125,-2.3177339220255613,3.9541269176006315,-0.4878643270947039
1726225782348168000,4.63616796875,-1.5283318493068216,-2.606720959764719,0.45127040725611145
1726225782358203000,4.646202880859375,4.8984442422211165,-3.7387913915276525,-1.127274721919
1726225782368238800,4.65623876953125,0.5697264716148376,1.7828461240798235,-0.7945202194500715
1726225782378274800,4.66627490234375,5.0268882513046265,4.028219743293524,-0.7109322009854018
1726225782388310800,4.676310791015625,4.921951374536753,-2.432983518493175,0.07689180876165629
1726225782398346000,4.686345947265625,-3.669975629454851,-0.4356272132486105,0.33774463890641926
1726225782408386000,4.696385986328125,-5.320543280854821,4.8508664984881875,0.11092537659294903
1726225782418422000,4.706422119140625,-1.982331754592061,0.6856348242521285,1.6426858121089636
1726225782428458000,4.7164580078125,-4.582900036945939,-2.853091675570607,1.4131518109440804
1726225782438494000,4.726493896484375,-2.6350065585285423,-0.13043138350844383,-0.09739142982438206
1726225782448529000,4.73652880859375,1.3548182799190283,3.784441966590285,-0.2383028524234891
1726225782458565000,4.746565185546875,-1.6930583011269569,2.611459094202518,-0.4434839180983603
1726225782468601000,4.75660107421875,5.889136949047446,-2.038155348622799,-2.154111632055044
1726225782478637000,4.766636962890625,0.6608487580418586,-3.9728959154784675,-1.81790545476228
1726225782488672000,4.776672119140625,-1.3619266506195067,0.9937819050133228,0.6848848826676607
1726225782498708000,4.7867080078125,0.8938286618769168,-1.0842746613651513,0.9271122150585055
1726225782508744000,4.796743896484375,-4.4455964295804495,-1.0920306823194026,1.0471542334344237
1726225782518780000,4.80677978515625,-4.085355004444718,3.617065292522311,1.3025631920248268
1726225782528815000,4.816815185546875,0.5421428836405277,0.35472704562842844,-2.00300658609122
1726225782538851000,4.82685107421875,0.5819575921565294,-3.030169659441709,-1.1961739975567907
1726225782548887000,4.836886962890625,-4.461405408608913,2.7149796744316816,-0.3881296220798045
1726225782558923000,4.846923095703125,-3.9520898588150737,5.692167685270309,-1.3091063300579786
1726225782568959000,4.856958984375,2.6407535777479407,-3.517072886419296,0.021198855373263357
1726225782578994000,4.866993896484375,10.538246949481964,-7.881053693586588,-0.9639757456187158
1726225782589030100,4.877030029296875,4.197209697777033,4.492845087489486,-1.288965459305048
1726225782599066000,4.887066162109375,-3.321386648190021,11.463823333275318,1.1013746300522238
1726225782609102000,4.89710205078125,-0.8766489790171385,0.1670581096380949,-0.7947518362488597
1726225782619137000,4.907136962890625,0.01968903533220291,-5.613497468659282,-0.15562668810673058
1726225782629173000,4.917173095703125,-3.0820278569728132,-4.126431695720553,0.8923097817465663
1726225782639209000,4.927208984375,-2.1148001968860624,4.498661664813756,-0.8475326285175979
1726225782649245000,4.937244873046875,-0.8422679859876632,3.852703017389774,1.0463268426995724
1726225782659280100,4.947280029296875,8.41080120603442,-4.505526874408126,0.7979848268207163
1726225782669316000,4.957316162109375,3.9319823058098553,-4.567442355573177,-0.808801258258894
1726225782679352000,4.96735205078125,-7.206464579483867,6.709495885565876,0.5349953499734401
1726225782689388000,4.977387939453125,-9.320804173120855,5.002698981943726,0.3390291257590055
1726225782699424000,4.987424072265625,-4.052382124647498,-4.526712870299816,1.4101172655537724
1726225782709459000,4.997458984375,1.8242495630919933,-6.519003124326467,0.24713227476291358
1726225782719495200,5.0074951171875,-0.5894114152938127,5.009001881480216,-2.2327745421424505
1726225782729531100,5.01753125,5.918719601884484,3.0435376750588414,0.2896354186452925
1726225782739567000,5.027567138671875,9.63198784509897,-4.246884121528268,1.6711426757864654
1726225782749602000,5.03760205078125,0.9653706340432167,-0.736224024760723,-0.8649913475144654
1726225782759638000,5.047637939453125,-2.3198130663871765,7.988630855730175,-1.7750896647341547
1726225782769674000,5.057674072265625,-3.7662136514604088,-0.1318926882326603,-1.2186168616417794
1726225782779710000,5.0677099609375,-4.6889428291290995,-7.3348986516952515,0.28806488139294084
1726225782789746000,5.077745849609375,-4.801497779685259,-0.9766156661570071,0.18820150849707423
1726225782799781000,5.087781005859375,1.5042694211959837,2.3523750272959467,-1.6526853742063043
1726225782809817000,5.097817138671875,0.3477016770362854,-2.253303827691078,-1.6310498809814453
1726225782819853000,5.10785302734375,6.265668999248743,-5.191142409437894,0.5801764078281819
1726225782829889000,5.117888916015625,2.3929010989516972,2.8282600166529415,-1.1024707547258585
1726225782839924200,5.12792431640625,4.484005947473645,7.232693245717883,0.6325131826564669
1726225782849960200,5.137960205078125,1.555148544561863,-1.4538520701229571,0.9725092537514864
1726225782859996200,5.14799609375,-1.832206075054407,-2.8454069662868977,0.4651720182932913
1726225782870032100,5.1580322265625,-4.435535638815164,3.5033845528066156,1.1699030265510082
1726225782880067000,5.168067138671875,-4.512952055972814,-0.8966589168667792,0.24741006879098712
1726225782890103000,5.17810302734375,-4.120236348211765,-8.126042599645256,-1.9376909410938619
1726225782900139000,5.188138916015625,-3.156835552936792,-4.259213441747427,-0.8181101346783339
1726225782910175000,5.198175048828125,-3.8096202469885347,5.828519690999388,-0.4589119349852204
1726225782920211200,5.208211181640625,0.15303309141695498,4.430224672925472,0.3134212948370725
1726225782930246100,5.21824609375,2.247850822982192,-2.222729241207242,1.0068415853336452
1726225782940282000,5.2282822265625,0.414581502610445,-0.22061200517117976,-1.1965448036305606
1726225782950318000,5.238318115234375,1.8788772253364323,5.746784241598844,-1.3355677821345626
1726225782960354000,5.24835400390625,4.6213545630246395,-1.956702807816863,1.7249729040428996
1726225782970389000,5.258388916015625,1.5102525872588157,-6.066870766478776,-0.767312844377011
1726225782980425000,5.268425048828125,-5.509924281460046,3.5293490151464937,-0.4863200933273881
1726225782990461200,5.278461181640625,-1.6754869886010884,8.520058284088968,-0.27224063173010943
1726225783000497200,5.2884970703125,2.9938223347753286,-1.8226415433734655,-0.7023274542473256
1726225783010533000,5.298533203125,3.157223675471544,-6.206004511880875,-1.3616712145537138
1726225783020567800,5.30856787109375,-4.371267457044125,-0.1362011990815401,0.23034349091686307
1726225783030603800,5.318603759765625,-3.4466245547086,3.80254227142632,-1.1142683792211114
1726225783040640000,5.328639892578125,4.746850828218459,-1.471025323241949,0.4317376584641635
1726225783050676200,5.33867626953125,1.6757067688316105,-1.1221101787626742,0.018687164813280106
1726225783060711000,5.3487109375,-2.8979128140717743,3.890062733969092,-1.3836289254702627
1726225783070747000,5.358746826171875,-6.155894034799933,5.691646876266598,-1.2513960454978048
1726225783080782800,5.368782958984375,-2.067189719927311,-2.7442817567616697,-0.4898471714749932
1726225783090818800,5.37881884765625,0.2069248406022787,-5.691605375212431,-0.8488540863797068
1726225783100855000,5.38885498046875,-2.0836177076369524,0.016969254979491234,-1.114532290854305
1726225783110890000,5.398889892578125,0.8797188879817723,0.562517563149333,-2.342296408613026
1726225783120926000,5.408926025390625,2.4124796596467495,-0.2916203088521957,-1.1239631131529808
1726225783130962000,5.4189619140625,2.030416863325238,0.7161340074121951,0.19954569013640283
1726225783140998000,5.428997802734375,1.141422781997919,1.9560352838188408,-1.4573264682352542
1726225783151032800,5.43903271484375,0.8581348326832056,-1.6410586492985486,-0.23375001142472027
1726225783161068800,5.44906884765625,-2.958839284199476,2.6607044788867236,-0.9172020848102868
1726225783171105000,5.45910498046875,3.06241480948627,1.2217372586846351,-0.07117043544016778
1726225783181141000,5.46914111328125,2.104098185607791,-4.77758498917818,-1.141329477691278
1726225783191177000,5.479177001953125,-1.8851596666067838,-1.711467818042636,-0.9848193578135221
1726225783201212000,5.4892119140625,-2.2098048777043817,1.8700299020141362,0.6079510613951832
1726225783211247900,5.499247802734375,4.803270634576678,0.9850485634595155,0.09680405839048326
1726225783221283800,5.509283935546875,9.529088611638546,-1.4759306309401987,0.316956848552078
1726225783231319800,5.51931982421875,3.49298766195476,-0.7612292866796254,1.42710259488523
1726225783241355000,5.52935498046875,0.18413374760150908,5.210235232442617,0.9698715256590396
1726225783251391000,5.539390869140625,-1.2427514051407575,-0.6773994953483343,0.11272621546983719
1726225783261427000,5.549427001953125,-7.11337596141994,-6.677191698810458,0.016198343672230837
1726225783271463000,5.559462890625,-10.58538279466629,-3.1820722855240104,-0.789895409193635
1726225783281499000,5.569498779296875,-7.4440961085170505,1.9077701423436402,-0.10121274167820811
1726225783291533800,5.579533935546875,-3.987317239540815,1.4335785129010676,-0.23641082813180983
1726225783301570000,5.589570068359375,7.445469150435924,-4.8084220259904855,0.07867752313464879
1726225783311606000,5.59960595703125,7.873505762425064,-2.755986223080754,-0.3908263868831098
1726225783321642000,5.60964208984375,6.503844133639335,6.7928691653013225,-1.012147801982984
1726225783331678000,5.619677978515625,5.358748800608516,6.523210512888431,-0.5617250975973904
1726225783341713000,5.629712890625,7.533031698554754,-4.299377694353461,-0.08129640039615332
1726225783351748900,5.639748779296875,-2.847157609346509,-3.04232771474719,1.3025761976368724
1726225783361784800,5.649784912109375,-9.060396164134144,3.516432834950089,1.3561824078790843
1726225783371820800,5.65982080078125,-14.074293416440486,0.25193536419570445,0.1427805774718523
1726225783381856000,5.66985595703125,-4.837719432145357,-3.011897505170107,1.3059705162502824
1726225783391892000,5.67989208984375,3.0271383289217946,-5.753008230680227,1.498052738638222
1726225783401928000,5.689927978515625,9.208595259523392,0.8881436019778252,-0.3510441923972219
1726225783411960000,5.6999599609375,6.074347970491647,2.8614982693880795,-0.41686888289526103
1726225783421995300,5.709995361328125,9.09293006799221,1.547443961533904,-1.2507055790156125
1726225783432031200,5.72003125,5.340677137345075,-0.7638251483917236,-1.6546096202671527
1726225783442067200,5.730067138671875,-9.30016645876169,3.9660611010223623,-0.12801263192892073
1726225783452103200,5.740103271484375,-13.452538651424646,2.021819715371728,-0.3049074777854606
1726225783462139100,5.75013916015625,-10.026332030844689,-2.478117376205325,0.6995009986497461
1726225783472174000,5.760174072265625,1.1006418587982654,-4.376280901291966,2.3464658032521606
1726225783482210000,5.7702099609375,0.33962475356459615,-0.25916122379601,0.143224083455652
1726225783492246300,5.780246337890625,2.622230079063773,2.7376129465222356,0.6820752320744097
1726225783502282200,5.7902822265625,4.744416879069805,0.1456821441322565,1.693097171832621
1726225783512318200,5.800318115234375,4.383448893225193,2.1936749961584807,1.2785413881853223
1726225783522353200,5.810353271484375,3.267328894788027,1.1515636522620916,4.9111809741973875
1726225783532389000,5.82038916015625,-3.6133331202566623,0.15479834752380847,3.6790240283071993
1726225783542425000,5.830425048828125,-10.120507859623432,2.105712635067105,0.6099583826296031
1726225783552461000,5.8404609375,-7.919279087084531,0.12131810272634029,1.2769934280909596
1726225783562496300,5.850496337890625,-7.726618334156274,-4.6932279591023915,1.856244976159185
1726225783572532200,5.8605322265625,-2.827755574262142,-2.6635645444929597,-0.5913609419263899
1726225783582568200,5.870568115234375,5.024707984656096,1.8697779730796813,0.3766516579929739
1726225783592604200,5.880604248046875,12.062272041505574,-0.5169856460303068,-0.4625572692176327
1726225783602640100,5.89064013671875,11.084018545013665,-1.2271902633935212,-0.02126937930922722
1726225783612675000,5.900675048828125,8.948192511233687,1.6788433132916687,-0.19918204445578155
1726225783622711300,5.910711181640625,-1.2504606643438338,5.429420419681072,-1.6538827672973275
1726225783632747300,5.920747314453125,-5.753409212696552,3.264398686555028,-0.5588969614993781
1726225783642783200,5.930783203125,-10.134029019975662,-2.371742575588822,1.2495374120190739
1726225783652818000,5.94081787109375,-6.708194739839434,-1.6151666676729917,-2.2097033170260487
1726225783662854100,5.950854248046875,-4.014534916812181,0.9373118297725915,-1.7496745068401096
1726225783672890000,5.96089013671875,0.7372732415527105,0.9116361212462186,-1.6883593296557664
1726225783682926000,5.970926025390625,8.611294552284479,-5.214068526995182,0.9880681304764002
1726225783692962000,5.980962158203125,4.955902159455419,-2.303011569190025,2.6418486795082687
1726225783702997000,5.9909970703125,-3.982852076825499,6.211537596088648,1.9238593996182083
1726225783713033000,6.001032958984375,-0.02432663200497627,2.9549533826768397,2.918533285035193
1726225783723069200,6.011069091796875,2.5867683050602674,-4.511832112032175,2.135876887184381
1726225783733105200,6.021105224609375,-2.6512574361056087,-0.03612637539207935,0.6824549521069974
1726225783743141000,6.03114111328125,-4.3745787735491986,5.787573348104954,0.3400338823547587
1726225783753176000,6.041176025390625,-1.3585831854104995,-2.318856788575649,-0.1899151257482357
1726225783763212000,6.0512119140625,-0.5386433510869741,-9.37346375016272,0.03267127106871921
1726225783773248300,6.061248291015625,-0.03350596376061439,-4.768728898027539,-0.5597602272652089
1726225783783284200,6.0712841796875,-5.089035787659883,5.954885140243173,-2.3175744936801492
1726225783793319000,6.08131884765625,6.203511526021361,2.4551310528934,-0.3169796814383939
1726225783803355000,6.09135498046875,10.819182198190688,-4.290939536353945,0.8334295766241848
1726225783813390800,6.101390869140625,4.5686002934366465,2.326749587652087,1.283686495988816
1726225783823427000,6.111427001953125,-0.9325134895801543,5.48071104645729,0.8708613355264068
1726225783833463300,6.12146337890625,7.368103002160787,-0.002861234650015831,-0.5005413647729903
1726225783843498000,6.131498046875,2.01877552537024,-3.576518178078532,2.2112635520800947
1726225783853534000,6.141533935546875,-5.961997602596878,-2.6231547926932572,1.176068125052005
1726225783863570000,6.15156982421875,-7.1991884510010475,1.7774872273951767,-1.3314685301221907
1726225783873606000,6.16160595703125,-3.7389275851279495,-4.2572874421209095,1.0718871081527321
1726225783883642000,6.17164208984375,-3.621035949718952,-3.9209313349634405,-1.5509937629699706
1726225783893677000,6.181677001953125,-0.487684148222208,-0.62363926358819,0.12797586184879764
1726225783903713000,6.191713134765625,1.8442887270361183,4.901728086197376,1.119247117481753
1726225783913749000,6.2017490234375,5.874509873279929,3.1246354110777377,-1.1206677248694001
1726225783923785000,6.211784912109375,5.099100085556507,-0.1442576642870903,0.8361756604619324
1726225783933820000,6.22181982421875,-0.9878566066175699,-0.44160687218010425,1.3489197233997285
1726225783943856000,6.231856201171875,-6.520854889672994,4.51989734506607,-1.029144018034637
1726225783953892000,6.24189208984375,-6.92486005321145,-0.5445856006175279,-0.26627171338833866
1726225783963928000,6.251927978515625,-1.8270652050346134,-4.212272826874256,0.30544494566302743
1726225783973964000,6.261964111328125,0.5712935748010873,-2.474667528012395,-0.8454301032803953
1726225783983999000,6.2719990234375,1.8980723396718502,4.268825319701433,0.6008715514630079
1726225783994035000,6.282034912109375,3.595478314614296,5.36099570275247,-1.0792299451962113
1726225784004071000,6.29207080078125,8.55112679156959,-0.3186936092168093,-0.4073205716967582
1726225784014107000,6.30210693359375,-1.7495616941154002,-0.8671154269963502,2.4689614253252743
1726225784024143000,6.31214306640625,-6.767926447224617,4.4303941842734815,0.5266603235548362
1726225784034178000,6.322177978515625,1.8199860604286193,-2.2748867139458655,-0.3019085882304236
1726225784044214000,6.332214111328125,-3.4481706151068208,-1.2056845340281723,1.2376669414833188
1726225784054250000,6.34225,-2.3087889835476876,-1.1694634660899639,-1.174784076590836
1726225784064286000,6.352285888671875,-2.897277438777685,-2.45106570315063,0.07057210422083735
1726225784074321200,6.362321044921875,-4.932619483545422,-1.008007998764515,-0.6159074272271245
1726225784084357000,6.372357177734375,-3.227146522003412,1.2230629543304443,-0.41989126292373985
1726225784094393000,6.38239306640625,-0.9948884049504995,1.6271511199772357,0.8445062664337456
1726225784104429000,6.392428955078125,2.073243028616905,1.456685247722268,0.8982963818755
1726225784114465000,6.402465087890625,2.2682681725889444,2.47262462400794,-0.40999311537425964
1726225784124500000,6.4125,7.155862519493699,3.0736165869802234,1.1003473328310995
1726225784134536000,6.422535888671875,1.2117325820207596,-2.048975433322787,0.25714370996113867
1726225784144572000,6.432572021484375,-4.0540766536057,0.7009539739370345,-1.6091276797696947
1726225784154608000,6.442608154296875,-5.5103287706077095,-1.0892834294378757,1.5534022854164242
1726225784164644000,6.45264404296875,1.027607017725706,-4.683784423452615,2.5412545081198212
1726225784174679000,6.462678955078125,-0.5838058503717184,-3.146182641497254,1.4157330596089361
1726225784184715000,6.472715087890625,3.0239030002623797,2.3504431824505327,0.2751566653072834
1726225784194751000,6.4827509765625,0.15405717376768588,3.378195746126771,-1.1007358206920326
1726225784204787000,6.492786865234375,1.3242992230147121,0.11393442221581936,-0.17105589230367912
1726225784214822100,6.502822265625,-2.849917721709609,-3.218802472028136,0.9635822162564843
1726225784224858000,6.512858154296875,-8.563988611230254,2.4725474671185017,0.16364430087292567
1726225784234894000,6.52289404296875,-4.029321567055582,2.190236838403344,0.7347783559970558
1726225784244930000,6.532929931640625,3.6157998026311398,-4.654851174435019,2.0784011420324444
1726225784254966000,6.542966064453125,4.202233078896999,-3.0449481263786553,1.4229710480384528
1726225784265001000,6.5530009765625,4.228111031997203,5.029666483846307,1.4433284841515124
1726225784275037000,6.563036865234375,2.840649542626738,5.8138598820060485,0.5999672230344265
1726225784285073200,6.5730732421875,4.320366706368327,-5.269746575075388,1.21045182149522
1726225784295109000,6.583109130859375,-6.414350909718871,-1.143886541762948,-0.25732107582204045
1726225784305145000,6.59314501953125,-13.352897542977333,6.4143345431059595,-0.7209202187754213
1726225784315180000,6.603179931640625,-2.66731308337152,-2.3041332666963337,0.10786478344593196
1726225784325216000,6.613216064453125,1.7284516860693693,-9.452891507142782,0.7581891883313655
1726225784335252000,6.623251953125,8.707537250465155,-0.3802776664704084,1.4953526858992874
1726225784345288000,6.633287841796875,3.968652286559343,6.868560073840618,1.014767921353504
1726225784355324000,6.643323974609375,5.037631179115176,6.961572119536996,-0.4845472019033506
1726225784365359000,6.653359130859375,6.226762053227424,-5.801335915997624,-1.1251247042782604
1726225784375395000,6.66339501953125,-0.048860184758901595,-5.076725172141194,-1.5694111709311604
1726225784385431000,6.67343115234375,-9.334065221232175,2.044583335843682,0.037927899255556986
1726225784395467000,6.683467041015625,-4.943288761597872,-0.012900982627272605,0.9400795409202575
1726225784405502200,6.693502197265625,3.7199680331140756,-5.776897055789828,-0.669502093162015
1726225784415538200,6.7035380859375,2.390164367464185,1.1021563550144433,-3.501625434179604
1726225784425574100,6.71357421875,2.216898635357618,6.571500788804888,-0.2904007587282918
1726225784435610000,6.723610107421875,3.2447342011421916,2.24514974732995,1.7413650897867976
1726225784445646000,6.73364599609375,6.102647597780823,-2.3483967713147402,-0.948118105142936
1726225784455681000,6.743680908203125,-4.377510735347867,-1.3256605744957923,1.9008844744831324
1726225784465717000,6.753717041015625,-12.594628859668969,2.5707997515559193,0.7080781997937708
1726225784475753000,6.7637529296875,-6.594057488527894,-1.6916770759016275,-1.1804880603861063
1726225784485789200,6.7737890625,4.746992867037654,-4.411376764592528,0.2580073227868415
1726225784495825200,6.7838251953125,2.7385090185791254,-1.5071552057653665,-2.7021798140913247
1726225784505860000,6.793860107421875,1.53109546880126,4.6485091119319195,-1.4597908125221728
1726225784515896000,6.80389599609375,3.9294589248120784,3.464084223553538,0.9356844477664679
1726225784525932000,6.81393212890625,2.307390807187557,-2.579436062476039,-1.1707228915665298
1726225784535968000,6.823968017578125,-6.177485688883066,-3.1561639372855423,0.7348112353533506
1726225784546004000,6.83400390625,-7.942024002856016,0.8641296891838312,0.8445830579970032
1726225784556039200,6.8440390625,-3.9688141991227863,0.9204156400293111,0.02249398235087283
1726225784566075100,6.8540751953125,-2.658673849841952,-0.916959946617484,1.7793118124738334
1726225784576111000,6.864111083984375,-4.105151591804623,-0.020927052694559096,0.6028001814380288
1726225784586147000,6.87414697265625,2.512476157402992,0.6118418582886457,-0.23503464440777896
1726225784596182000,6.88418212890625,2.3640134426414967,1.9195166942387818,-0.48513154112994666
1726225784606218000,6.894218017578125,7.142977903479338,1.8513228634566068,2.4565023412466047
1726225784616254200,6.904254150390625,5.7086278216838835,-2.5263509534984827,2.9708491632059215
1726225784626290200,6.914290283203125,-4.333792005130649,1.496715644815564,1.7923165477365255
1726225784636326100,6.924326171875,-14.4897891112864,3.03664031676054,3.4874870187118647
1726225784646361000,6.934361083984375,-13.652519956499336,-4.029477049878239,3.582241524161398
1726225784656397000,6.94439697265625,-1.0701952826082706,-5.3419005416601895,0.3709041273169219
1726225784666433000,6.95443310546875,5.552648155421018,0.7754647327810525,-0.9801058463603257
1726225784676469000,6.964468994140625,5.882018056952953,7.74831520217955,-1.861260904625058
1726225784686505000,6.9745048828125,10.181155512809752,0.3816232358604669,-0.07701358111095614
1726225784696540200,6.9845400390625,6.331981254068016,0.4510585911363363,-1.40273168534711
1726225784706576100,6.994576171875,-0.5646843857944012,2.038188081848621,1.201064619142562
1726225784716612000,7.004612060546875,-3.502802369004488,0.6534416966557502,1.828919892990589
1726225784726648000,7.01464794921875,-5.339563623145223,-0.8699754926025867,2.026525554975122
1726225784736684000,7.02468408203125,-2.963371082410216,2.5116402911007403,0.3708744262984022
1726225784746719200,7.03471923828125,-1.8093980309188364,1.728717059007287,-1.9087503855526446
1726225784756755200,7.044755126953125,1.2993342931061982,-2.0398656596720217,-1.5445957324959336
1726225784766791200,7.054791259765625,1.7276923921346663,-0.7565151176393031,-0.1770626584378071
1726225784776827100,7.0648271484375,0.9257429725319146,1.332308341947198,0.01356563881477341
1726225784786863000,7.074863037109375,0.919259455731511,-1.088887708118558,-0.13668465348323805
1726225784796898000,7.08489794921875,0.7531482715547084,-3.2840415446579456,0.6590814561083912
1726225784806934000,7.09493408203125,0.6340607043594122,3.238161252492666,0.731883876664564
1726225784816970000,7.104969970703125,-1.9342033912390468,7.658402876064181,1.6302216134637593
1726225784827006200,7.115006103515625,1.9690034864634274,0.08356149578392505,1.2907710474222898
1726225784837042200,7.125042236328125,0.7831266457110643,-5.960497134906054,1.5961305432915687
1726225784847077000,7.1350771484375,1.1616343798995017,-0.5488906043350696,-0.8099024974990635
1726225784857113000,7.145113037109375,-0.21258710414767265,1.6610943061113357,1.0041928243905305
1726225784867149000,7.155149169921875,-2.8893460612565276,-3.3180700709879396,0.9237227918159217
1726225784877185000,7.16518505859375,-1.1973135960459709,-2.707537541732192,-1.700989970909059
1726225784887220200,7.17522021484375,0.955431423830986,1.1446277155190705,0.28560408076997845
1726225784897256200,7.185256103515625,6.434226407533884,1.7339456073105335,0.7101346939321607
1726225784907292200,7.195292236328125,5.176126626613736,0.3638911798149347,0.18429434499070046
1726225784917328100,7.205328125,6.036313715651631,0.8772901995301247,-0.0985328732107766
1726225784927364000,7.215364013671875,0.458140658351779,-0.4234580520272255,1.6256674572907388
1726225784937399000,7.22539892578125,-10.475983677792549,1.4153905297815799,3.217510386390984
1726225784947435300,7.235435302734375,-5.49423220680952,-1.006683472162485,0.8996483079411088
1726225784957471200,7.24547119140625,1.3299252462029456,-4.12248383487761,-1.6754145078867673
1726225784967507200,7.255507080078125,-2.822428826281428,-2.294060200971365,-1.3889387223161755
1726225784977543200,7.265543212890625,-1.9282868606716392,1.5194114607483147,-0.5143515346670523
1726225784987578000,7.275578125,2.2923002055615185,2.2432114727437495,0.609711933587864
1726225784997614000,7.285614013671875,4.600095501896739,0.8809417077749967,1.321584118837118
1726225785007650000,7.295650146484375,-2.7039655284643174,1.3668062393546103,1.4003905290484429
1726225785017686000,7.30568603515625,-0.7151222000211477,0.6206622936040163,-0.5328551230743527
1726225785027722200,7.31572216796875,-7.345106741976737,1.6150637918204067,0.5931021230379119
1726225785037757200,7.325757080078125,-5.566106187409162,0.4481342281222343,0.3484775933122262
1726225785047793200,7.335793212890625,-5.185038247343898,-4.398481627184152,0.3205501238036901
1726225785057829000,7.3458291015625,0.6589642594695091,-1.8324159184128046,1.4078553119711577
1726225785067865000,7.355864990234375,6.388524979066848,1.179786122661829,-0.3459498649328947
1726225785077901000,7.365901123046875,3.4121026919037103,1.9045809909135103,1.069651969511807
1726225785087936300,7.375936279296875,6.684837245127558,1.6808026306658983,0.2261891842490062
1726225785097972200,7.38597216796875,3.511138820195198,0.19546470443308353,-0.09687138800565152
1726225785108008200,7.39600830078125,-3.2163042254716157,2.738804202133417,0.5611114957436919
1726225785118044200,7.406044189453125,-7.101610704824328,0.044052492216229436,0.8763451737649738
1726225785128080100,7.416080078125,-8.046910610741376,-2.1949510074436662,1.7611786282815038
1726225785138115000,7.426114990234375,-4.333731214854121,1.1664116773039102,1.3018037519596517
1726225785148151000,7.436151123046875,5.222264108410477,2.700899711152911,0.15407123882565646
1726225785158187300,7.446187255859375,8.70808611651957,-0.794024471822381,0.5550873035507277
1726225785168223200,7.45622314453125,14.954554156213998,1.1518354549407959,-0.6478834049414843
1726225785178259200,7.46625927734375,8.038284236693382,3.1691677957653996,1.1246292489115148
1726225785188294100,7.476294189453125,-4.549201765483618,3.871940801823139,1.1046046980146318
1726225785198330000,7.486330078125,-12.487339866816997,-0.09428981054723262,1.3744919715516268
1726225785208366000,7.496365966796875,-13.930370098674297,-3.8000621450483796,1.2313856692567466
1726225785218402000,7.506402099609375,-11.843835042285919,-1.7110305956691503,-0.47346908732168375
1726225785228438000,7.51643798828125,-8.579629832476376,-0.8137374725520611,1.2483916029848157
1726225785238473200,7.52647314453125,1.3068921611398459,-0.870092396980524,0.3522768029320985
1726225785248509200,7.53650927734375,7.416782569655775,-0.6983481753528118,-1.0018104592986403
1726225785258545200,7.546545166015625,8.032603852969407,1.4603659820616244,0.19118224134091286
1726225785268581000,7.5565810546875,7.5052154708683485,1.0929431209892033,0.18308016516165806
1726225785278617000,7.5666171875,4.852418988627195,1.9053163194507359,-0.06346415364546701
1726225785288652300,7.57665234375,0.7849977002799511,0.5771195044755936,-1.298218294688314
1726225785298688300,7.586688232421875,-5.801507180911302,0.1574631828188896,-1.2655734778016805
1726225785308724200,7.59672412109375,-11.159586703956126,-1.0330009857237339,0.06737570106601343
1726225785318760200,7.60676025390625,-5.82141015125513,-2.626554956525564,-0.41835462794099
1726225785328796200,7.616796142578125,-0.6062561671108007,-2.9512293937176466,-1.6881097388088702
1726225785338831000,7.6268310546875,5.511514180999994,-0.8086193988859653,0.4187070581078529
1726225785348867000,7.6368671875,6.52157209803164,-2.361799273723364,-0.36685503458920865
1726225785358903300,7.6469033203125,3.5528386118054387,-0.01583645155727863,0.20376867812629787
1726225785368939300,7.656939208984375,-0.05211129550933838,4.154871023741364,-1.9962217482566833
1726225785378975200,7.666975341796875,-3.868220319995284,-0.6825450415432452,-1.1465247813120483
1726225785389010200,7.67701025390625,-3.6585932346969843,-5.521258160901069,0.5962495542181655
1726225785399046100,7.687046142578125,-3.509415649664402,0.12138941439688206,0.6618554508663713
1726225785409082000,7.69708203125,1.1433820993721484,2.997807020497322,1.3694561693415046
1726225785419118300,7.707118408203125,4.115084372276067,-2.052294933134317,1.6371538969449697
1726225785429154300,7.717154296875,5.465355656415224,-2.4255308643996716,-0.7392875039845704
1726225785439189500,7.727189453125,2.447667292883992,2.3616712634295225,-0.08806921899933368
1726225785449225500,7.7372255859375,0.7883481797516345,3.689263682770729,-1.6016873006358743
1726225785459261400,7.747261474609375,-0.22856442548036573,-1.3861036450207234,-1.3333144502498209
1726225785469297400,7.75729736328125,-5.169531466132402,0.2627414203703403,1.0570175288662313
1726225785479333400,7.76733349609375,-1.5762217277288435,6.183212834358215,-1.0329981361795215
1726225785489368300,7.777368408203125,-3.656044134736061,2.9427281073540446,0.33885713019296526
1726225785499404500,7.787404541015625,-1.1523171009778976,-2.1049609399169684,0.9470410504959523
1726225785509440500,7.7974404296875,4.714413370472193,-4.152843901827931,-1.0507751273453234
1726225785519476500,7.8074765625,4.363723033013939,-3.696995738327503,1.4195891505151985
1726225785529512400,7.817512451171875,4.019989090564847,0.6375748499602079,-0.7476860606260597
1726225785539547400,7.82754736328125,4.621043012857437,-1.0976362472414969,-0.15247169467452912
1726225785549583400,7.837583251953125,-0.2398644026517868,-1.0144657966017723,-0.1742340839483775
1726225785559619300,7.847619384765625,-7.320331197160482,3.299753493052721,-1.2882830299988388
1726225785569655300,7.8576552734375,-11.157990959197281,0.2963222029328346,0.3952413537811488
1726225785579691500,7.86769140625,-4.8350721325069665,-1.3076444408118724,-0.09713577456288039
1726225785589726500,7.8777265625,-0.9916063145399093,-3.2348388300716877,0.10002508452991023
1726225785599762400,7.887762451171875,3.583876139625907,1.2894979587465525,0.5028703922424466
1726225785609798400,7.89779833984375,5.615205441620946,2.058293296766281,-0.9696244190301746
1726225785619834400,7.90783447265625,7.740571456184983,1.5729875681132077,-0.6789891026273369
1726225785629870300,7.917870361328125,3.663757485592365,-1.0019926839977502,0.15451547546181826
1726225785639905500,7.927905517578125,-3.4899025554209944,3.4327731394886967,0.5227716090206056
1726225785649941500,7.93794140625,-8.138542015734314,2.615501063069701,-0.07121211915742605
1726225785659977500,7.9479775390625,-4.593557624560594,-3.619176585587859,1.3343760881319642
1726225785670013400,7.958013427734375,-7.598328638851642,-5.109584070169926,2.9143615523085
1726225785680049400,7.96804931640625,-0.17095920872986314,3.1079917347908017,1.61841485581398
1726225785690084400,7.97808447265625,6.093353115212917,0.4900888712763786,0.1901718952545896
1726225785700120600,7.98812060546875,4.4240398468106985,-3.9678357094794507,0.48205162222795184
1726225785710156500,7.998156494140625,2.2762778760433195,0.27756840262413024,-0.07096395308263599
1726225785720192500,8.008192626953125,0.5257610731601715,7.816898909062147,-0.6986039767447859
1726225785730228500,8.018228515625,0.9019085079580544,3.4214106184750794,0.8019282306842506
1726225785740263400,8.028263427734375,1.2312363239139317,-2.4571762949854135,0.4608805316444486
1726225785750299400,8.03829931640625,-2.561535079604387,-1.131278989124298,-0.5729254868518561
1726225785760335400,8.04833544921875,-6.519978691360354,5.71702681671679,-1.776968171957135
1726225785770371300,8.058371337890625,-4.605330479940772,1.874478113594651,-0.13417685364708304
1726225785780407600,8.068407470703125,-4.505692294102907,-4.346370916196704,-0.8999572277598082
1726225785790443500,8.078443603515625,3.883074774777889,-4.151166324004531,-1.862802434978634
1726225785800478500,8.088478515625,6.894458485206961,3.6324604300528764,-1.3546065368644893
1726225785810514400,8.098514404296875,4.641602401283383,3.41732539498806,0.4920120944239199
1726225785820550400,8.10855029296875,5.204474769219756,-2.436135845044255,1.4493337159156798
1726225785830586400,8.11858642578125,0.5182435371369123,-1.8429975181818008,0.21970289096962659
1726225785840622300,8.128622314453125,-11.34777937155962,5.488930593270063,0.990023063936457
1726225785850657500,8.138657470703125,-9.075735772085189,2.0458038175493476,1.3640531412541865
1726225785860693500,8.148693603515625,-3.1462562912553547,-6.010185587182641,1.1728680138364433
1726225785870729500,8.1587294921875,2.3925240823328493,-3.329511502456665,-1.3256522450588644
1726225785880765400,8.168765380859375,0.42902270041704177,0.3704886783838272,-0.7029380604263394
1726225785890801400,8.178801513671875,5.735048795619607,1.5280816739380358,-1.2194326350040734
1726225785900836400,8.18883642578125,5.9156537845730774,-0.08366261807084083,-1.3655077239766715
1726225785910872600,8.19887255859375,2.2883751410722732,1.1336544860839843,0.6527599980019032
1726225785920908500,8.208908447265625,-2.108852102136612,1.8114409349232912,1.4171717141099274
1726225785930944500,8.218944580078125,-5.413555911073089,0.42669513425230976,1.0708712821736932
1726225785940980500,8.22898046875,-1.9993115309655665,-0.35777298919558526,2.3212634113259614
1726225785951015400,8.239015380859374,-1.1082307064920662,-2.726922041159868,1.3185903438486157
1726225785961051400,8.249051513671875,4.794239186859131,-4.152276331073045,0.2909492411902174
1726225785971087400,8.25908740234375,-0.8121627705812454,0.030247254225611683,1.4151293946273624
1726225785981123300,8.269123291015624,1.8526538197994231,2.337596560359001,0.5503690793897956
1726225785991159600,8.27915966796875,1.314538291978836,-3.6976492338001727,-1.1184686804551631
1726225786001194500,8.289194580078124,-2.492768417370319,-3.5094296781897545,1.344954765291512
1726225786011230500,8.29923046875,-6.503744180396199,4.56139430758059,0.866604847125709
1726225786021266400,8.309266357421874,0.8546084121227264,1.5243717135041952,-0.7636261186882853
1726225786031302400,8.319302490234374,0.012241641935706139,-1.0592857660591601,1.0837385086618363
1726225786041338400,8.32933837890625,-0.23435411479771137,-2.027856072926521,1.9005368300892411
1726225786051373600,8.33937353515625,0.6803530844569206,1.7919266716361044,-0.021092472389340398
1726225786061409500,8.349409423828124,0.062162149402499194,3.487402555298805,1.6172630554303526
1726225786071445500,8.359445556640624,0.065638885602355,-1.0529086322426795,2.343304124350846
1726225786081481500,8.3694814453125,0.8357569966584444,-5.5491924620091915,0.15131960202995687
1726225786091517400,8.379517333984374,0.43412791460156436,-0.9281453574985266,0.387496621405892
1726225786101552400,8.389552490234376,3.387628760382533,2.311419332051277,1.7251323323883114
1726225786111588400,8.39958837890625,-1.7599375421792267,0.14445990886092186,1.4698590559415519
1726225786121624600,8.40962451171875,0.8928010723948478,3.0997452999711035,1.949158968308568
1726225786131660500,8.41966064453125,2.4679934570759534,-0.17106968336701392,-0.23587617326583712
1726225786141696500,8.429696533203124,-0.8432078971862792,0.8201403253316879,-1.0656710831820964
1726225786151731500,8.4397314453125,-2.236948320695758,2.125990868464112,-0.08989124679472296
1726225786161767400,8.449767333984376,2.714967399471998,-3.13945771715641,-2.0252783313930034
1726225786171803400,8.459803466796876,0.013094459372758865,-1.9667729509323835,-2.0404101418122647
1726225786181839400,8.46983935546875,-7.865334146407246,2.0485347038179635,0.6555928833402693
1726225786191875600,8.47987548828125,-1.4194167165577412,1.190727787914872,-0.999786698386073
1726225786201911600,8.48991162109375,1.7257283985853193,1.4893348869144916,-0.9151539201088249
1726225786211946500,8.499946533203126,6.851402602812647,-0.9014175095707178,0.31735527328513563
1726225786221982500,8.509982421875,2.9492583859056234,1.1323042405188084,0.3252354686083272
1726225786232018400,8.520018310546876,1.4522779526740313,4.456488410472869,1.023568044533208
1726225786242054400,8.530054443359376,-3.017055326324701,1.4943927548259497,-0.638169600982964
1726225786252090400,8.54009033203125,-6.094342126250266,-3.9772085179805754,-0.053685120697319504
1726225786262125600,8.55012548828125,-3.473053127428889,-2.057445155504346,-0.13180932079814373
1726225786272161500,8.56016162109375,2.037031897550821,3.7499458227485416,-1.7095675373792647
1726225786282197500,8.570197509765626,3.02052621730566,3.1582021651148793,0.058793257491290565
1726225786292233500,8.5802333984375,-0.18138415663242338,-2.9064988561093807,-0.08137067120876162
1726225786302269400,8.59026953125,3.6227228798925872,-2.2889099786013363,-1.0477307912133633
1726225786312304400,8.600304443359375,-2.0240321307241915,3.551125962668657,0.3600027210090309
1726225786322340600,8.610340576171875,-7.1753627542555325,2.266856552225351,0.19175452480353414
1726225786332376600,8.62037646484375,-1.855911944812536,-6.6828679908812045,0.47534072641246017
1726225786342412500,8.63041259765625,-5.042325474411249,-0.6636766749441624,1.74323044526726
1726225786352448500,8.640448486328125,-2.286937217223644,2.2095149548470974,-0.9792335205052047
1726225786362483500,8.6504833984375,-2.3886200606316326,-2.1666367671072484,0.2393527998678386
1726225786372519400,8.66051953125,5.510875883096456,-3.7429134398937225,0.22436310133300721
1726225786382555400,8.670555419921875,7.66996764165163,2.6346932547956703,-2.818320806440711
1726225786392591400,8.68059130859375,0.7155880639672278,4.871203768596053,-0.7358233350053429
1726225786402627600,8.690627685546875,-2.570000710132718,-0.7395213127404451,-1.259141983449459
1726225786412664000,8.7006640625,-3.4983412979423996,-3.357603624475002,-0.8352979277793318
1726225786422698800,8.71069873046875,-6.603815496954321,0.32702012353539467,0.11336297900341451
1726225786432734700,8.720734619140625,-6.313193551489711,0.618102087727189,0.5452919953212142
1726225786442770700,8.730770751953125,-2.843606638866663,-5.27731437998116,1.0919186733122914
1726225786452806700,8.740806640625,0.05657704274654388,-0.5147749842435121,-0.3677190675400197
1726225786462843000,8.7508427734375,6.087991880440712,2.553383337330818,-1.0290800859529525
1726225786472877800,8.7608779296875,11.01306577091217,-0.6570166325330734,0.7166373538244515
1726225786482913800,8.770913818359375,4.567583809870481,1.232925592175126,0.5013084036227315
1726225786492949800,8.78094970703125,-0.8182838838100432,3.87413977317214,0.048495296969264745
1726225786502985700,8.79098583984375,-5.148011708241701,-1.2125421448379754,-0.13611311893928796
1726225786513022000,8.80102197265625,-5.920263324195147,-2.812331795158982,0.41126737309377637
1726225786523056600,8.811056640625,-0.952232920050621,-0.06038111120462417,-1.5408637063607573
1726225786533092900,8.8210927734375,2.6007085676074024,4.343535400509834,-1.017241398794949
1726225786543128800,8.83112890625,7.272171269625425,2.6258488540828226,-0.5990559534084051
1726225786553164800,8.841164794921875,9.647529113101958,-1.8547662819087505,1.2943531436927616
1726225786563200800,8.85120068359375,9.789554488292335,1.120577562367916,1.3631183446221053
1726225786573235700,8.861235595703125,-2.2998913913428782,4.263472852757573,0.34483434143904595
1726225786583271700,8.871271728515625,-10.053018962240218,1.9532827702403068,0.7896702221356332
1726225786593307600,8.8813076171875,-6.183093591892719,-1.7024030525773763,1.2155049401663243
1726225786603343600,8.891343505859375,-0.693892364987731,-3.672825173667073,0.5488540351843461
1726225786613379800,8.9013798828125,0.7894482499480246,-0.06245733295679092,-0.6119455378588289
1726225786623416000,8.911416015625,4.52562273697555,1.9281717098593711,-1.284049045690894
1726225786633450800,8.92145068359375,11.664973682129382,0.15239362446963786,-0.7879784696564078
1726225786643486700,8.93148681640625,1.247124213397503,-2.3421347883105277,-0.8049583921603858
1726225786653522700,8.941522705078125,-8.413477731767296,2.930058010873198,-1.1255017208971083
1726225786663558700,8.95155859375,-12.02667699651122,-0.7164356207072734,-0.33781938464306294
1726225786673594600,8.9615947265625,-7.152641219359636,-3.076592387920618,0.6861651317365467
1726225786683629800,8.9716298828125,-4.67055260143578,-3.212570299640298,-0.5876502873728051
1726225786693665800,8.981665771484375,-2.491340430393815,2.989499795401096,-1.5465136949464677
1726225786703701800,8.99170166015625,7.669629203477501,1.8489982199013233,-0.42461646481473
1726225786713737700,9.00173779296875,4.803167174202203,-1.603515392845869,1.4129757237248122
1726225786723773700,9.011773681640625,0.6973030502140521,3.435557217249274,-0.37646230943333353
1726225786733808600,9.02180859375,-3.280745425722003,2.631767138215899,0.15317111164815722
1726225786743844900,9.031844970703125,0.17115268547534943,-4.884833650019765,-0.31799704178739335
1726225786753880800,9.041880859375,-5.5890340585321185,-4.390888103315234,-0.24085169665608552
1726225786763916800,9.051916748046875,-5.963342587465047,2.2398341052651403,0.2774495254848152
1726225786773952800,9.061952880859375,-3.220512198555469,2.918896565389633,-1.0489185396932066
1726225786783988700,9.07198876953125,4.173139670881628,-2.0688801572322846,-0.2867777276592329
1726225786794023700,9.082023681640624,3.895626213315129,-5.148606167003512,1.8541290069185197
1726225786804059600,9.0920595703125,-3.58094183973968,2.990661824917793,1.0080567332770676
1726225786814095600,9.102095703125,-5.326925090846419,5.636995833146572,0.617314663676545
1726225786824131800,9.1121318359375,2.204990755420923,-3.9630116503238675,-1.5112544577777385
1726225786834167800,9.122167724609374,-2.5416765329241753,-5.205899249064922,-0.8242439612582325
1726225786844202800,9.13220263671875,-1.8975526997119188,3.0061814656108616,-0.8775041345417499
1726225786854238700,9.14223876953125,-3.6552146981745954,7.720171057713031,-0.7674848399430513
1726225786864274700,9.152274658203124,3.532136600038409,3.0858383551716804,-1.2499022998087108
1726225786874310700,9.162310546875,9.08946093057692,-0.6689420481264591,-0.2191656788203865
1726225786884346600,9.1723466796875,7.311784318089485,1.1563555627137423,0.9672775636430829
1726225786894381800,9.1823818359375,0.6172159525424241,-0.31865795338153835,2.3045798414200545
1726225786904417800,9.192417724609374,4.685831419110298,-1.9007307452261446,0.8929461799539625
1726225786914453800,9.202453857421874,2.368369299763441,-4.5641538354218,0.8618130097392946
1726225786924489700,9.21248974609375,-6.741986534804106,3.809875098532438,0.7823019583899528
1726225786934525700,9.222525634765624,-10.304712918895483,6.7481719454407685,1.0554626275744288
1726225786944561700,9.232561767578124,-8.86857244655192,0.3080693393498659,0.41511100637726484
1726225786954596900,9.242596923828126,-1.0279027858018874,-3.656805182236433,-0.6603914427284151
1726225786964632800,9.2526328125,3.4283868872284886,-6.072787297046184,-0.5910985646631568
1726225786974668800,9.262668701171876,5.255422866168618,-1.4332447509020567,-0.21195048674456773
1726225786984704800,9.272704833984376,13.272294312477111,-2.4880484031111,-2.096119461813569
1726225786994740700,9.28274072265625,11.454709467971325,1.792317132258415,0.4935876001123339
1726225787004775700,9.292775634765626,0.7786229045510291,9.86412954454422,1.7899506953880189
1726225787014811600,9.302811767578126,-2.0940368103206155,8.39388689611256,1.5164157860636711
1726225787024848000,9.312847900390626,-5.456003306180238,-4.281384941545128,1.756883269175142
1726225787034883800,9.3228837890625,-7.831734659144282,-7.331746325144171,0.44129850035067647
1726225787044919800,9.332919921875,-10.553760160434246,-3.6119951496511695,0.03590922551006079
1726225787054955800,9.342955810546876,-4.858471712794899,1.3446756560891866,-0.07047562157642095
1726225787064990700,9.35299072265625,3.217829243081808,-3.98160119998157,-1.2883058263525367
1726225787075026700,9.363026611328126,4.589833051079512,-5.224692796862125,-0.8787807303488254
1726225787085062700,9.373062744140626,-1.5677029057085514,3.2513708626776934,-0.727807859397307
1726225787095098600,9.3830986328125,3.220232797092199,4.526785935536027,2.3209946773871777
1726225787105134800,9.393134765625,6.386058881214261,-4.236068128481507,1.4142968893259762
1726225787115169800,9.403169677734375,-1.4443956749916076,-3.0859611047685145,1.751013061967492
1726225787125205800,9.413205810546875,-1.7274141597151755,3.898890183547139,-0.2955904545921832
1726225787135241700,9.42324169921875,-0.3067839757144451,1.1213321801275014,-0.15726243608240037
1726225787145277700,9.433277587890625,3.140804455590248,-3.5699861459612845,-0.0436066846774891
1726225787155313700,9.443313720703125,3.3785452902168034,-4.155162700164317,-0.6361658599451184
1726225787165348900,9.453348876953125,-7.052421434241533,6.035868894493579,-0.16637147908080369
1726225787175384800,9.463384765625,-2.83630128428936,5.676286225527525,2.138035672653466
1726225787185420800,9.4734208984375,3.1129590018093585,-6.622256578052044,3.6966216443181037
1726225787195456800,9.483456787109375,-3.8976147567838426,-4.395254481831192,1.8974473396413027
1726225787205492700,9.49349267578125,-0.6320265681833028,5.318043280732631,2.183709628591686
1726225787215528700,9.50352880859375,1.0956208157658576,7.45386872999072,0.6956460767872631
1726225787225563600,9.513563720703125,4.8382010781824585,1.3571417544305324,-0.08207903867382556
1726225787235600000,9.523599853515625,1.1165870314270256,-0.3184948717743158,-0.40785913555286823
1726225787245635800,9.5336357421875,2.004305101469159,0.2873386860102415,-1.396925921677798
1726225787255671800,9.543671875,-2.124281141936779,0.7998375420153141,-1.7108359498798846
1726225787265707800,9.553707763671875,-2.029353618007898,-3.1959453280538317,-0.8001917622804642
1726225787275742700,9.56374267578125,-3.3692344410359856,-4.575871745744347,0.67972004725039
1726225787285778700,9.57377880859375,-7.965489049595594,1.7014812615573405,-1.1321816370524465
1726225787295814700,9.583814697265625,-7.322844056764245,6.5834098377853625,-1.2063428518064319
1726225787305850600,9.5938505859375,-0.9414040675222873,2.052535756152868,0.4682860221279785
1726225787315886800,9.603886962890625,0.9515075283855199,-0.0634299773812294,1.0018059292539954
1726225787325922800,9.6139228515625,10.49446392185688,-1.9434049348264932,-0.2921521872391924
1726225787335957800,9.623957763671875,5.494727881371975,-1.2646750676572323,-0.2968218595506623
1726225787345993700,9.63399365234375,-1.9768086072564124,1.5906927361518144,-0.4504449527500197
1726225787356029700,9.64402978515625,-3.4597470711320635,0.3814367733776569,0.3528263265736401
1726225787366065700,9.654065673828125,-2.865015922120213,-2.4609879622280597,-2.320916059193015
1726225787376101600,9.6641015625,-6.95481212388277,-1.817284400254488,-0.0006652955083176494
1726225787386136800,9.67413671875,-5.6375236564129585,1.1967097849339245,-0.867597073033452
1726225787396172800,9.6841728515625,-3.314567031303048,-0.8004933755755425,-2.9050559638246893
1726225787406208800,9.694208740234375,7.096876077517867,-7.78476014200151,-0.25358941501304505
1726225787416243700,9.70424365234375,1.440625508803129,-0.07429156313538551,0.2315244443297386
1726225787426279700,9.71427978515625,1.9958646053820848,7.35614251525402,1.354654321528971
1726225787436315000,9.72431494140625,1.0881102940052747,3.0313498091369864,2.24457223970294
1726225787446350800,9.734350830078125,9.129437551656364,-2.680337984639406,-0.9959719624035059
1726225787456386800,9.74438671875,2.2507214099824426,-1.6130091973781584,1.9436919350743294
1726225787466422800,9.7544228515625,-9.53693114183247,6.667272946864366,1.916854050900787
1726225787476458800,9.764458740234375,-7.4922876002341505,2.326733221039176,-2.029710176360607
1726225787486494700,9.77449462890625,0.505606758403778,-10.428494781386851,0.6158256672278046
1726225787496530000,9.784530029296874,-2.7021821521788834,-8.157368881279229,0.2868562727881595
1726225787506566000,9.79456591796875,-1.0087281297326087,5.441293228304386,-1.3699340159863234
1726225787516601900,9.804601806640624,-0.1876186671078205,6.5771139525115485,-0.0023072540290653702
1726225787526637800,9.814637939453124,9.363441537842155,-0.2549959208101034,0.8189051575135439
1726225787536673800,9.824673828125,13.716833730977774,-2.8997125569701194,0.7212579262971878
1726225787546708700,9.834708740234374,1.704137913545966,6.321449923181533,2.5496687007218597
1726225787556744700,9.84474462890625,-8.802054440027474,8.423056291973591,0.6134045775607228
1726225787566781000,9.854781005859374,-0.31138299394249913,-5.127426016330719,-0.04350621997769922
1726225787576817000,9.86481689453125,2.5381845991551875,-8.898312920299173,0.10357150669880211
1726225787586852900,9.874852783203124,-5.086866626927256,1.9114374326795338,-1.1519636844303458
1726225787596888800,9.884888916015624,-6.9171642380118366,3.4983430515080687,-0.7136237781569361
1726225787606923800,9.894923828125,1.6591700600504875,-2.472396660470962,-0.7256970047231763
1726225787616959700,9.904959716796874,14.253431839972734,-3.3518232875078913,-2.0726488621160386
1726225787626995700,9.91499560546875,12.253504222935437,6.955247008168697,-0.844421510759741
1726225787637031700,9.92503173828125,1.0513438671439885,8.905245349910855,0.014376863866113126
1726225787647068000,9.93506787109375,-5.3020016619920725,-0.7188374211519957,0.0073275298764929175
1726225787657102800,9.945102783203126,-11.492959411388634,-7.254657240244746,-0.9815110369831324
1726225787667138800,9.955138916015626,-16.063713667988775,-2.2879823423624037,-1.4910989739775657
1726225787677174800,9.9651748046875,-3.729562959933281,-2.5074954463809727,-1.852226095906645
1726225787687210800,9.975210693359376,4.380493550550938,-8.226006364175676,-0.021139562934078274
1726225787697246700,9.985246826171876,0.9048311174064874,0.5875748475164174,1.1254675263665617
1726225787707282700,9.99528271484375,2.1076292823433875,5.643274767285585,0.17057357041314244
1726225787717318000,10.00531787109375,3.757291509336233,1.01378015242517,0.18975279305968432
1726225787727353900,10.015353759765626,-2.81293326818347,-2.40119546456635,-0.10234835811201483
1726225787737389800,10.025389892578126,-7.429560802686214,-0.5424532647639513,-0.3644863692291081
1726225787747425800,10.03542578125,-4.103045559436082,2.459116323137283,-1.6282247405581176
1726225787757461800,10.045461669921876,-1.7037451148360967,1.3453764978349207,-0.8056680017344653
1726225787767496700,10.05549658203125,4.751664365980028,-3.229621972206235,0.6155747612066567
1726225787777533000,10.065532958984376,8.122914238491655,-0.9710375737637281,1.8561622663117945
1726225787787569000,10.07556884765625,5.228498034363985,5.656446383547783,0.6368665555603802
1726225787797604900,10.08560498046875,-0.4560170903265476,4.1819565990656615,2.520124626329541
1726225787807640800,10.095640869140626,-6.622453561928868,-1.103067040118575,1.920873223414272
1726225787817676800,10.1056767578125,-7.834515229773521,-4.0889661806792015,0.9382511564493179
1726225787827711700,10.115711669921875,-5.72519434108138,3.093831107491255,-0.5135503012867644
1726225787837747700,10.125747802734375,-0.4813333178907633,4.68614413832128,0.375678867438063
1726225787847783700,10.13578369140625,6.5377294521063565,-0.46173605249524113,-0.025399047009460628
1726225787857820000,10.14581982421875,9.791238495856524,-4.028663395407795,-0.8264977315343915
1726225787867856000,10.15585595703125,2.2336849349856376,4.449809078839421,-0.7146499063342809
1726225787877891800,10.165891845703126,-6.2497366861015555,5.642945096939802,-0.5900681987021118
1726225787887926800,10.1759267578125,-4.756495439398289,-0.5676449891656636,0.4953018566843122
1726225787897962800,10.185962646484375,3.904125161591172,-4.98551520743072,0.17978801001477984
1726225787907998700,10.195998779296875,-0.8448246847331523,0.5025865337997675,-1.8587910073801874
1726225787918034700,10.20603466796875,-6.722762778896093,7.197119243511557,-0.8909529603101313
1726225787928070700,10.216070556640625,-2.7702017954379317,1.4564584532290696,0.20413846128676086
1726225787938105900,10.22610595703125,4.808692075103521,0.16807517772614955,-0.19189733080770818
1726225787948141800,10.236141845703125,3.417546928784251,1.1662731456160544,-0.23973971682619302
1726225787958177800,10.246177734375,4.158093492919206,0.21126608467698096,-0.406400680372864
1726225787968213800,10.2562138671875,4.698952766489982,-3.1292285840868947,0.32619835882373155
1726225787978249700,10.266249755859375,1.059912373524904,-5.53388324919641,1.267762220017612
1726225787988285700,10.27628564453125,-8.93173763551712,1.0142483544588088,1.5035586425781249
1726225787998321000,10.28632080078125,-9.174076903849839,4.398628926700353,0.5147253729481249
1726225788008356900,10.29635693359375,-2.6860738979429004,-0.18365677773952482,1.3071440900743008
1726225788018392800,10.306392822265625,2.77421512273252,-6.9567270175933835,0.22423750219196079
1726225788028428800,10.3164287109375,3.6769793707370755,-0.9740057759195566,-1.237410920895636
1726225788038464800,10.32646484375,1.1040531285464763,4.377164113867282,0.0235025657383725
1726225788048500700,10.336500732421875,6.038463002640008,-0.6098901396989822,0.4740758575757965
1726225788058536000,10.346535888671875,-0.6263210500180721,-5.203231491160392,2.532234166318178
1726225788068572000,10.356572021484375,-7.216345922029018,-1.1469055973231792,2.0889920941516755
1726225788078608000,10.36660791015625,-4.970674781173467,1.6539444343566894,-0.0017420578943565487
1726225788088643800,10.376643798828125,-2.0073609819084406,-0.5035276140421628,2.555643975739181
1726225788098679800,10.3866796875,-1.1852964105159043,-3.825781692716479,1.1296534337490796
1726225788108714800,10.39671484375,2.5578175203859805,-5.653177152618765,0.5068263633266091
1726225788118750700,10.406750732421875,2.2653771273225543,1.6840063951432704,0.5324091328725219
1726225788128786700,10.41678662109375,5.995263327860832,4.152490266084671,1.595499844172597
1726225788138823000,10.426822998046875,8.457657065233589,-2.981426379060745,3.0047797821193933
1726225788148859000,10.43685888671875,1.043032550394535,-3.6099995919197796,1.5618616323344408
1726225788158894800,10.446894775390625,-5.111180983972549,7.792540128353238,1.3704938418261705
1726225788168929800,10.4569296875,-1.018037809869647,4.90481728438437,2.447222033334523
1726225788178965800,10.4669658203125,-0.5506330640882253,-4.247601914408802,0.45385560144372283
1726225788189001700,10.477001708984375,-1.0069120202213526,-3.8806817421615123,-0.5779992829848081
1726225788199037700,10.48703759765625,0.7435340555131434,2.672098564082384,-1.4523038177676497
1726225788209073700,10.49707373046875,-3.85793215021491,4.085260311898589,0.5328805497765541
1726225788219108900,10.50710888671875,-2.5760557723879813,1.0403513484865425,0.9680387572739273
1726225788229144800,10.517144775390625,2.8905396549552678,-3.0374674152344463,-2.16114138456136
1726225788239180800,10.527180908203125,0.35378187373280523,1.8293109381347894,0.25889000563919545
1726225788249216800,10.537216796875,0.41889702772200105,4.563665759643912,2.04926886331141
1726225788259252700,10.547252685546875,0.0027449147939682004,-2.1698341018438336,1.1881623213410377
1726225788269288700,10.557288818359375,-0.8608160345911979,-4.231904579061269,0.936873584485799
1726225788279324000,10.567323974609375,-4.205122955119609,2.9571710587263107,-0.3339404973831028
1726225788289360000,10.57735986328125,-3.4178111326783895,3.1463568290203807,1.224834494047612
1726225788299395800,10.587395751953125,4.210424568659067,-0.9451140279561281,0.06598782690418883
1726225788309431800,10.597431884765625,4.424721983855963,-2.226317621088028,-2.11586271155104
1726225788319467800,10.6074677734375,1.805405746412277,3.0158517957538367,0.15216449188888073
1726225788329503700,10.617503662109375,-3.533520163351297,3.261208950603008,1.333901602488011
1726225788339538700,10.62753857421875,-1.0969289757549763,-1.4763094011247158,1.1781360173672437
1726225788349575000,10.637574951171874,-2.067027222841978,-3.899033391410112,-0.15505844149840994
1726225788359611000,10.64761083984375,-6.1221396492362015,1.0038052863776683,-0.7747296965047716
1726225788369646800,10.657646728515624,-5.212804790669679,0.9056155457824469,0.7455833892583846
1726225788379682800,10.667682861328124,1.4984773937910794,-2.828462261226773,0.3340921442808583
1726225788389717800,10.6777177734375,2.4494062455058097,-3.7275925366431473,-0.09620775473145768
1726225788399753700,10.687753662109374,2.916641479939222,0.8323743684828281,1.8277911812216043
1726225788409789700,10.697789794921874,1.8384347403109071,1.3080009991645811,1.51719173887223
1726225788419826000,10.707825927734374,0.17736030794382093,-0.7406137841522693,0.25073893921906126
1726225788429862000,10.71786181640625,-4.669530272650719,-1.0491612624078988,-0.7665187713898718
1726225788439897900,10.72789794921875,-7.191511925023794,2.0878373711586,-0.8400451953716576
1726225788449932800,10.737932861328124,-4.775364390519261,0.9358896880149841,0.27435050002355127
1726225788459968800,10.74796875,0.01253390288054943,-0.5122510187238455,-1.4183033484883605
1726225788470004700,10.758004638671874,3.4938311270415783,-0.639316725191474,-2.8392244782596823
1726225788480040700,10.768040771484374,9.200160608655214,-0.16949615043997765,0.021212249144376253
1726225788490076700,10.77807666015625,6.087501466575264,0.949056628102064,2.5150942309468984
1726225788500113000,10.78811279296875,4.515791078791022,2.429129765674472,2.0670669703304765
1726225788510147800,10.79814794921875,6.006584932342172,-2.2285113317400214,0.3118659916864708
1726225788520183800,10.808183837890626,-4.987857386642694,1.839904812863469,-0.6820197024948894
1726225788530219800,10.8182197265625,-8.569152277603745,4.410265588480234,1.2872798443056643
1726225788540255700,10.828255859375,-7.028411613100767,1.541201852273941,-0.15507508210595697
1726225788550291700,10.838291748046874,-3.0138638368070123,-0.1270645374238491,-0.6973302304819226
1726225788560327000,10.848326904296876,10.327738405174017,-2.232342872726917,-0.4142573852226138
1726225788570363000,10.85836279296875,5.074722600147128,-1.976000213482976,1.2523004469916224
1726225788580398800,10.86839892578125,-2.8748966801434754,3.3198645531892774,0.5883361507451161
1726225788590434800,10.878434814453126,-1.1150181746751069,-1.1018003811836241,-2.1241630685150623
1726225788600470800,10.888470703125,0.4338987820208072,-1.8375784157425163,-1.9835007983714341
1726225788610506800,10.8985068359375,-8.606794902777672,3.3652065006941556,0.681130936961621
1726225788620541700,10.908541748046876,0.3174889096021652,2.899690929660201,-1.1458828301467001
1726225788630578000,10.918577880859376,-0.06404138727784156,0.0723620563775301,-2.8839807348310944
1726225788640614000,10.92861376953125,-0.6477291642278432,-2.7286154010742902,-0.3297259849606082
1726225788650649900,10.93864990234375,2.966474309122562,-4.73183796800375,-0.5433883536569774
1726225788660685800,10.948685791015626,1.308221363916993,-0.40074119330644603,-0.2751994267367758
1726225788670721800,10.9587216796875,2.3970734162002802,-0.6851198604673147,-0.8517552877139299
1726225788680756700,10.9687568359375,3.27291750857532,-1.6714830136567354,-1.886455551636219
1726225788690792700,10.978792724609375,2.688616568163037,0.4497071765273809,-1.6905410576090216
1726225788700828700,10.98882861328125,-1.4705121130228043,5.618586900752782,-1.315959264692664
1726225788710865000,10.998864990234376,-6.234446177989244,-1.7590180892467497,-0.10889547820053994
1726225788720900900,11.00890087890625,-10.14124903435707,-4.156628096541762,1.612252095400542
1726225788730935800,11.018935791015625,-7.848399962741136,-2.320560085362196,-1.6010928418740629
1726225788740971800,11.0289716796875,-4.2451019142866135,1.1540712511688471,0.3151283179506659
1726225788751007700,11.0390078125,1.3811796326220034,-4.284591044110059,-0.2674670606527477
1726225788761043700,11.049043701171875,5.74643820464015,-2.955854130908847,-0.5706047522867098
1726225788771079700,11.05907958984375,4.537182241865993,7.3292585999816655,0.6660033643260598
1726225788781115600,11.06911572265625,4.555424000999332,7.474826762345433,-0.03211319422796369
1726225788791150800,11.07915087890625,4.9821045222043985,0.3168874365776777,-1.0381862794071435
1726225788801186800,11.089186767578125,-1.9471786081463098,-2.218730526959896,2.8863027480378745
1726225788811222800,11.099222900390625,-7.885031949567795,4.401195562317967,-0.13902071348167955
1726225788821258800,11.1092587890625,-0.8577133924007415,0.11491466542482376,0.10492730522193014
1726225788831294700,11.119294677734375,-0.35283027209639545,-1.7921978897929192,2.4729706609666344
1726225788841330700,11.12933056640625,0.8906535389721393,-0.6275578983366489,0.12831870220340788
1726225788851366000,11.139365966796875,1.6829852354019879,1.938266987416148,-0.17260946015492082
1726225788861401900,11.14940185546875,4.2271886564552785,1.9898370156556366,1.9409858909860251
1726225788871437800,11.159437744140625,3.0137165372908115,-0.3619458909660578,1.40027932375893
1726225788881473800,11.169473876953125,-3.7325218097388744,0.9389718719393014,0.9458760983698069
1726225788891509800,11.179509765625,-6.2112856671541925,0.983850293585658,-0.09217296452373265
1726225788901545700,11.189545654296875,-0.095846392339468,-1.4773995344489812,-1.863306292847544
1726225788911581000,11.199580810546875,3.7236645495444534,0.8988608108252286,-0.4833324192861095
1726225788921617000,11.209616943359375,1.1583090348690748,1.4865408722817897,-1.2002986032061278
1726225788931652900,11.21965283203125,0.7068126368373632,3.359309843870997,-1.5878054902777075
1726225788941688800,11.229688720703125,5.533727181851863,-2.072014363604784,1.5032266341447829
1726225788951724800,11.239724853515625,3.704277127507329,-5.311514171224832,0.4179271232439205
1726225788961760800,11.2497607421875,-8.862987339895962,3.8233436519145965,2.264050701024383
1726225788971795700,11.259795654296875,-7.263672321349382,0.5934048688441514,1.260766662041843
1726225788981831700,11.269831787109375,-0.937020153349638,-2.135778687506914,-1.500210793454945
1726225788991868000,11.279867919921875,-5.413652357184887,-0.08799860144853591,1.3324661628574133
1726225789001903900,11.28990380859375,-0.6909960590243339,2.5797704089969393,-0.9006856881648302
1726225789011939800,11.29993994140625,4.486254603183269,-1.2319079395651817,-2.5914865657538173
1726225789021974800,11.309974853515625,6.463396972438693,-1.7510978176414966,0.3782065592847764
1726225789032010800,11.3200107421875,4.381474962803721,-3.445380107605457,0.8519166888207197
1726225789042046700,11.330046630859375,-3.16297537086606,-0.6312129137128591,1.6090566603600978
1726225789052082700,11.340082763671875,-5.632235486876964,0.5560381380021572,2.0572318050146103
1726225789062118700,11.35011865234375,-4.605324050199985,-3.477590770858526,1.6576495724849403
1726225789072155000,11.36015478515625,-3.6743238877922293,-1.8558347879230974,1.9650806139312684
1726225789082189800,11.37018994140625,-1.2477993361800908,3.4228988112062213,-0.1680424810329452
1726225789092225800,11.380225830078125,5.7060746300697325,2.4244530060350895,-1.4027619343549012
1726225789102261800,11.39026171875,8.734507674977182,-5.428512072664499,-0.19266257955916224
1726225789112297700,11.400297607421875,0.9321516705304383,-0.12306640769839286,-0.49534401532560585
1726225789122333700,11.410333740234375,-4.988340201723576,3.9464498071014877,2.5708488513946532
1726225789132369700,11.42036962890625,-3.485688737118244,2.504322077041864,0.6282290755964816
1726225789142404900,11.43040478515625,3.564710835906863,-4.728488073053955,1.475018192270398
1726225789152440800,11.44044091796875,1.5309861632078885,-0.4724234507262706,1.0672002655107526
1726225789162476800,11.450476806640625,0.6287637669950723,5.807444169744849,1.56166304102242
1726225789172512800,11.4605126953125,1.5071552057653665,5.129409299102425,-0.10876757750455289
1726225789182548700,11.470548828125,6.299213541454076,-4.953355397582054,1.0086858980260789
1726225789192584700,11.480584716796875,2.4017478377521035,-2.473115622395277,-1.8383863711245356
1726225789202620000,11.490619873046874,-2.35115746819973,3.1157156070411203,-1.287244042339921
1726225789212655900,11.50065576171875,-9.308453810113669,5.088247267630696,0.359433688949421
1726225789222691800,11.51069189453125,-5.445282590201497,-2.4242700506836172,-0.13363894737809895
1726225789232727800,11.520727783203125,-0.9599497780382633,-2.8101398380726574,-1.1824950893595814
1726225789242763800,11.530763671875,1.3135241465002299,2.8485686451882124,-0.713617859872803
1726225789252798700,11.540798828125,-0.48143327113389967,3.500588200086355,-0.7758803278446197
1726225789262834700,11.550834716796874,7.0042819649726145,-2.9470939013481137,-1.0937554602853954
1726225789272870700,11.56087060546875,0.37579204548895356,-3.793658707746863,0.41429019151367247
1726225789282907000,11.570906982421874,-4.265927260172367,2.5384084710389376,-0.1331700877573341
1726225789292942800,11.58094287109375,-6.21022826705575,1.7433529026031493,-0.22251221276931463
1726225789302978800,11.590978759765624,2.7507851473063227,-4.864538465487957,-0.4341431852359324
1726225789313013800,11.601013671875,2.37892751865685,-2.9206431167960165,-1.9947662887513637
1726225789323049700,11.6110498046875,1.7952064239591359,4.599899102541804,0.06236760884672403
1726225789333085700,11.621085693359374,3.6538124301612376,2.440343233606219,-0.4284175010655075
1726225789343121700,11.63112158203125,3.690702775663137,-3.785087278756499,-0.02233553125299513
1726225789353157600,11.64115771484375,-4.452644010004401,1.3423755624532698,0.1503706672746688
1726225789363193900,11.65119384765625,-6.634339814555645,2.8029689235299826,-0.30695830936804414
1726225789373228800,11.661228759765624,-4.024219275480508,-4.200293050745129,-0.4021086092021316
1726225789383264800,11.6712646484375,-3.0430531064122914,-4.780217091247439,-1.1934930879097432
1726225789393300700,11.68130078125,-2.1228069777309893,2.075494606935978,0.3099393710054457
1726225789403336700,11.691336669921874,0.9173053990542888,2.022910433217883,1.2684139619246124
1726225789413372700,11.70137255859375,-0.6912596783965825,-0.27357670263946055,-1.0266488402180374
1726225789423409000,11.711408935546874,4.570554350113868,-2.750191857588291,0.14856091443896294
1726225789433444000,11.721444091796876,-3.169118111404776,1.019096963533759,-0.7757860006246715
1726225789443480000,11.73147998046875,-1.395194129449129,4.505111863866448,-0.7364393480118364
1726225789453516000,11.74151611328125,-1.7577987765848635,-0.0891097775608301,0.4588186306785792
1726225789463552000,11.751552001953126,1.047120696491003,-0.6227256558746099,-0.5292286031402648
1726225789473588000,11.761587890625,1.3250152623295783,2.8194407503813506,-0.7163431201182305
1726225789483624000,11.7716240234375,2.7845255043447015,2.4771336258649823,-1.4120768751889465
1726225789493659100,11.7816591796875,0.5894640222638845,-0.4309370096057653,-1.0105872746679931
1726225789503695000,11.791695068359376,6.074880469933152,0.44274902795255183,-1.567827555001527
1726225789513731000,11.80173095703125,5.190543274500966,-0.3624269524812698,-1.514364114230871
1726225789523767000,11.81176708984375,0.6843196500003338,2.086690539211035,0.44922889149114487
1726225789533803000,11.821802978515626,-2.8883225634276863,0.5482347707748413,-0.662567544658482
1726225789543838000,11.831837890625,-11.995915947544574,-2.7788562265366314,-1.6318151662655174
1726225789553874000,11.8418740234375,-8.704165143683552,-1.7212573906511068,1.2453424445472656
1726225789563910000,11.851909912109376,-2.041774708163738,-0.7840887687414884,0.5116549525268376
1726225789573946000,11.861946044921876,10.097639025211334,-0.5463099401921033,-0.7459115982994436
1726225789583982000,11.871982177734376,19.57929485454559,-0.28737551088929175,-1.317384036798775
1726225789594018000,11.88201806640625,8.293087265279889,4.660885193902254,-1.4272444875739514
1726225789604053000,11.892052978515625,-17.469022364217043,7.093771097239851,0.6921363881658762
1726225789614089000,11.9020888671875,-14.44851835874319,-3.3807308175623416,-0.1537486192751676
1726225789624125000,11.912125,-16.131658492445943,-9.267636062034963,1.083636874918267
1726225789634161000,11.922160888671876,-4.047819346776604,-5.316530538082122,1.5002292058944702
1726225789644196900,11.93219677734375,4.07397494777441,3.3290795407801865,-1.0180014964472501
1726225789654233000,11.942233154296876,11.880360646128654,0.27106735016703604,-3.362061188405752
1726225789664268000,11.95226806640625,14.675534970259665,-2.773019190946221,-0.8905588464260101
1726225789674304000,11.962303955078125,9.679420627403259,1.3890169021189211,1.2402712787628174
1726225789684340000,11.972340087890625,0.3506652030169964,5.417659254738688,0.40591786529198287
1726225789694376000,11.9823759765625,-2.9244197127252813,-0.8898205952793359,2.5005057336241006
1726225789704412000,11.992411865234375,-7.567816596210003,-4.412621796217561,2.091330327840894
1726225789714448000,12.00244775390625,-6.899769451096653,-1.9015373854339122,1.4215733100697396
1726225789724483000,12.012483154296875,-4.736970070195198,1.1488725134819746,0.6107542822476476
1726225789734519000,12.02251904296875,-3.7174247783720493,-2.602940856704116,-0.7912193512737751
1726225789744555000,12.032554931640625,2.6790859387516974,-1.5815584125816822,-1.5710308810874818
1726225789754591000,12.042591064453125,0.7734937249690294,-0.05748772785067558,0.7112188359070569
1726225789764627000,12.052626953125,1.77585874941051,5.472831106862426,-0.5029574129387736
1726225789774662100,12.062662109375,2.5274165369033814,0.4169990851461887,1.181400499055907
1726225789784698000,12.072697998046875,3.2063544938653705,-2.0435715284526346,-0.4838106677897274
1726225789794734000,12.082734130859375,-1.6490198374360798,2.1650077046006917,0.419048126630485
1726225789804770000,12.09277001953125,-5.202579164731502,6.71040364806056,0.34763686817176637
1726225789814806000,12.102805908203125,-3.7025358367979524,-1.783997632202506,-1.0688776972036809
1726225789824842000,12.112842041015625,2.827289125794172,-2.6984792060077187,0.2863956330064684
1726225789834877000,12.122876953125,0.16970950092971324,3.451247538334131,0.3247419494703412
1726225789844913000,12.132912841796875,2.558670922344923,2.379715454164147,1.348745974268019
1726225789854949000,12.14294921875,1.1071189458578825,-3.9760762990802525,-0.09684033528026192
1726225789864985000,12.152985107421875,-5.351413635414838,-1.7020885798007248,0.7875899817954748
1726225789875021000,12.16302099609375,-10.625415529847144,8.30179488787055,0.19072087090685963
1726225789885057000,12.17305712890625,-1.8065128308713434,5.688415639260411,-1.583373353049159
1726225789895092000,12.183092041015625,6.966248879176378,-3.694032212346792,-1.8321214655108748
1726225789905128000,12.1931279296875,9.705563368919492,-7.3529749911338085,-1.1167322851166128
1726225789915164000,12.203163818359375,4.1493204038769,-2.600409876921773,1.2250256327055393
1726225789925200000,12.213199951171875,-5.298837645003199,-1.7612737592190504,2.9548885007470846
1726225789935236000,12.223236083984375,-11.476322749364375,1.9291010996639728,0.7454733530126512
1726225789945272000,12.23327197265625,-12.815616712415217,4.363907157409191,0.6255453164052218
1726225789955307000,12.24330712890625,-1.300030458676815,-1.6401473796725272,0.04245682052262127
1726225789965343000,12.253343017578125,6.618508623695373,-5.035112474292516,-0.390329141418077
1726225789975379000,12.26337890625,7.97293702751398,2.803243648818135,-2.248971351444721
1726225789985415000,12.273414794921875,4.077808242326975,3.477760866728425,-0.734374012979865
1726225789995451000,12.283450927734375,2.787704718902707,5.727584451088309,-1.5535183130115269
1726225790005486800,12.29348681640625,3.2671780881404873,-3.907931568136811,-0.07110496898852288
1726225790015522000,12.30352197265625,-4.559018810620904,-2.2110849806427955,0.36210743820331986
1726225790025558000,12.31355810546875,-9.370631157085299,-0.5070972892224789,1.4066785232767463
1726225790035594000,12.323593994140625,-4.379693340083956,-0.3461147001057863,1.0757999707475303
1726225790045630000,12.3336298828125,-0.5874672954887151,-4.560840180829167,-0.6889102657262236
1726225790055666000,12.343666015625,6.098877431592345,-1.448391466629505,-0.006321896497905254
1726225790065701000,12.353701171875,-0.48353696541488167,2.823285150849819,1.3827065499283373
1726225790075737000,12.363737060546875,4.310207715925574,4.851642743557691,1.0799188042432069
1726225790085773000,12.37377294921875,5.50877920307815,-1.7741180432230232,1.3515093015015125
1726225790095809000,12.38380908203125,1.4446277301818131,0.4067249438911676,0.5883812685284763
1726225790105845000,12.393844970703125,-2.782508319303393,3.731138830947876,0.3357782342042774
1726225790115881000,12.403880859375,-1.8166309047818183,3.6225451852381227,0.8628351923938841
1726225790125916000,12.413916015625,-1.9495833312004804,-1.736790475347638,-1.8171951145358383
1726225790135952000,12.423951904296874,0.01564882003068924,-4.709355502560735,2.884712848497927
1726225790145988000,12.433988037109375,-0.7641729389160871,-0.35921266660988327,2.9409231037586925
1726225790156024000,12.444024169921875,3.2824002071917056,2.364699086818099,0.5687085267439485
1726225790166060000,12.45406005859375,3.8554660523623228,-1.9143284779459238,1.4489394559010862
1726225790176096000,12.464095947265625,2.33345872990191,-1.1558797618955372,-0.28368425515592094
1726225790186131000,12.474130859375,-2.263686105495691,3.148525989753008,0.10013031673636287
1726225790196167000,12.4841669921875,-3.6242204249739647,4.013177072462439,1.4249664596393703
1726225790206203000,12.494202880859374,-2.386202478095889,-0.18966741633117198,-2.041813578869402
1726225790216238800,12.50423876953125,0.8086673296809196,-3.5859921088665723,-0.642011371102929
1726225790226275000,12.514275146484374,0.029489713856577872,-0.6863280672132969,1.3014017470300197
1726225790236311300,12.524311279296874,-2.4288053560256957,1.1606634890407324,-0.7847077043574303
1726225790246346000,12.534345947265624,1.539793739041686,-4.505411139073968,0.6980163130499422
1726225790256382000,12.5443818359375,2.4478999325960875,-3.0370605879992243,-0.30791356426626443
1726225790266418000,12.55441796875,0.22549334747195243,3.8911043519765136,-0.2895633032571524
1726225790276454000,12.564453857421874,2.7455378943026063,4.954629655301571,1.4314792025342582
1726225790286489900,12.57448974609375,4.140625640767812,1.0830039107769727,0.8884864240661263
1726225790296526000,12.584526123046874,2.6842911061793564,-3.6859167104303836,1.800620557962358
1726225790306561000,12.59456103515625,-6.923999636989832,2.6443764444202182,2.114183818553388
1726225790316597000,12.604596923828124,-6.4217433580577366,1.1497077952623367,1.7352692571297288
1726225790326633000,12.614633056640624,-2.405855857592821,-6.966796576187014,-0.013128964430559427
1726225790336669000,12.6246689453125,-2.320617368507385,-2.44047182842195,-0.5551621588852256
1726225790346705200,12.634705078125,-3.1444466114848852,5.858569961348175,-0.06594758622534573
1726225790356740000,12.644739990234376,0.5588946964770555,4.293107528042793,-1.1967403262026608
1726225790366776000,12.654776123046876,2.2191157268851995,-2.2266297557771204,0.7205254473041742
1726225790376812000,12.66481201171875,-4.149372426325082,-0.397139953944087,0.8320834957774728
1726225790386848000,12.674847900390626,-2.783444723370671,3.5414328361719845,0.8701517990175635
1726225790396884000,12.684884033203126,1.3631833726823328,0.017638532543182373,2.0545158240541816
