time,seconds_elapsed,z,y,x
1726225777726714400,0.01471435546875,-0.462005615234375,-0.8245086669921875,0.081024169921875
1726225777736750300,0.024750244140625,-0.5124359130859375,-0.6655731201171875,0.041015625
1726225777746786300,0.034786376953125,-0.423126220703125,-0.6021575927734375,0.0543212890625
1726225777756821500,0.044821533203125,-0.1972503662109375,-0.8532257080078125,0.1206512451171875
1726225777766857500,0.054857421875,-0.4851837158203125,-1.0203399658203125,0.12255859375
1726225777776893400,0.0648935546875,-0.70458984375,-0.756927490234375,0.08929443359375
1726225777786928400,0.074928466796875,-0.786651611328125,-0.761505126953125,0.0759124755859375
1726225777796964400,0.08496435546875,-0.7683563232421875,-0.8643646240234375,0.0939178466796875
1726225777807000300,0.095000244140625,-0.623748779296875,-0.9883880615234375,0.1220703125
1726225777817035500,0.105035400390625,-0.533203125,-0.922210693359375,0.097686767578125
1726225777827071500,0.115071533203125,-0.430450439453125,-0.7529754638671875,0.1896209716796875
1726225777837107500,0.125107421875,-0.3979339599609375,-0.8091888427734375,0.2288665771484375
1726225777847143400,0.135143310546875,-0.370635986328125,-0.811737060546875,0.14117431640625
1726225777857178400,0.145178466796875,-0.3305816650390625,-0.9174957275390625,0.1672821044921875
1726225777867214300,0.15521435546875,-0.4084930419921875,-1.0099334716796875,0.13397216796875
1726225777877250600,0.16525048828125,-0.5620574951171875,-0.801483154296875,0.1071014404296875
1726225777887285500,0.175285400390625,-0.8307342529296875,-0.723907470703125,0.1787109375
1726225777897321500,0.185321533203125,-0.753204345703125,-0.996307373046875,0.14605712890625
1726225777907357400,0.195357421875,-0.6368255615234375,-1.1402740478515625,0.1707916259765625
1726225777917392400,0.205392333984375,-0.773956298828125,-0.9915618896484375,0.223846435546875
1726225777927428600,0.2154287109375,-0.80157470703125,-0.5818939208984375,0.1475677490234375
1726225777937464600,0.225464599609375,-0.592193603515625,-0.7742156982421875,0.220916748046875
1726225777947500500,0.23550048828125,-0.4268341064453125,-0.9277191162109375,0.2198486328125
1726225777957535500,0.245535400390625,-0.451019287109375,-0.76025390625,0.202178955078125
1726225777967571500,0.255571533203125,-0.52264404296875,-0.58612060546875,0.233734130859375
1726225777977607400,0.265607421875,-0.4698638916015625,-0.7422637939453125,0.145172119140625
1726225777987642600,0.275642578125,-0.40924072265625,-1.004180908203125,0.0740814208984375
1726225777997678600,0.2856787109375,-0.3670501708984375,-0.8321533203125,0.050384521484375
1726225778007714600,0.295714599609375,-0.53704833984375,-0.573699951171875,0.1037139892578125
1726225778017749500,0.30574951171875,-0.5902099609375,-0.5961761474609375,0.0787506103515625
1726225778027785500,0.315785400390625,-0.5293731689453125,-0.863739013671875,0.1325836181640625
1726225778037821400,0.325821533203125,-0.638519287109375,-0.90924072265625,0.1417999267578125
1726225778047857400,0.335857421875,-0.8319549560546875,-0.6117401123046875,0.1104736328125
1726225778057892600,0.345892578125,-0.8364410400390625,-0.6777496337890625,0.174224853515625
1726225778067928600,0.355928466796875,-0.6360015869140625,-0.8827667236328125,0.0789337158203125
1726225778077964500,0.365964599609375,-0.5182037353515625,-0.9250946044921875,0.0259552001953125
1726225778087999200,0.375999267578125,-0.586517333984375,-0.7087554931640625,0.0684814453125
1726225778098035500,0.386035400390625,-0.6898040771484375,-0.5247344970703125,0.0103607177734375
1726225778108071700,0.39607177734375,-0.4539794921875,-0.71551513671875,-0.0224456787109375
1726225778118106400,0.4061064453125,-0.2193145751953125,-1.05755615234375,-0.015472412109375
1726225778128142300,0.416142333984375,-0.246826171875,-0.8951873779296875,-0.0125579833984375
1726225778138178300,0.42617822265625,-0.6709442138671875,-0.5474395751953125,0.0468597412109375
1726225778148213500,0.436213623046875,-0.8015594482421875,-0.60406494140625,0.0544586181640625
1726225778158249500,0.44624951171875,-0.673004150390625,-1.03271484375,-0.0038909912109375
1726225778168285400,0.456285400390625,-0.8189544677734375,-1.197052001953125,0.027069091796875
1726225778178321400,0.4663212890625,-0.941650390625,-0.7764434814453125,0.0208587646484375
1726225778188356400,0.4763564453125,-0.828826904296875,-0.6899261474609375,0.11151123046875
1726225778198392300,0.486392333984375,-0.5222930908203125,-0.94683837890625,0.271209716796875
1726225778208428300,0.49642822265625,-0.50616455078125,-0.910858154296875,0.0813751220703125
1726225778218463500,0.50646337890625,-0.575164794921875,-0.5712127685546875,0.0948944091796875
1726225778228499500,0.51649951171875,-0.4241943359375,-0.6029205322265625,0.1479949951171875
1726225778238535400,0.526535400390625,-0.2298736572265625,-1.0911407470703125,0.129974365234375
1726225778248571400,0.5365712890625,-0.0952911376953125,-1.046539306640625,0.0590972900390625
1726225778258606300,0.5466064453125,-0.232086181640625,-0.7064971923828125,0.0916900634765625
1726225778268642300,0.556642333984375,-0.580841064453125,-0.5858917236328125,0.2747802734375
1726225778278678500,0.566678466796875,-0.558868408203125,-0.843719482421875,0.223602294921875
1726225778288713500,0.57671337890625,-0.6661376953125,-1.0674285888671875,0.1855621337890625
1726225778298749400,0.58674951171875,-0.8362579345703125,-0.83465576171875,0.2137603759765625
1726225778308785400,0.596785400390625,-0.8836822509765625,-0.761688232421875,0.2372589111328125
1726225778318820400,0.6068203125,-0.5946502685546875,-1.011566162109375,0.1920928955078125
1726225778328856600,0.616856689453125,-0.4085845947265625,-1.0011138916015625,0.08428955078125
1726225778338892500,0.626892578125,-0.4260406494140625,-0.683502197265625,0.0270233154296875
1726225778348928500,0.636928466796875,-0.32818603515625,-0.688629150390625,-0.034210205078125
1726225778358963500,0.64696337890625,-0.14923095703125,-0.9329376220703125,0.114288330078125
1726225778368999400,0.65699951171875,-0.269500732421875,-0.8649444580078125,0.1232757568359375
1726225778379035400,0.667035400390625,-0.658477783203125,-0.7532196044921875,0.2010650634765625
1726225778389070600,0.677070556640625,-0.64886474609375,-0.8628997802734375,0.22039794921875
1726225778399106600,0.6871064453125,-0.64862060546875,-1.00152587890625,0.110748291015625
1726225778409146000,0.69714599609375,-0.77740478515625,-0.8857574462890625,0.0307464599609375
1726225778419180800,0.707180908203125,-0.677154541015625,-0.95062255859375,0.0211639404296875
1726225778429216800,0.717216796875,-0.5558013916015625,-1.05517578125,-0.023345947265625
1726225778439252700,0.727252685546875,-0.4268951416015625,-0.87481689453125,-0.0528564453125
1726225778449289000,0.7372890625,-0.4202728271484375,-0.8105621337890625,-0.0959320068359375
1726225778459324000,0.747323974609375,-0.4846038818359375,-0.7935943603515625,0.0009765625
1726225778469359900,0.75735986328125,-0.3938446044921875,-0.7443084716796875,0.046875
1726225778479395800,0.767395751953125,-0.288299560546875,-0.94708251953125,-0.0092926025390625
1726225778489430800,0.7774306640625,-0.1548614501953125,-0.9499664306640625,-0.0393218994140625
1726225778499467000,0.787467041015625,-0.4465484619140625,-0.9043121337890625,0.0599822998046875
1726225778509503000,0.7975029296875,-0.41632080078125,-0.8089752197265625,0.0325927734375
1726225778519538000,0.807537841796875,-0.6003265380859375,-0.8870086669921875,0.0317535400390625
1726225778529574000,0.817573974609375,-0.675262451171875,-0.8702850341796875,-0.048675537109375
1726225778539609900,0.82760986328125,-0.6058349609375,-1.0420074462890625,0.00244140625
1726225778549645800,0.837645751953125,-0.6473236083984375,-0.9921112060546875,0.03643798828125
1726225778559681000,0.847680908203125,-0.5343780517578125,-0.8416900634765625,-0.0574493408203125
1726225778569717000,0.857717041015625,-0.5828094482421875,-0.9769744873046875,-0.1044158935546875
1726225778579753000,0.8677529296875,-0.4756317138671875,-0.8321075439453125,-0.0500640869140625
1726225778589788000,0.877787841796875,-0.1716156005859375,-0.85101318359375,-0.1634521484375
1726225778599824000,0.887823974609375,0.0588226318359375,-0.9476165771484375,-0.2040863037109375
1726225778609859800,0.89785986328125,-0.157562255859375,-0.76153564453125,-0.0861663818359375
1726225778619895000,0.90789501953125,-0.4338531494140625,-0.6927032470703125,-0.075439453125
1726225778629931000,0.917930908203125,-0.9393157958984375,-0.854766845703125,0.016815185546875
1726225778639967000,0.927967041015625,-1.2296295166015625,-1.0032196044921875,0.06182861328125
1726225778650003000,0.9380029296875,-1.225494384765625,-1.0985870361328125,0.08001708984375
1726225778660038000,0.948037841796875,-0.9655609130859375,-0.977813720703125,0.0774383544921875
1726225778670074000,0.95807421875,-0.6683502197265625,-0.9196319580078125,0.0239105224609375
1726225778680110000,0.968110107421875,-0.45947265625,-0.751708984375,0.021270751953125
1726225778690145000,0.97814501953125,-0.572265625,-0.759033203125,0.1427001953125
1726225778700181000,0.988180908203125,-0.47283935546875,-0.940704345703125,0.06494140625
1726225778710217000,0.998217041015625,-0.4941558837890625,-0.9965362548828125,0.0769500732421875
1726225778720252200,1.008252197265625,-0.8148651123046875,-0.6716156005859375,0.1294708251953125
1726225778730288000,1.0182880859375,-0.5989990234375,-0.7484130859375,-0.097991943359375
1726225778740324000,1.028323974609375,-0.210052490234375,-1.0288848876953125,-0.1283111572265625
1726225778750360000,1.038360107421875,-0.1796417236328125,-0.90350341796875,-0.03131103515625
1726225778760395000,1.04839501953125,-0.2830047607421875,-0.62542724609375,-0.2064361572265625
1726225778770431000,1.058430908203125,-0.5190277099609375,-0.6673126220703125,-0.1047210693359375
1726225778780467000,1.068467041015625,-0.71844482421875,-0.864654541015625,-0.0748138427734375
1726225778790502100,1.078502197265625,-0.6378326416015625,-0.7869110107421875,-0.1202392578125
1726225778800538000,1.0885380859375,-0.4858856201171875,-0.7923736572265625,-0.0599517822265625
1726225778810574000,1.098573974609375,-0.5667877197265625,-0.827392578125,-0.0838775634765625
1726225778820610000,1.108610107421875,-0.4392242431640625,-0.75689697265625,-0.023468017578125
1726225778830644700,1.118644775390625,-0.5119476318359375,-0.8123779296875,-0.0229034423828125
1726225778840681000,1.128680908203125,-0.6690216064453125,-0.621246337890625,-0.0573272705078125
1726225778850717200,1.13871728515625,-0.6898956298828125,-0.795257568359375,-0.005889892578125
1726225778860752000,1.148751953125,-0.7716064453125,-0.952667236328125,0.0155181884765625
1726225778870787800,1.158787841796875,-0.7666473388671875,-0.779541015625,-0.043426513671875
1726225778880823800,1.16882373046875,-0.794769287109375,-0.7226104736328125,0.066986083984375
1726225778890859800,1.17885986328125,-0.5755157470703125,-0.7300872802734375,0.072967529296875
1726225778900895000,1.18889501953125,-0.0461273193359375,-0.9461822509765625,0.0111846923828125
1726225778910931000,1.198930908203125,-0.1951141357421875,-1.0459747314453125,0.0461578369140625
1726225778920967000,1.208966796875,-0.5153350830078125,-0.7522735595703125,0.0987091064453125
1726225778931001900,1.219001953125,-0.7333221435546875,-0.6829833984375,0.1072540283203125
1726225778941037800,1.229037841796875,-0.808197021484375,-0.902618408203125,0.08135986328125
1726225778951073800,1.23907373046875,-0.79168701171875,-1.105377197265625,0.11090087890625
1726225778961109000,1.24910888671875,-0.7279052734375,-0.974700927734375,0.064453125
1726225778971145000,1.25914501953125,-0.69354248046875,-0.7139892578125,0.032623291015625
1726225778981181000,1.269180908203125,-0.6369781494140625,-0.65289306640625,0.0557403564453125
1726225778991217000,1.279216796875,-0.3712921142578125,-0.7034759521484375,0.01031494140625
1726225779001251800,1.289251953125,-0.0735626220703125,-0.9636688232421875,-0.0342559814453125
1726225779011287800,1.299287841796875,-0.031494140625,-0.9926300048828125,-0.03680419921875
1726225779021324000,1.309323974609375,-0.5055084228515625,-0.7705841064453125,0.0609588623046875
1726225779031359000,1.31935888671875,-0.6741180419921875,-0.7886199951171875,0.05828857421875
1726225779041395000,1.32939501953125,-0.8638458251953125,-1.0635986328125,0.0498199462890625
1726225779051431000,1.339430908203125,-0.932891845703125,-1.18402099609375,0.1204986572265625
1726225779061467000,1.349466796875,-0.8632049560546875,-1.0301361083984375,0.0642242431640625
1726225779071502000,1.359502197265625,-0.671539306640625,-0.854766845703125,0.025115966796875
1726225779081538000,1.3695380859375,-0.3566436767578125,-0.81964111328125,0.057159423828125
1726225779091574000,1.379573974609375,-0.1945648193359375,-1.02838134765625,-0.0076904296875
1726225779101609000,1.38960888671875,-0.3717803955078125,-0.809539794921875,0.0239105224609375
1726225779111645000,1.39964501953125,-0.707916259765625,-0.4296417236328125,0.1038665771484375
1726225779121681000,1.409680908203125,-0.6263580322265625,-0.746673583984375,0.11065673828125
1726225779131716900,1.419716796875,-0.561187744140625,-1.2301025390625,0.1085662841796875
1726225779141752000,1.429751953125,-0.8635406494140625,-0.9651336669921875,0.1153717041015625
1726225779151788000,1.4397880859375,-0.73748779296875,-0.6565399169921875,0.134857177734375
1726225779161824000,1.449823974609375,-0.3973388671875,-0.8503265380859375,0.1231689453125
1726225779171859000,1.45985888671875,-0.1869354248046875,-1.01531982421875,0.1185150146484375
1726225779181895000,1.46989501953125,-0.234588623046875,-0.807464599609375,0.1163482666015625
1726225779191931100,1.47993115234375,-0.396636962890625,-0.6837921142578125,0.1179962158203125
1726225779201966000,1.489966064453125,-0.351593017578125,-0.75146484375,0.1033935546875
1726225779212002000,1.500001953125,0.0077667236328125,-0.9163055419921875,0.101348876953125
1726225779222038000,1.5100380859375,-0.1522674560546875,-0.8885040283203125,0.0813751220703125
1726225779232074000,1.520073974609375,-0.3044891357421875,-0.6725006103515625,0.08062744140625
1726225779242109200,1.530109130859375,-0.48687744140625,-0.9176177978515625,0.1309051513671875
1726225779252145200,1.540145263671875,-0.7278594970703125,-0.99371337890625,0.1366119384765625
1726225779262181000,1.55018115234375,-0.795196533203125,-0.9545745849609375,0.1595306396484375
1726225779272215800,1.5602158203125,-0.805999755859375,-0.9730072021484375,0.0750885009765625
1726225779282252000,1.570251953125,-0.6703338623046875,-0.828216552734375,0.0802459716796875
1726225779292288000,1.5802880859375,-0.503326416015625,-0.787872314453125,0.065887451171875
1726225779302324000,1.590323974609375,-0.30078125,-0.82025146484375,-0.0021820068359375
1726225779312359000,1.60035888671875,-0.129180908203125,-0.810577392578125,0.022186279296875
1726225779322395000,1.610394775390625,-0.2918243408203125,-0.789459228515625,0.03277587890625
1726225779332430800,1.620430908203125,-0.3706207275390625,-0.685638427734375,0.0794219970703125
1726225779342465800,1.6304658203125,-0.5607147216796875,-0.8541412353515625,0.115966796875
1726225779352501800,1.640501708984375,-0.8258514404296875,-0.857452392578125,0.0781097412109375
1726225779362538000,1.6505380859375,-0.904449462890625,-0.8364410400390625,0.123443603515625
1726225779372574000,1.660573974609375,-0.861328125,-0.9141998291015625,0.083526611328125
1726225779382609000,1.67060888671875,-0.8197784423828125,-0.80926513671875,0.0537261962890625
1726225779392644900,1.680644775390625,-0.609405517578125,-0.724700927734375,0.079193115234375
1726225779402680800,1.690680908203125,-0.2958526611328125,-0.923309326171875,0.11920166015625
1726225779412716000,1.700716064453125,-0.0691680908203125,-0.8126678466796875,0.121246337890625
1726225779422752000,1.710751953125,-0.461578369140625,-0.6083984375,0.1434326171875
1726225779432788000,1.7207880859375,-0.70623779296875,-0.5883331298828125,0.0780792236328125
1726225779442824000,1.730823974609375,-0.967926025390625,-0.8881988525390625,0.100128173828125
1726225779452859000,1.74085888671875,-1.159698486328125,-0.9152069091796875,0.12109375
1726225779462894800,1.750894775390625,-1.121734619140625,-0.8359222412109375,0.030120849609375
1726225779472930800,1.760930908203125,-0.8665008544921875,-0.8963165283203125,0.053253173828125
1726225779482966800,1.770966796875,-0.5238494873046875,-0.828399658203125,0.0523529052734375
1726225779493002000,1.781001953125,-0.26910400390625,-0.8087310791015625,0.035797119140625
1726225779503038000,1.791037841796875,-0.2093658447265625,-0.8162078857421875,0.059173583984375
1726225779513074000,1.801073974609375,-0.3593902587890625,-0.693572998046875,0.1008758544921875
1726225779523108900,1.81110888671875,-0.60162353515625,-0.6294097900390625,0.106231689453125
1726225779533144800,1.821144775390625,-0.640838623046875,-0.947662353515625,0.1189422607421875
1726225779543181000,1.83118115234375,-0.91583251953125,-1.059051513671875,0.1373748779296875
1726225779553217000,1.841217041015625,-0.8563995361328125,-0.7411651611328125,0.125701904296875
1726225779563252000,1.851251953125,-0.6775054931640625,-0.8440704345703125,0.0499114990234375
1726225779573288000,1.861287841796875,-0.519927978515625,-0.9509429931640625,0.0645751953125
1726225779583324000,1.871323974609375,-0.5524444580078125,-0.7957763671875,0.0557403564453125
1726225779593359000,1.881359130859375,-0.5936279296875,-0.4432525634765625,0.006927490234375
1726225779603395000,1.89139501953125,-0.2413330078125,-0.5501556396484375,-0.0098114013671875
1726225779613431000,1.90143115234375,-0.1374359130859375,-1.097442626953125,0.0688934326171875
1726225779623467000,1.911467041015625,-0.47088623046875,-0.918212890625,-0.019561767578125
1726225779633502000,1.921501953125,-0.633392333984375,-0.685028076171875,-0.0273284912109375
1726225779643538000,1.931537841796875,-0.75115966796875,-0.9540863037109375,0.0538177490234375
1726225779653574000,1.941573974609375,-0.8056182861328125,-1.144439697265625,0.0412445068359375
1726225779663609000,1.951609130859375,-0.698333740234375,-1.02642822265625,0.0321197509765625
1726225779673645000,1.96164501953125,-0.6046295166015625,-0.853118896484375,0.0486907958984375
1726225779683681000,1.971680908203125,-0.5448455810546875,-0.7971038818359375,0.0352020263671875
1726225779693717000,1.981717041015625,-0.409759521484375,-0.7034149169921875,0.0958251953125
1726225779703752000,1.991751953125,-0.1888427734375,-0.7686004638671875,0.1546478271484375
1726225779713788200,2.0017880859375,-0.2768402099609375,-0.8164215087890625,0.1794586181640625
1726225779723824000,2.01182421875,-0.4792633056640625,-0.7147216796875,0.1494598388671875
1726225779733860000,2.021860107421875,-0.535003662109375,-0.8667449951171875,0.134033203125
1726225779743895000,2.03189501953125,-0.662933349609375,-1.06292724609375,0.148193359375
1726225779753931000,2.041930908203125,-0.7437591552734375,-0.851104736328125,0.115203857421875
1726225779763967000,2.051967041015625,-0.62530517578125,-0.91815185546875,0.09417724609375
1726225779774002200,2.062002197265625,-0.4898834228515625,-1.0671234130859375,0.134735107421875
1726225779784038100,2.0720380859375,-0.5491943359375,-0.785369873046875,0.107208251953125
1726225779794074000,2.08207421875,-0.4452056884765625,-0.58941650390625,0.022308349609375
1726225779804110000,2.092110107421875,-0.1396636962890625,-0.896209716796875,0.0984039306640625
1726225779814145000,2.10214501953125,-0.2049102783203125,-0.951751708984375,0.079681396484375
1726225779824181000,2.112180908203125,-0.512664794921875,-0.755615234375,0.03045654296875
1726225779834217000,2.122217041015625,-0.705810546875,-0.8665008544921875,0.02496337890625
1726225779844253200,2.132253173828125,-0.876129150390625,-1.112548828125,0.0179290771484375
1726225779854288100,2.1422880859375,-0.852081298828125,-1.023162841796875,0.0157012939453125
1726225779864324000,2.152323974609375,-0.6910400390625,-0.9572601318359375,-0.0055694580078125
1726225779874360000,2.162360107421875,-0.6185150146484375,-0.92608642578125,0.046478271484375
1726225779884395000,2.17239501953125,-0.5137786865234375,-0.7268524169921875,0.01397705078125
1726225779894431200,2.18243115234375,-0.1845703125,-0.8303070068359375,0.031158447265625
1726225779904467200,2.19246728515625,0.273345947265625,-0.8820037841796875,0.0315704345703125
1726225779914503200,2.202503173828125,-0.169586181640625,-0.6949920654296875,-0.0155792236328125
1726225779924537900,2.212537841796875,-0.5148162841796875,-0.6240997314453125,-0.006134033203125
1726225779934573800,2.22257373046875,-0.814239501953125,-0.8864593505859375,-0.0623626708984375
1726225779944609800,2.23260986328125,-1.06329345703125,-1.02325439453125,-0.0001678466796875
1726225779954645000,2.24264501953125,-0.948211669921875,-0.9515838623046875,-0.0059967041015625
1726225779964681000,2.252680908203125,-0.6880035400390625,-0.9982147216796875,-0.043487548828125
1726225779974717000,2.262717041015625,-0.465240478515625,-0.908599853515625,-0.0321044921875
1726225779984753000,2.2727529296875,-0.28765869140625,-0.7307281494140625,-0.033966064453125
1726225779994787800,2.282787841796875,-0.249420166015625,-0.8879852294921875,-0.0708160400390625
1726225780004823800,2.29282373046875,-0.3660888671875,-0.8398284912109375,-0.000244140625
1726225780014860000,2.302860107421875,-0.4446868896484375,-0.626617431640625,0.0999603271484375
1726225780024896000,2.31289599609375,-0.7180938720703125,-0.7133636474609375,0.1040191650390625
1726225780034931000,2.322930908203125,-0.7612152099609375,-0.79852294921875,0.1087646484375
1726225780044967000,2.332966796875,-0.7643890380859375,-0.87286376953125,0.15081787109375
1726225780055003000,2.3430029296875,-0.7164306640625,-0.7631072998046875,0.126800537109375
1726225780065038800,2.353038818359375,-0.64947509765625,-0.6833038330078125,0.0881195068359375
1726225780075074000,2.363073974609375,-0.5906982421875,-0.8061676025390625,0.1271209716796875
1726225780085110000,2.373110107421875,-0.4399566650390625,-0.860626220703125,0.0664520263671875
1726225780095146000,2.38314599609375,-0.1197662353515625,-0.827117919921875,-0.0511627197265625
1726225780105181000,2.393180908203125,-0.140380859375,-0.6629180908203125,0.085205078125
1726225780115217000,2.403216796875,-0.5833587646484375,-0.530670166015625,0.017730712890625
1726225780125252900,2.4132529296875,-0.764404296875,-0.839111328125,0.015777587890625
1726225780135288800,2.423288818359375,-0.9957122802734375,-0.9981689453125,0.137847900390625
1726225780145324000,2.433323974609375,-1.02105712890625,-0.806549072265625,0.0099945068359375
1726225780155360000,2.443360107421875,-0.8218841552734375,-0.908538818359375,-0.0010528564453125
1726225780165396000,2.45339599609375,-0.630767822265625,-0.939849853515625,-0.001373291015625
1726225780175432000,2.463431884765625,-0.346038818359375,-0.69287109375,-0.0903472900390625
1726225780185467000,2.473466796875,-0.1800994873046875,-0.771759033203125,-0.07550048828125
1726225780195503000,2.483503173828125,-0.0926971435546875,-0.8354339599609375,-0.0666961669921875
1726225780205539000,2.4935390625,-0.5406646728515625,-0.71075439453125,0.067626953125
1726225780215574000,2.503573974609375,-0.711181640625,-0.707305908203125,0.0806884765625
1726225780225610000,2.51360986328125,-0.8822174072265625,-1.0124359130859375,0.0789947509765625
1726225780235646000,2.52364599609375,-0.9441986083984375,-1.04595947265625,0.0320587158203125
1726225780245682000,2.533681884765625,-0.850189208984375,-0.9134063720703125,-0.024322509765625
1726225780255717000,2.543717041015625,-0.7119598388671875,-0.9334564208984375,-0.0254974365234375
1726225780265753000,2.553753173828125,-0.5366973876953125,-0.713623046875,0.0017547607421875
1726225780275789000,2.5637890625,-0.2402496337890625,-0.6907196044921875,0.0342864990234375
1726225780285825000,2.573824951171875,-0.1054840087890625,-0.93072509765625,0.00048828125
1726225780295860000,2.58385986328125,0.0947418212890625,-0.8797607421875,-0.0066375732421875
1726225780305896000,2.59389599609375,-0.177886962890625,-0.732208251953125,0.0440216064453125
1726225780315932200,2.60393212890625,-0.54583740234375,-0.758148193359375,0.0817718505859375
1726225780325968100,2.613968017578125,-0.9235687255859375,-1.0589599609375,0.121429443359375
1726225780336003000,2.624003173828125,-1.1174468994140625,-1.05462646484375,0.0641632080078125
1726225780346039000,2.6340390625,-1.0905914306640625,-0.934112548828125,0.038177490234375
1726225780356075000,2.644074951171875,-0.83880615234375,-0.9750213623046875,0.0836639404296875
1726225780366110200,2.654110107421875,-0.53314208984375,-0.9409637451171875,0.0690155029296875
1726225780376146200,2.664146240234375,-0.2821807861328125,-0.7520294189453125,0.114349365234375
1726225780386182100,2.67418212890625,-0.0038299560546875,-0.7019195556640625,0.1822052001953125
1726225780396218000,2.684218017578125,-0.102569580078125,-0.749359130859375,0.135009765625
1726225780406253000,2.694253173828125,-0.255340576171875,-0.699432373046875,0.1115570068359375
1726225780416285700,2.70428564453125,-0.501922607421875,-0.8699493408203125,0.08697509765625
1726225780426321700,2.71432177734375,-0.798065185546875,-1.03759765625,0.067138671875
1726225780436357600,2.724357666015625,-0.9210662841796875,-1.0317840576171875,0.0195465087890625
1726225780446392800,2.734392822265625,-0.9085693359375,-1.0674591064453125,0.03363037109375
1726225780456428800,2.7444287109375,-0.764801025390625,-0.9037933349609375,0.0525665283203125
1726225780466464800,2.75446484375,-0.5509185791015625,-0.7550506591796875,0.0940399169921875
1726225780476500700,2.764500732421875,-0.1955108642578125,-0.8654327392578125,0.0892791748046875
1726225780486535700,2.77453564453125,-0.0713653564453125,-0.7415008544921875,0.066070556640625
1726225780496572000,2.784572021484375,-0.263153076171875,-0.546112060546875,0.06854248046875
1726225780506607900,2.79460791015625,-0.4126434326171875,-0.841278076171875,0.1020355224609375
1726225780516643800,2.804643798828125,-0.8449554443359375,-0.99102783203125,0.083831787109375
1726225780526678800,2.8146787109375,-0.9139251708984375,-0.798370361328125,0.0212554931640625
1726225780536714800,2.82471484375,-0.839630126953125,-0.9082183837890625,0.0205230712890625
1726225780546750700,2.834750732421875,-0.728790283203125,-1.023468017578125,0.0485076904296875
1726225780556786700,2.84478662109375,-0.6500244140625,-0.7924346923828125,0.037017822265625
1726225780566822000,2.85482177734375,-0.192047119140625,-0.6274566650390625,0.08837890625
1726225780576857900,2.86485791015625,0.2411346435546875,-0.8775482177734375,0.1160125732421875
1726225780586893800,2.874893798828125,-0.0225982666015625,-0.7292633056640625,0.108734130859375
1726225780596928800,2.8849287109375,-0.1116943359375,-0.7154083251953125,0.180755615234375
1726225780606964700,2.89496484375,-0.653594970703125,-0.913909912109375,0.1828155517578125
1726225780617000700,2.905000732421875,-1.0948638916015625,-0.9102935791015625,0.1407318115234375
1726225780627037000,2.915036865234375,-1.193328857421875,-0.9416046142578125,0.141021728515625
1726225780637072000,2.92507177734375,-1.11798095703125,-0.821746826171875,0.1100311279296875
1726225780647107800,2.93510791015625,-0.982208251953125,-0.667572021484375,0.02215576171875
1726225780657143800,2.945143798828125,-0.4121856689453125,-0.659912109375,0.0284576416015625
1726225780667179800,2.9551796875,-0.0493316650390625,-1.0704193115234375,0.03717041015625
1726225780677215000,2.965215087890625,-0.258697509765625,-0.82781982421875,-0.0048980712890625
1726225780687251000,2.9752509765625,-0.41552734375,-0.5865936279296875,0.0560455322265625
1726225780697287000,2.985286865234375,-0.5746917724609375,-0.8720703125,0.097320556640625
1726225780707323000,2.995322998046875,-0.7385711669921875,-1.0282440185546875,0.0782470703125
1726225780717357800,3.00535791015625,-0.84698486328125,-0.7684478759765625,0.0967559814453125
1726225780727393800,3.015393798828125,-0.8677520751953125,-0.7722015380859375,0.0662689208984375
1726225780737429800,3.0254296875,-0.8057098388671875,-0.7963104248046875,0.0026397705078125
1726225780747465700,3.0354658203125,-0.4800262451171875,-0.7975921630859375,0.0229949951171875
1726225780757501000,3.0455009765625,-0.1329193115234375,-0.8925323486328125,-0.0325927734375
1726225780767537000,3.055536865234375,-0.290557861328125,-0.7485198974609375,-0.194122314453125
1726225780777572900,3.06557275390625,-0.3545989990234375,-0.6522979736328125,-0.072967529296875
1726225780787608800,3.07560888671875,-0.5457305908203125,-0.881500244140625,-0.0904541015625
1726225780797643800,3.085643798828125,-0.801910400390625,-0.9172821044921875,-0.118988037109375
1726225780807680000,3.095679931640625,-0.980743408203125,-0.8644256591796875,-0.038848876953125
1726225780817716000,3.105716064453125,-0.9479522705078125,-0.8829345703125,-0.059326171875
1726225780827752000,3.115751953125,-0.7794342041015625,-0.8514556884765625,-0.0640411376953125
1726225780837787000,3.125786865234375,-0.550506591796875,-0.833343505859375,-0.0319061279296875
1726225780847822800,3.13582275390625,-0.24615478515625,-0.8857421875,0.005615234375
1726225780857858800,3.14585888671875,0.227447509765625,-0.8140411376953125,0.0236968994140625
1726225780867894800,3.155894775390625,-0.0670623779296875,-0.64288330078125,0.0269927978515625
1726225780877930000,3.165929931640625,-0.3243560791015625,-0.631317138671875,0.032196044921875
1726225780887966000,3.175966064453125,-0.881072998046875,-0.9263916015625,0.0330047607421875
1726225780898002000,3.186001953125,-1.1798858642578125,-1.076080322265625,0.079833984375
1726225780908038000,3.196037841796875,-1.247467041015625,-0.9845733642578125,0.1076202392578125
1726225780918072800,3.20607275390625,-0.9951324462890625,-0.9801025390625,0.2306671142578125
1726225780928109000,3.216109130859375,-0.6216888427734375,-0.8124542236328125,0.158721923828125
1726225780938145000,3.22614501953125,-0.1802978515625,-0.7376708984375,0.1407470703125
1726225780948181000,3.236180908203125,0.29559326171875,-0.8062591552734375,0.210418701171875
1726225780958215700,3.246215576171875,0.0225830078125,-0.7846832275390625,0.1284637451171875
1726225780968252000,3.256251953125,-0.2402191162109375,-0.6837158203125,0.162628173828125
1726225780978287900,3.266287841796875,-0.645599365234375,-0.856292724609375,0.169830322265625
1726225780988322800,3.27632275390625,-0.78094482421875,-1.0946807861328125,0.16259765625
1726225780998358800,3.28635888671875,-0.926239013671875,-1.0614471435546875,0.1941986083984375
1726225781008394800,3.296394775390625,-0.81634521484375,-0.895050048828125,0.094573974609375
1726225781018431000,3.306430908203125,-0.5745086669921875,-0.9317474365234375,0.0569915771484375
1726225781028465700,3.316465576171875,-0.393829345703125,-0.9845123291015625,0.110565185546875
1726225781038501600,3.326501708984375,-0.16058349609375,-0.7985687255859375,0.0251617431640625
1726225781048537900,3.336537841796875,-0.35296630859375,-0.71954345703125,0.007415771484375
1726225781058573800,3.34657373046875,-0.426513671875,-0.7526092529296875,0.0516357421875
1726225781068608800,3.35660888671875,-0.6749725341796875,-0.899383544921875,-0.027557373046875
1726225781078644700,3.366644775390625,-0.7716827392578125,-0.8014068603515625,0.05584716796875
1726225781088680700,3.3766806640625,-0.833465576171875,-0.90435791015625,0.0481719970703125
1726225781098716700,3.386716552734375,-0.71856689453125,-0.96240234375,0.0880279541015625
1726225781108752000,3.396751953125,-0.5368804931640625,-0.8401336669921875,0.0233612060546875
1726225781118787800,3.406787841796875,-0.3966827392578125,-0.85888671875,0.072418212890625
1726225781128823800,3.41682373046875,-0.4197235107421875,-0.840850830078125,-0.031494140625
1726225781138859800,3.42685986328125,-0.38983154296875,-0.830810546875,-0.0349578857421875
1726225781148894700,3.436894775390625,-0.53729248046875,-0.825927734375,0.0103912353515625
1726225781158930700,3.4469306640625,-0.581787109375,-0.737762451171875,-0.04864501953125
1726225781168966700,3.456966552734375,-0.55352783203125,-0.923736572265625,-0.0028533935546875
1726225781179003000,3.4670029296875,-0.55133056640625,-0.8673553466796875,0.063873291015625
1726225781189037800,3.477037841796875,-0.658538818359375,-0.7100067138671875,0.0615081787109375
1726225781199073800,3.48707373046875,-0.828277587890625,-0.684417724609375,0.07110595703125
1726225781209109800,3.49710986328125,-0.564605712890625,-0.5978240966796875,0.0638580322265625
1726225781219145700,3.507145751953125,-0.259063720703125,-0.9009246826171875,0.049072265625
1726225781229181000,3.517180908203125,-0.29339599609375,-0.8866119384765625,0.0059967041015625
1726225781239217000,3.527216796875,-0.417510986328125,-0.6790313720703125,0.0420379638671875
1726225781249252900,3.5372529296875,-0.620574951171875,-0.8524932861328125,0.012939453125
1726225781259288800,3.547288818359375,-0.780303955078125,-0.9971923828125,0.0088958740234375
1726225781269323800,3.55732373046875,-0.9023590087890625,-0.8641357421875,0.0539703369140625
1726225781279359700,3.56735986328125,-0.981048583984375,-0.7379302978515625,0.070892333984375
1726225781289395700,3.577395751953125,-0.7530364990234375,-0.665008544921875,0.0011444091796875
1726225781299431700,3.587431640625,-0.2281951904296875,-0.87774658203125,0.0357818603515625
1726225781309467000,3.597466796875,0.027740478515625,-0.948577880859375,-0.0318603515625
1726225781319502800,3.6075029296875,-0.2282562255859375,-0.6422271728515625,-0.056304931640625
1726225781329538800,3.617538818359375,-0.5076446533203125,-0.625823974609375,0.0290374755859375
1726225781339574800,3.62757470703125,-0.8975372314453125,-0.8557281494140625,0.00799560546875
1726225781349609700,3.637609619140625,-1.0767669677734375,-0.989654541015625,0.0290069580078125
1726225781359646000,3.64764599609375,-0.9986114501953125,-1.0657196044921875,0.0115814208984375
1726225781369682000,3.657681884765625,-0.9124908447265625,-0.9211273193359375,-0.039398193359375
1726225781379718000,3.6677177734375,-0.5902557373046875,-0.7972564697265625,-0.0095977783203125
1726225781389752800,3.6777529296875,-0.2191314697265625,-1.045745849609375,0.0298309326171875
1726225781399788800,3.687788818359375,-0.325714111328125,-0.8768157958984375,0.065948486328125
1726225781409824000,3.697823974609375,-0.344757080078125,-0.582244873046875,0.108978271484375
1726225781419860000,3.70785986328125,-0.5265350341796875,-0.7925567626953125,0.1120452880859375
1726225781429896000,3.71789599609375,-0.5892486572265625,-0.9244842529296875,0.0637969970703125
1726225781439931000,3.727930908203125,-0.6077423095703125,-0.8618316650390625,0.12847900390625
1726225781449966800,3.737966796875,-0.69244384765625,-0.826141357421875,0.1345367431640625
1726225781460002800,3.7480029296875,-0.6558074951171875,-0.7351226806640625,0.0809173583984375
1726225781470038800,3.758038818359375,-0.456817626953125,-0.939605712890625,0.1548919677734375
1726225781480074000,3.768073974609375,-0.240570068359375,-0.977142333984375,0.002166748046875
1726225781490110000,3.77810986328125,-0.0772857666015625,-0.623199462890625,-0.0012664794921875
1726225781500146000,3.78814599609375,-0.2532806396484375,-0.632476806640625,0.214874267578125
1726225781510182000,3.798181884765625,-0.3946380615234375,-0.8729400634765625,0.1088104248046875
1726225781520216800,3.808216796875,-0.83465576171875,-0.834716796875,0.1663360595703125
1726225781530253000,3.818253173828125,-1.02142333984375,-0.773834228515625,0.286895751953125
1726225781540289000,3.8282890625,-0.8797760009765625,-0.97296142578125,0.1016082763671875
1726225781550325000,3.838324951171875,-0.762969970703125,-1.02056884765625,0.0962371826171875
1726225781560360000,3.84835986328125,-0.5366973876953125,-0.7361297607421875,0.14984130859375
1726225781570396000,3.85839599609375,-0.2286376953125,-0.7383575439453125,0.0434417724609375
1726225781580432000,3.868431884765625,-0.1368865966796875,-0.90740966796875,-0.0007781982421875
1726225781590467800,3.8784677734375,-0.2222442626953125,-0.8136444091796875,0.03509521484375
1726225781600503000,3.8885029296875,-0.4984130859375,-0.7658233642578125,0.0470428466796875
1726225781610539000,3.8985390625,-0.779022216796875,-0.781524658203125,0.080718994140625
1726225781620575000,3.908574951171875,-0.8155670166015625,-0.9555816650390625,0.0821685791015625
1726225781630611000,3.91861083984375,-0.7910919189453125,-0.990234375,-0.0013275146484375
1726225781640646000,3.92864599609375,-0.7872467041015625,-0.7635955810546875,-0.00726318359375
1726225781650681900,3.938681884765625,-0.59466552734375,-0.5935211181640625,0.0092010498046875
1726225781660718000,3.948718017578125,-0.0335540771484375,-0.8196258544921875,-0.054840087890625
1726225781670754000,3.958754150390625,0.0220489501953125,-0.8946990966796875,0.013458251953125
1726225781680789000,3.9687890625,-0.124969482421875,-0.7322845458984375,0.0603485107421875
1726225781690825000,3.978824951171875,-0.4203643798828125,-0.7188262939453125,0.0806427001953125
1726225781700861000,3.98886083984375,-0.6937255859375,-0.86700439453125,0.108001708984375
1726225781710897000,3.99889697265625,-0.8812408447265625,-1.0031890869140625,0.112213134765625
1726225781720932000,4.00893212890625,-1.0200653076171875,-0.9543304443359375,0.0587921142578125
1726225781730968000,4.018968017578125,-0.86383056640625,-0.7177734375,0.03271484375
1726225781741004000,4.029004150390625,-0.1495208740234375,-0.7723236083984375,-0.0232391357421875
1726225781751040000,4.0390400390625,-0.3144378662109375,-0.93731689453125,0.006591796875
1726225781761075000,4.049074951171875,-0.4297637939453125,-0.6904296875,0.1083526611328125
1726225781771111000,4.05911083984375,-0.83294677734375,-0.7615509033203125,0.2636566162109375
1726225781781147000,4.06914697265625,-1.1066436767578125,-0.87542724609375,0.2471771240234375
1726225781791183000,4.07918310546875,-0.797943115234375,-1.0565643310546875,0.15960693359375
1726225781801218000,4.089218017578125,-0.5316162109375,-1.0263519287109375,0.14453125
1726225781811254000,4.09925390625,-0.50006103515625,-0.639739990234375,0.108917236328125
1726225781821290000,4.1092900390625,-0.53778076171875,-0.47216796875,0.1725921630859375
1726225781831326000,4.119325927734375,-0.260345458984375,-0.748809814453125,0.073883056640625
1726225781841362000,4.12936181640625,0.1640777587890625,-0.8896026611328125,-0.095977783203125
1726225781851397000,4.139397216796875,-0.5164794921875,-0.565338134765625,-0.0283355712890625
1726225781861433000,4.14943310546875,-0.681243896484375,-0.5207366943359375,-0.0438232421875
1726225781871469000,4.159468994140625,-0.1995697021484375,-0.9756317138671875,-0.11529541015625
1726225781881505000,4.169505126953125,-1.3947906494140625,-0.9670257568359375,-0.0518951416015625
1726225781891540000,4.1795400390625,-1.978851318359375,-0.8362579345703125,0.0356597900390625
1726225781901576000,4.189575927734375,-1.617279052734375,-1.270751953125,-0.0180816650390625
1726225781911612200,4.199612060546875,-0.739990234375,-1.064971923828125,-0.08355712890625
1726225781921648000,4.209648193359375,-0.4322662353515625,-0.8388671875,-0.00030517578125
1726225781931683000,4.21968310546875,0.1287689208984375,-0.855133056640625,0.0602569580078125
1726225781941719000,4.229718994140625,0.198486328125,-0.7459564208984375,-0.043975830078125
1726225781951755000,4.239755126953125,-0.3642120361328125,-0.5783843994140625,0.112945556640625
1726225781961791000,4.249791015625,-0.2606964111328125,-0.749664306640625,0.0330657958984375
1726225781971826200,4.259826171875,-0.7877655029296875,-0.9242706298828125,-0.016998291015625
1726225781981862100,4.269862060546875,-0.7069854736328125,-0.774017333984375,-0.0014801025390625
1726225781991898000,4.279898193359375,-0.7047119140625,-0.8937225341796875,-0.0388031005859375
1726225782001934000,4.28993408203125,-0.530670166015625,-0.75341796875,-0.052215576171875
1726225782011970000,4.299969970703125,0.0337982177734375,-0.799896240234375,-0.07379150390625
1726225782022005000,4.3100048828125,-0.4912567138671875,-0.720367431640625,-0.0012359619140625
1726225782032041000,4.320041015625,-0.8559722900390625,-0.6533355712890625,0.0267486572265625
1726225782042077200,4.3300771484375,-1.0339202880859375,-1.02020263671875,0.0257720947265625
1726225782052113200,4.340113037109375,-1.488067626953125,-1.1780242919921875,0.05712890625
1726225782062148000,4.350148193359375,-0.9467926025390625,-0.95684814453125,0.074920654296875
1726225782072184000,4.36018408203125,-0.8387603759765625,-1.0567779541015625,0.171112060546875
1726225782082220000,4.370219970703125,-0.60345458984375,-0.611419677734375,0.1363372802734375
1726225782092256000,4.380256103515625,0.3578033447265625,-0.7071990966796875,0.0696563720703125
1726225782102291200,4.390291259765625,0.3190460205078125,-0.89105224609375,0.04461669921875
1726225782112327200,4.4003271484375,0.29144287109375,-0.5755157470703125,0.049224853515625
1726225782122363100,4.410363037109375,0.1332855224609375,-0.5085601806640625,0.0892486572265625
1726225782132399000,4.420399169921875,-0.5795440673828125,-0.8383636474609375,0.08966064453125
1726225782142433800,4.430433837890625,-1.5226287841796875,-0.79443359375,0.1248321533203125
1726225782152470000,4.440469970703125,-1.8887939453125,-0.902130126953125,0.2217559814453125
1726225782162506000,4.450506103515625,-2.126708984375,-1.1872406005859375,0.1559600830078125
1726225782172542200,4.460542236328125,-0.9173583984375,-1.22723388671875,0.075958251953125
1726225782182577000,4.470576904296875,0.239288330078125,-1.064453125,-0.137969970703125
1726225782192612900,4.48061279296875,0.3603515625,-0.895050048828125,0.000762939453125
1726225782202648800,4.49064892578125,0.5205841064453125,-0.366119384765625,-0.1687469482421875
1726225782212685000,4.50068505859375,0.4332427978515625,-0.2716217041015625,-0.0561370849609375
1726225782222721000,4.510720947265625,0.629241943359375,-1.101409912109375,0.182373046875
1726225782232756000,4.520755859375,-0.960784912109375,-1.2722930908203125,0.2268829345703125
1726225782242792000,4.5307919921875,-1.76123046875,-0.723541259765625,-0.0719451904296875
1726225782252828000,4.540827880859375,-1.3991546630859375,-1.0188751220703125,-0.0329437255859375
1726225782262864100,4.550864013671875,-0.407806396484375,-1.382843017578125,0.104217529296875
1726225782272898800,4.56089892578125,-0.5433197021484375,-1.2689208984375,0.1070556640625
1726225782282934800,4.570934814453125,-0.6590728759765625,-0.39007568359375,0.14654541015625
1726225782292971000,4.580970947265625,-0.3319549560546875,-0.3487091064453125,-0.1184844970703125
1726225782303007000,4.591007080078125,-0.1826171875,-1.1516265869140625,-0.131683349609375
1726225782313042000,4.6010419921875,-0.6179962158203125,-1.1188507080078125,0.0249176025390625
1726225782323078000,4.611077880859375,-0.9798126220703125,-0.2847137451171875,-0.128509521484375
1726225782333113900,4.62111376953125,-0.772247314453125,-0.4379119873046875,0.0232086181640625
1726225782343149800,4.63114990234375,-0.686614990234375,-1.1100921630859375,0.1200103759765625
1726225782353185800,4.641185791015625,-0.031097412109375,-1.2255401611328125,-0.03985595703125
1726225782363221000,4.651220947265625,-0.474609375,-0.6611175537109375,-0.0054168701171875
1726225782373257000,4.661257080078125,-0.0184326171875,-0.433074951171875,0.00457763671875
1726225782383293000,4.67129296875,-0.0325927734375,-1.089630126953125,0.086181640625
1726225782393329000,4.681328857421875,-0.915313720703125,-0.881622314453125,0.113983154296875
1726225782403363800,4.69136376953125,-1.084747314453125,-0.341705322265625,0.0920867919921875
1726225782413404000,4.70140380859375,-0.7430877685546875,-0.7672576904296875,0.2482452392578125
1726225782423440000,4.71143994140625,-1.008758544921875,-1.1278076171875,0.2246856689453125
1726225782433476000,4.72147607421875,-0.8102874755859375,-0.85009765625,0.07037353515625
1726225782443511000,4.731510986328125,-0.4036102294921875,-0.450775146484375,0.056060791015625
1726225782453547000,4.741547119140625,-0.7095794677734375,-0.573516845703125,0.034881591796875
1726225782463583000,4.7515830078125,0.067108154296875,-1.0498504638671875,-0.139190673828125
1726225782473619000,4.761618896484375,-0.4698486328125,-1.24462890625,-0.104095458984375
1726225782483655000,4.771655029296875,-0.677520751953125,-0.737213134765625,0.15167236328125
1726225782493690000,4.781690185546875,-0.4488067626953125,-0.9482269287109375,0.176849365234375
1726225782503726000,4.79172607421875,-0.9960784912109375,-0.9472503662109375,0.188629150390625
1726225782513762000,4.801761962890625,-0.9589080810546875,-0.4674530029296875,0.2135009765625
1726225782523798000,4.811798095703125,-0.4853973388671875,-0.80120849609375,-0.1238861083984375
1726225782533833000,4.8218330078125,-0.4847869873046875,-1.1441650390625,-0.04193115234375
1726225782543869000,4.831868896484375,-1.00201416015625,-0.5563201904296875,0.0412445068359375
1726225782553905000,4.84190478515625,-0.9461517333984375,-0.255218505859375,-0.0518646240234375
1726225782563941000,4.851941162109375,-0.2658843994140625,-1.1993865966796875,0.08428955078125
1726225782573976000,4.86197607421875,0.53826904296875,-1.6436004638671875,-0.015716552734375
1726225782584012000,4.872011962890625,-0.1193084716796875,-0.3746490478515625,-0.04827880859375
1726225782594048000,4.882048095703125,-0.892822265625,0.3408203125,0.196441650390625
1726225782604084000,4.892083984375,-0.640594482421875,-0.812957763671875,0.00433349609375
1726225782614120000,4.902119873046875,-0.5453948974609375,-1.40478515625,0.0708160400390625
1726225782624155100,4.912155029296875,-0.8638458251953125,-1.251617431640625,0.17864990234375
1726225782634191000,4.922191162109375,-0.767120361328125,-0.370635986328125,0.003143310546875
1726225782644227000,4.93222705078125,-0.6335296630859375,-0.438873291015625,0.197784423828125
1726225782654263000,4.942262939453125,0.312103271484375,-1.2923583984375,0.17413330078125
1726225782664298000,4.952298095703125,-0.1534423828125,-1.292724609375,0.0111236572265625
1726225782674334000,4.962333984375,-1.2996826171875,-0.135528564453125,0.149688720703125
1726225782684370000,4.972369873046875,-1.51513671875,-0.309356689453125,0.132415771484375
1726225782694406100,4.98240625,-0.9699249267578125,-1.286407470703125,0.2426605224609375
1726225782704441000,4.992441162109375,-0.366424560546875,-1.4923095703125,0.124969482421875
1726225782714477000,5.00247705078125,-0.611419677734375,-0.317352294921875,-0.1264190673828125
1726225782724513000,5.012512939453125,0.0565185546875,-0.5204925537109375,0.131805419921875
1726225782734549000,5.022549072265625,0.4329681396484375,-1.2623443603515625,0.273590087890625
1726225782744585000,5.0325849609375,-0.45782470703125,-0.8995361328125,0.015869140625
1726225782754620200,5.0426201171875,-0.7962188720703125,-0.0074462890625,-0.0761566162109375
1726225782764656000,5.05265625,-0.940338134765625,-0.837646484375,-0.01824951171875
1726225782774692000,5.062692138671875,-1.0337677001953125,-1.5724334716796875,0.1366424560546875
1726225782784728000,5.07272802734375,-1.0445404052734375,-0.924346923828125,0.127960205078125
1726225782794763000,5.082762939453125,-0.3998260498046875,-0.585968017578125,-0.059295654296875
1726225782804799000,5.092799072265625,-0.51495361328125,-1.057464599609375,-0.056884765625
1726225782814835000,5.1028349609375,0.087371826171875,-1.3563690185546875,0.167938232421875
1726225782824871200,5.11287109375,-0.3103485107421875,-0.536651611328125,-0.00299072265625
1726225782834907100,5.1229072265625,-0.0961151123046875,-0.0881805419921875,0.174041748046875
1726225782844942000,5.132942138671875,-0.3952178955078125,-0.97357177734375,0.20941162109375
1726225782854978000,5.14297802734375,-0.7447662353515625,-1.112518310546875,0.1588897705078125
1726225782865014000,5.153013916015625,-1.011474609375,-0.4641265869140625,0.2318572998046875
1726225782875050000,5.163050048828125,-1.0169525146484375,-0.914398193359375,0.1381378173828125
1726225782885085200,5.173085205078125,-0.97698974609375,-1.6514739990234375,-0.0842437744140625
1726225782895121200,5.18312109375,-0.8827667236328125,-1.2545166015625,0.029327392578125
1726225782905157000,5.1931572265625,-0.9492950439453125,-0.225830078125,0.066314697265625
1726225782915193000,5.203193115234375,-0.5405120849609375,-0.371551513671875,0.1455230712890625
1726225782925229000,5.21322900390625,-0.323699951171875,-1.0519561767578125,0.2173919677734375
1726225782935264000,5.223263916015625,-0.511932373046875,-0.8467559814453125,-0.00604248046875
1726225782945300200,5.23330029296875,-0.36004638671875,-0.2397308349609375,-0.0185089111328125
1726225782955336200,5.243336181640625,-0.0775146484375,-1.0269927978515625,0.2949066162109375
1726225782965372200,5.2533720703125,-0.39990234375,-1.4426116943359375,0.041229248046875
1726225782975406800,5.26340673828125,-1.1220855712890625,-0.45977783203125,0.069915771484375
1726225782985443000,5.273443115234375,-0.728302001953125,0.047271728515625,0.0919647216796875
1726225782995479000,5.28347900390625,-0.2451934814453125,-1.0118255615234375,0.049835205078125
1726225783005515000,5.293514892578125,-0.2282867431640625,-1.4587860107421875,-0.01617431640625
1726225783015550000,5.303550048828125,-1.0010986328125,-0.8361968994140625,0.147552490234375
1726225783025586000,5.3135859375,-0.9058380126953125,-0.4349822998046875,0.011962890625
1726225783035622000,5.323621826171875,-0.0681304931640625,-0.9740447998046875,0.170745849609375
1726225783045658000,5.333658203125,-0.3845367431640625,-0.936248779296875,0.128875732421875
1726225783055694000,5.343694091796875,-0.8557586669921875,-0.4218902587890625,-0.01434326171875
1726225783065729000,5.35372900390625,-1.1859893798828125,-0.239410400390625,-0.000030517578125
1726225783075765000,5.363764892578125,-0.7633056640625,-1.1033935546875,0.078460693359375
1726225783085801000,5.373801025390625,-0.530487060546875,-1.4044647216796875,0.0424346923828125
1726225783095837000,5.3838369140625,-0.764434814453125,-0.8221435546875,0.0150604248046875
1726225783105872000,5.393871826171875,-0.46075439453125,-0.767547607421875,-0.110321044921875
1726225783115907800,5.403907958984375,-0.3052520751953125,-0.8540802001953125,0.014129638671875
1726225783125943800,5.41394384765625,-0.344757080078125,-0.751007080078125,0.14874267578125
1726225783135979800,5.423979736328125,-0.43408203125,-0.6255340576171875,-0.02069091796875
1726225783146016000,5.43401611328125,-0.4655303955078125,-0.99078369140625,0.10302734375
1726225783156051000,5.444051025390625,-0.854400634765625,-0.55255126953125,0.0321044921875
1726225783166087000,5.4540869140625,-0.2371368408203125,-0.701690673828125,0.1168975830078125
1726225783176123000,5.464122802734375,-0.336395263671875,-1.31268310546875,0.0060577392578125
1726225783186158800,5.474158935546875,-0.745697021484375,-0.9986572265625,0.0198974609375
1726225783196194000,5.484194091796875,-0.7770233154296875,-0.634918212890625,0.1803741455078125
1726225783206230000,5.49422998046875,-0.0594024658203125,-0.7270965576171875,0.12628173828125
1726225783216266000,5.504265869140625,0.4202423095703125,-0.976806640625,0.1468658447265625
1726225783226302000,5.514302001953125,-0.2007904052734375,-0.9004974365234375,0.258026123046875
1726225783236338000,5.524337890625,-0.5402679443359375,-0.29046630859375,0.2092437744140625
1726225783246372900,5.534372802734375,-0.6864776611328125,-0.8906097412109375,0.11993408203125
1726225783256408800,5.544408935546875,-1.28924560546875,-1.4999847412109375,0.1070556640625
1726225783266444800,5.55444482421875,-1.645172119140625,-1.14263916015625,0.022064208984375
1726225783276481000,5.56448095703125,-1.3235321044921875,-0.624908447265625,0.0892181396484375
1726225783286516000,5.574515869140625,-0.9653778076171875,-0.67742919921875,0.0729522705078125
1726225783296552000,5.584552001953125,0.205078125,-1.3173065185546875,0.1029815673828125
1726225783306588000,5.594587890625,0.24627685546875,-1.1065673828125,0.053375244140625
1726225783316624000,5.604623779296875,0.10321044921875,-0.1307525634765625,-0.0117645263671875
1726225783326659800,5.614659912109375,-0.0113983154296875,-0.1597747802734375,0.0336151123046875
1726225783336695000,5.624695068359375,0.2087554931640625,-1.26239013671875,0.0819091796875
1726225783346731000,5.63473095703125,-0.856353759765625,-1.1297607421875,0.222198486328125
1726225783356767000,5.64476708984375,-1.4960784912109375,-0.4569091796875,0.2254638671875
1726225783366803000,5.654802978515625,-2.0059051513671875,-0.791046142578125,0.0994873046875
1726225783376838000,5.664837890625,-1.057342529296875,-1.128875732421875,0.2144012451171875
1726225783386873900,5.674873779296875,-0.2492218017578125,-1.4129486083984375,0.22998046875
1726225783396910000,5.68491015625,0.3810577392578125,-0.736053466796875,0.0375823974609375
1726225783406946000,5.694946044921875,0.0601959228515625,-0.534271240234375,0.0274810791015625
1726225783416978200,5.704978271484375,0.3676605224609375,-0.66827392578125,-0.0604400634765625
1726225783427013000,5.71501318359375,-0.023162841796875,-0.8985595703125,-0.1043243408203125
1726225783437049000,5.725049072265625,-1.5251922607421875,-0.41009521484375,0.0486907958984375
1726225783447085000,5.7350849609375,-1.949951171875,-0.6075592041015625,0.028594970703125
1726225783457121000,5.74512109375,-1.59423828125,-1.0711822509765625,0.1268768310546875
1726225783467157200,5.7551572265625,-0.4540252685546875,-1.268951416015625,0.2895050048828125
1726225783477192200,5.765192138671875,-0.5298614501953125,-0.8505706787109375,0.0608062744140625
1726225783487228200,5.775228271484375,-0.29644775390625,-0.545654296875,0.1115875244140625
1726225783497264000,5.78526416015625,-0.0808868408203125,-0.8095703125,0.2108001708984375
1726225783507300000,5.795300048828125,-0.1175994873046875,-0.600982666015625,0.1643218994140625
1726225783517335300,5.805335205078125,-0.23321533203125,-0.7061767578125,0.53045654296875
1726225783527371300,5.815371337890625,-0.9375,-0.8061370849609375,0.4003448486328125
1726225783537407200,5.8254072265625,-1.6006622314453125,-0.6075897216796875,0.08294677734375
1726225783547443200,5.835443115234375,-1.3727874755859375,-0.812408447265625,0.1455841064453125
1726225783557479200,5.845479248046875,-1.35015869140625,-1.3054656982421875,0.1999664306640625
1726225783567514000,5.85551416015625,-0.8474578857421875,-1.100677490234375,-0.053741455078125
1726225783577550000,5.865550048828125,-0.0403594970703125,-0.6426849365234375,0.04168701171875
1726225783587586000,5.8755859375,0.6823272705078125,-0.889404296875,-0.047149658203125
1726225783597622300,5.885622314453125,0.581756591796875,-0.9612884521484375,-0.0037689208984375
1726225783607657200,5.8956572265625,0.3578643798828125,-0.660919189453125,-0.023284912109375
1726225783617693200,5.905693115234375,-0.68804931640625,-0.27447509765625,-0.1720428466796875
1726225783627729200,5.915729248046875,-1.148712158203125,-0.494232177734375,-0.0611114501953125
1726225783637765000,5.92576513671875,-1.5934295654296875,-1.0702972412109375,0.12249755859375
1726225783647801000,5.935801025390625,-1.2436370849609375,-0.9934539794921875,-0.230438232421875
1726225783657836300,5.945836181640625,-0.9661102294921875,-0.7350921630859375,-0.1833038330078125
1726225783667872300,5.955872314453125,-0.4753875732421875,-0.7418212890625,-0.1757354736328125
1726225783677908200,5.965908203125,0.33099365234375,-1.368743896484375,0.0993194580078125
1726225783687944200,5.975944091796875,-0.0476837158203125,-1.0679931640625,0.269134521484375
1726225783697979000,5.985978759765625,-0.9642486572265625,-0.1963653564453125,0.197174072265625
1726225783708014800,5.996014892578125,-0.5567169189453125,-0.531036376953125,0.299224853515625
1726225783718051000,6.006051025390625,-0.2873992919921875,-1.294464111328125,0.2202606201171875
1726225783728087300,6.01608740234375,-0.824554443359375,-0.8360595703125,0.0729827880859375
1726225783738123300,6.026123291015625,-0.99920654296875,-0.242919921875,0.0389556884765625
1726225783748158000,6.036157958984375,-0.6866455078125,-1.072845458984375,-0.013671875
1726225783758194000,6.04619384765625,-0.6006011962890625,-1.793792724609375,0.0106048583984375
1726225783768230000,6.05622998046875,-0.55364990234375,-1.3212432861328125,-0.0486297607421875
1726225783778266000,6.06626611328125,-1.069549560546875,-0.22747802734375,-0.2268524169921875
1726225783788302000,6.076302001953125,0.090484619140625,-0.58990478515625,-0.02252197265625
1726225783798337000,6.0863369140625,0.56488037109375,-1.2801971435546875,0.0955352783203125
1726225783808373000,6.096373046875,-0.078155517578125,-0.6017303466796875,0.142303466796875
1726225783818409000,6.106408935546875,-0.6409912109375,-0.2788848876953125,0.100921630859375
1726225783828445200,6.116445068359375,0.2078857421875,-0.8396148681640625,-0.0370025634765625
1726225783838480000,6.12647998046875,-0.3405609130859375,-1.2020721435546875,0.2409820556640625
1726225783848516000,6.13651611328125,-1.1595306396484375,-1.1014404296875,0.1368408203125
1726225783858552000,6.146552001953125,-1.2855072021484375,-0.65277099609375,-0.1165924072265625
1726225783868588000,6.156588134765625,-0.93231201171875,-1.2683563232421875,0.1293182373046875
1726225783878624000,6.1666240234375,-0.9210357666015625,-1.2335052490234375,-0.13580322265625
1726225783888659000,6.176658935546875,-0.60321044921875,-0.8961181640625,0.0367584228515625
1726225783898695000,6.18669482421875,-0.3640594482421875,-0.3335418701171875,0.1393890380859375
1726225783908731000,6.19673095703125,0.0482025146484375,-0.5155487060546875,-0.0870513916015625
1726225783918766800,6.206766845703125,-0.033294677734375,-0.8472137451171875,0.1143035888671875
1726225783928803000,6.216802978515625,-0.6590118408203125,-0.87408447265625,0.1691131591796875
1726225783938838000,6.226838134765625,-1.2247772216796875,-0.3670196533203125,-0.0713043212890625
1726225783948874000,6.2368740234375,-1.262298583984375,-0.885833740234375,0.0087127685546875
1726225783958910000,6.246909912109375,-0.739593505859375,-1.26165771484375,0.0691375732421875
1726225783968946000,6.25694580078125,-0.496429443359375,-1.08343505859375,-0.0460205078125
1726225783978981000,6.266981201171875,-0.361846923828125,-0.3952484130859375,0.102813720703125
1726225783989017000,6.27701708984375,-0.1855010986328125,-0.2859649658203125,-0.0668792724609375
1726225783999053000,6.287052978515625,0.319091796875,-0.864532470703125,0.0036468505859375
1726225784009089000,6.297089111328125,-0.7394561767578125,-0.914947509765625,0.297332763671875
1726225784019125000,6.307125,-1.25189208984375,-0.3742218017578125,0.100189208984375
1726225784029160000,6.317159912109375,-0.374114990234375,-1.0593414306640625,0.016082763671875
1726225784039196000,6.32719580078125,-0.91143798828125,-0.9502105712890625,0.1734466552734375
1726225784049232100,6.337232177734375,-0.7955474853515625,-0.9462890625,-0.072052001953125
1726225784059268000,6.34726806640625,-0.8572540283203125,-1.0758209228515625,0.05499267578125
1726225784069304000,6.357303955078125,-1.065032958984375,-0.9285125732421875,-0.0150146484375
1726225784079339000,6.367339111328125,-0.890594482421875,-0.701385498046875,0.004638671875
1726225784089375000,6.377375,-0.6619110107421875,-0.6609039306640625,0.133453369140625
1726225784099411000,6.387410888671875,-0.3486480712890625,-0.678558349609375,0.1389312744140625
1726225784109447000,6.397447021484375,-0.326934814453125,-0.5761871337890625,0.0056610107421875
1726225784119482000,6.407482177734375,0.173095703125,-0.516021728515625,0.159332275390625
1726225784129518000,6.41751806640625,-0.43505859375,-1.037078857421875,0.0723114013671875
1726225784139554000,6.427553955078125,-0.9723968505859375,-0.7564697265625,-0.1190643310546875
1726225784149590000,6.437590087890625,-1.11724853515625,-0.941558837890625,0.2017974853515625
1726225784159626000,6.4476259765625,-0.44964599609375,-1.3088226318359375,0.3003082275390625
1726225784169661000,6.457660888671875,-0.6148834228515625,-1.15155029296875,0.1827545166015625
1726225784179697200,6.467697265625,-0.248291015625,-0.59033203125,0.063140869140625
1726225784189733000,6.477733154296875,-0.540069580078125,-0.4862060546875,-0.07952880859375
1726225784199769000,6.48776904296875,-0.421356201171875,-0.818756103515625,0.0125732421875
1726225784209805000,6.49780517578125,-0.8505401611328125,-1.1562957763671875,0.126190185546875
1726225784219840000,6.507840087890625,-1.434234619140625,-0.5753326416015625,0.0419921875
1726225784229876000,6.5178759765625,-0.9657440185546875,-0.6082611083984375,0.0985565185546875
1726225784239912000,6.527911865234375,-0.180755615234375,-1.309906005859375,0.2333221435546875
1726225784249948000,6.537947998046875,-0.1224212646484375,-1.144805908203125,0.165283203125
1726225784259984100,6.547984130859375,-0.1231842041015625,-0.3192291259765625,0.1646575927734375
1726225784270019000,6.55801904296875,-0.261627197265625,-0.2413177490234375,0.076751708984375
1726225784280055000,6.568054931640625,-0.1115570068359375,-1.37103271484375,0.136474609375
1726225784290091000,6.578091064453125,-1.2144317626953125,-0.9448394775390625,-0.0162353515625
1726225784300127000,6.588126953125,-1.9233245849609375,-0.1732177734375,-0.06561279296875
1726225784310162200,6.598162109375,-0.8249969482421875,-1.068115234375,0.016448974609375
1726225784320198100,6.6081982421875,-0.3674774169921875,-1.8031768798828125,0.08135986328125
1726225784330234000,6.618234130859375,0.344879150390625,-0.87847900390625,0.15496826171875
1726225784340270000,6.62827001953125,-0.1419830322265625,-0.1369476318359375,0.104339599609375
1726225784350306000,6.63830615234375,-0.0305023193359375,-0.1290740966796875,-0.049957275390625
1726225784360341000,6.648341064453125,0.0917205810546875,-1.43115234375,-0.1164093017578125
1726225784370377000,6.658376953125,-0.5550689697265625,-1.352783203125,-0.1632843017578125
1726225784380413000,6.668412841796875,-1.50726318359375,-0.623046875,-0.0004730224609375
1726225784390449200,6.67844921875,-1.0547637939453125,-0.8360137939453125,0.0912933349609375
1726225784400485000,6.688485107421875,-0.1664886474609375,-1.426971435546875,-0.072509765625
1726225784410520000,6.69852001953125,-0.303558349609375,-0.72454833984375,-0.360687255859375
1726225784420556000,6.70855615234375,-0.3212890625,-0.1667938232421875,-0.0320587158203125
1726225784430592000,6.718592041015625,-0.2136077880859375,-0.609832763671875,0.1767730712890625
1726225784440628000,6.7286279296875,0.0751800537109375,-1.0765228271484375,-0.0943145751953125
1726225784450664000,6.738663818359375,-1.0010833740234375,-0.96722412109375,0.1967315673828125
1726225784460699100,6.74869921875,-1.8407135009765625,-0.5687408447265625,0.0767822265625
1726225784470735000,6.758735107421875,-1.2219085693359375,-1.0079803466796875,-0.115325927734375
1726225784480771000,6.76877099609375,-0.05908203125,-1.289459228515625,0.0317840576171875
1726225784490807000,6.77880712890625,-0.2648773193359375,-0.9926605224609375,-0.2685546875
1726225784500842000,6.788842041015625,-0.3885955810546875,-0.3645477294921875,-0.1395416259765625
1726225784510878200,6.798878173828125,-0.1428070068359375,-0.486083984375,0.10748291015625
1726225784520914200,6.8089140625,-0.3121490478515625,-1.0997467041015625,-0.10467529296875
1726225784530950100,6.8189501953125,-1.1823883056640625,-1.155242919921875,0.0899658203125
1726225784540986000,6.828986083984375,-1.3629608154296875,-0.744873046875,0.1005706787109375
1726225784551021000,6.83902099609375,-0.9554595947265625,-0.7407073974609375,0.0155029296875
1726225784561057000,6.84905712890625,-0.822418212890625,-0.9277191162109375,0.19342041015625
1726225784571093000,6.859093017578125,-0.9676361083984375,-0.837860107421875,0.0729217529296875
1726225784581129000,6.86912890625,-0.29180908203125,-0.774017333984375,-0.013641357421875
1726225784591165200,6.879165283203125,-0.306396484375,-0.6410369873046875,-0.03948974609375
1726225784601200000,6.8892001953125,0.18292236328125,-0.6493072509765625,0.2594757080078125
1726225784611236000,6.899236083984375,0.0318450927734375,-1.092559814453125,0.3112335205078125
1726225784621272000,6.90927197265625,-1.0006866455078125,-0.6766815185546875,0.1890106201171875
1726225784631308000,6.91930810546875,-2.0397796630859375,-0.5173187255859375,0.3595733642578125
1726225784641344000,6.929343994140625,-1.9486846923828125,-1.241729736328125,0.3648834228515625
1726225784651379200,6.939379150390625,-0.656890869140625,-1.38134765625,0.03387451171875
1726225784661415200,6.949415283203125,0.0218048095703125,-0.7597198486328125,-0.1064910888671875
1726225784671451100,6.959451171875,0.0579833984375,-0.05035400390625,-0.1974945068359375
1726225784681487000,6.969487060546875,0.496002197265625,-0.801300048828125,-0.0163726806640625
1726225784691523000,6.979523193359375,0.099853515625,-0.7918548583984375,-0.151885986328125
1726225784701558000,6.98955810546875,-0.60516357421875,-0.6288604736328125,0.1129302978515625
1726225784711594000,6.999593994140625,-0.904541015625,-0.77020263671875,0.1760101318359375
1726225784721630200,7.009630126953125,-1.09210205078125,-0.9253692626953125,0.1956787109375
1726225784731666200,7.019666259765625,-0.8489227294921875,-0.5811004638671875,0.0259552001953125
1726225784741701000,7.029701171875,-0.7279052734375,-0.663116455078125,-0.2061309814453125
1726225784751737000,7.039737060546875,-0.41021728515625,-1.0478515625,-0.16876220703125
1726225784761773000,7.04977294921875,-0.3667449951171875,-0.9168701171875,-0.0278472900390625
1726225784771809000,7.05980908203125,-0.4474029541015625,-0.7046051025390625,-0.0071258544921875
1726225784781845000,7.069844970703125,-0.447784423828125,-0.951690673828125,-0.0211639404296875
1726225784791880200,7.079880126953125,-0.4668426513671875,-1.1741790771484375,0.0618743896484375
1726225784801916200,7.089916259765625,-0.4812164306640625,-0.507659912109375,0.071014404296875
1726225784811952000,7.0999521484375,-0.74053955078125,-0.05859375,0.164703369140625
1726225784821988000,7.109988037109375,-0.338287353515625,-0.833740234375,0.1316680908203125
1726225784832024000,7.120024169921875,-0.459716796875,-1.449737548828125,0.164825439453125
1726225784842059000,7.13005908203125,-0.42315673828125,-0.8965911865234375,-0.07855224609375
1726225784852095200,7.14009521484375,-0.5623016357421875,-0.6718597412109375,0.1082305908203125
1726225784862131200,7.150131103515625,-0.8348541259765625,-1.179840087890625,0.101409912109375
1726225784872167200,7.160167236328125,-0.6635894775390625,-1.1167449951171875,-0.164337158203125
1726225784882203100,7.170203125,-0.4419403076171875,-0.72528076171875,0.040008544921875
1726225784892238000,7.180238037109375,0.11700439453125,-0.6653289794921875,0.0851898193359375
1726225784902274000,7.190274169921875,-0.0123138427734375,-0.804351806640625,0.0331268310546875
1726225784912310000,7.20031005859375,0.0722503662109375,-0.74993896484375,0.005950927734375
1726225784922346200,7.21034619140625,-0.5038299560546875,-0.8778076171875,0.1829681396484375
1726225784932382200,7.22038232421875,-1.62188720703125,-0.688232421875,0.34625244140625
1726225784942417200,7.230417236328125,-1.1103668212890625,-0.9375152587890625,0.1113128662109375
1726225784952453000,7.240453125,-0.4138946533203125,-1.255584716796875,-0.1492462158203125
1726225784962489000,7.250489013671875,-0.8402099609375,-1.0671844482421875,-0.1184539794921875
1726225784972525000,7.260525146484375,-0.749176025390625,-0.6781768798828125,-0.02764892578125
1726225784982561000,7.27056103515625,-0.3188934326171875,-0.6042327880859375,0.08929443359375
1726225784992596200,7.28059619140625,-0.087860107421875,-0.740234375,0.1632232666015625
1726225785002632200,7.290632080078125,-0.83441162109375,-0.689483642578125,0.172210693359375
1726225785012668200,7.300668212890625,-0.6337890625,-0.7640533447265625,-0.0238189697265625
1726225785022704000,7.3107041015625,-1.311004638671875,-0.6618194580078125,0.09246826171875
1726225785032740000,7.320739990234375,-1.1275177001953125,-0.78216552734375,0.0689849853515625
1726225785042775000,7.330775146484375,-1.087432861328125,-1.27716064453125,0.0673675537109375
1726225785052811300,7.340811279296875,-0.4900360107421875,-1.0164794921875,0.1784210205078125
1726225785062847200,7.35084716796875,0.0941619873046875,-0.7092437744140625,0.000518798828125
1726225785072883200,7.36088330078125,-0.2089691162109375,-0.635589599609375,0.1448822021484375
1726225785082919200,7.370919189453125,0.1243743896484375,-0.65814208984375,0.0590972900390625
1726225785092954000,7.3809541015625,-0.2035064697265625,-0.8067474365234375,0.0257720947265625
1726225785102990000,7.390989990234375,-0.8921356201171875,-0.545654296875,0.091888427734375
1726225785113026000,7.401026123046875,-1.2878570556640625,-0.820770263671875,0.123870849609375
1726225785123062000,7.41106201171875,-1.3841400146484375,-1.0491943359375,0.213287353515625
1726225785133098200,7.42109814453125,-1.0024871826171875,-0.70849609375,0.1660614013671875
1726225785143133200,7.43113330078125,-0.023681640625,-0.55499267578125,0.0482635498046875
1726225785153169200,7.441169189453125,0.33489990234375,-0.913482666015625,0.0886077880859375
1726225785163205000,7.451205078125,0.9694366455078125,-0.71343994140625,-0.033966064453125
1726225785173241000,7.461240966796875,0.2563018798828125,-0.5024261474609375,0.14642333984375
1726225785183277000,7.471277099609375,-1.0345306396484375,-0.42578125,0.143768310546875
1726225785193312300,7.481312255859375,-1.8461761474609375,-0.8287353515625,0.170440673828125
1726225785203348200,7.49134814453125,-1.991912841796875,-1.2076416015625,0.154815673828125
1726225785213384200,7.50138427734375,-1.7778778076171875,-0.9955291748046875,-0.0198211669921875
1726225785223420200,7.511420166015625,-1.4393157958984375,-0.9080047607421875,0.154541015625
1726225785233456000,7.5214560546875,-0.4239654541015625,-0.918670654296875,0.0620574951171875
1726225785243491000,7.531490966796875,0.203765869140625,-0.9042816162109375,-0.075714111328125
1726225785253527000,7.541527099609375,0.2667999267578125,-0.6843109130859375,0.04595947265625
1726225785263563300,7.551563232421875,0.212646484375,-0.7215118408203125,0.0456695556640625
1726225785273599200,7.56159912109375,-0.0575408935546875,-0.638885498046875,0.02056884765625
1726225785283634200,7.57163427734375,-0.4744415283203125,-0.7729034423828125,-0.1053924560546875
1726225785293670100,7.581670166015625,-1.148468017578125,-0.8140869140625,-0.101715087890625
1726225785303706000,7.5917060546875,-1.69317626953125,-0.93658447265625,0.0345001220703125
1726225785313742000,7.6017421875,-1.144439697265625,-1.10198974609375,-0.0147247314453125
1726225785323778000,7.611778076171875,-0.6094970703125,-1.1371612548828125,-0.144073486328125
1726225785333813200,7.621813232421875,0.0160980224609375,-0.9197998046875,0.0714569091796875
1726225785343849200,7.63184912109375,0.1184234619140625,-1.0777130126953125,-0.0078277587890625
1726225785353885200,7.64188525390625,-0.1866455078125,-0.836944580078125,0.0507049560546875
1726225785363921200,7.651921142578125,-0.554168701171875,-0.4116973876953125,-0.1734771728515625
1726225785373957000,7.66195703125,-0.94097900390625,-0.9064788818359375,-0.086273193359375
1726225785383993000,7.6719931640625,-0.9209747314453125,-1.398956298828125,0.0924224853515625
1726225785394028300,7.6820283203125,-0.9042816162109375,-0.824493408203125,0.1002044677734375
1726225785404064300,7.692064208984375,-0.4260406494140625,-0.53363037109375,0.172637939453125
1726225785414100500,7.7021005859375,-0.120849609375,-1.0500030517578125,0.1996307373046875
1726225785424136400,7.712136474609375,0.014434814453125,-1.086517333984375,-0.0428466796875
1726225785434171400,7.72217138671875,-0.2952423095703125,-0.5971221923828125,0.022674560546875
1726225785444207400,7.732207275390625,-0.4640045166015625,-0.4620361328125,-0.13177490234375
1726225785454243300,7.742243408203125,-0.570037841796875,-0.978057861328125,-0.10443115234375
1726225785464279300,7.752279296875,-1.075408935546875,-0.808929443359375,0.1390380859375
1726225785474315500,7.7623154296875,-0.7075042724609375,-0.2061767578125,-0.073883056640625
1726225785484350500,7.7723505859375,-0.914642333984375,-0.5398406982421875,0.065582275390625
1726225785494386400,7.782386474609375,-0.6551666259765625,-1.0572662353515625,0.126739501953125
1726225785504422400,7.79242236328125,-0.0554351806640625,-1.267059326171875,-0.0774688720703125
1726225785514458400,7.802458251953125,-0.092132568359375,-1.2200164794921875,0.173370361328125
1726225785524494300,7.812494384765625,-0.1259002685546875,-0.778839111328125,-0.04791259765625
1726225785534530300,7.8225302734375,-0.0667266845703125,-0.9544219970703125,0.01312255859375
1726225785544565500,7.8325654296875,-0.5675506591796875,-0.942626953125,0.011016845703125
1726225785554601500,7.8426015625,-1.2926483154296875,-0.50067138671875,-0.1020355224609375
1726225785564637400,7.852637451171875,-1.681549072265625,-0.8085174560546875,0.06964111328125
1726225785574673400,7.86267333984375,-1.0323028564453125,-0.974945068359375,0.020111083984375
1726225785584709400,7.87270947265625,-0.63836669921875,-1.1727447509765625,0.0403594970703125
1726225785594744300,7.882744384765625,-0.171051025390625,-0.71185302734375,0.0818023681640625
1726225785604780500,7.892780517578125,0.036773681640625,-0.633880615234375,-0.0679779052734375
1726225785614816500,7.90281640625,0.252777099609375,-0.6829071044921875,-0.0383148193359375
1726225785624852500,7.9128525390625,-0.16754150390625,-0.942535400390625,0.0467529296875
1726225785634888400,7.922888427734375,-0.9008026123046875,-0.4878692626953125,0.0841064453125
1726225785644923400,7.93292333984375,-1.3734588623046875,-0.57208251953125,0.02398681640625
1726225785654959400,7.94295947265625,-1.0113067626953125,-1.2082672119140625,0.1674652099609375
1726225785664995300,7.952995361328125,-1.3181915283203125,-1.35992431640625,0.328826904296875
1726225785675031300,7.96303125,-0.5579376220703125,-0.5238189697265625,0.1966705322265625
1726225785685067500,7.973067626953125,0.0822296142578125,-0.791656494140625,0.051116943359375
1726225785695102500,7.9831025390625,-0.0909271240234375,-1.244384765625,0.079986572265625
1726225785705138400,7.993138427734375,-0.3148345947265625,-0.8083038330078125,0.0233001708984375
1726225785715174400,8.00317431640625,-0.49444580078125,-0.0387725830078125,-0.0404815673828125
1726225785725210400,8.01321044921875,-0.45556640625,-0.487335205078125,0.112396240234375
1726225785735246300,8.023246337890624,-0.4237823486328125,-1.08563232421875,0.07684326171875
1726225785745281500,8.033281494140626,-0.8154296875,-0.9472198486328125,-0.0294342041015625
1726225785755317500,8.0433173828125,-1.219940185546875,-0.2483062744140625,-0.15203857421875
1726225785765353500,8.053353515625,-1.0218658447265625,-0.6420135498046875,0.0157470703125
1726225785775389400,8.063389404296874,-1.0078277587890625,-1.2789154052734375,-0.0621795654296875
1726225785785425400,8.07342529296875,-0.14996337890625,-1.2605743408203125,-0.159332275390625
1726225785795460400,8.08346044921875,0.1558837890625,-0.4660186767578125,-0.1063232421875
1726225785805496600,8.09349658203125,-0.0723114013671875,-0.4888916015625,0.083648681640625
1726225785815532500,8.103532470703126,-0.017303466796875,-1.0841522216796875,0.1828460693359375
1726225785825568500,8.113568603515626,-0.5036163330078125,-1.0179901123046875,0.0592193603515625
1726225785835604500,8.1236044921875,-1.719940185546875,-0.2660064697265625,0.139068603515625
1726225785845639400,8.133639404296876,-1.484039306640625,-0.6199188232421875,0.17822265625
1726225785855675400,8.14367529296875,-0.8725128173828125,-1.445953369140625,0.1597747802734375
1726225785865711400,8.15371142578125,-0.305206298828125,-1.1741790771484375,-0.0934295654296875
1726225785875747300,8.163747314453126,-0.504913330078125,-0.797149658203125,-0.02850341796875
1726225785885783600,8.173783447265626,0.03704833984375,-0.679595947265625,-0.079254150390625
1726225785895818500,8.183818603515626,0.0530853271484375,-0.8422393798828125,-0.0915679931640625
1726225785905854500,8.1938544921875,-0.3188323974609375,-0.7166290283203125,0.116455078125
1726225785915890400,8.203890380859375,-0.7681884765625,-0.6468048095703125,0.1955413818359375
1726225785925926400,8.213926513671876,-1.10394287109375,-0.7887725830078125,0.1611175537109375
1726225785935962400,8.22396240234375,-0.755096435546875,-0.86920166015625,0.288970947265625
1726225785945997600,8.23399755859375,-0.661590576171875,-1.11248779296875,0.1873931884765625
1726225785956033500,8.244033447265625,-0.0608367919921875,-1.257049560546875,0.083221435546875
1726225785966069500,8.254069580078125,-0.633544921875,-0.8298492431640625,0.1983489990234375
1726225785976105500,8.26410546875,-0.360260009765625,-0.5955963134765625,0.1100311279296875
1726225785986141400,8.274141357421875,-0.416473388671875,-1.2100982666015625,-0.0595703125
1726225785996176400,8.28417626953125,-0.809814453125,-1.187591552734375,0.19036865234375
1726225786006212400,8.29421240234375,-1.2180328369140625,-0.3650970458984375,0.141998291015625
1726225786016248600,8.30424853515625,-0.4643707275390625,-0.676971435546875,-0.02386474609375
1726225786026284500,8.314284423828125,-0.54852294921875,-0.94158935546875,0.1644439697265625
1726225786036320500,8.324320556640625,-0.5734710693359375,-1.0405426025390625,0.246856689453125
1726225786046356500,8.3343564453125,-0.479522705078125,-0.65155029296875,0.04974365234375
1726225786056391400,8.344391357421875,-0.5395050048828125,-0.480712890625,0.2159881591796875
1726225786066427400,8.354427490234375,-0.5364837646484375,-0.9455108642578125,0.2886810302734375
1726225786076463400,8.36446337890625,-0.458221435546875,-1.4038543701171875,0.06475830078125
1726225786086499300,8.374499267578125,-0.49871826171875,-0.932952880859375,0.0885467529296875
1726225786096535600,8.38453564453125,-0.19769287109375,-0.6025543212890625,0.2242431640625
1726225786106570500,8.394570556640625,-0.7219085693359375,-0.823974609375,0.1981201171875
1726225786116606500,8.4046064453125,-0.4493408203125,-0.5240478515625,0.245269775390625
1726225786126642400,8.414642333984375,-0.2900390625,-0.8567657470703125,0.021728515625
1726225786136678400,8.424678466796875,-0.6295166015625,-0.7545928955078125,-0.064483642578125
1726225786146714400,8.43471435546875,-0.767608642578125,-0.6240997314453125,0.033721923828125
1726225786156749600,8.44474951171875,-0.26068115234375,-1.162261962890625,-0.163116455078125
1726225786166785500,8.45478564453125,-0.541473388671875,-1.0392913818359375,-0.164703369140625
1726225786176821500,8.464821533203125,-1.3462982177734375,-0.6288909912109375,0.1104736328125
1726225786186857500,8.474857421875,-0.6858062744140625,-0.7183685302734375,-0.0572052001953125
1726225786196893400,8.4848935546875,-0.36114501953125,-0.69036865234375,-0.0471038818359375
1726225786206928400,8.494928466796875,0.1615753173828125,-0.934112548828125,0.079925537109375
1726225786216964600,8.504964599609375,-0.2385406494140625,-0.7252197265625,0.0824432373046875
1726225786227000600,8.51500048828125,-0.3920745849609375,-0.3856048583984375,0.1549072265625
1726225786237036500,8.52503662109375,-0.8478851318359375,-0.687530517578125,-0.0131988525390625
1726225786247072500,8.535072509765625,-1.1620635986328125,-1.2451934814453125,0.047027587890625
1726225786257107500,8.545107421875,-0.8947601318359375,-1.04937744140625,0.0399932861328125
1726225786267143400,8.555143310546875,-0.3330535888671875,-0.45697021484375,-0.119171142578125
1726225786277179400,8.565179443359375,-0.2322845458984375,-0.517486572265625,0.0631561279296875
1726225786287215400,8.57521533203125,-0.558502197265625,-1.135955810546875,0.0509185791015625
1726225786297251600,8.58525146484375,-0.174285888671875,-1.0704498291015625,-0.045654296875
1726225786307287600,8.59528759765625,-0.7557220458984375,-0.471160888671875,0.099090576171875
1726225786317322500,8.605322509765625,-1.2791290283203125,-0.60321044921875,0.0838775634765625
1726225786327358500,8.6153583984375,-0.7358551025390625,-1.5162811279296875,0.1140594482421875
1726225786337394400,8.62539453125,-1.0614013671875,-0.902008056640625,0.2443389892578125
1726225786347430400,8.635430419921875,-0.7790374755859375,-0.6098785400390625,-0.032562255859375
1726225786357466400,8.64546630859375,-0.7866973876953125,-1.0578460693359375,0.092193603515625
1726225786367501600,8.65550146484375,0.01934814453125,-1.2188720703125,0.09124755859375
1726225786377537500,8.66553759765625,0.2353973388671875,-0.5657958984375,-0.2183074951171875
1726225786387573500,8.675573486328124,-0.47613525390625,-0.336151123046875,-0.0057373046875
1726225786397609500,8.685609375,-0.811065673828125,-0.9083404541015625,-0.0589141845703125
1726225786407645400,8.6956455078125,-0.908203125,-1.1736297607421875,-0.0151519775390625
1726225786417680600,8.7056806640625,-1.22650146484375,-0.7968902587890625,0.08074951171875
1726225786427716600,8.715716552734374,-1.193084716796875,-0.7697296142578125,0.1246185302734375
1726225786437752800,8.7257529296875,-0.8369293212890625,-1.3725738525390625,0.17877197265625
1726225786447788800,8.735788818359374,-0.540191650390625,-0.8876800537109375,0.02874755859375
1726225786457825000,8.745824951171874,0.07843017578125,-0.577239990234375,-0.0398406982421875
1726225786467859700,8.755859619140624,0.58056640625,-0.904632568359375,0.1371917724609375
1726225786477895700,8.765895751953124,-0.080596923828125,-0.709442138671875,0.1142730712890625
1726225786487931600,8.775931640625,-0.6315460205078125,-0.4390716552734375,0.066741943359375
1726225786497967600,8.785967529296874,-1.0723724365234375,-0.958343505859375,0.0461883544921875
1726225786508003600,8.796003662109374,-1.1499786376953125,-1.1223602294921875,0.1000823974609375
1726225786518040000,8.8060400390625,-0.6435699462890625,-0.8417205810546875,-0.1005096435546875
1726225786528074800,8.81607470703125,-0.2786102294921875,-0.394439697265625,-0.048004150390625
1726225786538110700,8.82611083984375,0.2011871337890625,-0.57183837890625,-0.005645751953125
1726225786548146700,8.836146728515626,0.4438934326171875,-1.0290374755859375,0.1875762939453125
1726225786558182700,8.8461826171875,0.4517364501953125,-0.7213897705078125,0.1937103271484375
1726225786568219000,8.856218994140624,-0.7882843017578125,-0.396209716796875,0.0885467529296875
1726225786578253800,8.86625390625,-1.5789031982421875,-0.6318359375,0.13287353515625
1726225786588289800,8.876289794921876,-1.1796875,-1.007720947265625,0.17523193359375
1726225786598325800,8.88632568359375,-0.617462158203125,-1.210357666015625,0.105926513671875
1726225786608361700,8.89636181640625,-0.466094970703125,-0.84234619140625,-0.013671875
1726225786618397700,8.906397705078126,-0.0824127197265625,-0.6411285400390625,-0.0824127197265625
1726225786628432600,8.9164326171875,0.64593505859375,-0.822418212890625,-0.0316925048828125
1726225786638468900,8.92646875,-0.4234619140625,-1.0721435546875,-0.0331573486328125
1726225786648504800,8.9365048828125,-1.414794921875,-0.5303802490234375,-0.0658111572265625
1726225786658540800,8.946540771484376,-1.782318115234375,-0.90283203125,0.01458740234375
1726225786668576800,8.95657666015625,-1.282470703125,-1.1454010009765625,0.118865966796875
1726225786678611700,8.96661181640625,-1.0291595458984375,-1.159393310546875,-0.0108184814453125
1726225786688647700,8.976647705078125,-0.80279541015625,-0.5296478271484375,-0.10772705078125
1726225786698683600,8.98668359375,0.237579345703125,-0.6486663818359375,0.007598876953125
1726225786708719600,8.9967197265625,-0.056610107421875,-0.9994354248046875,0.195892333984375
1726225786718755800,9.006755859375,-0.479278564453125,-0.4829559326171875,0.013702392578125
1726225786728791800,9.016791748046876,-0.8836212158203125,-0.56573486328125,0.0684356689453125
1726225786738826800,9.02682666015625,-0.532196044921875,-1.3318023681640625,0.020965576171875
1726225786748862700,9.03686279296875,-1.12359619140625,-1.2787017822265625,0.0298309326171875
1726225786758898700,9.046898681640625,-1.1627197265625,-0.60186767578125,0.083465576171875
1726225786768934700,9.0569345703125,-0.879486083984375,-0.534912109375,-0.0507965087890625
1726225786778970600,9.066970703125,-0.1221466064453125,-1.045684814453125,0.0280609130859375
1726225786789005800,9.077005859375,-0.1547393798828125,-1.3568878173828125,0.246490478515625
1726225786799041800,9.087041748046875,-0.9239349365234375,-0.5223846435546875,0.1598968505859375
1726225786809077800,9.097077880859375,-1.1004791259765625,-0.253570556640625,0.1196441650390625
1726225786819113700,9.10711376953125,-0.3279571533203125,-1.235443115234375,-0.096649169921875
1726225786829149700,9.117149658203125,-0.8134307861328125,-1.3611602783203125,-0.0257720947265625
1726225786839184600,9.1271845703125,-0.7512969970703125,-0.5213165283203125,-0.0302886962890625
1726225786849220900,9.137220947265625,-0.9286346435546875,-0.041839599609375,-0.018280029296875
1726225786859256800,9.1472568359375,-0.188232421875,-0.5193023681640625,-0.0662994384765625
1726225786869292800,9.157292724609375,0.382965087890625,-0.905029296875,0.0401763916015625
1726225786879328800,9.167328857421875,0.198822021484375,-0.7169342041015625,0.1623992919921875
1726225786889364700,9.17736474609375,-0.4852294921875,-0.866424560546875,0.2988128662109375
1726225786899399700,9.187399658203125,-0.0687255859375,-1.02880859375,0.154937744140625
1726225786909435600,9.197435546875,-0.3101654052734375,-1.2970428466796875,0.1515350341796875
1726225786919471600,9.2074716796875,-1.2467193603515625,-0.438079833984375,0.1432647705078125
1726225786929507800,9.2175078125,-1.610595703125,-0.1380157470703125,0.1717529296875
1726225786939543800,9.227543701171875,-1.4567108154296875,-0.799713134765625,0.1064910888671875
1726225786949578800,9.237578857421875,-0.6475982666015625,-1.21026611328125,-0.0026092529296875
1726225786959614700,9.24761474609375,-0.1882171630859375,-1.4598236083984375,0.004486083984375
1726225786969650700,9.257650634765625,-0.0004119873046875,-0.987701416015625,0.0428619384765625
1726225786979686700,9.267686767578125,0.8161468505859375,-1.0946197509765625,-0.148681640625
1726225786989722600,9.27772265625,0.6247406005859375,-0.6542510986328125,0.115234375
1726225786999758800,9.2877587890625,-0.4704742431640625,0.1731109619140625,0.2470855712890625
1726225787009793800,9.297793701171875,-0.7626953125,0.022674560546875,0.218597412109375
1726225787019829800,9.307829833984375,-1.103271484375,-1.2713470458984375,0.2427825927734375
1726225787029865700,9.31786572265625,-1.3477325439453125,-1.5810394287109375,0.1074371337890625
1726225787039901700,9.327901611328125,-1.6248626708984375,-1.2020263671875,0.066009521484375
1726225787049937700,9.337937744140625,-1.03887939453125,-0.7000732421875,0.05419921875
1726225787059972900,9.347972900390625,-0.209503173828125,-1.2468719482421875,-0.068878173828125
1726225787070008800,9.3580087890625,-0.072021484375,-1.37213134765625,-0.0278472900390625
1726225787080044800,9.368044921875,-0.7023773193359375,-0.5061492919921875,-0.011444091796875
1726225787090080800,9.378080810546875,-0.2107391357421875,-0.378326416015625,0.2989349365234375
1726225787100116700,9.38811669921875,0.112091064453125,-1.2719573974609375,0.205596923828125
1726225787110151700,9.398151611328124,-0.691802978515625,-1.151336669921875,0.23779296875
1726225787120187600,9.408187744140625,-0.722076416015625,-0.438262939453125,0.0276031494140625
1726225787130223900,9.418223876953125,-0.5745849609375,-0.723236083984375,0.041259765625
1726225787140259800,9.428259765625,-0.2223052978515625,-1.2020721435546875,0.0530548095703125
1726225787150295800,9.4382958984375,-0.2054290771484375,-1.256866455078125,-0.0064849853515625
1726225787160331800,9.448331787109375,-1.2768707275390625,-0.212432861328125,0.0421295166015625
1726225787170366700,9.45836669921875,-0.843231201171875,-0.25146484375,0.2788543701171875
1726225787180402700,9.468402587890624,-0.232391357421875,-1.508331298828125,0.437957763671875
1726225787190438700,9.478438720703124,-0.9496002197265625,-1.2797088623046875,0.2543487548828125
1726225787200474600,9.488474609375,-0.61968994140625,-0.287261962890625,0.2822723388671875
1726225787210510800,9.4985107421875,-0.441253662109375,-0.0710296630859375,0.1298370361328125
1726225787220545800,9.5085458984375,-0.05828857421875,-0.69366455078125,0.0496826171875
1726225787230581800,9.518581787109374,-0.439056396484375,-0.863739013671875,0.0157470703125
1726225787240617700,9.52861767578125,-0.3498687744140625,-0.8011016845703125,-0.085540771484375
1726225787250653700,9.53865380859375,-0.7704315185546875,-0.7490997314453125,-0.1170806884765625
1726225787260689700,9.548689697265624,-0.762237548828125,-1.155517578125,-0.0235595703125
1726225787270725600,9.5587255859375,-0.902008056640625,-1.2940521240234375,0.1283111572265625
1726225787280760800,9.5687607421875,-1.3744659423828125,-0.6513824462890625,-0.0564422607421875
1726225787290796800,9.578796875,-1.306182861328125,-0.1553497314453125,-0.0628509521484375
1726225787300832800,9.588832763671874,-0.65057373046875,-0.62060546875,0.10858154296875
1726225787310868700,9.59886865234375,-0.45135498046875,-0.8404083251953125,0.163970947265625
1726225787320904700,9.60890478515625,0.5253448486328125,-1.034423828125,0.03253173828125
1726225787330939600,9.618939697265626,0.0122222900390625,-0.96307373046875,0.0318603515625
1726225787340975900,9.628975830078126,-0.753082275390625,-0.669677734375,0.0158233642578125
1726225787351011800,9.63901171875,-0.9028472900390625,-0.793975830078125,0.0973663330078125
1726225787361047800,9.6490478515625,-0.8424835205078125,-1.0836181640625,-0.1750335693359375
1726225787371083800,9.659083740234376,-1.259033203125,-1.0182952880859375,0.0616912841796875
1726225787381118700,9.66911865234375,-1.12298583984375,-0.7121124267578125,-0.0270538330078125
1726225787391154700,9.67915478515625,-0.8792572021484375,-0.920196533203125,-0.23431396484375
1726225787401190700,9.689190673828126,0.1837615966796875,-1.6332550048828125,0.0361480712890625
1726225787411226600,9.6992265625,-0.3970489501953125,-0.8443603515625,0.08612060546875
1726225787421261800,9.70926171875,-0.3420867919921875,-0.0856475830078125,0.1998443603515625
1726225787431297800,9.7192978515625,-0.430389404296875,-0.5294647216796875,0.2899932861328125
1726225787441332700,9.729332763671875,0.3909759521484375,-1.1127471923828125,-0.0399627685546875
1726225787451368700,9.73936865234375,-0.31842041015625,-0.99884033203125,0.2583465576171875
1726225787461405000,9.749405029296875,-1.5278472900390625,-0.1496734619140625,0.2541046142578125
1726225787471441000,9.75944091796875,-1.314849853515625,-0.5953369140625,-0.1491241455078125
1726225787481476900,9.769476806640625,-0.492034912109375,-1.90087890625,0.11895751953125
1726225787491511800,9.77951171875,-0.8191070556640625,-1.6694488525390625,0.083282470703125
1726225787501547800,9.7895478515625,-0.648590087890625,-0.2815093994140625,-0.0880126953125
1726225787511583700,9.799583740234375,-0.5607147216796875,-0.1684722900390625,0.049896240234375
1726225787521619700,9.80961962890625,0.420867919921875,-0.87005615234375,0.1333465576171875
1726225787531655700,9.81965576171875,0.8623199462890625,-1.138214111328125,0.122711181640625
1726225787541692000,9.82969189453125,-0.3734893798828125,-0.1910247802734375,0.3071136474609375
1726225787551726800,9.839726806640625,-1.4485931396484375,0.0257110595703125,0.1087799072265625
1726225787561762800,9.8497626953125,-0.575469970703125,-1.36090087890625,0.0407867431640625
1726225787571798800,9.859798828125,-0.282470703125,-1.7470855712890625,0.05401611328125
1726225787581834800,9.869834716796875,-1.0634002685546875,-0.6427001953125,-0.0759429931640625
1726225787591870700,9.87987060546875,-1.24908447265625,-0.4816131591796875,-0.0335845947265625
1726225787601906000,9.889906005859375,-0.3665771484375,-1.0955963134765625,-0.0353546142578125
1726225787611942000,9.89994189453125,0.91986083984375,-1.1866607666015625,-0.1728515625
1726225787621977900,9.909977783203125,0.707550048828125,-0.130279541015625,-0.0475006103515625
1726225787632013800,9.920013916015625,-0.443572998046875,0.0742950439453125,0.0394134521484375
1726225787642049800,9.9300498046875,-1.0941009521484375,-0.9052886962890625,0.0393829345703125
1726225787652085800,9.940085693359375,-1.7270660400390625,-1.5706634521484375,-0.0617828369140625
1726225787662120700,9.95012060546875,-2.1901702880859375,-1.06622314453125,-0.114501953125
1726225787672157000,9.960156982421875,-0.9258880615234375,-1.09295654296875,-0.15234375
1726225787682193000,9.97019287109375,-0.097198486328125,-1.6771240234375,0.0357208251953125
1726225787692228900,9.980228759765625,-0.4549713134765625,-0.7761383056640625,0.154052734375
1726225787702264800,9.990264892578125,-0.3324432373046875,-0.2604522705078125,0.0580902099609375
1726225787712299800,10.0002998046875,-0.16558837890625,-0.7316436767578125,0.0598602294921875
1726225787722335700,10.010335693359375,-0.8386077880859375,-1.0778961181640625,0.0294647216796875
1726225787732371700,10.020371826171875,-1.3099822998046875,-0.8879852294921875,0.0020599365234375
1726225787742407700,10.03040771484375,-0.96923828125,-0.5829010009765625,-0.12628173828125
1726225787752444000,10.04044384765625,-0.7214813232421875,-0.6984710693359375,-0.0416259765625
1726225787762479900,10.05047998046875,-0.0604400634765625,-1.1667327880859375,0.104705810546875
1726225787772514800,10.060514892578125,0.2806243896484375,-0.934600830078125,0.23223876953125
1726225787782550800,10.07055078125,-0.0182342529296875,-0.25628662109375,0.1089630126953125
1726225787792586800,10.080586669921875,-0.6008758544921875,-0.4046783447265625,0.3006744384765625
1726225787802622700,10.090622802734375,-1.2307281494140625,-0.942901611328125,0.2395172119140625
1726225787812658700,10.10065869140625,-1.356353759765625,-1.2460479736328125,0.13873291015625
1726225787822694000,10.11069384765625,-1.1408233642578125,-0.513916015625,-0.00958251953125
1726225787832729900,10.120729736328125,-0.601715087890625,-0.3544921875,0.0807037353515625
1726225787842765800,10.130765869140625,0.119293212890625,-0.882904052734375,0.03973388671875
1726225787852801800,10.1408017578125,0.4477081298828125,-1.2444000244140625,-0.0414581298828125
1726225787862837800,10.150837646484375,-0.3311920166015625,-0.3743438720703125,-0.030303955078125
1726225787872873700,10.160873779296875,-1.2001495361328125,-0.2500152587890625,-0.0171356201171875
1726225787882909000,10.170908935546874,-1.0424652099609375,-0.8870086669921875,0.093109130859375
1726225787892945000,10.18094482421875,-0.1549224853515625,-1.340484619140625,0.060272216796875
1726225787902980900,10.19098095703125,-0.64373779296875,-0.7778167724609375,-0.147796630859375
1726225787913016800,10.201016845703125,-1.24603271484375,-0.09320068359375,-0.0491485595703125
1726225787923052800,10.211052734375,-0.838226318359375,-0.6817779541015625,0.062744140625
1726225787933088800,10.2210888671875,-0.060638427734375,-0.8162994384765625,0.02276611328125
1726225787943123700,10.231123779296874,-0.2014923095703125,-0.7151641845703125,0.0180816650390625
1726225787953160000,10.241159912109374,-0.125213623046875,-0.8130340576171875,0.0014190673828125
1726225787963196000,10.25119580078125,-0.0705413818359375,-1.1533203125,0.0767669677734375
1726225787973231900,10.26123193359375,-0.44842529296875,-1.3939666748046875,0.1734619140625
1726225787983267800,10.271267822265624,-1.4738006591796875,-0.7218475341796875,0.1973419189453125
1726225787993302800,10.281302734375,-1.4969024658203125,-0.3778228759765625,0.0966949462890625
1726225788003338800,10.2913388671875,-0.8287353515625,-0.8495330810546875,0.177154541015625
1726225788013374700,10.301374755859374,-0.2669219970703125,-1.5435638427734375,0.0659637451171875
1726225788023410700,10.31141064453125,-0.1763153076171875,-0.93255615234375,-0.0834197998046875
1726225788033447000,10.321447021484374,-0.438385009765625,-0.3871002197265625,0.0448455810546875
1726225788043483000,10.33148291015625,0.0642852783203125,-0.8953094482421875,0.09075927734375
1726225788053517800,10.341517822265626,-0.61956787109375,-1.3608856201171875,0.3005523681640625
1726225788063553800,10.3515537109375,-1.29486083984375,-0.9451141357421875,0.2538604736328125
1726225788073589800,10.36158984375,-1.064361572265625,-0.6605377197265625,0.040313720703125
1726225788083625700,10.371625732421874,-0.760040283203125,-0.882049560546875,0.2996063232421875
1726225788093661700,10.38166162109375,-0.672698974609375,-1.22320556640625,0.153289794921875
1726225788103697700,10.39169775390625,-0.291259765625,-1.4094390869140625,0.0884857177734375
1726225788113732900,10.40173291015625,-0.3209228515625,-0.661407470703125,0.0899810791015625
1726225788123768800,10.411768798828126,0.062225341796875,-0.4115753173828125,0.1976470947265625
1726225788133804800,10.4218046875,0.31201171875,-1.138214111328125,0.340301513671875
1726225788143840800,10.4318408203125,-0.4520721435546875,-1.1970367431640625,0.191619873046875
1726225788153876700,10.441876708984376,-1.0837860107421875,-0.0315399169921875,0.170654296875
1726225788163912000,10.451911865234376,-0.6626739501953125,-0.328582763671875,0.279052734375
1726225788173948000,10.461947998046876,-0.6113433837890625,-1.2643585205078125,0.0750274658203125
1726225788183983900,10.47198388671875,-0.6591796875,-1.2261199951171875,-0.0317535400390625
1726225788194019800,10.482019775390626,-0.482940673828125,-0.55645751953125,-0.1225433349609375
1726225788204055800,10.492055908203126,-0.9516754150390625,-0.412750244140625,0.077545166015625
1726225788214091800,10.502091796875,-0.816192626953125,-0.726470947265625,0.1205596923828125
1726225788224126700,10.512126708984376,-0.25811767578125,-1.1427154541015625,-0.1985015869140625
1726225788234162700,10.52216259765625,-0.5185089111328125,-0.645294189453125,0.0485687255859375
1726225788244199000,10.532198974609376,-0.5096588134765625,-0.367950439453125,0.230621337890625
1726225788254235000,10.54223486328125,-0.54949951171875,-1.0562896728515625,0.142852783203125
1726225788264270800,10.552270751953126,-0.6400604248046875,-1.2649383544921875,0.1160888671875
1726225788274305800,10.562305908203125,-0.982452392578125,-0.5309600830078125,-0.0139617919921875
1726225788284341800,10.572341796875,-0.897125244140625,-0.515045166015625,0.1430511474609375
1726225788294377700,10.582377685546875,-0.113800048828125,-0.9358367919921875,0.0240020751953125
1726225788304413700,10.59241357421875,-0.093658447265625,-1.0653839111328125,-0.198974609375
1726225788314449700,10.60244970703125,-0.3646087646484375,-0.5283203125,0.0319671630859375
1726225788324486000,10.61248583984375,-0.90887451171875,-0.5034027099609375,0.15240478515625
1726225788334520800,10.622520751953125,-0.657806396484375,-0.988189697265625,0.1369781494140625
1726225788344556800,10.632556884765625,-0.7587890625,-1.2339019775390625,0.00054931640625
1726225788354592800,10.6425927734375,-1.173095703125,-0.733428955078125,-0.0627593994140625
1726225788364628700,10.652628662109375,-1.076141357421875,-0.7462158203125,0.0915679931640625
1726225788374664700,10.662664794921875,-0.3881988525390625,-1.1292877197265625,0.050323486328125
1726225788384700000,10.672699951171875,-0.2920074462890625,-1.2204742431640625,0.00640869140625
1726225788394735900,10.68273583984375,-0.2449493408203125,-0.7551116943359375,0.2024383544921875
1726225788404771800,10.692771728515625,-0.3555908203125,-0.7061767578125,0.16998291015625
1726225788414807800,10.702807861328125,-0.5272979736328125,-0.9135894775390625,0.0396728515625
1726225788424843800,10.71284375,-1.025482177734375,-0.9425048828125,-0.065887451171875
1726225788434879700,10.722879638671875,-1.282958984375,-0.6224365234375,-0.074676513671875
1726225788444915000,10.7329150390625,-1.0332183837890625,-0.74212646484375,0.0371856689453125
1726225788454951000,10.742950927734375,-0.5420379638671875,-0.8917236328125,-0.1364593505859375
1726225788464987000,10.75298681640625,-0.1851654052734375,-0.9058990478515625,-0.2819061279296875
1726225788475022800,10.76302294921875,0.3968048095703125,-0.8580474853515625,0.0096435546875
1726225788485058800,10.773058837890625,0.0771026611328125,-0.7425079345703125,0.2632598876953125
1726225788495094800,10.7830947265625,-0.082550048828125,-0.5919952392578125,0.2156524658203125
1726225788505129700,10.793129638671875,0.0637664794921875,-1.063232421875,0.0356903076171875
1726225788515165700,10.803165771484375,-1.06622314453125,-0.642486572265625,-0.0673370361328125
1726225788525202000,10.813201904296875,-1.4339447021484375,-0.3786773681640625,0.13330078125
1726225788535238000,10.82323779296875,-1.27337646484375,-0.6735687255859375,-0.01458740234375
1726225788545273900,10.83327392578125,-0.857269287109375,-0.8481597900390625,-0.0698394775390625
1726225788555309800,10.843309814453125,0.50738525390625,-1.065582275390625,-0.041107177734375
1726225788565344800,10.8533447265625,-0.032928466796875,-1.0363922119140625,0.128875732421875
1726225788575380700,10.863380615234375,-0.8474273681640625,-0.493804931640625,0.060791015625
1726225788585416700,10.873416748046875,-0.666778564453125,-0.9454803466796875,-0.21514892578125
1726225788595452700,10.88345263671875,-0.512237548828125,-1.0182342529296875,-0.1992034912109375
1726225788605489000,10.893489013671875,-1.4347686767578125,-0.4872589111328125,0.0748748779296875
1726225788615523800,10.90352392578125,-0.5211029052734375,-0.5371246337890625,-0.1074371337890625
1726225788625559800,10.913559814453125,-0.55743408203125,-0.8270721435546875,-0.280059814453125
1726225788635595800,10.923595703125,-0.6134033203125,-1.1149444580078125,-0.0153961181640625
1726225788645631700,10.9336318359375,-0.2439117431640625,-1.3197479248046875,-0.0335845947265625
1726225788655667700,10.943667724609375,-0.4125518798828125,-0.8782958984375,-0.0027008056640625
1726225788665703700,10.95370361328125,-0.3012542724609375,-0.9073638916015625,-0.0582733154296875
1726225788675739000,10.96373876953125,-0.2130126953125,-1.0070648193359375,-0.15887451171875
1726225788685774800,10.97377490234375,-0.277099609375,-0.7876129150390625,-0.1344757080078125
1726225788695810800,10.983810791015625,-0.7027130126953125,-0.259307861328125,-0.09149169921875
1726225788705846800,10.9938466796875,-1.1882171630859375,-1.0115509033203125,0.036224365234375
1726225788715882800,11.0038828125,-1.586578369140625,-1.255828857421875,0.2155303955078125
1726225788725918700,11.013918701171875,-1.35260009765625,-1.0684814453125,-0.1084442138671875
1726225788735954000,11.023953857421875,-0.98095703125,-0.716827392578125,0.0887451171875
1726225788745990000,11.033989990234375,-0.4028778076171875,-1.2740936279296875,0.0317840576171875
1726225788756025900,11.04402587890625,0.04034423828125,-1.1371307373046875,0.0039825439453125
1726225788766061800,11.054061767578125,-0.0855255126953125,-0.0864715576171875,0.1326141357421875
1726225788776097800,11.064097900390625,-0.0820465087890625,-0.07257080078125,0.0629425048828125
1726225788786133800,11.0741337890625,-0.0390777587890625,-0.802032470703125,-0.03851318359375
1726225788796168700,11.084168701171874,-0.751983642578125,-1.0564727783203125,0.360992431640625
1726225788806204700,11.09420458984375,-1.3590545654296875,-0.38031005859375,0.05328369140625
1726225788816241000,11.104240966796874,-0.63922119140625,-0.819549560546875,0.0782012939453125
1726225788826276900,11.11427685546875,-0.585052490234375,-1.0157623291015625,0.320098876953125
1726225788836312800,11.124312744140624,-0.458587646484375,-0.8968048095703125,0.080718994140625
1726225788846347800,11.13434765625,-0.377227783203125,-0.63555908203125,0.04974365234375
1726225788856383700,11.1443837890625,-0.116729736328125,-0.631072998046875,0.26434326171875
1726225788866419700,11.154419677734374,-0.24310302734375,-0.8692626953125,0.2078094482421875
1726225788876455700,11.16445556640625,-0.9338226318359375,-0.7349090576171875,0.159423828125
1726225788886491600,11.17449169921875,-1.1837005615234375,-0.7324371337890625,0.0510101318359375
1726225788896528000,11.18452783203125,-0.55615234375,-0.9860687255859375,-0.1304168701171875
1726225788906562800,11.194562744140624,-0.1667633056640625,-0.7437896728515625,0.0089874267578125
1726225788916598800,11.204598876953124,-0.4298095703125,-0.682952880859375,-0.064727783203125
1726225788926634800,11.214634765625,-0.4727935791015625,-0.494049072265625,-0.105224609375
1726225788936670700,11.224670654296874,0.0217742919921875,-1.0494842529296875,0.20904541015625
1726225788946706700,11.234706787109374,-0.1721954345703125,-1.3750152587890625,0.097747802734375
1726225788956742700,11.24474267578125,-1.4606475830078125,-0.4389801025390625,0.28466796875
1726225788966777900,11.25477783203125,-1.295684814453125,-0.769622802734375,0.1820220947265625
1726225788976813800,11.264813720703126,-0.648284912109375,-1.0494232177734375,-0.09942626953125
1726225788986849800,11.274849853515626,-1.1037139892578125,-0.841339111328125,0.188995361328125
1726225788996885800,11.2848857421875,-0.618927001953125,-0.571441650390625,-0.0390472412109375
1726225789006921700,11.294921630859376,-0.088958740234375,-0.96142578125,-0.2109375
1726225789016957700,11.304957763671876,0.1120758056640625,-1.0139617919921875,0.0923309326171875
1726225789026993000,11.314992919921876,-0.104156494140625,-1.184112548828125,0.1410675048828125
1726225789037028900,11.32502880859375,-0.876495361328125,-0.8951568603515625,0.218048095703125
1726225789047064800,11.33506494140625,-1.1281280517578125,-0.7742156982421875,0.26348876953125
1726225789057100800,11.345100830078126,-1.0242462158203125,-1.1850128173828125,0.2221527099609375
1726225789067136800,11.35513671875,-0.9300384521484375,-1.0192108154296875,0.252593994140625
1726225789077171700,11.365171630859376,-0.6797332763671875,-0.4828948974609375,0.0342254638671875
1726225789087207700,11.375207763671876,0.034820556640625,-0.5883026123046875,-0.0916290283203125
1726225789097244000,11.385243896484376,0.3412628173828125,-1.3875579833984375,0.031219482421875
1726225789107280000,11.39527978515625,-0.4601287841796875,-0.84271240234375,0.0005035400390625
1726225789117315800,11.40531591796875,-1.0672454833984375,-0.4255218505859375,0.312103271484375
1726225789127351800,11.415351806640626,-0.909637451171875,-0.575469970703125,0.114776611328125
1726225789137386800,11.42538671875,-0.1878662109375,-1.31488037109375,0.201324462890625
1726225789147422700,11.435422607421875,-0.3984832763671875,-0.8786773681640625,0.160614013671875
1726225789157458700,11.445458740234375,-0.493988037109375,-0.2359771728515625,0.2107391357421875
1726225789167494700,11.45549462890625,-0.4002532958984375,-0.3079071044921875,0.0404205322265625
1726225789177531000,11.46553076171875,0.091278076171875,-1.337982177734375,0.15423583984375
1726225789187566800,11.47556689453125,-0.31103515625,-1.081817626953125,-0.1360931396484375
1726225789197601800,11.485601806640625,-0.803009033203125,-0.5069427490234375,-0.0794830322265625
1726225789207637800,11.4956376953125,-1.5136871337890625,-0.3048858642578125,0.089569091796875
1726225789217673700,11.505673828125,-1.114959716796875,-1.07415771484375,0.0401611328125
1726225789227709700,11.515709716796875,-0.6539306640625,-1.1158599853515625,-0.065185546875
1726225789237745700,11.52574560546875,-0.42193603515625,-0.5388336181640625,-0.0157623291015625
1726225789247781600,11.53578173828125,-0.599822998046875,-0.4756622314453125,-0.0205078125
1726225789257816800,11.54581689453125,0.16717529296875,-1.1353607177734375,-0.0501861572265625
1726225789267852800,11.555852783203125,-0.51239013671875,-1.2191314697265625,0.1056365966796875
1726225789277888800,11.565888671875,-0.9899444580078125,-0.5704803466796875,0.0516815185546875
1726225789287924700,11.5759248046875,-1.18389892578125,-0.654266357421875,0.0445098876953125
1726225789297960700,11.585960693359375,-0.264251708984375,-1.3317718505859375,0.0250396728515625
1726225789307996700,11.59599658203125,-0.302825927734375,-1.132965087890625,-0.132232666015625
1726225789318032000,11.606031982421875,-0.3630828857421875,-0.3654937744140625,0.0788116455078125
1726225789328067800,11.61606787109375,-0.171630859375,-0.5868072509765625,0.0305633544921875
1726225789338103800,11.626103759765625,-0.17181396484375,-1.218841552734375,0.074188232421875
1726225789348139800,11.636139892578125,-1.00750732421875,-0.6923065185546875,0.09356689453125
1726225789358175700,11.64617578125,-1.2290802001953125,-0.5437469482421875,0.049224853515625
1726225789368211700,11.656211669921875,-0.9600067138671875,-1.2596588134765625,0.0411224365234375
1726225789378247000,11.666246826171875,-0.8609619140625,-1.3179473876953125,-0.0377655029296875
1726225789388283000,11.676282958984375,-0.766204833984375,-0.619293212890625,0.11724853515625
1726225789398318800,11.68631884765625,-0.45611572265625,-0.6245269775390625,0.2167510986328125
1726225789408354800,11.696354736328125,-0.618011474609375,-0.859893798828125,-0.0152435302734375
1726225789418391000,11.70639111328125,-0.083526611328125,-1.110870361328125,0.1064453125
1726225789428426000,11.716426025390625,-0.876190185546875,-0.7240447998046875,0.0138092041015625
1726225789438462000,11.7264619140625,-0.6942138671875,-0.3690032958984375,0.0203857421875
1726225789448498000,11.736497802734375,-0.7298583984375,-0.8381500244140625,0.1441497802734375
1726225789458534000,11.746533935546875,-0.443756103515625,-0.892333984375,0.0457763671875
1726225789468570000,11.756570068359375,-0.41424560546875,-0.541900634765625,0.028411865234375
1726225789478606000,11.766606201171875,-0.2648773193359375,-0.5769195556640625,-0.040557861328125
1726225789488641000,11.77664111328125,-0.4878997802734375,-0.8737335205078125,0.002471923828125
1726225789498677000,11.786677001953125,0.0723419189453125,-0.7849578857421875,-0.0522613525390625
1726225789508713000,11.796712890625,-0.020538330078125,-0.8650054931640625,-0.0447540283203125
1726225789518749000,11.8067490234375,-0.4818267822265625,-0.6139068603515625,0.156768798828125
1726225789528785000,11.816784912109375,-0.84844970703125,-0.769195556640625,0.043701171875
1726225789538820900,11.82682080078125,-1.7777862548828125,-1.1079559326171875,-0.0544586181640625
1726225789548856000,11.83685595703125,-1.439727783203125,-1.0016937255859375,0.2390899658203125
1726225789558892000,11.84689208984375,-0.75640869140625,-0.90869140625,0.1647186279296875
1726225789568928000,11.856927978515625,0.4870758056640625,-0.888214111328125,0.0358428955078125
1726225789578964000,11.8669638671875,1.4535064697265625,-0.8616485595703125,-0.0233154296875
1726225789589000000,11.877,0.2886962890625,-0.3480682373046875,-0.0364837646484375
1726225789599036000,11.887035888671875,-2.3509521484375,-0.0912628173828125,0.1798095703125
1726225789609071000,11.897071044921875,-2.044891357421875,-1.15802001953125,0.093414306640625
1726225789619107000,11.907107177734375,-2.209228515625,-1.7636260986328125,0.2178497314453125
1726225789629143000,11.91714306640625,-0.968780517578125,-1.36669921875,0.257568359375
1726225789639179000,11.927178955078125,-0.132232666015625,-0.4910125732421875,-0.00201416015625
1726225789649215000,11.937215087890625,0.6723175048828125,-0.8085784912109375,-0.242523193359375
1726225789659250000,11.94725,0.9590606689453125,-1.1202239990234375,0.008392333984375
1726225789669286000,11.957285888671874,0.4428863525390625,-0.691680908203125,0.223876953125
1726225789679322000,11.967322021484375,-0.513671875,-0.2775115966796875,0.1378021240234375
1726225789689358000,11.977358154296875,-0.8488922119140625,-0.9200897216796875,0.34942626953125
1726225789699394000,11.98739404296875,-1.323211669921875,-1.278961181640625,0.3059844970703125
1726225789709430000,11.997429931640625,-1.256378173828125,-1.0222930908203125,0.2354278564453125
1726225789719465000,12.00746484375,-1.0343475341796875,-0.7125091552734375,0.1501312255859375
1726225789729501000,12.0175009765625,-0.9291534423828125,-1.096160888671875,0.00469970703125
1726225789739537000,12.027536865234374,-0.2772674560546875,-0.9919281005859375,-0.07647705078125
1726225789749573000,12.037572998046874,-0.4737701416015625,-0.8351898193359375,0.1549835205078125
1726225789759609000,12.047609130859374,-0.3696136474609375,-0.272705078125,0.0295562744140625
1726225789769645000,12.05764501953125,-0.2914581298828125,-0.7894744873046875,0.1990814208984375
1726225789779680000,12.067679931640624,-0.224945068359375,-1.0388031005859375,0.0269012451171875
1726225789789716000,12.077716064453124,-0.724212646484375,-0.607086181640625,0.1165771484375
1726225789799752000,12.087751953125,-1.085357666015625,-0.14459228515625,0.10711669921875
1726225789809788000,12.097787841796874,-0.92694091796875,-1.0145263671875,-0.0387420654296875
1726225789819823900,12.107823974609374,-0.2600860595703125,-1.1085662841796875,0.0978851318359375
1726225789829860000,12.117860107421874,-0.531280517578125,-0.4814453125,0.100494384765625
1726225789839895000,12.12789501953125,-0.2858123779296875,-0.5921630859375,0.2020111083984375
1726225789849931000,12.137930908203124,-0.4364166259765625,-1.23876953125,0.0520172119140625
1726225789859967000,12.147967041015624,-1.1014862060546875,-1.002838134765625,0.13861083984375
1726225789870003000,12.1580029296875,-1.6402740478515625,0.017852783203125,0.0765228271484375
1726225789880039000,12.168038818359374,-0.7310638427734375,-0.25531005859375,-0.1056365966796875
1726225789890075000,12.178074951171874,0.177032470703125,-1.2207794189453125,-0.1314239501953125
1726225789900110000,12.188110107421876,0.457366943359375,-1.5945587158203125,-0.0590667724609375
1726225789910146000,12.19814599609375,-0.1174468994140625,-1.104705810546875,0.1794281005859375
1726225789920182000,12.20818212890625,-1.0901947021484375,-1.013153076171875,0.3545989990234375
1726225789930218000,12.218218017578126,-1.725616455078125,-0.6332244873046875,0.128753662109375
1726225789940254000,12.22825390625,-1.85809326171875,-0.387725830078125,0.1156005859375
1726225789950289000,12.238288818359376,-0.67333984375,-1.006866455078125,0.0553741455078125
1726225789960325000,12.2483251953125,0.141143798828125,-1.357635498046875,0.009552001953125
1726225789970361000,12.258361083984376,0.2782440185546875,-0.557708740234375,-0.1800537109375
1726225789980397000,12.26839697265625,-0.124267578125,-0.485565185546875,-0.02618408203125
1726225789990433000,12.27843310546875,-0.254302978515625,-0.2570648193359375,-0.1087493896484375
1726225790000469000,12.288468994140626,-0.2059783935546875,-1.2392425537109375,0.04254150390625
1726225790010504000,12.29850390625,-1.00799560546875,-1.06365966796875,0.086639404296875
1726225790020540000,12.308539794921876,-1.4989776611328125,-0.889678955078125,0.1932525634765625
1726225790030575900,12.318575927734376,-0.986419677734375,-0.8756103515625,0.1593780517578125
1726225790040612000,12.328612060546876,-0.5965423583984375,-1.3073883056640625,-0.0199432373046875
1726225790050648000,12.33864794921875,0.0832672119140625,-0.98870849609375,0.0499267578125
1726225790060684000,12.34868408203125,-0.5899658203125,-0.551788330078125,0.1921844482421875
1726225790070719000,12.358718994140625,-0.098236083984375,-0.346832275390625,0.161041259765625
1726225790080755000,12.3687548828125,0.0236053466796875,-1.0222625732421875,0.1881866455078125
1726225790090791000,12.378791015625,-0.3941650390625,-0.7977752685546875,0.1096343994140625
1726225790100827000,12.388826904296875,-0.8269195556640625,-0.45770263671875,0.0834197998046875
1726225790110862800,12.39886279296875,-0.7267913818359375,-0.4698486328125,0.1369171142578125
1726225790120899000,12.408899169921876,-0.738311767578125,-1.0176239013671875,-0.1357574462890625
1726225790130934000,12.41893408203125,-0.5383758544921875,-1.320465087890625,0.343353271484375
1726225790140970000,12.428969970703125,-0.6174468994140625,-0.877197265625,0.348480224609375
1726225790151006000,12.439005859375,-0.203460693359375,-0.6004180908203125,0.1045074462890625
1726225790161042000,12.4490419921875,-0.1464080810546875,-1.0360107421875,0.1916656494140625
1726225790171078000,12.459077880859375,-0.304840087890625,-0.9566650390625,0.0135040283203125
1726225790181113000,12.469113037109375,-0.7755126953125,-0.5165863037109375,0.05108642578125
1726225790191149000,12.479149169921875,-0.9132080078125,-0.4291534423828125,0.184906005859375
1726225790201185000,12.48918505859375,-0.7843017578125,-0.8594818115234375,-0.1693878173828125
1726225790211221000,12.499220947265625,-0.458953857421875,-1.2055511474609375,-0.0271453857421875
1726225790221257000,12.509257080078125,-0.5409088134765625,-0.908294677734375,0.1700439453125
1726225790231293000,12.51929296875,-0.7893524169921875,-0.721466064453125,-0.0442352294921875
1726225790241328000,12.529328125,-0.3828277587890625,-1.30047607421875,0.1058349609375
1726225790251364000,12.539364013671875,-0.294403076171875,-1.148101806640625,0.0019989013671875
1726225790261400000,12.549400146484375,-0.523345947265625,-0.4401397705078125,0.0032501220703125
1726225790271436000,12.55943603515625,-0.26519775390625,-0.332489013671875,0.1779022216796875
1726225790281472000,12.569471923828125,-0.1217193603515625,-0.7280731201171875,0.1226348876953125
1726225790291508200,12.57950830078125,-0.2764129638671875,-1.210357666015625,0.21466064453125
1726225790301543000,12.58954296875,-1.2621917724609375,-0.560882568359375,0.245941162109375
1726225790311579000,12.599578857421875,-1.2091522216796875,-0.7145538330078125,0.206207275390625
1726225790321615000,12.609614990234375,-0.7980499267578125,-1.543304443359375,0.0268707275390625
1726225790331651000,12.619651123046875,-0.7933197021484375,-1.07916259765625,-0.0301513671875
1726225790341687000,12.62968701171875,-0.8788909912109375,-0.231903076171875,0.017852783203125
1726225790351723300,12.63972314453125,-0.4979705810546875,-0.393768310546875,-0.0985260009765625
1726225790361758000,12.649758056640625,-0.32928466796875,-1.0582122802734375,0.096160888671875
1726225790371794000,12.6597939453125,-0.9821929931640625,-0.86932373046875,0.1067962646484375
1726225790381830000,12.669829833984375,-0.8412322998046875,-0.4688568115234375,0.1095733642578125
1726225790391865900,12.679865966796875,-0.413970947265625,-0.8311767578125,0.22869873046875
1726225790401902000,12.689902099609375,0.009796142578125,-1.1903076171875,0.08673095703125
1726225790411938300,12.699938232421875,-0.4905548095703125,-0.6263580322265625,0.0771484375
1726225790421977300,12.709977294921876,-0.8488006591796875,-0.239990234375,0.150482177734375
1726225790432013300,12.720013427734376,-0.947906494140625,-0.662750244140625,0.0780029296875
1726225790442049300,12.73004931640625,-1.052215576171875,-1.2100982666015625,0.0671539306640625
1726225790452085200,12.740085205078126,-1.10284423828125,-1.11761474609375,0.1063385009765625
1726225790462121200,12.750121337890626,-0.624603271484375,-0.89739990234375,0.013519287109375
1726225790472156200,12.76015625,-0.5264129638671875,-0.861358642578125,0.024261474609375
1726225790482192400,12.7701923828125,-0.4493865966796875,-0.7891082763671875,-0.005889892578125
1726225790492228400,12.780228271484376,-0.6568603515625,-0.592376708984375,-0.0601654052734375
1726225790502264300,12.790264404296876,-0.202911376953125,-0.6519317626953125,-0.0446929931640625
1726225790512300300,12.80030029296875,-0.01507568359375,-0.7903289794921875,-0.0887298583984375
1726225790522336300,12.810336181640626,-0.3698883056640625,-0.9852142333984375,0.0290985107421875
1726225790532371200,12.82037109375,-0.701019287109375,-0.6876068115234375,-0.041900634765625
1726225790542407200,12.8304072265625,0.1929473876953125,-0.708953857421875,-0.1555633544921875
1726225790552443400,12.840443359375,-0.0249176025390625,-0.9083709716796875,-0.1815643310546875
1726225790562479400,12.850479248046875,-0.7288818359375,-0.5561065673828125,0.213592529296875
1726225790572515300,12.860515380859376,-1.30999755859375,-0.5976409912109375,0.2049102783203125
1726225790582551300,12.87055126953125,-1.161346435546875,-0.965667724609375,0.16290283203125
1726225790592586200,12.880586181640625,-1.044952392578125,-1.2230072021484375,0.203460693359375
