time,seconds_elapsed,z,y,x
1726225777731732500,0.019732421875,0.3019060492515564,0.03394278511404991,0.008669122122228146
1726225777741768400,0.0297685546875,0.30342885851860046,0.07883862406015396,0.1815359741449356
1726225777751803400,0.039803466796875,0.28595906496047974,0.04614672064781189,0.11340565234422684
1726225777761839400,0.04983935546875,0.19239367544651031,-0.054242998361587524,-0.15975184738636017
1726225777771875300,0.059875244140625,0.1276293247938156,-0.10887854546308517,0.015622901730239391
1726225777781910500,0.06991064453125,0.08595965057611465,-0.06060795485973358,0.05727021396160126
1726225777791946500,0.079946533203125,0.09714492410421371,-0.06436407566070557,0.17536595463752747
1726225777801982500,0.089982421875,0.03429272770881653,-0.10678929835557938,0.0852227509021759
1726225777812018400,0.100018310546875,0.048711612820625305,-0.08548853546380997,0.036674655973911285
1726225777822053400,0.110053466796875,0.10064245760440826,-0.08883612602949142,0.13613785803318024
1726225777832089300,0.12008935546875,0.06973700225353241,-0.13193991780281067,0.0152575159445405
1726225777842125300,0.130125244140625,0.04242921620607376,-0.13860075175762177,0.07263265550136566
1726225777852160500,0.140160400390625,0.01050084363669157,-0.18702980875968933,0.04548226296901703
1726225777862196500,0.150196533203125,-0.050285808742046356,-0.2169187366962433,-0.12489932775497437
1726225777872232400,0.160232421875,-0.015058311633765697,-0.17741046845912933,-0.15288221836090088
1726225777882267400,0.170267333984375,0.051541753113269806,-0.08126582950353622,-0.06241464242339134
1726225777892303400,0.180303466796875,0.22495108842849731,-0.021678663790225983,0.07936006784439087
1726225777902339600,0.190339599609375,0.11819588392972946,-0.0620492547750473,-0.04888045787811279
1726225777912375600,0.20037548828125,0.29399460554122925,-0.20704692602157593,-0.2746025323867798
1726225777922410500,0.210410400390625,0.3690006732940674,0.06459923088550568,-0.06803710758686066
1726225777932446500,0.220446533203125,0.4485919177532196,0.10012340545654297,0.19881056249141693
1726225777942482400,0.230482421875,0.34772732853889465,0.05914880707859993,-0.0033369408920407295
1726225777952517600,0.240517578125,0.3708036243915558,0.051188353449106216,-0.1041591614484787
1726225777962553600,0.2505537109375,0.4639444947242737,0.07086804509162903,0.07935260981321335
1726225777972589600,0.260589599609375,0.3901134133338928,0.09411425143480301,0.06494331359863281
1726225777982624500,0.27062451171875,0.37016740441322327,0.08325015008449554,-0.0961073562502861
1726225777992660500,0.280660400390625,0.3925933539867401,0.1050952598452568,-0.1692446917295456
1726225778002696400,0.290696533203125,0.4077230393886566,0.10576611012220383,-0.14332972466945648
1726225778012732400,0.300732421875,0.45562559366226196,0.15676350891590118,0.02755812369287014
1726225778022767600,0.310767578125,0.4506457448005676,0.08560092002153397,-0.033365145325660706
1726225778032803600,0.320803466796875,0.3711165487766266,0.009550095535814762,-0.3115837275981903
1726225778042839600,0.330839599609375,0.4039549231529236,0.05745689943432808,-0.14904114603996277
1726225778052874500,0.34087451171875,0.42956361174583435,0.08558600395917892,0.10285314172506332
1726225778062910500,0.350910400390625,0.31560322642326355,0.027187945321202278,0.11129776388406754
1726225778072946400,0.360946533203125,0.25825658440589905,-0.004618986509740353,-0.09350491315126419
1726225778082981400,0.3709814453125,0.20685970783233643,-0.128961443901062,-0.09816890954971313
1726225778093017300,0.381017333984375,0.14056271314620972,-0.06256617605686188,0.07708040624856949
1726225778103053600,0.391053466796875,0.17720992863178253,-0.022908776998519897,0.2699950039386749
1726225778113089500,0.401089599609375,0.08164932578802109,-0.05932031571865082,0.10363105684518814
1726225778123124500,0.41112451171875,-0.0454108901321888,-0.13650645315647125,-0.3044102191925049
1726225778133160400,0.421160400390625,0.018815765157341957,-0.16762228310108185,-0.35590270161628723
1726225778143196400,0.431196533203125,0.05330769717693329,-0.21839891374111176,0.07347874343395233
1726225778153231400,0.4412314453125,-0.012089153751730919,-0.21350136399269104,0.18496505916118622
1726225778163267300,0.451267333984375,-0.09100767225027084,-0.1968749761581421,-0.29255011677742004
1726225778173303300,0.46130322265625,-0.16806676983833313,-0.1620512157678604,-0.23716381192207336
1726225778183338500,0.47133837890625,-0.06362451612949371,-0.0675545409321785,0.2149709016084671
1726225778193374500,0.48137451171875,-0.00628958735615015,-0.23102310299873352,0.24142593145370483
1726225778203410400,0.491410400390625,-0.18955528736114502,-0.3069671392440796,-0.1694795787334442
1726225778213446400,0.5014462890625,-0.07414320111274719,-0.15223880112171173,-0.10845430195331573
1726225778223481300,0.5114814453125,-0.03458300977945328,-0.1948709487915039,0.30100059509277344
1726225778233517300,0.521517333984375,-0.12034265697002411,-0.19708004593849182,0.1797226220369339
1726225778243553300,0.53155322265625,-0.028243089094758034,-0.24621669948101044,-0.15404948592185974
1726225778253588500,0.54158837890625,-0.10031116008758545,-0.1310485601425171,-0.3446436822414398
1726225778263624400,0.55162451171875,-0.01401781477034092,-0.2642066180706024,-0.06844643503427505
1726225778273660400,0.561660400390625,0.009535448625683784,-0.30085891485214233,0.06634866446256638
1726225778283695400,0.5716953125,0.0027984497137367725,-0.2267649620771408,-0.28312918543815613
1726225778293731300,0.5817314453125,0.14122876524925232,-0.20123723149299622,-0.1238550990819931
1726225778303767600,0.591767578125,0.219930499792099,-0.21930758655071259,0.14232385158538818
1726225778313803500,0.601803466796875,0.33178433775901794,-0.2206980288028717,0.14744670689105988
1726225778323838500,0.61183837890625,0.3741703927516937,-0.049671415239572525,-0.10239721089601517
1726225778333874400,0.62187451171875,0.41468721628189087,0.06662403047084808,-0.02768781967461109
1726225778343910400,0.631910400390625,0.4349551796913147,0.08790988475084305,0.1566721647977829
1726225778353945600,0.641945556640625,0.5299714207649231,-0.031861260533332825,0.04936275631189346
1726225778363981600,0.651981689453125,0.5457280278205872,0.1259094625711441,-0.20374061167240143
1726225778374017500,0.662017578125,0.6404843926429749,0.28695613145828247,-0.22182054817676544
1726225778384052500,0.672052490234375,0.7780520915985107,0.275779128074646,0.05710935965180397
1726225778394088400,0.68208837890625,0.7857792377471924,0.23359757661819458,-0.2006838321685791
1726225778404124400,0.69212451171875,0.7426416277885437,0.2694847285747528,-0.09470520168542862
1726225778414164000,0.7021640625,0.8216168880462646,0.31007957458496094,0.10532988607883453
1726225778424199000,0.712198974609375,0.7504939436912537,0.36244237422943115,-0.11980656534433365
1726225778434235000,0.72223486328125,0.7584283351898193,0.32407793402671814,0.00027616979787126184
1726225778444270800,0.732270751953125,0.7034186124801636,0.34900566935539246,-0.03919214382767677
1726225778454305800,0.742305908203125,0.6825324892997742,0.39632442593574524,-0.043656665831804276
1726225778464341800,0.752341796875,0.6807705760002136,0.3656512200832367,0.13191941380500793
1726225778474378000,0.7623779296875,0.5882627367973328,0.32003819942474365,-0.002974750939756632
1726225778484413000,0.772412841796875,0.5528687834739685,0.3419373631477356,-0.05047302693128586
1726225778494449000,0.782448974609375,0.499483585357666,0.2981688380241394,-0.15158367156982422
1726225778504484900,0.79248486328125,0.3835367262363434,0.2959294021129608,-0.01398638915270567
1726225778514520800,0.802520751953125,0.4040132462978363,0.2544085681438446,-0.1728721708059311
1726225778524556000,0.81255615234375,0.29573577642440796,0.2731042504310608,0.0536712184548378
1726225778534592000,0.822592041015625,0.3131736218929291,0.19620147347450256,0.04520130157470703
1726225778544628000,0.8326279296875,0.2598797678947449,0.19989660382270813,-0.11109376698732376
1726225778554663000,0.842662841796875,0.26195597648620605,0.19364216923713684,0.2554807662963867
1726225778564699000,0.852698974609375,0.2291431725025177,0.2345653623342514,-0.02618499845266342
1726225778574734800,0.86273486328125,0.20385140180587769,0.19736899435520172,0.1173844188451767
1726225778584770000,0.87277001953125,0.1798480600118637,0.1379576027393341,0.3084350526332855
1726225778594806000,0.882805908203125,0.09319759160280228,0.2564554810523987,-0.07114847749471664
1726225778604842000,0.892842041015625,0.045823946595191956,0.20788155496120453,-0.17655879259109497
1726225778614878000,0.9028779296875,0.017353158444166183,0.27259716391563416,-0.16217346489429474
1726225778624913000,0.912912841796875,0.08622569590806961,0.2440587431192398,-0.19980765879154205
1726225778634948900,0.922948974609375,0.06501921266317368,0.24741725623607635,-0.07885034382343292
1726225778644985000,0.932985107421875,0.16123522818088531,0.1888040006160736,0.13009275496006012
1726225778655020000,0.94302001953125,0.12873294949531555,0.1532747745513916,0.15743783116340637
1726225778665056000,0.953055908203125,0.08055929094552994,0.1415582001209259,0.19229966402053833
1726225778675092000,0.963092041015625,-0.014813833869993687,0.20618858933448792,0.2243364304304123
1726225778685127000,0.973126953125,-0.0788106620311737,0.15654459595680237,0.24196523427963257
1726225778695163100,0.9831630859375,-0.08856608718633652,0.11157099902629852,0.3206760287284851
1726225778705199000,0.99319921875,-0.14477263391017914,0.105734683573246,-0.054250720888376236
1726225778715235000,1.003235107421875,-0.1597561091184616,0.04939045384526253,0.02521214634180069
1726225778725270000,1.01327001953125,-0.129018172621727,0.07660423219203949,0.4815083146095276
1726225778735306000,1.023305908203125,-0.13128265738487244,0.14789412915706635,0.3457459509372711
1726225778745342000,1.033342041015625,-0.1490696370601654,0.021338045597076416,-0.010207896120846272
1726225778755377200,1.043377197265625,-0.21725322306156158,0.12889912724494934,-0.03977484256029129
1726225778765413000,1.0534130859375,-0.11768082529306412,0.13162752985954285,0.17903579771518707
1726225778775449000,1.063448974609375,-0.11446160078048706,0.08662810176610947,0.06468977779150009
1726225778785485000,1.073485107421875,-0.15864476561546326,0.02527845837175846,0.1474001109600067
1726225778795520000,1.08352001953125,-0.1713682860136032,0.026852119714021683,0.11011771857738495
1726225778805556000,1.093555908203125,-0.23116344213485718,0.10354157537221909,0.06947068870067596
1726225778815592000,1.103592041015625,-0.25894874334335327,0.0826416164636612,0.2700820863246918
1726225778825627000,1.113626953125,-0.3429693281650543,0.1596732884645462,-0.12256000190973282
1726225778835662800,1.123662841796875,-0.3163049817085266,0.22287994623184204,0.06883259117603302
1726225778845699000,1.133698974609375,-0.3246947228908539,0.26063504815101624,0.2523174583911896
1726225778855735000,1.143735107421875,-0.22464828193187714,0.24711951613426208,-0.011665178462862968
1726225778865770000,1.15377001953125,-0.05649017542600632,0.22508637607097626,0.09390146285295486
1726225778875806000,1.163805908203125,0.03389192000031471,0.1591086983680725,0.18096685409545898
1726225778885842000,1.173842041015625,0.07361403107643127,0.15322576463222504,0.26805514097213745
1726225778895876900,1.183876953125,0.05662306398153305,0.22802118957042694,0.4118725061416626
1726225778905912800,1.193912841796875,-0.019343603402376175,0.21327686309814453,-0.14410631358623505
1726225778915948800,1.20394873046875,-0.08163440972566605,0.2132832556962967,-0.19854292273521423
1726225778925984000,1.21398388671875,-0.15073837339878082,0.1893606036901474,0.0270095132291317
1726225778936020000,1.22402001953125,-0.15176503360271454,0.16466112434864044,0.13809235394001007
1726225778946056000,1.234055908203125,-0.14721527695655823,0.13352051377296448,0.006963367108255625
1726225778956092000,1.244091796875,-0.11275717616081238,0.06279893219470978,-0.01577603444457054
1726225778966126800,1.254126953125,-0.09812416881322861,0.0315757691860199,0.06967388838529587
1726225778976162800,1.264162841796875,-0.10115005075931549,0.052747633308172226,0.11673486977815628
1726225778986198800,1.27419873046875,-0.13742071390151978,0.07514668256044388,0.2690405249595642
1726225778996234000,1.28423388671875,-0.16967931389808655,0.0037795582320541143,0.21596026420593262
1726225779006270000,1.29427001953125,-0.24529950320720673,0.04669373482465744,-0.12933935225009918
1726225779016306000,1.304305908203125,-0.243839830160141,0.029377862811088562,-0.22107379138469696
1726225779026342000,1.314341796875,-0.2588387429714203,-0.0007866977830417454,0.08302325010299683
1726225779036376800,1.324376953125,-0.2459477186203003,0.03592843934893608,0.002252501668408513
1726225779046413000,1.3344130859375,-0.1824134886264801,0.00016644757124595344,-0.048822931945323944
1726225779056449000,1.344448974609375,-0.21707744896411896,-0.005972671322524548,0.05142830312252045
1726225779066484000,1.35448388671875,-0.17280825972557068,0.020665330812335014,0.014025803655385971
1726225779076520000,1.36452001953125,-0.17457394301891327,0.007161506451666355,0.19977755844593048
1726225779086556000,1.374555908203125,-0.2349909394979477,0.017950505018234253,0.028664933517575264
1726225779096591000,1.384591064453125,-0.2110975980758667,-0.009280051104724407,-0.30440038442611694
1726225779106627000,1.394626953125,-0.226711705327034,0.0006684534018859267,-0.19557003676891327
1726225779116663000,1.4046630859375,-0.19207863509655,-0.01912575773894787,0.25892478227615356
1726225779126699000,1.414698974609375,-0.18739785254001617,-0.0056799896992743015,0.07354878634214401
1726225779136734000,1.42473388671875,-0.17326153814792633,-0.03760064020752907,-0.29804474115371704
1726225779146770000,1.43477001953125,-0.16424059867858887,-0.07694990932941437,0.15072506666183472
1726225779156806000,1.444805908203125,-0.21784977614879608,-0.02618180215358734,0.3047164976596832
1726225779166841000,1.454841064453125,-0.21597065031528473,-0.02792750485241413,0.05763399973511696
1726225779176877000,1.464876953125,-0.23095731437206268,-0.041969288140535355,-0.051004063338041306
1726225779186913000,1.4749130859375,-0.18757575750350952,-0.09521759301424026,0.00942306313663721
1726225779196949000,1.484948974609375,-0.17061328887939453,-0.12819339334964752,0.1637662947177887
1726225779206984000,1.49498388671875,-0.17988108098506927,-0.13563106954097748,0.080086849629879
1726225779217020200,1.505020263671875,-0.14409619569778442,-0.10540498793125153,-0.2384171038866043
1726225779227056000,1.51505615234375,-0.17987389862537384,-0.10783085972070694,0.05588217452168465
1726225779237091000,1.525091064453125,-0.1533280313014984,-0.1793162226676941,-0.09229610860347748
1726225779247127000,1.535126953125,-0.1942155510187149,-0.11565815657377243,-0.17939159274101257
1726225779257163000,1.5451630859375,-0.1357136219739914,-0.15182548761367798,0.053760699927806854
1726225779267199000,1.555198974609375,-0.11775059998035431,-0.08333536982536316,-0.059432435780763626
1726225779277234000,1.56523388671875,-0.10939999669790268,-0.0453546978533268,0.09277600795030594
1726225779287270100,1.575270263671875,-0.0413849912583828,-0.10125258564949036,0.12895505130290985
1726225779297306000,1.58530615234375,-0.09707514941692352,-0.10140252113342285,0.06369082629680634
1726225779307340800,1.5953408203125,-0.046006906777620316,-0.12529774010181427,0.030519559979438782
1726225779317376800,1.605376708984375,-0.05283844843506813,-0.123994380235672,-0.14466211199760437
1726225779327412700,1.615412841796875,-0.09436564892530441,-0.14085166156291962,0.07723832875490189
1726225779337449000,1.625448974609375,-0.04156874865293503,-0.15803784132003784,-0.12926051020622253
1726225779347484000,1.63548388671875,-0.08316332846879959,-0.07792355865240097,-0.17546449601650238
1726225779357520000,1.645519775390625,-0.05995041877031326,-0.09827011078596115,0.08149965107440948
1726225779367555800,1.655555908203125,-0.08807153254747391,-0.07053755223751068,-0.075370654463768
1726225779377590800,1.6655908203125,-0.0956524908542633,-0.067228302359581,0.007873902097344398
1726225779387627000,1.675626953125,-0.0698549821972847,-0.07808974385261536,0.18821758031845093
1726225779397663000,1.6856630859375,-0.07025525718927383,-0.13756611943244934,0.07454507052898407
1726225779407699200,1.69569921875,-0.07745377719402313,-0.11950349062681198,-0.17877720296382904
1726225779417734000,1.70573388671875,-0.057920824736356735,-0.1793346107006073,-0.3191969096660614
1726225779427769900,1.715769775390625,-0.10655760020017624,-0.21394690871238708,-0.0011896340874955058
1726225779437805800,1.725805908203125,-0.0888795405626297,-0.1503322422504425,-0.14490552246570587
1726225779447841000,1.735841064453125,-0.05133003368973732,-0.21863487362861633,-0.13833816349506378
1726225779457877000,1.745876953125,-0.12386149168014526,-0.2225063145160675,0.06716997921466827
1726225779467913000,1.755912841796875,-0.08132601529359818,-0.22810906171798706,0.07395944744348526
1726225779477949000,1.765948974609375,-0.11188951879739761,-0.1789817363023758,0.05619775876402855
1726225779487983900,1.77598388671875,-0.14302000403404236,-0.20652520656585693,0.09461598843336105
1726225779498019800,1.786019775390625,-0.16634663939476013,-0.21713577210903168,-0.06118878722190857
1726225779508055800,1.796055908203125,-0.19523181021213531,-0.22362323105335236,-0.2091020792722702
1726225779518092000,1.806092041015625,-0.18188484013080597,-0.22396652400493622,0.0448489636182785
1726225779528127000,1.816126953125,-0.16642174124717712,-0.27481797337532043,0.045224469155073166
1726225779538163000,1.826162841796875,-0.1980627477169037,-0.30486243963241577,-0.3515559136867523
1726225779548199000,1.836198974609375,-0.1611553281545639,-0.2987835109233856,0.03868507593870163
1726225779558233900,1.84623388671875,-0.12608443200588226,-0.28070569038391113,0.10143288224935532
1726225779568270000,1.85627001953125,-0.14834685623645782,-0.2887252867221832,-0.06695506721735
1726225779578306000,1.86630615234375,-0.11670078337192535,-0.27993258833885193,-0.10189014673233032
1726225779588342000,1.876342041015625,-0.07445798814296722,-0.26861122250556946,0.004703941289335489
1726225779598377000,1.886376953125,-0.09818542003631592,-0.22846274077892303,0.42024949193000793
1726225779608413000,1.896412841796875,-0.0432734377682209,-0.24636796116828918,0.15179245173931122
1726225779618449000,1.906448974609375,-0.04222388565540314,-0.20706050097942352,-0.2399023473262787
1726225779628484000,1.916484130859375,0.00814767461270094,-0.19456815719604492,-0.023918649181723595
1726225779638520000,1.92652001953125,0.0410398431122303,-0.16142643988132477,0.11757297068834305
1726225779648556000,1.93655615234375,0.027343740686774254,-0.1719733625650406,-0.0059420447796583176
1726225779658592000,1.946592041015625,0.07553444057703018,-0.1505381017923355,0.07840905338525772
1726225779668627000,1.956626953125,0.09349852800369263,-0.1023990735411644,0.06179412454366684
1726225779678663000,1.966662841796875,0.07436957210302353,-0.06840089708566666,0.07616055011749268
1726225779688699000,1.976698974609375,0.11701557040214539,-0.09393688291311264,0.15495629608631134
1726225779698734000,1.986734130859375,0.12029445171356201,-0.09004627168178558,0.1879483312368393
1726225779708770000,1.99677001953125,0.1745305210351944,-0.08079551160335541,-0.07951612770557404
1726225779718806000,2.006805908203125,0.2215544879436493,-0.06671937555074692,0.06852073967456818
1726225779728842000,2.016842041015625,0.2255026251077652,-0.05213004723191261,0.19058459997177124
1726225779738877200,2.026877197265625,0.28164365887641907,-0.04490462318062782,-0.1530071198940277
1726225779748913200,2.0369130859375,0.28534892201423645,-0.03995567187666893,0.05736715346574783
1726225779758949000,2.04694921875,0.27989956736564636,-0.023930899798870087,0.2545910179615021
1726225779768985000,2.056985107421875,0.3161158859729767,0.011196461506187916,-0.03002634271979332
1726225779779020000,2.06702001953125,0.3457651138305664,0.012978915125131607,-0.03550606220960617
1726225779789056000,2.077055908203125,0.33946114778518677,0.02648007683455944,0.26427239179611206
1726225779799092000,2.087092041015625,0.3823380470275879,0.0070131681859493256,0.21660926938056946
1726225779809127200,2.097127197265625,0.32661327719688416,0.08209113776683807,-0.15672889351844788
1726225779819163100,2.1071630859375,0.3554989695549011,0.09458190202713013,-0.050402455031871796
1726225779829199000,2.11719921875,0.3755651116371155,0.10139799118041992,0.055118378251791
1726225779839235000,2.127235107421875,0.38794800639152527,0.10681140422821045,-0.07623831182718277
1726225779849270000,2.13727001953125,0.4333072304725647,0.08412259817123413,0.0936037227511406
1726225779859306000,2.147305908203125,0.37816062569618225,0.16097396612167358,0.08166130632162094
1726225779869342200,2.15734228515625,0.42642587423324585,0.15761998295783997,0.00034594463068060577
1726225779879378200,2.167378173828125,0.38194629549980164,0.1680673062801361,0.2006116658449173
1726225779889412900,2.177412841796875,0.3750210106372833,0.11432763934135437,0.2725881040096283
1726225779899449000,2.187448974609375,0.3519923985004425,0.23406895995140076,0.08935331553220749
1726225779909485000,2.197485107421875,0.2957419157028198,0.3067229092121124,-0.3410412073135376
1726225779919520000,2.20752001953125,0.2907010614871979,0.22967340052127838,-0.061466824263334274
1726225779929556000,2.217555908203125,0.2375720739364624,0.24609366059303284,-0.0342586375772953
1726225779939592000,2.227592041015625,0.30705103278160095,0.22178326547145844,-0.07582072913646698
1726225779949628200,2.237628173828125,0.3426305949687958,0.180292010307312,0.16557751595973969
1726225779959662800,2.247662841796875,0.3492426872253418,0.21128295361995697,0.09104788303375244
1726225779969698800,2.25769873046875,0.37526336312294006,0.2450912445783615,-0.008743690326809883
1726225779979734800,2.26773486328125,0.29110828042030334,0.2552616000175476,0.17673668265342712
1726225779989771000,2.27777099609375,0.2154180407524109,0.2873569428920746,0.018376877531409264
1726225779999806000,2.287805908203125,0.1945204734802246,0.3216126561164856,-0.12250807136297226
1726225780009842000,2.297842041015625,0.1639023870229721,0.3286585807800293,0.007439540233463049
1726225780019878000,2.3078779296875,0.1334046572446823,0.31106865406036377,-0.07974596321582794
1726225780029912800,2.317912841796875,0.18252027034759521,0.2726064920425415,0.055687230080366135
1726225780039949000,2.327948974609375,0.18825140595436096,0.24047279357910156,-0.11520808190107346
1726225780049985000,2.337985107421875,0.23073308169841766,0.2285309135913849,-0.0476095974445343
1726225780060021000,2.34802099609375,0.2685510218143463,0.20720085501670837,0.07192638516426086
1726225780070056000,2.358055908203125,0.19104665517807007,0.23007553815841675,-0.01805569976568222
1726225780080092000,2.368091796875,0.23104652762413025,0.1812123954296112,0.12365509569644928
1726225780090128000,2.3781279296875,0.15441806614398956,0.14514175057411194,0.012409265153110027
1726225780100163800,2.388163818359375,0.08634314686059952,0.18100734055042267,-0.3310444951057434
1726225780110199000,2.398198974609375,0.10734057426452637,0.2174082249403,-0.11892212927341461
1726225780120235000,2.408235107421875,0.11192893236875534,0.2515352964401245,0.02515515498816967
1726225780130271000,2.41827099609375,0.08976078033447266,0.11492392420768738,-0.16387628018856049
1726225780140306000,2.428305908203125,0.018331069499254227,0.14253796637058258,0.026223881170153618
1726225780150342000,2.438341796875,0.03940067067742348,0.17623308300971985,0.18917924165725708
1726225780160377900,2.4483779296875,-0.02918105386197567,0.11003169417381287,-0.031327296048402786
1726225780170414000,2.4584140625,-0.12104865908622742,0.11026205867528915,0.12176638096570969
1726225780180449000,2.468448974609375,-0.07966659963130951,0.11305544525384903,0.14418114721775055
1726225780190485000,2.478485107421875,-0.11039308458566666,0.17591723799705505,-0.08265546709299088
1726225780200521000,2.48852099609375,-0.14419499039649963,0.08052439987659454,-0.30898794531822205
1726225780210557000,2.498556884765625,-0.14078934490680695,0.03598862886428833,0.04809588938951492
1726225780220592000,2.508592041015625,-0.08108526468276978,0.04791213199496269,-0.10219480842351913
1726225780230628000,2.518628173828125,-0.12257145345211029,0.02834801748394966,-0.09553930908441544
1726225780240664000,2.5286640625,-0.12085478007793427,0.02954830415546894,0.027063574641942978
1726225780250700000,2.538699951171875,-0.10768412053585052,0.05290129780769348,-0.02316896803677082
1726225780260735000,2.54873486328125,-0.16517750918865204,0.08403125405311584,0.028014324605464935
1726225780270771000,2.55877099609375,-0.1384177953004837,0.04900509491562843,0.24955204129219055
1726225780280807000,2.568806884765625,-0.19709016382694244,0.03116537630558014,0.04801679402589798
1726225780290843100,2.578843017578125,-0.21088773012161255,-0.0433725081384182,-0.05327227711677551
1726225780300878000,2.588878173828125,-0.21303264796733856,-0.01486310176551342,-0.29956141114234924
1726225780310914000,2.5989140625,-0.19301046431064606,0.002895388752222061,-0.08699481934309006
1726225780320950000,2.608949951171875,-0.1174193024635315,0.00133850472047925,-0.20259518921375275
1726225780330985000,2.61898486328125,-0.13595862686634064,0.026369022205471992,-0.19042587280273438
1726225780341021200,2.629021240234375,-0.10884366184473038,0.016440492123365402,0.04355360195040703
1726225780351057200,2.63905712890625,-0.09006863832473755,0.013225790113210678,0.12051389366388321
1726225780361093000,2.649093017578125,-0.10117535293102264,0.05613251030445099,0.09103164076805115
1726225780371128000,2.659128173828125,-0.04289153963327408,0.04903705045580864,0.11516813188791275
1726225780381164000,2.6691640625,-0.0550408810377121,-0.0035779569298028946,0.19561611115932465
1726225780391200000,2.679199951171875,-0.02413835935294628,-0.02809927798807621,-0.07939362525939941
1726225780401236000,2.689236083984375,0.03422454744577408,-0.010511763393878937,0.039927441626787186
1726225780411267800,2.699267822265625,-0.011605789884924889,0.01786954514682293,-0.05950567126274109
1726225780421303800,2.7093037109375,0.01438453234732151,0.038357242941856384,-0.07988844066858292
1726225780431339800,2.71933984375,0.01805303618311882,0.05866491049528122,0.07106085866689682
1726225780441375700,2.729375732421875,0.008960205130279064,0.09315603971481323,0.012792494148015976
1726225780451410700,2.73941064453125,0.04782744497060776,0.09472064673900604,0.07390351593494415
1726225780461446700,2.74944677734375,0.08011028170585632,0.09915481507778168,0.20178505778312683
1726225780471483000,2.75948291015625,0.10481749475002289,0.03827468305826187,0.22435161471366882
1726225780481517800,2.769517822265625,0.10852035135030746,0.10697918385267258,-0.10074445605278015
1726225780491553800,2.7795537109375,0.1379416286945343,0.09121539443731308,0.07449580729007721
1726225780501589800,2.78958984375,0.11354200541973114,0.06443784385919571,0.09902697801589966
1726225780511625700,2.799625732421875,0.09622613340616226,0.15771958231925964,-0.24384595453739166
1726225780521661000,2.809660888671875,0.10768970847129822,0.10238895565271378,0.09053868800401688
1726225780531697000,2.81969677734375,0.047024499624967575,0.15897101163864136,0.17042526602745056
1726225780541732900,2.82973291015625,0.10342971980571747,0.15605510771274567,0.10314156860113144
1726225780551768800,2.839768798828125,0.10078813135623932,0.1444714218378067,0.11111586540937424
1726225780561803800,2.8498037109375,0.08079018443822861,0.10958109050989151,0.44804009795188904
1726225780571839700,2.85983984375,0.12681441009044647,0.12565699219703674,0.3100138008594513
1726225780581875700,2.869875732421875,0.06404529511928558,0.10929320007562637,-0.11697748303413391
1726225780591911700,2.87991162109375,0.05351142957806587,0.08988994359970093,-0.06592468917369843
1726225780601947000,2.88994677734375,0.04032931476831436,0.05042855441570282,-0.2288275808095932
1726225780611982800,2.89998291015625,0.024050474166870117,-0.019345734268426895,-0.3175707757472992
1726225780622018800,2.910018798828125,0.016506804153323174,0.01601518504321575,-0.1135191023349762
1726225780632054800,2.9200546875,0.031317174434661865,0.058928295969963074,0.10263130068778992
1726225780642089700,2.93008984375,0.054012902081012726,0.06770607829093933,0.06591856479644775
1726225780652126000,2.9401259765625,0.07191440463066101,0.04259992390871048,0.5242506861686707
1726225780662162000,2.950161865234375,0.04490568861365318,0.046177882701158524,0.3594748079776764
1726225780672198000,2.960197998046875,0.03244981914758682,0.0549015998840332,-0.2052021473646164
1726225780682232800,2.97023291015625,0.04483591392636299,0.03340988978743553,-0.07826897501945496
1726225780692268800,2.980268798828125,-0.020351078361272812,-0.03395770117640495,0.09008648246526718
1726225780702304800,2.9903046875,-0.07203584164381027,-0.05137663707137108,-0.14131611585617065
1726225780712340700,3.0003408203125,-0.13095241785049438,-0.11336757242679596,-0.10121902823448181
1726225780722376000,3.0103759765625,-0.20492278039455414,-0.17651991546154022,0.061459366232156754
1726225780732412000,3.020411865234375,-0.2903788387775421,-0.2194221019744873,0.05239582806825638
1726225780742447900,3.03044775390625,-0.3686275780200958,-0.1915166974067688,0.23525352776050568
1726225780752483800,3.04048388671875,-0.44431859254837036,-0.2750081419944763,0.13856028020381927
1726225780762518800,3.050518798828125,-0.5553542971611023,-0.2742270231246948,-0.2603040337562561
1726225780772554800,3.0605546875,-0.5526639819145203,-0.3275006413459778,0.05848035216331482
1726225780782591000,3.070591064453125,-0.6172102093696594,-0.4035906195640564,-0.16962631046772003
1726225780792626000,3.0806259765625,-0.6446908116340637,-0.382145494222641,-0.246602863073349
1726225780802662000,3.090661865234375,-0.558654248714447,-0.42312756180763245,-0.005771602503955364
1726225780812697900,3.10069775390625,-0.5736169219017029,-0.3953862190246582,-0.007829693146049976
1726225780822733800,3.11073388671875,-0.5046948790550232,-0.4058694839477539,0.09227107465267181
1726225780832769000,3.12076904296875,-0.5261191725730896,-0.3849695324897766,0.05661347880959511
1726225780842805000,3.130804931640625,-0.4963056445121765,-0.3911576271057129,0.11095687747001648
1726225780852841000,3.140841064453125,-0.4448019564151764,-0.2937786281108856,0.09548471122980118
1726225780862877000,3.150876953125,-0.36100614070892334,-0.29823675751686096,-0.3209766745567322
1726225780872912000,3.160911865234375,-0.2891785502433777,-0.30892321467399597,-0.19633489847183228
1726225780882947800,3.17094775390625,-0.2345171719789505,-0.29009678959846497,-0.2036236971616745
1726225780892983800,3.18098388671875,-0.1129678338766098,-0.2535251975059509,-0.22042638063430786
1726225780903020000,3.19102001953125,-0.05036863312125206,-0.18064726889133453,-0.12699656188488007
1726225780913055000,3.201054931640625,0.03533269092440605,-0.1397610902786255,0.1239059641957283
1726225780923091000,3.211091064453125,0.07765591144561768,-0.12256266921758652,0.1327039897441864
1726225780933127000,3.221126953125,0.10767879337072372,-0.07989110052585602,0.21562789380550385
1726225780943163000,3.231162841796875,0.1497916281223297,-0.0427330806851387,0.27915626764297485
1726225780953197800,3.24119775390625,0.19000695645809174,-0.08165917545557022,-0.15732704102993011
1726225780963234000,3.251234130859375,0.1847914159297943,0.002127066720277071,-0.1506347805261612
1726225780973270000,3.26127001953125,0.2535467743873596,0.009259012527763844,-0.04030907154083252
1726225780983306000,3.271305908203125,0.3039311170578003,0.010438259690999985,-0.04079776257276535
1726225780993340700,3.281340576171875,0.35682231187820435,-0.001588575541973114,-0.16252686083316803
1726225781003376600,3.291376708984375,0.42687514424324036,-0.009163671173155308,0.07360924035310745
1726225781013412600,3.30141259765625,0.4173290431499481,0.030640466138720512,0.14974234998226166
1726225781023448800,3.31144873046875,0.43443772196769714,0.0187824759632349,0.027709392830729485
1726225781033483800,3.32148388671875,0.3978392481803894,0.07520367205142975,-0.05820764601230621
1726225781043519700,3.331519775390625,0.3684121072292328,0.09781790524721146,-0.0481339730322361
1726225781053555700,3.3415556640625,0.30752161145210266,0.1015617772936821,0.019956929609179497
1726225781063591700,3.351591796875,0.27799326181411743,0.13369175791740417,-0.16408561170101166
1726225781073627000,3.361626953125,0.27287787199020386,0.11598598957061768,0.054483216255903244
1726225781083662800,3.371662841796875,0.24589045345783234,0.15443991124629974,0.053274139761924744
1726225781093698800,3.38169873046875,0.34689217805862427,0.0960431769490242,0.06597927957773209
1726225781103734800,3.39173486328125,0.26785409450531006,0.1295153796672821,0.1402178257703781
1726225781113769700,3.401769775390625,0.3522762954235077,0.0704784244298935,0.05155240744352341
1726225781123805700,3.4118056640625,0.26322072744369507,0.08662224560976028,0.022421685978770256
1726225781133841700,3.421841552734375,0.19050602614879608,0.14062902331352234,0.05836237594485283
1726225781143877600,3.431877685546875,0.23730257153511047,0.16295084357261658,-0.11076460033655167
1726225781153912800,3.441912841796875,0.12215440720319748,0.18920613825321198,0.15202468633651733
1726225781163948800,3.45194873046875,0.15677016973495483,0.12483780831098557,0.014513429254293442
1726225781173984800,3.46198486328125,0.14514601230621338,0.12595020234584808,-0.10777972638607025
1726225781184020700,3.472020751953125,0.15153199434280396,0.11296863108873367,0.054067496210336685
1726225781194055700,3.4820556640625,0.17683522403240204,0.10232557356357574,-0.021215006709098816
1726225781204092000,3.492091796875,0.15347132086753845,0.1006387248635292,0.3094915449619293
1726225781214127900,3.5021279296875,0.17035548388957977,0.06046813726425171,0.1789628267288208
1726225781224163800,3.512163818359375,0.09850340336561203,0.09207639843225479,-0.13434076309204102
1726225781234198800,3.52219873046875,0.07872837036848068,0.08298409730195999,0.0243719182908535
1726225781244234800,3.53223486328125,0.03123222105205059,0.11293747276067734,0.0243759136646986
1726225781254270700,3.542270751953125,0.061819158494472504,0.07536079734563828,-0.09359919279813766
1726225781264306700,3.552306640625,0.015369901433587074,0.07098975777626038,-0.053466685116291046
1726225781274342000,3.562341796875,0.04238021373748779,0.043906472623348236,-0.011050786823034286
1726225781284377900,3.5723779296875,0.03304130584001541,0.07154262810945511,0.20593371987342834
1726225781294413800,3.582413818359375,0.029695844277739525,-0.009836917743086815,0.3859359920024872
1726225781304449800,3.59244970703125,0.01455630548298359,0.05475299432873726,-0.08188953995704651
1726225781314484700,3.602484619140625,-0.029137112200260162,0.08881428837776184,-0.19414204359054565
1726225781324520700,3.612520751953125,-0.005477855913341045,0.05528455972671509,-0.007236607372760773
1726225781334557000,3.622556884765625,0.029076391831040382,0.07667533308267593,-0.09906932711601257
1726225781344593000,3.632593017578125,0.04535949230194092,0.046904925256967545,0.01889938861131668
1726225781354627800,3.6426279296875,0.0455286018550396,0.059961337596178055,0.05728086456656456
1726225781364663800,3.652663818359375,0.05552823841571808,0.07168138027191162,-0.029097432270646095
1726225781374699800,3.66269970703125,0.030841268599033356,0.11628426611423492,0.3155997693538666
1726225781384735700,3.67273583984375,0.008733836933970451,0.17560911178588867,0.16464407742023468
1726225781394771000,3.68277099609375,0.040470194071531296,0.08365308493375778,-0.2522767186164856
1726225781404807000,3.692806884765625,0.007105580065399408,0.08599559962749481,0.044742703437805176
1726225781414841900,3.702841796875,0.04896407946944237,0.05428854003548622,-0.03632418438792229
1726225781424877800,3.7128779296875,0.04621303454041481,0.08109991252422333,-0.12814012169837952
1726225781434913000,3.7229130859375,0.048161402344703674,0.07803355157375336,-0.018083395436406136
1726225781444949000,3.732948974609375,0.11257581412792206,0.056108277291059494,-0.12949593365192413
1726225781454985000,3.74298486328125,0.06287164241075516,0.10266832262277603,0.047681767493486404
1726225781465021000,3.75302099609375,0.12662318348884583,0.10090664029121399,0.13381452858448029
1726225781475055900,3.763055908203125,0.11733461916446686,0.1132035180926323,-0.19088393449783325
1726225781485091800,3.773091796875,0.09488043934106827,0.16819247603416443,-0.21697331964969635
1726225781495127800,3.7831279296875,0.19184426963329315,0.12467455118894577,-0.0013632721966132522
1726225781505164000,3.7931640625,0.1267387717962265,0.1685783565044403,-0.2565372586250305
1726225781515199000,3.803198974609375,0.21980799734592438,0.2843102812767029,-0.4169676601886749
1726225781525235000,3.81323486328125,0.289750337600708,0.135333850979805,-0.03167270869016647
1726225781535271000,3.82327099609375,0.21846629679203033,0.15918539464473724,0.12078873813152313
1726225781545307000,3.833306884765625,0.31171101331710815,0.18430805206298828,-0.07880107313394547
1726225781555342000,3.843342041015625,0.2869795858860016,0.21706493198871613,0.06957615166902542
1726225781565378000,3.8533779296875,0.26659947633743286,0.18950414657592773,0.24835069477558136
1726225781575414000,3.8634140625,0.33990296721458435,0.2259865254163742,-0.008782572112977505
1726225781585450000,3.873449951171875,0.24350666999816895,0.2469456046819687,-0.12074506282806396
1726225781595485000,3.88348486328125,0.2572951912879944,0.24739913642406464,-0.1069144681096077
1726225781605521000,3.89352099609375,0.26894623041152954,0.21989907324314117,-0.05276494473218918
1726225781615556900,3.903556884765625,0.2463834136724472,0.19159579277038574,0.023016901686787605
1726225781625592800,3.9135927734375,0.2729471027851105,0.22602488100528717,-0.0788964107632637
1726225781635628000,3.9236279296875,0.24840767681598663,0.26827991008758545,-0.018692994490265846
1726225781645664000,3.9336640625,0.19300994277000427,0.2720285952091217,0.24640977382659912
1726225781655700000,3.943699951171875,0.16660922765731812,0.31229451298713684,0.2817206382751465
1726225781665736000,3.95373583984375,0.16511332988739014,0.24199159443378448,-0.17177176475524902
1726225781675772000,3.96377197265625,0.11476679891347885,0.23508921265602112,-0.125002920627594
1726225781685807000,3.97380712890625,0.15652835369110107,0.2280171811580658,-0.0985388234257698
1726225781695843000,3.983843017578125,0.12634915113449097,0.22273001074790955,-0.18727880716323853
1726225781705879000,3.993879150390625,0.11824115365743637,0.19057820737361908,-0.11508238315582275
1726225781715915000,4.0039150390625,0.11096886545419693,0.21366673707962036,-0.22481127083301544
1726225781725950000,4.013949951171875,0.08534392714500427,0.20464980602264404,-0.03248497098684311
1726225781735986000,4.02398583984375,0.05504141375422478,0.1448269635438919,0.2462174892425537
1726225781746022000,4.03402197265625,0.010162889026105404,0.18210536241531372,-0.29065847396850586
1726225781756057900,4.044057861328125,-0.06572815030813217,0.1509903073310852,-0.14176832139492035
1726225781766093000,4.054093017578125,-0.04802984371781349,0.13046292960643768,-0.17575424909591675
1726225781776129000,4.06412890625,-0.11342030018568039,0.04649826139211655,-0.06754442304372787
1726225781786165000,4.0741650390625,-0.15069469809532166,0.026200978085398674,0.12205134332180023
1726225781796201000,4.084200927734375,-0.1246338039636612,0.029740585014224052,-0.11286689341068268
1726225781806236000,4.09423583984375,-0.14525705575942993,-0.023919181898236275,-0.14931918680667877
1726225781816272100,4.104272216796875,-0.11556307971477509,-0.18201933801174164,0.11170122772455215
1726225781826308000,4.11430810546875,-0.172690287232399,-0.2296297252178192,0.23094213008880615
1726225781836344000,4.124343994140625,-0.23718005418777466,-0.07235169410705566,0.009935721755027771
1726225781846379000,4.13437890625,-0.3262436091899872,-0.07450805604457855,-0.6129084229469299
1726225781856415000,4.1444150390625,-0.35626357793807983,-0.1583382487297058,-0.060210876166820526
1726225781866451000,4.154450927734375,-0.4487919211387634,-0.07519861310720444,0.347468763589859
1726225781876487000,4.16448681640625,-0.40459302067756653,-0.15894544124603271,-0.5853058099746704
1726225781886522000,4.174522216796875,-0.40047550201416016,-0.15767191350460052,-0.5085783004760742
1726225781896558000,4.18455810546875,-0.358305960893631,-0.16468694806098938,0.38428109884262085
1726225781906594000,4.194593994140625,-0.3301243782043457,-0.17455050349235535,0.6146469116210938
1726225781916630000,4.204630126953125,-0.3017720878124237,-0.16326375305652618,0.39757293462753296
1726225781926666000,4.214666015625,-0.3482738137245178,-0.20958997309207916,0.5714701414108276
1726225781936701200,4.224701171875,-0.38472023606300354,-0.07786151021718979,0.1367514580488205
1726225781946737200,4.234737060546875,-0.24626383185386658,-0.13961009681224823,-0.06759662181138992
1726225781956773000,4.244773193359375,-0.31751084327697754,-0.15971510112285614,0.1691887527704239
1726225781966809000,4.25480908203125,-0.23722213506698608,-0.11854315549135208,-0.14460910856723785
1726225781976844000,4.264843994140625,-0.19547335803508759,-0.12053067237138748,0.1414247751235962
1726225781986880000,4.2748798828125,-0.17335127294063568,-0.12072641402482986,-0.13260331749916077
1726225781996916000,4.284916015625,-0.1275148093700409,-0.14323972165584564,0.08310767263174057
1726225782006952000,4.294951904296875,-0.13963858783245087,-0.01130964607000351,0.25570181012153625
1726225782016987100,4.304987060546875,-0.0702054500579834,-0.0223268773406744,-0.4919918477535248
1726225782027023000,4.315023193359375,-0.09614890068769455,-0.014242053031921387,-0.27784013748168945
1726225782037059000,4.32505908203125,-0.07942957431077957,0.028442826122045517,0.20779606699943542
1726225782047095000,4.335094970703125,-0.059904079884290695,-0.028485437855124474,-0.007590008899569511
1726225782057130000,4.3451298828125,-0.049430131912231445,-0.012234562076628208,0.47278884053230286
1726225782067166200,4.355166259765625,0.014919561333954334,0.042143192142248154,0.13438524305820465
1726225782077202200,4.3652021484375,0.0317254401743412,0.02708141878247261,0.33306077122688293
1726225782087238100,4.375238037109375,0.006443518213927746,0.06773030757904053,0.8493683338165283
1726225782097273000,4.385273193359375,0.09331929683685303,-0.013142965734004974,0.2220439910888672
1726225782107309000,4.39530908203125,0.02786891534924507,0.0270736962556839,-0.2127639353275299
1726225782117345000,4.405344970703125,-0.03247911483049393,0.04472645744681358,0.043718453496694565
1726225782127381000,4.415381103515625,-0.0527910441160202,0.04993906244635582,-0.49150848388671875
1726225782137417000,4.4254169921875,-0.09444288164377213,0.01366467960178852,-0.6748442053794861
1726225782147452000,4.435451904296875,-0.03795270994305611,0.024577515199780464,-0.25584614276885986
1726225782157488000,4.445488037109375,-0.04429981857538223,-0.05373220518231392,0.45774972438812256
1726225782167524000,4.455524169921875,0.06297097355127335,-0.08746486902236938,1.01531183719635
1726225782177560000,4.46556005859375,0.15070615708827972,-0.05772215127944946,1.0334124565124512
1726225782187595000,4.475594970703125,0.11909309774637222,-0.18403694033622742,0.4766805171966553
1726225782197631000,4.485630859375,-0.10362119972705841,0.0022210762836039066,-0.08831894397735596
1726225782207667200,4.495667236328125,-0.21840716898441315,-0.04041826352477074,0.3410169780254364
1726225782217703200,4.505703125,-0.4840849041938782,0.2305208295583725,0.42370492219924927
1726225782227737900,4.51573779296875,-0.16774585843086243,-0.02677568793296814,-0.9079845547676086
1726225782237773800,4.52577392578125,-0.28555718064308167,-0.09326762706041336,-1.0008635520935059
1726225782247809800,4.535809814453125,-0.08347385376691818,-0.06413237750530243,0.014285195618867874
1726225782257845800,4.545845703125,-0.0624399408698082,-0.017788585275411606,0.7716575860977173
1726225782267881000,4.555880859375,0.03701980412006378,-0.10520072281360626,0.1558532416820526
1726225782277917000,4.5659169921875,0.01113494299352169,-0.08545897156000137,-0.32144513726234436
1726225782287953000,4.575952880859375,-0.06625145673751831,-0.03369111940264702,0.1071283146739006
1726225782297988900,4.58598876953125,-0.14343439042568207,0.03615081310272217,0.2685433030128479
1726225782308024800,4.59602490234375,-0.17271371185779572,-0.087437704205513,-0.40581515431404114
1726225782318060000,4.60606005859375,-0.13162194192409515,-0.10967270284891129,-0.5492239594459534
1726225782328096000,4.616095947265625,-0.15764261782169342,-0.00264744833111763,0.2419321984052658
1726225782338132000,4.626132080078125,-0.1236918494105339,0.020786771550774574,0.5808939933776855
1726225782348168000,4.63616796875,-0.08733916282653809,0.06060449033975601,0.5128492116928101
1726225782358203000,4.646202880859375,-0.15246570110321045,-0.07665030658245087,-0.41883108019828796
1726225782368238800,4.65623876953125,-0.09704425930976868,0.003308444982394576,0.08778684586286545
1726225782378274800,4.66627490234375,-0.1682308167219162,-0.022715432569384575,0.09114561975002289
1726225782388310800,4.676310791015625,-0.19136303663253784,-0.013951501809060574,-0.7699800729751587
1726225782398346000,4.686345947265625,-0.11205542832612991,0.04788683354854584,-0.5593607425689697
1726225782408386000,4.696385986328125,-0.0593101941049099,0.0846424475312233,0.1222420260310173
1726225782418422000,4.706422119140625,0.017616810277104378,0.024999093264341354,0.06356033682823181
1726225782428458000,4.7164580078125,0.06723123788833618,-0.0365191288292408,-0.0679689273238182
1726225782438494000,4.726493896484375,-0.01865677535533905,-0.0420590378344059,-0.02383609116077423
1726225782448529000,4.73652880859375,0.0326189287006855,-0.04252642020583153,0.12402660399675369
1726225782458565000,4.746565185546875,0.015341139398515224,0.0677763819694519,0.8845423460006714
1726225782468601000,4.75660107421875,0.008768990635871887,0.039803870022296906,-0.24134710431098938
1726225782478637000,4.766636962890625,-0.03038640134036541,0.08529678732156754,-0.4555203914642334
1726225782488672000,4.776672119140625,0.012167716398835182,0.16203737258911133,-0.0151003897190094
1726225782498708000,4.7867080078125,0.08240193128585815,0.1075000911951065,-0.3688611388206482
1726225782508744000,4.796743896484375,0.13313515484333038,-0.01756594330072403,-0.2587018609046936
1726225782518780000,4.80677978515625,0.15575817227363586,-0.03286420553922653,0.3223641812801361
1726225782528815000,4.816815185546875,0.07194609194993973,0.10039690881967545,-0.08128873258829117
1726225782538851000,4.82685107421875,0.11572686582803726,0.11058243364095688,-0.527805507183075
1726225782548887000,4.836886962890625,-0.020359866321086884,0.16839034855365753,-0.07365424931049347
1726225782558923000,4.846923095703125,0.054130345582962036,0.16560733318328857,0.8984948992729187
1726225782568959000,4.856958984375,0.05603929981589317,0.07472404092550278,0.7273396253585815
1726225782578994000,4.866993896484375,-0.05868887901306152,0.14194248616695404,-1.0505664348602295
1726225782589030100,4.877030029296875,-0.006199839059263468,0.030235400423407555,-1.4371740818023682
1726225782599066000,4.887066162109375,-0.09985575824975967,0.12568628787994385,-0.12320182472467422
1726225782609102000,4.89710205078125,-0.09781178086996078,0.10799837112426758,0.7208924293518066
1726225782619137000,4.907136962890625,-0.07040385901927948,-0.1249813511967659,0.014169348403811455
1726225782629173000,4.917173095703125,-0.27229756116867065,0.07157698273658752,-0.357636958360672
1726225782639209000,4.927208984375,-0.13878397643566132,-0.05552531033754349,0.08123386651277542
1726225782649245000,4.937244873046875,-0.2627362906932831,-0.06444663554430008,0.730056881904602
1726225782659280100,4.947280029296875,-0.2144465148448944,-0.08174200356006622,-0.445838987827301
1726225782669316000,4.957316162109375,-0.17766107618808746,-0.1554332673549652,-1.4437310695648193
1726225782679352000,4.96735205078125,-0.3065010905265808,0.013591442257165909,-0.7870171070098877
1726225782689388000,4.977387939453125,-0.21901969611644745,0.02214338444173336,0.8057979941368103
1726225782699424000,4.987424072265625,-0.2136068195104599,-0.1514105647802353,1.0260398387908936
1726225782709459000,4.997458984375,-0.24181289970874786,-0.18528170883655548,0.013990383595228195
1726225782719495200,5.0074951171875,-0.21189947426319122,-0.058584216982126236,0.4310145080089569
1726225782729531100,5.01753125,-0.22387810051441193,-0.044678788632154465,0.4237808287143707
1726225782739567000,5.027567138671875,-0.1743672788143158,-0.24178625643253326,-0.74037104845047
1726225782749602000,5.03760205078125,-0.28430095314979553,-0.30869632959365845,-0.819268524646759
1726225782759638000,5.047637939453125,-0.11851918697357178,-0.04782531410455704,0.17549645900726318
1726225782769674000,5.057674072265625,-0.2054911106824875,-0.03182956948876381,0.40157753229141235
1726225782779710000,5.0677099609375,-0.21614135801792145,-0.08789443224668503,-0.09724399447441101
1726225782789746000,5.077745849609375,-0.16107836365699768,0.007001716643571854,0.25517717003822327
1726225782799781000,5.087781005859375,-0.03139787167310715,-0.07666468620300293,0.263452410697937
1726225782809817000,5.097817138671875,-0.038974564522504807,-0.1448107212781906,0.3190363049507141
1726225782819853000,5.10785302734375,-0.03713245317339897,-0.051957741379737854,-0.4841056764125824
1726225782829889000,5.117888916015625,-0.03641393408179283,-0.026071282103657722,-0.090511254966259
1726225782839924200,5.12792431640625,-0.12036821991205215,-0.06378749758005142,0.241597980260849
1726225782849960200,5.137960205078125,-0.15909244120121002,-0.07556133717298508,-0.3359471261501312
1726225782859996200,5.14799609375,-0.23532196879386902,-0.13170583546161652,-0.49504807591438293
1726225782870032100,5.1580322265625,-0.24981889128684998,-0.1615643948316574,0.28126761317253113
1726225782880067000,5.168067138671875,-0.13882046937942505,-0.16549575328826904,0.28508472442626953
1726225782890103000,5.17810302734375,-0.12263403832912445,-0.14563123881816864,-0.33627229928970337
1726225782900139000,5.188138916015625,-0.05079952999949455,-0.15279513597488403,-0.35383450984954834
1726225782910175000,5.198175048828125,-0.12416668981313705,0.016708672046661377,0.35649019479751587
1726225782920211200,5.208211181640625,-0.17537420988082886,-0.07517944276332855,0.7128416895866394
1726225782930246100,5.21824609375,-0.2145751416683197,-0.31244924664497375,-0.02082405611872673
1726225782940282000,5.2282822265625,-0.39169132709503174,-0.1634640246629715,0.00011398329661460593
1726225782950318000,5.238318115234375,-0.2851502597332001,-0.3223053514957428,0.6578689813613892
1726225782960354000,5.24835400390625,-0.3740241825580597,-0.21664948761463165,-0.05787022411823273
1726225782970389000,5.258388916015625,-0.16033321619033813,-0.4142096936702728,-0.9062409400939941
1726225782980425000,5.268425048828125,-0.28552308678627014,-0.2752417027950287,-0.23425617814064026
1726225782990461200,5.278461181640625,-0.1970568746328354,-0.4102186858654022,0.8559442162513733
1726225783000497200,5.2884970703125,-0.5172519087791443,-0.20275364816188812,0.7582632303237915
1726225783010533000,5.298533203125,-0.3204440474510193,-0.3965739905834198,-0.5442215204238892
1726225783020567800,5.30856787109375,-0.45062682032585144,-0.24295033514499664,-0.39125749468803406
1726225783030603800,5.318603759765625,-0.3616386353969574,-0.37266919016838074,0.5172532796859741
1726225783040640000,5.328639892578125,-0.3687780201435089,-0.4021626114845276,0.06937747448682785
1726225783050676200,5.33867626953125,-0.30328771471977234,-0.5197675228118896,-0.5868693590164185
1726225783060711000,5.3487109375,-0.3351913094520569,-0.4478347599506378,-0.19450263679027557
1726225783070747000,5.358746826171875,-0.36970454454421997,-0.41925638914108276,0.7679017186164856
1726225783080782800,5.368782958984375,-0.38628220558166504,-0.2715119421482086,0.6229062080383301
1726225783090818800,5.37881884765625,-0.22417478263378143,-0.4251544773578644,-0.1336190402507782
1726225783100855000,5.38885498046875,-0.2474694550037384,-0.3452782928943634,0.21468859910964966
1726225783110890000,5.398889892578125,-0.20670416951179504,-0.4053112864494324,0.17035149037837982
1726225783120926000,5.408926025390625,-0.18710944056510925,-0.3163824677467346,-0.1616533398628235
1726225783130962000,5.4189619140625,-0.1789228767156601,-0.19782227277755737,0.223758265376091
1726225783140998000,5.428997802734375,0.007020358927547932,-0.2119833528995514,0.03791143000125885
1726225783151032800,5.43903271484375,-0.056837450712919235,-0.20410625636577606,-0.3269863724708557
1726225783161068800,5.44906884765625,0.011420966126024723,-0.25172170996665955,0.5093090534210205
1726225783171105000,5.45910498046875,0.08061974495649338,-0.1799580454826355,0.20333048701286316
1726225783181141000,5.46914111328125,0.06924884766340256,-0.24722737073898315,-0.39625120162963867
1726225783191177000,5.479177001953125,0.1541626751422882,-0.17620378732681274,-0.07158124446868896
1726225783201212000,5.4892119140625,0.12003666162490845,-0.18253545463085175,0.4091952443122864
1726225783211247900,5.499247802734375,0.16337348520755768,-0.09291103482246399,0.15434829890727997
1726225783221283800,5.509283935546875,0.16390743851661682,-0.2008766531944275,-0.6572801470756531
1726225783231319800,5.51931982421875,0.10367712378501892,-0.1920357495546341,-0.5145557522773743
1726225783241355000,5.52935498046875,0.16876931488513947,-0.14496517181396484,0.023330090567469597
1726225783251391000,5.539390869140625,0.10824631154537201,-0.262781023979187,-0.33723902702331543
1726225783261427000,5.549427001953125,0.18227793276309967,-0.31176427006721497,-0.4470787048339844
1726225783271463000,5.559462890625,0.25091317296028137,-0.22832238674163818,-0.014841264113783836
1726225783281499000,5.569498779296875,0.18898563086986542,-0.16831789910793304,0.44542407989501953
1726225783291533800,5.579533935546875,0.19265200197696686,-0.1509210765361786,0.9225472211837769
1726225783301570000,5.589570068359375,0.1236678808927536,-0.2548200488090515,0.12631958723068237
1726225783311606000,5.59960595703125,0.08536896109580994,-0.07998910546302795,-0.5184460878372192
1726225783321642000,5.60964208984375,0.06502480804920197,-0.3115597367286682,-0.01799284853041172
1726225783331678000,5.619677978515625,-0.07349205762147903,-0.054917577654123306,0.3373474180698395
1726225783341713000,5.629712890625,0.07939176261425018,-0.02762763202190399,-0.60176682472229
1726225783351748900,5.639748779296875,0.08009297400712967,-0.1665881872177124,-0.9050720930099487
1726225783361784800,5.649784912109375,0.24093112349510193,-0.11121760308742523,-0.4222330152988434
1726225783371820800,5.65982080078125,0.24813443422317505,-0.06271770596504211,0.6893246173858643
1726225783381856000,5.66985595703125,0.41228368878364563,-0.1645314246416092,0.9011817574501038
1726225783391892000,5.67989208984375,0.3770330250263214,-0.12710228562355042,0.516449511051178
1726225783401928000,5.689927978515625,0.46106773614883423,-0.11194970458745956,-0.3949965834617615
1726225783411960000,5.6999599609375,0.38763293623924255,0.02268107794225216,0.1752021759748459
1726225783421995300,5.709995361328125,0.3619334399700165,0.23857848346233368,-0.528552770614624
1726225783432031200,5.72003125,0.5252334475517273,0.0019419770687818527,-1.3406680822372437
1726225783442067200,5.730067138671875,0.42911460995674133,0.38826197385787964,-0.7751601934432983
1726225783452103200,5.740103271484375,0.7207403182983398,0.40010905265808105,0.4455393850803375
1726225783462139100,5.75013916015625,0.7603436708450317,0.3400598466396332,0.9472115635871887
1726225783472174000,5.760174072265625,0.8538864254951477,0.3513822555541992,0.334093302488327
1726225783482210000,5.7702099609375,0.6913291811943054,0.3846248984336853,0.15020442008972168
1726225783492246300,5.780246337890625,0.773557722568512,0.32026776671409607,-0.022608373314142227
1726225783502282200,5.7902822265625,0.7603293061256409,0.3692941665649414,-0.10878933221101761
1726225783512318200,5.800318115234375,0.7262741327285767,0.32140305638313293,-0.07192105799913406
1726225783522353200,5.810353271484375,0.744859516620636,0.3698368966579437,-0.33673620223999023
1726225783532389000,5.82038916015625,0.7535344958305359,0.3242265582084656,-0.24986761808395386
1726225783542425000,5.830425048828125,0.8137589693069458,0.4815424084663391,0.2640068829059601
1726225783552461000,5.8404609375,1.0255415439605713,0.4197400212287903,0.482711523771286
1726225783562496300,5.850496337890625,0.7393073439598083,0.3995266258716583,0.2755575478076935
1726225783572532200,5.8605322265625,0.7749995589256287,0.34487056732177734,0.594448447227478
1726225783582568200,5.870568115234375,0.6863309741020203,0.4731457233428955,0.8299965262413025
1726225783592604200,5.880604248046875,0.5569745898246765,0.3420596122741699,0.29994145035743713
1726225783602640100,5.89064013671875,0.3647449314594269,0.29799947142601013,-0.41666433215141296
1726225783612675000,5.900675048828125,0.31110167503356934,0.3325001895427704,-0.9023221135139465
1726225783622711300,5.910711181640625,0.24962474405765533,0.3652421534061432,-0.4815889894962311
1726225783632747300,5.920747314453125,0.37682822346687317,0.24264860153198242,0.17244580388069153
1726225783642783200,5.930783203125,0.18216554820537567,0.3310314416885376,0.17985126376152039
1726225783652818000,5.94081787109375,0.3223136067390442,0.3299131989479065,0.07870972901582718
1726225783662854100,5.950854248046875,0.1067701205611229,0.4130927622318268,0.6026512384414673
1726225783672890000,5.96089013671875,0.07808281481266022,0.3977881073951721,0.8559924364089966
1726225783682926000,5.970926025390625,-0.07988045364618301,0.2085886299610138,-0.19395695626735687
1726225783692962000,5.980962158203125,0.06391932815313339,0.1952672302722931,-1.012885332107544
1726225783702997000,5.9909970703125,-0.01817607507109642,0.08592849224805832,0.013292103074491024
1726225783713033000,6.001032958984375,-0.0084877610206604,0.06326206028461456,0.725579023361206
1726225783723069200,6.011069091796875,-0.10281319916248322,-0.025657692924141884,-0.16148503124713898
1726225783733105200,6.021105224609375,-0.07221560925245285,0.10992676764726639,-0.32329124212265015
1726225783743141000,6.03114111328125,0.044257741421461105,0.1880340874195099,0.48487773537635803
1726225783753176000,6.041176025390625,-0.10775016248226166,0.14014166593551636,0.6073884963989258
1726225783763212000,6.0512119140625,-0.08499425649642944,0.04686550796031952,-0.15543831884860992
1726225783773248300,6.061248291015625,0.0065654912032186985,0.24439190328121185,-0.6934285759925842
1726225783783284200,6.0712841796875,0.05988970026373863,0.20133763551712036,0.7370479106903076
1726225783793319000,6.08131884765625,0.05567684397101402,0.2574155628681183,1.0757250785827637
1726225783803355000,6.09135498046875,-0.046955790370702744,-0.043051064014434814,-0.2933695614337921
1726225783813390800,6.101390869140625,-0.05463581532239914,0.005776396486908197,-0.7833467125892639
1726225783823427000,6.111427001953125,-0.11444108933210373,0.09662667661905289,0.39809730648994446
1726225783833463300,6.12146337890625,-0.20416219532489777,-0.025832396000623703,0.011419367976486683
1726225783843498000,6.131498046875,-0.2090858370065689,-0.11000479757785797,-0.6477643847465515
1726225783853534000,6.141533935546875,-0.23151259124279022,-0.013726730830967426,-0.3278476297855377
1726225783863570000,6.15156982421875,-0.1972784548997879,-0.003081277245655656,0.08097820729017258
1726225783873606000,6.16160595703125,-0.18068429827690125,0.007948470301926136,-0.002162753138691187
1726225783883642000,6.17164208984375,-0.17870104312896729,0.00019574233738239855,-0.177079975605011
1726225783893677000,6.181677001953125,-0.28970852494239807,-0.12008779495954514,-0.004862399306148291
1726225783903713000,6.191713134765625,-0.1853104680776596,-0.12856782972812653,0.2823256850242615
1726225783913749000,6.2017490234375,-0.32916298508644104,0.02135935053229332,0.002027997048571706
1726225783923785000,6.211784912109375,-0.29570382833480835,-0.21438366174697876,-0.5765756964683533
1726225783933820000,6.22181982421875,-0.4452304542064667,-0.27601295709609985,-0.5695609450340271
1726225783943856000,6.231856201171875,-0.3832395374774933,-0.11282721906900406,0.1751326620578766
1726225783953892000,6.24189208984375,-0.3254516124725342,-0.11120694875717163,0.6029556393623352
1726225783963928000,6.251927978515625,-0.3438758850097656,-0.11933065205812454,0.017547834664583206
1726225783973964000,6.261964111328125,-0.3283930718898773,-0.2360205203294754,-0.2629639804363251
1726225783983999000,6.2719990234375,-0.3270268440246582,-0.20542718470096588,0.22303681075572968
1726225783994035000,6.282034912109375,-0.31132298707962036,-0.0873226523399353,0.5059595704078674
1726225784004071000,6.29207080078125,-0.2710679769515991,-0.20269984006881714,-0.8398648500442505
1726225784014107000,6.30210693359375,-0.17459897696971893,-0.2536727488040924,-0.7368412613868713
1726225784024143000,6.31214306640625,-0.20243673026561737,-0.13441027700901031,0.36755645275115967
1726225784034178000,6.322177978515625,-0.18227019906044006,-0.2529909908771515,0.11585389822721481
1726225784044214000,6.332214111328125,-0.2577061057090759,-0.23183216154575348,0.042214833199977875
1726225784054250000,6.34225,-0.19889898598194122,-0.2131175994873047,-0.13099662959575653
1726225784064286000,6.352285888671875,-0.1505032181739807,-0.26448705792427063,-0.1957644373178482
1726225784074321200,6.362321044921875,-0.09663919359445572,-0.23623943328857422,0.0702267587184906
1726225784084357000,6.372357177734375,-0.08732212334871292,-0.1341215819120407,0.09315603971481323
1726225784094393000,6.38239306640625,-0.024037692695856094,-0.15557228028774261,0.18192532658576965
1726225784104429000,6.392428955078125,-0.08888859301805496,-0.10707025974988937,0.012300075963139534
1726225784114465000,6.402465087890625,-0.03337926045060158,-0.05690722540020943,0.42683520913124084
1726225784124500000,6.4125,0.04445135220885277,-0.0974770188331604,-0.10026188939809799
1726225784134536000,6.422535888671875,0.07126832008361816,-0.018614163622260094,-0.23950687050819397
1726225784144572000,6.432572021484375,0.19357745349407196,0.027845479547977448,0.18408435583114624
1726225784154608000,6.442608154296875,0.27108901739120483,0.12737366557121277,0.4884546399116516
1726225784164644000,6.45264404296875,0.3905453681945801,-0.07605642080307007,-0.21095484495162964
1726225784174679000,6.462678955078125,0.30816155672073364,0.014182131737470627,-0.14055924117565155
1726225784184715000,6.472715087890625,0.4258325397968292,-0.003692206460982561,-0.05077582970261574
1726225784194751000,6.4827509765625,0.2940063178539276,0.043784499168395996,0.17139892280101776
1726225784204787000,6.492786865234375,0.351177453994751,0.014813301153481007,-0.2780662477016449
1726225784214822100,6.502822265625,0.34899261593818665,-0.011110974475741386,-0.4793061316013336
1726225784224858000,6.512858154296875,0.3747323155403137,0.2001621276140213,0.38049861788749695
1726225784234894000,6.52289404296875,0.3323286771774292,0.2023179531097412,0.916713297367096
1726225784244930000,6.532929931640625,0.2981770932674408,0.12657232582569122,0.29401031136512756
1726225784254966000,6.542966064453125,0.3331928849220276,0.17626744508743286,-0.5240775942802429
1726225784265001000,6.5530009765625,0.3264164626598358,0.10792167484760284,-0.015732623636722565
1726225784275037000,6.563036865234375,0.3703860640525818,0.11382563412189484,0.4589441418647766
1726225784285073200,6.5730732421875,0.3357926607131958,0.07198604196310043,-0.7419753074645996
1726225784295109000,6.583109130859375,0.46393704414367676,0.14797614514827728,-0.9612876772880554
1726225784305145000,6.59314501953125,0.354349285364151,0.13333968818187714,0.7138097286224365
1726225784315180000,6.603179931640625,0.4221360683441162,0.22211642563343048,1.2567590475082397
1726225784325216000,6.613216064453125,0.27808329463005066,0.2694341242313385,0.7992417812347412
1726225784335252000,6.623251953125,0.3348277807235718,0.10357992351055145,-0.5007405877113342
1726225784345288000,6.633287841796875,0.17907467484474182,0.05944308638572693,-0.13279426097869873
1726225784355324000,6.643323974609375,0.23756036162376404,0.06935111433267593,0.5423541069030762
1726225784365359000,6.653359130859375,0.17925257980823517,0.03641073778271675,-0.4326174557209015
1726225784375395000,6.66339501953125,0.2740381956100464,0.033554498106241226,-1.061751127243042
1726225784385431000,6.67343115234375,0.17055203020572662,0.20521865785121918,0.09231288731098175
1726225784395467000,6.683467041015625,0.06264953315258026,-0.04538745433092117,0.8631440997123718
1726225784405502200,6.693502197265625,-0.07632699608802795,0.0859210342168808,0.15880748629570007
1726225784415538200,6.7035380859375,-0.034272484481334686,0.08069324493408203,-0.22668054699897766
1726225784425574100,6.71357421875,-0.17300879955291748,-0.09620962291955948,0.2980197072029114
1726225784435610000,6.723610107421875,-0.3575275242328644,0.11101999133825302,0.2817608416080475
1726225784445646000,6.73364599609375,-0.1927446871995926,0.017014136537909508,-0.8181720972061157
1726225784455681000,6.743680908203125,-0.19636231660842896,-0.12275281548500061,-0.7617905735969543
1726225784465717000,6.753717041015625,-0.20377975702285767,-0.026011627167463303,0.41790029406547546
1726225784475753000,6.7637529296875,-0.11301150918006897,-0.12013333290815353,1.1482501029968262
1726225784485789200,6.7737890625,-0.16613037884235382,-0.2296113520860672,0.16166506707668304
1726225784495825200,6.7838251953125,-0.28311559557914734,0.062369901686906815,-0.20509296655654907
1726225784505860000,6.793860107421875,-0.21740210056304932,0.11658946424722672,0.15127740800380707
1726225784515896000,6.80389599609375,-0.27566540241241455,0.1389821171760559,-0.10095963627099991
1726225784525932000,6.81393212890625,-0.14318566024303436,0.06806214153766632,-0.6811431050300598
1726225784535968000,6.823968017578125,0.08800868690013885,-0.02906680479645729,-0.3711636960506439
1726225784546004000,6.83400390625,0.20929570496082306,0.1935388445854187,0.25263679027557373
1726225784556039200,6.8440390625,0.24208825826644897,0.13394182920455933,0.1068795770406723
1726225784566075100,6.8540751953125,0.2738874852657318,0.16460439562797546,0.05844892933964729
1726225784576111000,6.864111083984375,0.17255845665931702,0.16413860023021698,0.3770785629749298
1726225784586147000,6.87414697265625,0.2821888029575348,0.3259120583534241,-0.1127995178103447
1726225784596182000,6.88418212890625,0.30183282494544983,0.3306916356086731,0.35192662477493286
1726225784606218000,6.894218017578125,0.20057997107505798,0.21493999660015106,-0.06875190138816833
1726225784616254200,6.904254150390625,0.30068767070770264,0.21057374775409698,-0.9733725786209106
1726225784626290200,6.914290283203125,0.457684725522995,0.39487701654434204,-0.924171507358551
1726225784636326100,6.924326171875,0.6781347990036011,0.28136563301086426,0.20594064891338348
1726225784646361000,6.934361083984375,0.6780331134796143,0.17030994594097137,1.1235698461532593
1726225784656397000,6.94439697265625,0.5619013905525208,0.11513377726078033,0.7315919399261475
1726225784666433000,6.95443310546875,0.3757624328136444,0.4497477114200592,0.2889401912689209
1726225784676469000,6.964468994140625,0.48509398102760315,0.24776612222194672,0.2612289488315582
1726225784686505000,6.9745048828125,0.19732345640659332,0.4932480454444885,-0.35670992732048035
1726225784696540200,6.9845400390625,0.40012824535369873,0.36198243498802185,-0.40534377098083496
1726225784706576100,6.994576171875,0.2728906571865082,0.4113990068435669,-0.04140869155526161
1726225784716612000,7.004612060546875,0.3293667137622833,0.20816944539546967,0.015453524887561798
1726225784726648000,7.01464794921875,0.18500927090644836,0.23654702305793762,-0.08431914448738098
1726225784736684000,7.02468408203125,0.22558438777923584,0.2101692110300064,0.3519844114780426
1726225784746719200,7.03471923828125,0.1577366292476654,0.27726277709007263,0.31453025341033936
1726225784756755200,7.044755126953125,0.06263595074415207,0.22244346141815186,-0.05112763121724129
1726225784766791200,7.054791259765625,0.044918205589056015,0.20670443773269653,0.027305124327540398
1726225784776827100,7.0648271484375,-0.056477390229701996,0.3406665027141571,0.14416463673114777
1726225784786863000,7.074863037109375,0.08174226433038712,0.2171240597963333,-0.1096641793847084
1726225784796898000,7.08489794921875,-0.15542234480381012,0.22994717955589294,-0.33345547318458557
1726225784806934000,7.09493408203125,-0.01858806610107422,0.09063003212213516,-0.08256758004426956
1726225784816970000,7.104969970703125,-0.14978709816932678,0.21495890617370605,0.5701348185539246
1726225784827006200,7.115006103515625,-0.1297966092824936,0.03157497197389603,0.2821858823299408
1726225784837042200,7.125042236328125,-0.2571795880794525,0.01757712848484516,-0.30817195773124695
1726225784847077000,7.1350771484375,-0.16120460629463196,0.07594190537929535,-0.07344279438257217
1726225784857113000,7.145113037109375,-0.0943206399679184,0.025440111756324768,0.23268118500709534
1726225784867149000,7.155149169921875,-0.2141447812318802,0.08560864627361298,-0.1788235455751419
1726225784877185000,7.16518505859375,-0.11223013699054718,0.019961191341280937,0.06992076337337494
1726225784887220200,7.17522021484375,-0.2367563545703888,0.04465162381529808,0.3093189597129822
1726225784897256200,7.185256103515625,-0.1648978739976883,-0.005231247283518314,-0.11789947003126144
1726225784907292200,7.195292236328125,-0.18071278929710388,0.009435845538973808,-0.10422813147306442
1726225784917328100,7.205328125,-0.17755401134490967,-0.020204603672027588,-0.7236527800559998
1726225784927364000,7.215364013671875,-0.1673799455165863,-0.11703740805387497,-0.8778734803199768
1726225784937399000,7.22539892578125,-0.156401589512825,-0.009528524242341518,0.23945626616477966
1726225784947435300,7.235435302734375,-0.32739758491516113,0.05956292897462845,0.5062024593353271
1726225784957471200,7.24547119140625,-0.18233253061771393,-0.10377859324216843,-0.3498208522796631
1726225784967507200,7.255507080078125,-0.23929381370544434,-0.003070358419790864,-0.24131062626838684
1726225784977543200,7.265543212890625,-0.20620191097259521,-0.07154209166765213,0.15169018507003784
1726225784987578000,7.275578125,-0.27290451526641846,0.09885334223508835,-0.32998883724212646
1726225784997614000,7.285614013671875,-0.1176145151257515,-0.113524429500103,-0.5407223701477051
1726225785007650000,7.295650146484375,-0.2362349033355713,-0.08511809259653091,-0.01667032390832901
1726225785017686000,7.30568603515625,-0.22254545986652374,-0.12239115685224533,-0.3980773389339447
1726225785027722200,7.31572216796875,-0.24350906908512115,-0.02274818904697895,0.23863254487514496
1726225785037757200,7.325757080078125,-0.1309891790151596,-0.004769987892359495,0.16023734211921692
1726225785047793200,7.335793212890625,-0.039628103375434875,-0.00634924229234457,0.17121808230876923
1726225785057829000,7.3458291015625,-0.03542723134160042,0.05428720638155937,0.15460102260112762
1726225785067865000,7.355864990234375,-0.04344041645526886,-0.09135068207979202,-0.07268565148115158
1726225785077901000,7.365901123046875,-0.06424849480390549,0.0057103498838841915,0.19680334627628326
1726225785087936300,7.375936279296875,0.09977399557828903,0.05102243646979332,-0.3976461589336395
1726225785097972200,7.38597216796875,0.07978644222021103,0.07934515923261642,-0.5125541090965271
1726225785108008200,7.39600830078125,0.18670916557312012,0.010427074506878853,0.008723716251552105
1726225785118044200,7.406044189453125,0.07024060934782028,-0.0186461228877306,0.06797558814287186
1726225785128080100,7.416080078125,0.0945049300789833,0.05854480341076851,0.1454962193965912
1726225785138115000,7.426114990234375,0.1558694839477539,0.08471621572971344,0.5466074347496033
1726225785148151000,7.436151123046875,0.04888258874416351,-0.08521716296672821,0.49501025676727295
1726225785158187300,7.446187255859375,0.03086124360561371,0.07777389138936996,0.2210434377193451
1726225785168223200,7.45622314453125,0.045038849115371704,0.047271374613046646,-0.8167065382003784
1726225785178259200,7.46625927734375,0.09607726335525513,-0.019567308947443962,-1.026632308959961
1726225785188294100,7.476294189453125,0.07873955368995667,0.044795434921979904,-0.680820107460022
1726225785198330000,7.486330078125,0.11667415499687195,-0.10053806006908417,0.11281709372997284
1726225785208366000,7.496365966796875,0.08843931555747986,0.01672172173857689,0.212646484375
1726225785218402000,7.506402099609375,0.18556293845176697,0.004181429278105497,0.3798389434814453
1726225785228438000,7.51643798828125,0.049248773604631424,-0.13674399256706238,0.8359888792037964
1726225785238473200,7.52647314453125,0.01306147314608097,-0.1680353432893753,0.8138436675071716
1726225785248509200,7.53650927734375,-0.11757456511259079,-0.11434788256883621,0.290131151676178
1726225785258545200,7.546545166015625,-0.0881839245557785,0.005543103441596031,-0.14138269424438477
1726225785268581000,7.5565810546875,-0.027895014733076096,-0.023130087181925774,0.1434226781129837
1726225785278617000,7.5666171875,-0.11167513579130173,-0.06341465562582016,-0.10156763345003128
1726225785288652300,7.57665234375,0.0032117723021656275,-0.10465530306100845,-0.3101954162120819
1726225785298688300,7.586688232421875,-0.14431244134902954,-0.044790640473365784,-0.15053437650203705
1726225785308724200,7.59672412109375,-0.0318886898458004,-0.14156724512577057,0.5421852469444275
1726225785318760200,7.60676025390625,-0.10826069116592407,-0.09738753736019135,0.48062440752983093
1726225785328796200,7.616796142578125,-0.10137216001749039,-0.13084456324577332,0.3058677911758423
1726225785338831000,7.6268310546875,-0.10588089376688004,-0.04252961650490761,0.07603590935468674
1726225785348867000,7.6368671875,-0.10044138878583908,-0.09181753545999527,-0.28386715054512024
1726225785358903300,7.6469033203125,-0.06970318406820297,-0.07853581756353378,-0.2385803461074829
1726225785368939300,7.656939208984375,-0.014138721860945225,-0.13404569029808044,0.35383743047714233
1726225785378975200,7.666975341796875,-0.16301128268241882,-0.01506763231009245,0.04508545249700546
1726225785389010200,7.67701025390625,-0.0876515582203865,-0.01882748305797577,-0.08249247819185257
1726225785399046100,7.687046142578125,-0.07271388173103333,0.06436008214950562,0.4118293523788452
1726225785409082000,7.69708203125,-0.025007881224155426,-0.027937358245253563,0.4776480495929718
1726225785419118300,7.707118408203125,0.04332510381937027,-0.008235558867454529,-0.048046354204416275
1726225785429154300,7.717154296875,0.053468018770217896,-0.09336084127426147,-0.36119547486305237
1726225785439189500,7.727189453125,0.0100185452029109,-0.09057970345020294,0.024654746055603027
1726225785449225500,7.7372255859375,0.03724484145641327,0.07871824502944946,-0.04137992858886719
1726225785459261400,7.747261474609375,0.08685021102428436,0.033671941608190536,-0.3879554569721222
1726225785469297400,7.75729736328125,0.01321007777005434,0.16002695262432098,0.007715444080531597
1726225785479333400,7.76733349609375,0.14604322612285614,0.09730444848537445,0.40581008791923523
1726225785489368300,7.777368408203125,0.09646075963973999,0.046961382031440735,0.6117931008338928
1726225785499404500,7.787404541015625,0.10664548724889755,0.09820885956287384,0.42713242769241333
1726225785509440500,7.7974404296875,0.2367507517337799,-0.002996056107804179,-0.09870047867298126
1726225785519476500,7.8074765625,0.057556502521038055,0.07840745896100998,0.07284118235111237
1726225785529512400,7.817512451171875,0.07167898118495941,0.017354754731059074,0.07522924244403839
1726225785539547400,7.82754736328125,-0.026153307408094406,0.06999079883098602,-0.5541931390762329
1726225785549583400,7.837583251953125,0.0013912353897467256,-0.012971458956599236,-0.5882883071899414
1726225785559619300,7.847619384765625,0.02076360210776329,0.13857519626617432,-0.10835949331521988
1726225785569655300,7.8576552734375,0.08299209177494049,0.12347400188446045,0.6273496747016907
1726225785579691500,7.86769140625,0.05765211209654808,0.06135949864983559,0.3505830466747284
1726225785589726500,7.8777265625,-0.03142530098557472,0.14835724234580994,0.20895960927009583
1726225785599762400,7.887762451171875,0.1139148473739624,0.17623521387577057,0.010754110291600227
1726225785609798400,7.89779833984375,0.060152020305395126,0.056776195764541626,0.1271667331457138
1726225785619834400,7.90783447265625,0.03430577740073204,0.05010977387428284,-0.4067706763744354
1726225785629870300,7.917870361328125,0.10155272483825684,0.12093387544155121,-0.6045636534690857
1726225785639905500,7.927905517578125,0.01786847971379757,0.06911515444517136,-0.21334023773670197
1726225785649941500,7.93794140625,0.061778679490089417,0.15764981508255005,0.30962255597114563
1726225785659977500,7.9479775390625,0.10298443585634232,0.1643947958946228,-0.20152460038661957
1726225785670013400,7.958013427734375,0.02407870441675186,0.2238168567419052,0.23423780500888824
1726225785680049400,7.96804931640625,0.09236481785774231,0.18074661493301392,0.3640141785144806
1726225785690084400,7.97808447265625,0.12085691094398499,0.04216236621141434,-0.11597134172916412
1726225785700120600,7.98812060546875,0.10355275869369507,0.011477957479655743,-0.6294554471969604
1726225785710156500,7.998156494140625,0.12065957486629486,0.11519023776054382,-0.4715787172317505
1726225785720192500,8.008192626953125,0.06917960196733475,0.13113512098789215,0.041911229491233826
1726225785730228500,8.018228515625,0.12983442842960358,0.24011166393756866,0.06982754915952682
1726225785740263400,8.028263427734375,0.21664921939373016,0.024625718593597412,-0.552310585975647
1726225785750299400,8.03829931640625,0.0750121921300888,0.11576174944639206,-0.5107524991035461
1726225785760335400,8.04833544921875,0.13545796275138855,0.20628179609775543,0.28492122888565063
1726225785770371300,8.058371337890625,0.055264852941036224,0.14314943552017212,0.4005069434642792
1726225785780407600,8.068407470703125,0.07549422234296799,0.11318035423755646,0.515180230140686
1726225785790443500,8.078443603515625,-0.04494244232773781,0.18008002638816833,-0.05078594759106636
1726225785800478500,8.088478515625,-0.013651097193360329,0.128402978181839,0.02949690632522106
1726225785810514400,8.098514404296875,-0.1312006264925003,0.06371346861124039,0.15648388862609863
1726225785820550400,8.10855029296875,-0.1686611920595169,0.07159349322319031,-0.7590126395225525
1726225785830586400,8.11858642578125,-0.14641952514648438,0.021215805783867836,-1.2305489778518677
1726225785840622300,8.128622314453125,-0.14704430103302002,0.23745062947273254,-0.10559166967868805
1726225785850657500,8.138657470703125,0.07212559133768082,-0.060444168746471405,0.8141725659370422
1726225785860693500,8.148693603515625,-0.23352406919002533,0.07175754010677338,0.6642235517501831
1726225785870729500,8.1587294921875,-0.0968082994222641,0.00697801448404789,-0.030317159369587898
1726225785880765400,8.168765380859375,-0.19055023789405823,0.029520874843001366,0.16944202780723572
1726225785890801400,8.178801513671875,-0.22175875306129456,0.10194980353116989,-0.10131143778562546
1726225785900836400,8.18883642578125,-0.2573060989379883,0.09997773170471191,-0.3374880254268646
1726225785910872600,8.19887255859375,-0.19499905407428741,0.04721837863326073,-0.2280033379793167
1726225785920908500,8.208908447265625,-0.07453255355358124,-0.016813600435853004,0.07415172457695007
1726225785930944500,8.218944580078125,-0.10980638861656189,-0.09769992530345917,0.19680148363113403
1726225785940980500,8.22898046875,-0.12244202941656113,-0.11394494771957397,0.19511063396930695
1726225785951015400,8.239015380859374,-0.09047290682792664,0.0594465471804142,0.27886146306991577
1726225785961051400,8.249051513671875,-0.03669755905866623,0.006470682565122843,-0.36533695459365845
1726225785971087400,8.25908740234375,-0.0929107666015625,-0.013605823740363121,0.16731442511081696
1726225785981123300,8.269123291015624,0.07376077026128769,0.04000706970691681,0.16088369488716125
1726225785991159600,8.27915966796875,0.05579641833901405,0.04903465509414673,-0.6167691946029663
1726225786001194500,8.289194580078124,0.11810346692800522,-0.07808414846658707,-0.4306216835975647
1726225786011230500,8.29923046875,0.034625086933374405,0.15274187922477722,0.3921571373939514
1726225786021266400,8.309266357421874,0.03983822464942932,0.25544747710227966,0.3432074189186096
1726225786031302400,8.319302490234374,0.23363593220710754,0.008101602084934711,0.053463492542505264
1726225786041338400,8.32933837890625,0.11047564446926117,0.11639372259378433,-0.008924252353608608
1726225786051373600,8.33937353515625,0.25837987661361694,0.11076460033655167,0.2729455232620239
1726225786061409500,8.349409423828124,0.18908630311489105,0.043058786541223526,0.4336044192314148
1726225786071445500,8.359445556640624,0.11128418147563934,0.09208039194345474,0.12220260500907898
1726225786081481500,8.3694814453125,0.18884395062923431,0.00618306128308177,-0.09016931056976318
1726225786091517400,8.379517333984374,0.004299141000956297,0.1405259519815445,0.11252441257238388
1726225786101552400,8.389552490234376,0.20621629059314728,0.156923308968544,-0.08528560400009155
1726225786111588400,8.39958837890625,0.12385403364896774,0.06445382535457611,0.29836803674697876
1726225786121624600,8.40962451171875,0.09286629408597946,-0.02207467518746853,0.11839934438467026
1726225786131660500,8.41966064453125,0.2568935751914978,-0.024512799456715584,-0.4625990688800812
1726225786141696500,8.429696533203124,0.07912464439868927,0.007111971732228994,0.1949998438358307
1726225786151731500,8.4397314453125,0.09974496811628342,-0.022400647401809692,0.5985974073410034
1726225786161767400,8.449767333984376,-0.0532698780298233,0.18639357388019562,-0.35901355743408203
1726225786171803400,8.459803466796876,0.07033222168684006,-0.00800040178000927,-0.6514188051223755
1726225786181839400,8.46983935546875,-0.06689754128456116,0.025229189544916153,0.2600206732749939
1726225786191875600,8.47987548828125,-0.16021443903446198,-0.014121944084763527,0.4586578607559204
1726225786201911600,8.48991162109375,-0.10674535483121872,-0.018670624122023582,0.37987542152404785
1726225786211946500,8.499946533203126,-0.21815364062786102,-0.019451195374131203,-0.2881409823894501
1726225786221982500,8.509982421875,-0.2070772796869278,-0.06712017953395844,-0.22333908081054688
1726225786232018400,8.520018310546876,-0.22223679721355438,-0.11744619905948639,0.06211450323462486
1726225786242054400,8.530054443359376,-0.2449578195810318,-0.17603442072868347,-0.04728575795888901
1726225786252090400,8.54009033203125,-0.21162596344947815,-0.16206799447536469,0.025550100952386856
1726225786262125600,8.55012548828125,-0.2339637577533722,-0.20148970186710358,0.038655783981084824
1726225786272161500,8.56016162109375,-0.4135715961456299,-0.18402336537837982,0.12273204326629639
1726225786282197500,8.570197509765626,-0.34054693579673767,-0.2635384202003479,0.06596703082323074
1726225786292233500,8.5802333984375,-0.40225502848625183,-0.18709266185760498,0.0010665960144251585
1726225786302269400,8.59026953125,-0.3338567912578583,-0.1717267483472824,-0.7939453125
1726225786312304400,8.600304443359375,-0.3020133972167969,-0.3815513551235199,-0.2060365229845047
1726225786322340600,8.610340576171875,-0.4266868829727173,-0.2526623606681824,0.35930144786834717
1726225786332376600,8.62037646484375,-0.20473290979862213,-0.26452192664146423,-0.12463434040546417
1726225786342412500,8.63041259765625,-0.2950423061847687,-0.22822891175746918,0.05528722330927849
1726225786352448500,8.640448486328125,-0.2969911992549896,-0.298947274684906,0.35038304328918457
1726225786362483500,8.6504833984375,-0.21753472089767456,-0.29340818524360657,0.3373306393623352
1726225786372519400,8.66051953125,-0.24330532550811768,-0.21675148606300354,-0.19591198861598969
1726225786382555400,8.670555419921875,-0.10064484924077988,-0.27123576402664185,-0.5199971199035645
1726225786392591400,8.68059130859375,-0.22109189629554749,-0.13348162174224854,0.049790725111961365
1726225786402627600,8.690627685546875,-0.001888980157673359,-0.12719124555587769,-0.042578618973493576
1726225786412664000,8.7006640625,-0.08434443920850754,-0.08941696584224701,-0.4324936270713806
1726225786422698800,8.71069873046875,0.03852182626724243,-0.040772464126348495,0.26459118723869324
1726225786432734700,8.720734619140625,0.07176073640584946,-0.07377941161394119,0.48056820034980774
1726225786442770700,8.730770751953125,0.054427023977041245,-0.11203891783952713,0.13154897093772888
1726225786452806700,8.740806640625,0.18016284704208374,-0.04149817302823067,0.31071367859840393
1726225786462843000,8.7508427734375,0.07478715479373932,0.03111397661268711,0.40578824281692505
1726225786472877800,8.7608779296875,0.18004193902015686,0.07566040754318237,-0.41425150632858276
1726225786482913800,8.770913818359375,0.19538547098636627,-0.038244325667619705,-0.3833300769329071
1726225786492949800,8.78094970703125,0.15481780469417572,0.07994862645864487,-0.03149028122425079
1726225786502985700,8.79098583984375,0.2841838002204895,-0.015927035361528397,0.2301596999168396
1726225786513022000,8.80102197265625,0.17425435781478882,0.04273414611816406,-0.009737049229443073
1726225786523056600,8.811056640625,0.20273979008197784,-0.027112044394016266,0.049307893961668015
1726225786533092900,8.8210927734375,0.15638934075832367,0.155412495136261,0.4438791871070862
1726225786543128800,8.83112890625,0.14534920454025269,0.11265118420124054,0.2955666780471802
1726225786553164800,8.841164794921875,0.12345881760120392,0.17402265965938568,-0.35723215341567993
1726225786563200800,8.85120068359375,0.2522689998149872,0.12082495540380478,-0.9800336956977844
1726225786573235700,8.861235595703125,0.1512073576450348,-0.030535005033016205,-0.5124651789665222
1726225786583271700,8.871271728515625,0.08913999795913696,0.0955938994884491,0.4358185827732086
1726225786593307600,8.8813076171875,0.23859846591949463,0.1449044644832611,0.5279881954193115
1726225786603343600,8.891343505859375,0.16629762947559357,0.01498214527964592,0.11891573667526245
1726225786613379800,8.9013798828125,0.1286357343196869,-0.008126902393996716,0.002507898723706603
1726225786623416000,8.911416015625,0.031984031200408936,0.1990417242050171,0.4954369068145752
1726225786633450800,8.92145068359375,0.046605851501226425,-0.08516363054513931,-0.5737282633781433
1726225786643486700,8.93148681640625,0.004005660768598318,-0.043470777571201324,-0.9801375269889832
1726225786653522700,8.941522705078125,0.08722464740276337,0.1221243143081665,-0.382925808429718
1726225786663558700,8.95155859375,0.059354670345783234,0.07559968531131744,0.4246133267879486
1726225786673594600,8.9615947265625,0.03811143338680267,0.07518396526575089,0.10767532885074615
1726225786683629800,8.9716298828125,0.05060165748000145,0.07730277627706528,0.1818491667509079
1726225786693665800,8.981665771484375,-0.09728207439184189,0.18432776629924774,0.7512087821960449
1726225786703701800,8.99170166015625,0.03309217467904091,0.0260465145111084,0.1554814726114273
1726225786713737700,9.00173779296875,-0.1505439728498459,0.10107335448265076,-0.5082134008407593
1726225786723773700,9.011773681640625,0.022590264678001404,-0.03357500582933426,-0.25127485394477844
1726225786733808600,9.02180859375,-0.10936164110898972,0.051715925335884094,0.2843520939350128
1726225786743844900,9.031844970703125,-0.08987849205732346,0.03770982846617699,-0.46560364961624146
1726225786753880800,9.041880859375,-0.02111700363457203,-0.07198284566402435,-0.3992858827114105
1726225786763916800,9.051916748046875,-0.1414806991815567,0.0647084191441536,0.16026237607002258
1726225786773952800,9.061952880859375,-0.042447060346603394,0.17686451971530914,0.6034080982208252
1726225786783988700,9.07198876953125,-0.016234364360570908,0.03410151228308678,0.004679706413298845
1726225786794023700,9.082023681640624,-0.012197543866932392,0.027339212596416473,-0.8838664293289185
1726225786804059600,9.0920595703125,0.03560939431190491,-0.05885586142539978,-0.5045097470283508
1726225786814095600,9.102095703125,0.020501546561717987,0.01619228534400463,0.6996933817863464
1726225786824131800,9.1121318359375,-0.03195340558886528,-0.10332212597131729,0.1796131730079651
1726225786834167800,9.122167724609374,-0.1373288333415985,0.0736188292503357,-0.3730041980743408
1726225786844202800,9.13220263671875,-0.006377205718308687,-0.020487964153289795,-0.3087165653705597
1726225786854238700,9.14223876953125,-0.06444956362247467,0.17869651317596436,0.7222751379013062
1726225786864274700,9.152274658203124,-0.0462615042924881,0.07644523680210114,0.9484863877296448
1726225786874310700,9.162310546875,-0.12313497811555862,0.07168164104223251,0.041970085352659225
1726225786884346600,9.1723466796875,-0.05125759541988373,-0.002086054068058729,-0.5247727036476135
1726225786894381800,9.1823818359375,-0.08499718457460403,-0.053462959825992584,0.35550084710121155
1726225786904417800,9.192417724609374,-0.01666233316063881,-0.15243826806545258,-0.11067884415388107
1726225786914453800,9.202453857421874,-0.05770217999815941,-0.17441974580287933,-0.914989709854126
1726225786924489700,9.21248974609375,-0.042277682572603226,-0.0440867654979229,-0.5788511037826538
1726225786934525700,9.222525634765624,0.007198524195700884,0.023241406306624413,0.5092467069625854
1726225786944561700,9.232561767578124,0.010836401954293251,0.001478320686146617,1.1932053565979004
1726225786954596900,9.242596923828126,0.07780371606349945,0.13153912127017975,0.9297471046447754
1726225786964632800,9.2526328125,0.01155492290854454,0.003257578704506159,0.31245163083076477
1726225786974668800,9.262668701171876,0.054782021790742874,0.07774592936038971,0.14432522654533386
1726225786984704800,9.272704833984376,0.02130688726902008,0.0394187793135643,-0.39965471625328064
1726225786994740700,9.28274072265625,0.08280034363269806,0.06397871673107147,-0.9992393255233765
1726225787004775700,9.292775634765626,0.019090337678790092,0.01829138956964016,-0.3180709183216095
1726225787014811600,9.302811767578126,0.179936483502388,-0.06183886528015137,0.42899289727211
1726225787024848000,9.312847900390626,-0.11132412403821945,-0.03322106972336769,0.011472897604107857
1726225787034883800,9.3228837890625,0.24363157153129578,-0.1220068633556366,-0.28223487734794617
1726225787044919800,9.332919921875,0.014644988812506199,0.1186550110578537,0.40968525409698486
1726225787054955800,9.342955810546876,0.06614705920219421,0.08335054665803909,0.9027889370918274
1726225787064990700,9.35299072265625,0.09492038935422897,0.1995037943124771,0.17008037865161896
1726225787075026700,9.363026611328126,0.12374857068061829,0.2978157103061676,-0.5059584975242615
1726225787085062700,9.373062744140626,0.15688389539718628,0.12094852328300476,0.09496086835861206
1726225787095098600,9.3830986328125,0.05403207615017891,0.17664960026741028,0.5167656540870667
1726225787105134800,9.393134765625,0.2556653320789337,-0.18098948895931244,-0.6040946841239929
1726225787115169800,9.403169677734375,0.1519802063703537,0.021738318726420403,-0.500307023525238
1726225787125205800,9.413205810546875,0.2387388050556183,-0.050519634038209915,0.17086495459079742
1726225787135241700,9.42324169921875,-0.04219858720898628,0.03887469321489334,0.3850899040699005
1726225787145277700,9.433277587890625,0.045106224715709686,0.07876565307378769,-0.4160560667514801
1726225787155313700,9.443313720703125,-0.0323835052549839,0.06748689711093903,-1.2475391626358032
1726225787165348900,9.453348876953125,-0.07654031366109848,0.10166137665510178,-0.2148451954126358
1726225787175384800,9.463384765625,-0.11748295277357101,0.1639721542596817,0.8233671188354492
1726225787185420800,9.4734208984375,-0.0008676578872837126,-0.07610222697257996,0.07849960029125214
1726225787195456800,9.483456787109375,0.013682256452739239,-0.16289038956165314,-0.44767019152641296
1726225787205492700,9.49349267578125,0.0033161682076752186,-0.2479373663663864,-0.05750830098986626
1726225787215528700,9.50352880859375,-0.013459349982440472,-0.09452064335346222,0.4329197406768799
1726225787225563600,9.513563720703125,-0.004825381562113762,-0.19029803574085236,-0.1308954358100891
1726225787235600000,9.523599853515625,-0.02708035334944725,-0.17969679832458496,-0.13209491968154907
1726225787245635800,9.5336357421875,-0.08858765661716461,-0.19949500262737274,-0.08249354362487793
1726225787255671800,9.543671875,-0.2166747897863388,-0.0999433770775795,-0.009950635023415089
1726225787265707800,9.553707763671875,-0.0954120084643364,-0.11078856885433197,-0.20943258702754974
1726225787275742700,9.56374267578125,-0.20908157527446747,-0.21615174412727356,-0.577873706817627
1726225787285778700,9.57377880859375,-0.11390259861946106,-0.14022529125213623,-0.09833908826112747
1726225787295814700,9.583814697265625,-0.21138228476047516,-0.10686147212982178,0.5541825294494629
1726225787305850600,9.5938505859375,-0.21972490847110748,-0.2684879004955292,0.6291872262954712
1726225787315886800,9.603886962890625,-0.19512341916561127,-0.11266529560089111,0.8560555577278137
1726225787325922800,9.6139228515625,-0.15586256980895996,-0.29699811339378357,-0.05016409978270531
1726225787335957800,9.623957763671875,-0.12001508474349976,-0.11812237650156021,-0.6086319088935852
1726225787345993700,9.63399365234375,-0.027783693745732307,-0.23589801788330078,0.04427611827850342
1726225787356029700,9.64402978515625,-0.16667446494102478,-0.10708250850439072,0.06498352438211441
1726225787366065700,9.654065673828125,-0.019592875614762306,-0.19684302806854248,0.05362168326973915
1726225787376101600,9.6641015625,-0.1193479672074318,-0.20149263739585876,0.036849360913038254
1726225787386136800,9.67413671875,-0.09191127866506577,-0.17410388588905334,0.6023633480072021
1726225787396172800,9.6841728515625,-0.134937584400177,0.05973843112587929,0.8516589403152466
1726225787406208800,9.694208740234375,0.0029284118209034204,-0.11167992651462555,-0.45248785614967346
1726225787416243700,9.70424365234375,-0.002573678968474269,0.011750132776796818,-0.4684644043445587
1726225787426279700,9.71427978515625,0.019394736737012863,-0.18988151848316193,0.22848457098007202
1726225787436315000,9.72431494140625,-0.09415632486343384,-0.01690228469669819,0.7136549949645996
1726225787446350800,9.734350830078125,0.03549274802207947,-0.0325760543346405,-0.5335435271263123
1726225787456386800,9.74438671875,0.1387632042169571,-0.1881003975868225,-1.2456762790679932
1726225787466422800,9.7544228515625,0.12623436748981476,0.09869036078453064,-0.2948436141014099
1726225787476458800,9.764458740234375,0.1679767519235611,-0.017909225076436996,1.1439638137817383
1726225787486494700,9.77449462890625,0.22883930802345276,-0.09441518783569336,0.449911504983902
1726225787496530000,9.784530029296874,0.23502768576145172,0.04489929601550102,-0.29781463742256165
1726225787506566000,9.79456591796875,0.27892616391181946,-0.10584760457277298,-0.07231520861387253
1726225787516601900,9.804601806640624,0.09091579169034958,-0.042026810348033905,0.9499229192733765
1726225787526637800,9.814637939453124,0.06837373226881027,0.13331277668476105,0.5121985673904419
1726225787536673800,9.824673828125,0.22948378324508667,0.03425411134958267,-1.0713989734649658
1726225787546708700,9.834708740234374,0.13648779690265656,-0.10023073107004166,-1.272146463394165
1726225787556744700,9.84474462890625,0.13317403197288513,0.17029637098312378,0.5379028916358948
1726225787566781000,9.854781005859374,0.09323114156723022,-0.017642643302679062,0.8696648478507996
1726225787576817000,9.86481689453125,0.30958235263824463,-0.10326460003852844,-0.2738214135169983
1726225787586852900,9.874852783203124,0.233717679977417,-0.06575664132833481,-0.4383810758590698
1726225787596888800,9.884888916015624,0.16751602292060852,-0.06811913102865219,0.7388391494750977
1726225787606923800,9.894923828125,0.08460862934589386,0.1380297690629959,0.902664840221405
1726225787616959700,9.904959716796874,0.12199515104293823,0.12306281179189682,-0.6275126338005066
1726225787626995700,9.91499560546875,0.12568522989749908,0.09016211330890656,-1.3015272617340088
1726225787637031700,9.92503173828125,-0.0062123560346663,0.1301361620426178,-0.5500386357307434
1726225787647068000,9.93506787109375,0.0361659936606884,-0.02840101532638073,-0.22611302137374878
1726225787657102800,9.945102783203126,0.08911655843257904,0.034035731106996536,-0.05739431828260422
1726225787667138800,9.955138916015626,0.22594179213047028,0.1034049540758133,0.7273803949356079
1726225787677174800,9.9651748046875,0.09314299374818802,0.10666785389184952,0.7565798163414001
1726225787687210800,9.975210693359376,-0.12624262273311615,0.09392835944890976,-0.3482796847820282
1726225787697246700,9.985246826171876,-0.08807100355625153,0.26743435859680176,-0.31385165452957153
1726225787707282700,9.99528271484375,0.011907259002327919,0.14045165479183197,0.075025774538517
1726225787717318000,10.00531787109375,0.053222473710775375,0.002266616327688098,-0.3219096064567566
1726225787727353900,10.015353759765626,0.13307149708271027,-0.06625492125749588,-0.300289511680603
1726225787737389800,10.025389892578126,0.011364241130650043,0.012592490762472153,0.15803810954093933
1726225787747425800,10.03542578125,0.015030348673462868,0.06870342791080475,0.2030617743730545
1726225787757461800,10.045461669921876,-0.06010914221405983,0.13566435873508453,0.48259276151657104
1726225787767496700,10.05549658203125,-0.06732870638370514,0.03801902011036873,0.043709930032491684
1726225787777533000,10.065532958984376,-0.12009578198194504,0.02803216688334942,-0.45206040143966675
1726225787787569000,10.07556884765625,-0.056590307503938675,-0.1050955280661583,-0.39189693331718445
1726225787797604900,10.08560498046875,-0.006381999235600233,-0.00902571901679039,-0.19700627028942108
1726225787807640800,10.095640869140626,0.034201111644506454,-0.15349102020263672,-0.18391843140125275
1726225787817676800,10.1056767578125,-0.048769138753414154,-0.03701154887676239,-0.14667625725269318
1726225787827711700,10.115711669921875,0.13744494318962097,-0.005652825813740492,0.3087506592273712
1726225787837747700,10.125747802734375,0.0025001754984259605,-0.019353725016117096,0.7606696486473083
1726225787847783700,10.13578369140625,0.048939578235149384,0.02930968627333641,0.23050111532211304
1726225787857820000,10.14581982421875,-0.04802105575799942,0.05492290481925011,-0.8844712376594543
1726225787867856000,10.15585595703125,0.026917634531855583,-0.1211613118648529,-0.9455404281616211
1726225787877891800,10.165891845703126,0.05787395313382149,0.1923270970582962,0.16836345195770264
1726225787887926800,10.1759267578125,0.044671330600976944,-0.05540253967046738,0.9699733257293701
1726225787897962800,10.185962646484375,0.03852741792798042,-0.043239083141088486,-0.17772231996059418
1726225787907998700,10.195998779296875,0.05789392441511154,0.08925051987171173,-0.6951516270637512
1726225787918034700,10.20603466796875,0.12101803719997406,0.15175357460975647,0.20920301973819733
1726225787928070700,10.216070556640625,-0.004102866165339947,0.11326956748962402,0.834139347076416
1726225787938105900,10.22610595703125,0.06839583814144135,0.022719694301486015,0.27575886249542236
1726225787948141800,10.236141845703125,-0.0016266588354483247,0.01721493899822235,-0.05910459905862808
1726225787958177800,10.246177734375,-0.0453919842839241,0.07065978646278381,0.2341323345899582
1726225787968213800,10.2562138671875,-0.05025598034262657,0.043837495148181915,-0.43702179193496704
1726225787978249700,10.266249755859375,-0.039867788553237915,-0.17938201129436493,-1.0311753749847412
1726225787988285700,10.27628564453125,0.037518613040447235,0.11391378194093704,-0.35656824707984924
1726225787998321000,10.28632080078125,0.16018061339855194,0.09983871132135391,0.6593555212020874
1726225788008356900,10.29635693359375,0.031003190204501152,0.04081027954816818,0.9144293665885925
1726225788018392800,10.306392822265625,0.09767889231443405,-0.015991216525435448,0.08783877640962601
1726225788028428800,10.3164287109375,0.14834712445735931,0.07869640737771988,-0.27718767523765564
1726225788038464800,10.32646484375,0.0017116136150434613,0.13489842414855957,0.29359567165374756
1726225788048500700,10.336500732421875,0.14597611129283905,0.1101004034280777,-0.36091211438179016
1726225788058536000,10.346535888671875,0.07173144817352295,-0.10377459973096848,-0.6276807188987732
1726225788068572000,10.356572021484375,0.12441622465848923,0.07967458665370941,-0.02136307954788208
1726225788078608000,10.36660791015625,0.20845280587673187,0.10431868582963943,0.17793378233909607
1726225788088643800,10.376643798828125,0.16636687517166138,0.02983912266790867,0.4642358422279358
1726225788098679800,10.3866796875,0.25563496351242065,-0.002025333931669593,0.2821190357208252
1726225788108714800,10.39671484375,0.15682663023471832,0.15230245888233185,-0.19382593035697937
1726225788118750700,10.406750732421875,0.2383100390434265,0.11956874281167984,0.2546330988407135
1726225788128786700,10.41678662109375,0.1658124029636383,0.05393194034695625,0.3656435012817383
1726225788138823000,10.426822998046875,0.15020520985126495,0.023133547976613045,-0.7565340399742126
1726225788148859000,10.43685888671875,0.2720389664173126,0.13007384538650513,-0.9865421652793884
1726225788158894800,10.446894775390625,0.18703539669513702,0.03918894752860069,0.07010798156261444
1726225788168929800,10.4569296875,0.1718633770942688,0.006904511246830225,0.7004004716873169
1726225788178965800,10.4669658203125,0.15355467796325684,0.00683154072612524,0.16067622601985931
1726225788189001700,10.477001708984375,0.21122968196868896,0.0354384183883667,-0.29675257205963135
1726225788199037700,10.48703759765625,0.28003111481666565,0.03933781757950783,-0.25367140769958496
1726225788209073700,10.49707373046875,0.30000242590904236,0.0695098340511322,0.49076011776924133
1726225788219108900,10.50710888671875,0.10408592224121094,0.05158063769340515,0.49288055300712585
1726225788229144800,10.517144775390625,0.04805833846330643,0.029640182852745056,-0.25660887360572815
1726225788239180800,10.527180908203125,0.04568253457546234,0.13239851593971252,-0.050936684012413025
1726225788249216800,10.537216796875,0.14153368771076202,0.05927717313170433,0.44896021485328674
1726225788259252700,10.547252685546875,-0.026394056156277657,0.0017936390358954668,0.057742390781641006
1726225788269288700,10.557288818359375,0.11009933799505234,-0.02930036373436451,-0.3946695625782013
1726225788279324000,10.567323974609375,0.1374899446964264,0.0856533870100975,0.15066488087177277
1726225788289360000,10.57735986328125,0.08562595397233963,-0.20545968413352966,0.9156456589698792
1726225788299395800,10.587395751953125,0.11463230848312378,-0.13390161097049713,0.1650451421737671
1726225788309431800,10.597431884765625,-0.02491973154246807,0.040384441614151,-0.41977623105049133
1726225788319467800,10.6074677734375,0.08123680204153061,0.012458001263439655,-0.36719104647636414
1726225788329503700,10.617503662109375,0.03226472809910774,0.0006016080733388662,0.3792825937271118
1726225788339538700,10.62753857421875,-0.08371034264564514,-0.00663340138271451,0.08457134664058685
1726225788349575000,10.637574951171874,0.09078449755907059,-0.02135668694972992,-0.32030317187309265
1726225788359611000,10.64761083984375,0.03725895658135414,-0.0341971181333065,0.21938374638557434
1726225788369646800,10.657646728515624,-0.03267592191696167,-0.19754555821418762,0.7057216763496399
1726225788379682800,10.667682861328124,0.025949841365218163,0.10854458808898926,0.028080370277166367
1726225788389717800,10.6777177734375,0.06787758320569992,0.18395759165287018,-0.08207249641418457
1726225788399753700,10.687753662109374,0.15186649560928345,0.023380422964692116,-0.11490421742200851
1726225788409789700,10.697789794921874,0.09632254391908646,-0.021098360419273376,-0.059422314167022705
1726225788419826000,10.707825927734374,0.19583767652511597,0.011798868887126446,-0.4713342487812042
1726225788429862000,10.71786181640625,0.23004038631916046,0.12438293546438217,-0.30395135283470154
1726225788439897900,10.72789794921875,0.3114875853061676,0.22225330770015717,0.25769999623298645
1726225788449932800,10.737932861328124,0.27158331871032715,0.008220911957323551,0.5086954832077026
1726225788459968800,10.74796875,0.2607514262199402,0.2592400908470154,0.19047246873378754
1726225788470004700,10.758004638671874,0.2545718252658844,0.40299299359321594,0.29723912477493286
1726225788480040700,10.768040771484374,0.316241592168808,0.31427618861198425,-0.34836941957473755
1726225788490076700,10.77807666015625,0.30279821157455444,0.27983856201171875,-0.029980003833770752
1726225788500113000,10.78811279296875,0.36632978916168213,0.180794820189476,-0.04020174965262413
1726225788510147800,10.79814794921875,0.26699522137641907,0.25893354415893555,-1.118536114692688
1726225788520183800,10.808183837890626,0.2465786188840866,0.18220362067222595,-0.7681353092193604
1726225788530219800,10.8182197265625,0.2422986477613449,0.29183903336524963,0.1924794316291809
1726225788540255700,10.828255859375,0.2631799578666687,0.27141073346138,0.5932130217552185
1726225788550291700,10.838291748046874,0.21505185961723328,0.44438251852989197,0.9205802083015442
1726225788560327000,10.848326904296876,0.19189193844795227,0.21824312210083008,-0.07041265070438385
1726225788570363000,10.85836279296875,0.078965924680233,0.11008309572935104,-0.8127456307411194
1726225788580398800,10.86839892578125,0.03687812387943268,-0.012324843555688858,0.028861742466688156
1726225788590434800,10.878434814453126,-0.13076654076576233,0.0772969201207161,-0.019836023449897766
1726225788600470800,10.888470703125,-0.1345362365245819,-0.03959134966135025,-0.5368368029594421
1726225788610506800,10.8985068359375,-0.4037935435771942,-0.04880721867084503,0.38362008333206177
1726225788620541700,10.908541748046876,-0.5096014738082886,0.1806909441947937,0.34142017364501953
1726225788630578000,10.918577880859376,-0.42442265152931213,0.0387740284204483,0.3626444935798645
1726225788640614000,10.92861376953125,-0.5595900416374207,0.026817765086889267,0.384677916765213
1726225788650649900,10.93864990234375,-0.4013040065765381,-0.21568089723587036,0.01799497939646244
1726225788660685800,10.948685791015626,-0.5579509139060974,-0.2838820517063141,-0.0026554379146546125
1726225788670721800,10.9587216796875,-0.6695466637611389,-0.2834700644016266,0.1168813481926918
1726225788680756700,10.9687568359375,-0.6536949872970581,-0.17470043897628784,-0.4806811213493347
1726225788690792700,10.978792724609375,-0.6596298217773438,-0.17112088203430176,-0.34156718850135803
1726225788700828700,10.98882861328125,-0.6512222290039062,-0.18342335522174835,-0.07187765091657639
1726225788710865000,10.998864990234376,-0.66140216588974,-0.17699980735778809,0.14056509733200073
1726225788720900900,11.00890087890625,-0.5371116399765015,-0.175681009888649,-0.12986958026885986
1726225788730935800,11.018935791015625,-0.41086050868034363,-0.08987662941217422,0.24923166632652283
1726225788740971800,11.0289716796875,-0.3834214210510254,-0.21307578682899475,0.7244091033935547
1726225788751007700,11.0390078125,-0.35059797763824463,-0.10200493037700653,0.21530964970588684
1726225788761043700,11.049043701171875,-0.5017978549003601,0.07282866537570953,-0.41001203656196594
1726225788771079700,11.05907958984375,-0.2713865041732788,-0.13145390152931213,-0.061834339052438736
1726225788781115600,11.06911572265625,-0.2268877476453781,-0.07047762721776962,0.3112063407897949
1726225788791150800,11.07915087890625,-0.17705653607845306,-0.28761446475982666,-0.5270342230796814
1726225788801186800,11.089186767578125,-0.05896558240056038,-0.2402070015668869,-0.757418692111969
1726225788811222800,11.099222900390625,-0.09682534635066986,0.04562554135918617,0.27818819880485535
1726225788821258800,11.1092587890625,0.007878162898123264,0.00138084904756397,0.451181024312973
1726225788831294700,11.119294677734375,-0.04713422432541847,-0.04031413421034813,0.09002336859703064
1726225788841330700,11.12933056640625,0.05152231454849243,0.06187748163938522,-0.06828770786523819
1726225788851366000,11.139365966796875,0.14993570744991302,-0.03141677752137184,0.21018332242965698
1726225788861401900,11.14940185546875,0.09179463237524033,0.02069941908121109,-0.04033863544464111
1726225788871437800,11.159437744140625,0.25563469529151917,0.06150703504681587,-0.5620191097259521
1726225788881473800,11.169473876953125,0.3011726140975952,0.0704379454255104,0.029382389038801193
1726225788891509800,11.179509765625,0.3181540071964264,-0.008858473040163517,0.5769956707954407
1726225788901545700,11.189545654296875,0.2151450663805008,0.16664889454841614,0.23222684860229492
1726225788911581000,11.199580810546875,0.2401212602853775,0.21763911843299866,-0.22280564904212952
1726225788921617000,11.209616943359375,0.2916126847267151,0.19791308045387268,0.07717068493366241
1726225788931652900,11.21965283203125,0.20961181819438934,0.19105011224746704,0.5168601870536804
1726225788941688800,11.229688720703125,0.24232955276966095,0.2315211147069931,-0.2556874454021454
1726225788951724800,11.239724853515625,0.24140197038650513,-0.06619526445865631,-1.209734559059143
1726225788961760800,11.2497607421875,0.1259765774011612,-0.010447048582136631,-0.32110080122947693
1726225788971795700,11.259795654296875,0.10856855660676956,0.261963427066803,0.5179520845413208
1726225788981831700,11.269831787109375,0.20540668070316315,0.1707696169614792,-0.02528431825339794
1726225788991868000,11.279867919921875,0.08079258352518082,0.08567575365304947,0.34243643283843994
1726225789001903900,11.28990380859375,0.1315028965473175,0.25362613797187805,0.3852968215942383
1726225789011939800,11.29993994140625,0.0914127379655838,0.13280251622200012,0.11867844313383102
1726225789021974800,11.309974853515625,0.01581598073244095,0.1762855499982834,-0.36605334281921387
1726225789032010800,11.3200107421875,0.16124720871448517,0.17604133486747742,-0.49848756194114685
1726225789042046700,11.330046630859375,0.09652760624885559,0.10239481180906296,-0.17203408479690552
1726225789052082700,11.340082763671875,0.11821665614843369,0.11407091468572617,0.06558380275964737
1726225789062118700,11.35011865234375,0.2123146504163742,0.16101312637329102,-0.18825486302375793
1726225789072155000,11.36015478515625,0.2072432041168213,0.12128807604312897,0.020915934816002846
1726225789082189800,11.37018994140625,0.12412700802087784,0.11785100400447845,0.7115039825439453
1726225789092225800,11.380225830078125,0.14422668516635895,0.19366374611854553,0.26474112272262573
1726225789102261800,11.39026171875,0.18610435724258423,0.26719602942466736,-0.6317590475082397
1726225789112297700,11.400297607421875,0.16296415030956268,-0.0059660132974386215,-0.7196233868598938
1726225789122333700,11.410333740234375,0.11241628974676132,0.31436458230018616,0.04681278020143509
1726225789132369700,11.42036962890625,0.07917337864637375,0.2343515157699585,0.6896135807037354
1726225789142404900,11.43040478515625,-0.03567890077829361,0.10988708585500717,-0.07008827477693558
1726225789152440800,11.44044091796875,0.07906738668680191,-0.015328622423112392,-0.651541531085968
1726225789162476800,11.450476806640625,-0.03969787806272507,0.16599802672863007,0.08560438454151154
1726225789172512800,11.4605126953125,0.15416507422924042,-0.09349080175161362,0.7636936902999878
1726225789182548700,11.470548828125,-0.08469757437705994,0.014129134826362133,-0.19350528717041016
1726225789192584700,11.480584716796875,0.03136191889643669,-0.045576006174087524,-0.8096217513084412
1726225789202620000,11.490619873046874,-0.13983885943889618,-0.011344799771904945,-0.7258906364440918
1726225789212655900,11.50065576171875,-0.05192418396472931,0.0501108393073082,0.42623573541641235
1726225789222691800,11.51069189453125,-0.10546357184648514,0.14458568394184113,0.6643041968345642
1726225789232727800,11.520727783203125,-0.13121794164180756,-0.027351729571819305,0.17251025140285492
1726225789242763800,11.530763671875,-0.23468121886253357,-0.013097692281007767,0.13658954203128815
1726225789252798700,11.540798828125,-0.25718334317207336,0.06142927333712578,0.9626072645187378
1726225789262834700,11.550834716796874,-0.2949157953262329,-0.09154029935598373,-0.18354080617427826
1726225789272870700,11.56087060546875,-0.2796145975589752,-0.03122050315141678,-0.6797263026237488
1726225789282907000,11.570906982421874,-0.1906474381685257,-0.032580580562353134,-0.08352791517972946
1726225789292942800,11.58094287109375,-0.30108553171157837,-0.12602265179157257,0.8885881900787354
1726225789302978800,11.590978759765624,-0.2498393952846527,-0.02913205325603485,0.3069421052932739
1726225789313013800,11.601013671875,-0.20189690589904785,-0.09512358903884888,-0.2419058382511139
1726225789323049700,11.6110498046875,-0.2842911183834076,-0.12482529133558273,0.2494332641363144
1726225789333085700,11.621085693359374,-0.2945384383201599,-0.04745406657457352,-0.0035502600949257612
1726225789343121700,11.63112158203125,-0.2935200333595276,-0.09774839878082275,-0.7583295106887817
1726225789353157600,11.64115771484375,-0.3177492022514343,-0.15182948112487793,-0.2884235382080078
1726225789363193900,11.65119384765625,-0.29211947321891785,-0.07891745120286942,0.49255990982055664
1726225789373228800,11.661228759765624,-0.3257559835910797,-0.11903424561023712,0.03934847190976143
1726225789383264800,11.6712646484375,-0.28420883417129517,-0.14096218347549438,-0.01942935772240162
1726225789393300700,11.68130078125,-0.3586721420288086,-0.24711498618125916,0.1466488242149353
1726225789403336700,11.691336669921874,-0.41780364513397217,-0.3262063264846802,0.08037606626749039
1726225789413372700,11.70137255859375,-0.3911206126213074,-0.24794669449329376,0.26354268193244934
1726225789423409000,11.711408935546874,-0.4071917235851288,-0.23254962265491486,-0.5693478584289551
1726225789433444000,11.721444091796876,-0.4333266615867615,-0.3078813850879669,-0.003314037574455142
1726225789443480000,11.73147998046875,-0.46986737847328186,-0.3399362564086914,0.2077859491109848
1726225789453516000,11.74151611328125,-0.5066363215446472,-0.3110042214393616,0.19279581308364868
1726225789463552000,11.751552001953126,-0.37667882442474365,-0.37745141983032227,-0.010104299522936344
1726225789473588000,11.761587890625,-0.5340559482574463,-0.3403570353984833,0.2903396785259247
1726225789483624000,11.7716240234375,-0.4085853695869446,-0.34647274017333984,-0.027224963530898094
1726225789493659100,11.7816591796875,-0.47241201996803284,-0.3287496566772461,0.33552154898643494
1726225789503695000,11.791695068359376,-0.45070937275886536,-0.2393614500761032,-0.11095474660396576
1726225789513731000,11.80173095703125,-0.3391130864620209,-0.2860370874404907,-0.3072134852409363
1726225789523767000,11.81176708984375,-0.36387887597084045,-0.29516080021858215,-0.10864711552858353
1726225789533803000,11.821802978515626,-0.20586714148521423,-0.2768377363681793,-0.23442049324512482
1726225789543838000,11.831837890625,-0.1828603595495224,-0.21847321093082428,0.24159450829029083
1726225789553874000,11.8418740234375,-0.2422637641429901,-0.36861053109169006,0.3551892638206482
1726225789563910000,11.851909912109376,-0.0879487618803978,-0.18870200216770172,0.6367282271385193
1726225789573946000,11.861946044921876,-0.017041034996509552,-0.20468948781490326,0.7099326848983765
1726225789583982000,11.871982177734376,0.06238401681184769,-0.25063541531562805,-0.9794642925262451
1726225789594018000,11.88201806640625,0.021283185109496117,-0.21826575696468353,-2.0808732509613037
1726225789604053000,11.892052978515625,-0.13116148114204407,-0.03906910493969917,-0.9425672888755798
1726225789614089000,11.9020888671875,0.1734255850315094,-0.049440786242485046,0.6054017543792725
1726225789624125000,11.912125,0.14184501767158508,-0.020974524319171906,1.078396201133728
1726225789634161000,11.922160888671876,0.35223740339279175,-0.20132406055927277,0.9142349362373352
1726225789644196900,11.93219677734375,0.1713123619556427,0.03743099421262741,1.1676429510116577
1726225789654233000,11.942233154296876,0.20636728405952454,0.031442344188690186,0.7890815734863281
1726225789664268000,11.95226806640625,0.11956501007080078,-0.014213290996849537,-0.4856466054916382
1726225789674304000,11.962303955078125,0.2084895521402359,-0.05863135680556297,-0.9554436802864075
1726225789684340000,11.972340087890625,0.07744845002889633,-0.08630000054836273,-0.34389904141426086
1726225789694376000,11.9823759765625,0.1779407113790512,-0.11218059808015823,-0.04893159121274948
1726225789704412000,11.992411865234375,0.21045230329036713,-0.15147393941879272,-0.19569173455238342
1726225789714448000,12.00244775390625,0.17241650819778442,-0.03447248786687851,0.08011054992675781
1726225789724483000,12.012483154296875,0.32811209559440613,-0.19680067896842957,0.18879441916942596
1726225789734519000,12.02251904296875,0.14398886263370514,0.06007026135921478,0.17895349860191345
1726225789744555000,12.032554931640625,0.24986310303211212,-0.027453461661934853,-0.34878090023994446
1726225789754591000,12.042591064453125,0.15612488985061646,0.13398629426956177,-0.012702745385468006
1726225789764627000,12.052626953125,0.3177854120731354,0.004452539142221212,0.3244004547595978
1726225789774662100,12.062662109375,0.2818239629268646,0.10051462054252625,-0.005650162696838379
1726225789784698000,12.072697998046875,0.3450532555580139,0.020048808306455612,-0.5698559880256653
1726225789794734000,12.082734130859375,0.24478285014629364,-0.006750847212970257,-0.3304500877857208
1726225789804770000,12.09277001953125,0.38345977663993835,0.09585621953010559,0.5749136209487915
1726225789814806000,12.102805908203125,0.1391134113073349,0.17196138203144073,0.60835200548172
1726225789824842000,12.112842041015625,0.2790558636188507,0.16989102959632874,-0.2056351900100708
1726225789834877000,12.122876953125,0.3569173812866211,0.06356725841760635,0.12510386109352112
1726225789844913000,12.132912841796875,0.33067378401756287,0.08846861124038696,0.15740028023719788
1726225789854949000,12.14294921875,0.48079273104667664,-0.012348012998700142,-0.6537474393844604
1726225789864985000,12.152985107421875,0.2918694019317627,0.09030086547136307,-0.7597127556800842
1726225789875021000,12.16302099609375,0.2825624644756317,0.10436368733644485,0.5177419185638428
1726225789885057000,12.17305712890625,0.17462773621082306,0.2936753034591675,1.7506145238876343
1726225789895092000,12.183092041015625,0.22799375653266907,0.15026913583278656,1.0740212202072144
1726225789905128000,12.1931279296875,0.057563960552215576,0.15406866371631622,-0.682765007019043
1726225789915164000,12.203163818359375,0.1769031435251236,-0.0302007794380188,-1.210701823234558
1726225789925200000,12.213199951171875,0.11171694099903107,0.0600002184510231,-0.9116122722625732
1726225789935236000,12.223236083984375,0.13986708223819733,0.008172175846993923,-0.16813866794109344
1726225789945272000,12.23327197265625,0.1541951596736908,0.1788640171289444,1.0513638257980347
1726225789955307000,12.24330712890625,0.20101167261600494,-0.16594582796096802,1.1896684169769287
1726225789965343000,12.253343017578125,0.10645027458667755,0.11096460372209549,0.42626556754112244
1726225789975379000,12.26337890625,0.12010376900434494,-0.03274862468242645,-0.7523272633552551
1726225789985415000,12.273414794921875,-0.03930426388978958,0.09193471819162369,-0.20158638060092926
1726225789995451000,12.283450927734375,0.04448863863945007,-0.05313139408826828,0.28332918882369995
1726225790005486800,12.29348681640625,-0.07349898666143417,0.06449323892593384,-0.3537258505821228
