time,seconds_elapsed,z,y,x
1726225777741768400,0.0297685546875,0.2987278401851654,0.08389952778816223,0.17477065324783325
1726225777751803400,0.039803466796875,0.2812580466270447,0.05120762437582016,0.10664033144712448
1726225777761839400,0.04983935546875,0.18768848478794098,-0.04917995259165764,-0.1665147840976715
1726225777771875300,0.059875244140625,0.12292412668466568,-0.10381549596786499,0.008859962224960327
1726225777781910500,0.06991064453125,0.0812542662024498,-0.055544812232255936,0.050507381558418274
1726225777791946500,0.079946533203125,0.09243953973054886,-0.05930093303322792,0.16860312223434448
1726225777801982500,0.089982421875,0.029585637152194977,-0.10172528028488159,0.07846087217330933
1726225777812018400,0.100018310546875,0.044004522264003754,-0.08042451739311218,0.029912777245044708
1726225777822053400,0.110053466796875,0.09594087302684784,-0.08377493172883987,0.12937286496162415
1726225777832089300,0.12008935546875,0.06503541767597198,-0.12687872350215912,0.008492524735629559
1726225777842125300,0.130125244140625,0.03772744536399841,-0.13353945314884186,0.06586777418851852
1726225777852160500,0.140160400390625,0.005799072328954935,-0.18196851015090942,0.03871738165616989
1726225777862196500,0.150196533203125,-0.054989293217659,-0.21185655891895294,-0.1316632330417633
1726225777872232400,0.160232421875,-0.019761797040700912,-0.172348290681839,-0.15964612364768982
1726225777882267400,0.170267333984375,0.046838074922561646,-0.07620356231927872,-0.06917843967676163
1726225777892303400,0.180303466796875,0.22024741768836975,-0.016616394743323326,0.07259626686573029
1726225777902339600,0.190339599609375,0.11349353939294815,-0.05698766931891441,-0.055645015090703964
1726225777912375600,0.20037548828125,0.28929227590560913,-0.20198534429073334,-0.28136709332466125
1726225777922410500,0.210410400390625,0.3642960488796234,0.06966198980808258,-0.07480037212371826
1726225777932446500,0.220446533203125,0.44388729333877563,0.10518616437911987,0.19204729795455933
1726225777942482400,0.230482421875,0.34302690625190735,0.06420941650867462,-0.01010258961468935
1726225777952517600,0.240517578125,0.3661032021045685,0.05624896287918091,-0.11092481017112732
1726225777962553600,0.2505537109375,0.4592432975769043,0.07592904567718506,0.07258740067481995
1726225777972589600,0.260589599609375,0.38541221618652344,0.09917525202035904,0.05817810446023941
1726225777982624500,0.27062451171875,0.3654618263244629,0.08831339329481125,-0.10287008434534073
1726225777992660500,0.280660400390625,0.38788777589797974,0.11015850305557251,-0.17600741982460022
1726225778002696400,0.290696533203125,0.4030146300792694,0.11083080619573593,-0.15009087324142456
1726225778012732400,0.300732421875,0.45091718435287476,0.1618282049894333,0.02079698070883751
1726225778022767600,0.310767578125,0.44594016671180725,0.09066416323184967,-0.04012787342071533
1726225778032803600,0.320803466796875,0.3664109706878662,0.014613335952162743,-0.31834644079208374
1726225778042839600,0.330839599609375,0.3992501199245453,0.06251975148916245,-0.15580430626869202
1726225778052874500,0.34087451171875,0.42485880851745605,0.09064885973930359,0.09608998894691467
1726225778062910500,0.350910400390625,0.3109014630317688,0.03224923834204674,0.1045328825712204
1726225778072946400,0.360946533203125,0.2535548210144043,0.0004423079080879688,-0.10026979446411133
1726225778082981400,0.3709814453125,0.20215736329555511,-0.12389985471963882,-0.10493346303701401
1726225778093017300,0.381017333984375,0.1358603686094284,-0.05750459060072899,0.07031585276126862
1726225778103053600,0.391053466796875,0.1725081503391266,-0.01784748211503029,0.2632301151752472
1726225778113089500,0.401089599609375,0.07694755494594574,-0.05425902083516121,0.096866175532341
1726225778123124500,0.41112451171875,-0.05011456459760666,-0.13144418597221375,-0.3111740052700043
1726225778133160400,0.421160400390625,0.014112088829278946,-0.16256001591682434,-0.3626664876937866
1726225778143196400,0.431196533203125,0.04860611632466316,-0.2133377194404602,0.06671375036239624
1726225778153231400,0.4412314453125,-0.016790734604001045,-0.2084401696920395,0.17820006608963013
1726225778163267300,0.451267333984375,-0.09570963680744171,-0.19181358814239502,-0.2993148863315582
1726225778173303300,0.46130322265625,-0.1727687269449234,-0.15698982775211334,-0.24392858147621155
1726225778183338500,0.47133837890625,-0.06832437962293625,-0.062494222074747086,0.20820492506027222
1726225778193374500,0.48137451171875,-0.010989448055624962,-0.2259627878665924,0.23465995490550995
1726225778203410400,0.491410400390625,-0.1942547708749771,-0.3019070029258728,-0.176245778799057
1726225778213446400,0.5014462890625,-0.07884267717599869,-0.14717867970466614,-0.11522050201892853
1726225778223481300,0.5114814453125,-0.03928497061133385,-0.18980956077575684,0.29423582553863525
1726225778233517300,0.521517333984375,-0.12504461407661438,-0.19201865792274475,0.17295785248279572
1726225778243553300,0.53155322265625,-0.03294581547379494,-0.24115492403507233,-0.1608138233423233
1726225778253588500,0.54158837890625,-0.1050138846039772,-0.12598678469657898,-0.3514080345630646
1726225778263624400,0.55162451171875,-0.01871863193809986,-0.2591457962989807,-0.07521186769008636
1726225778273660400,0.561660400390625,0.00483463192358613,-0.295798122882843,0.059583235532045364
1726225778283695400,0.5716953125,-0.0019038938917219639,-0.22170338034629822,-0.2898937463760376
1726225778293731300,0.5817314453125,0.136526420712471,-0.19617564976215363,-0.13061966001987457
1726225778303767600,0.591767578125,0.2152283489704132,-0.21424609422683716,0.13555918633937836
1726225778313803500,0.601803466796875,0.32708218693733215,-0.21563653647899628,0.14068204164505005
1726225778323838500,0.61183837890625,0.36946558952331543,-0.04460856318473816,-0.10916036367416382
1726225778333874400,0.62187451171875,0.4099824130535126,0.07168687880039215,-0.03445097431540489
1726225778343910400,0.631910400390625,0.4302530288696289,0.09297137707471848,0.14990749955177307
1726225778353945600,0.641945556640625,0.5252692699432373,-0.026799771934747696,0.042598091065883636
1726225778363981600,0.651981689453125,0.5410264730453491,0.13097065687179565,-0.21050560474395752
1726225778374017500,0.662017578125,0.6357828378677368,0.2920173406600952,-0.22858554124832153
1726225778384052500,0.672052490234375,0.7733491659164429,0.28084099292755127,0.050345130264759064
1726225778394088400,0.68208837890625,0.7810763120651245,0.23865945637226105,-0.2074480652809143
1726225778404124400,0.69212451171875,0.7379375696182251,0.27454718947410583,-0.10146878659725189
1726225778414164000,0.7021640625,0.816912829875946,0.31514203548431396,0.09856630116701126
1726225778424199000,0.712198974609375,0.7457910180091858,0.3675042390823364,-0.12657079100608826
1726225778434235000,0.72223486328125,0.7537254095077515,0.3291397988796234,-0.006488061044365168
1726225778444270800,0.732270751953125,0.6987156867980957,0.35406753420829773,-0.04595637321472168
1726225778454305800,0.742305908203125,0.6778295636177063,0.4013862907886505,-0.05042089521884918
1726225778464341800,0.752341796875,0.6760687828063965,0.3707125186920166,0.1251545250415802
1726225778474378000,0.7623779296875,0.5835609436035156,0.32509949803352356,-0.009739633649587631
1726225778484413000,0.772412841796875,0.548165500164032,0.3469994366168976,-0.057237040251493454
1726225778494449000,0.782448974609375,0.4947803020477295,0.3032309114933014,-0.15834768116474152
1726225778504484900,0.79248486328125,0.3788363039493561,0.3009900152683258,-0.020752038806676865
1726225778514520800,0.802520751953125,0.399312824010849,0.2594691812992096,-0.1796378195285797
1726225778524556000,0.81255615234375,0.29103097319602966,0.27816709876060486,0.04690806567668915
1726225778534592000,0.822592041015625,0.3084688186645508,0.20126432180404663,0.03843814879655838
1726225778544628000,0.8326279296875,0.2551795244216919,0.20495711266994476,-0.11785952746868134
1726225778554663000,0.842662841796875,0.2572557330131531,0.19870267808437347,0.24871501326560974
1726225778564699000,0.852698974609375,0.2244408279657364,0.239626944065094,-0.03294955566525459
1726225778574734800,0.86273486328125,0.19914905726909637,0.2024305760860443,0.11061986535787582
1726225778584770000,0.87277001953125,0.17514532804489136,0.14301937818527222,0.30167070031166077
1726225778594806000,0.882805908203125,0.08849486708641052,0.2615172564983368,-0.0779128149151802
1726225778604842000,0.892842041015625,0.041120462119579315,0.21294373273849487,-0.1833226978778839
1726225778614878000,0.9028779296875,0.012649672105908394,0.2776593267917633,-0.16893737018108368
1726225778624913000,0.912912841796875,0.08152125775814056,0.24912139773368835,-0.20657102763652802
1726225778634948900,0.922948974609375,0.06031477451324463,0.2524799108505249,-0.08561371266841888
1726225778644985000,0.932985107421875,0.15653268992900848,0.19386568665504456,0.1233283057808876
1726225778655020000,0.94302001953125,0.12403041124343872,0.15833646059036255,0.15067338943481445
1726225778665056000,0.953055908203125,0.075858473777771,0.1466190069913864,0.18553423881530762
1726225778675092000,0.963092041015625,-0.019514650106430054,0.21124939620494843,0.21757100522518158
1726225778685127000,0.973126953125,-0.08351434022188187,0.16160686314105988,0.23520143330097198
1726225778695163100,0.9831630859375,-0.09326976537704468,0.11663326621055603,0.3139122426509857
1726225778705199000,0.99319921875,-0.14947421848773956,0.11079587787389755,-0.06101571023464203
1726225778715235000,1.003235107421875,-0.16445769369602203,0.054451651871204376,0.018447155132889748
1726225778725270000,1.01327001953125,-0.13371898233890533,0.0816650390625,0.4747428894042969
1726225778735306000,1.023305908203125,-0.13598346710205078,0.15295493602752686,0.3389805257320404
1726225778745342000,1.033342041015625,-0.1537735015153885,0.026400411501526833,-0.016971586272120476
1726225778755377200,1.043377197265625,-0.22195708751678467,0.1339614987373352,-0.04653853178024292
1726225778765413000,1.0534130859375,-0.1223846897482872,0.1366899013519287,0.17227210104465485
1726225778775449000,1.063448974609375,-0.11916546523571014,0.09169046580791473,0.05792608857154846
1726225778785485000,1.073485107421875,-0.16334787011146545,0.03034043498337269,0.14063598215579987
1726225778795520000,1.08352001953125,-0.1760713905096054,0.03191409632563591,0.1033535972237587
1726225778805556000,1.093555908203125,-0.23586730659008026,0.10860393941402435,0.06270699948072433
1726225778815592000,1.103592041015625,-0.26365262269973755,0.08770398050546646,0.26331838965415955
1726225778825627000,1.113626953125,-0.34767451882362366,0.1647363305091858,-0.12932294607162476
1726225778835662800,1.123662841796875,-0.32101017236709595,0.22794298827648163,0.06206965073943138
1726225778845699000,1.133698974609375,-0.3293987810611725,0.26569750905036926,0.2455538809299469
1726225778855735000,1.143735107421875,-0.22935234010219574,0.2521819770336151,-0.018428761512041092
1726225778865770000,1.15377001953125,-0.06119612976908684,0.23014980554580688,0.08713895082473755
1726225778875806000,1.163805908203125,0.029185965657234192,0.16417212784290314,0.17420433461666107
1726225778885842000,1.173842041015625,0.06890808045864105,0.15828919410705566,0.26129263639450073
1726225778895876900,1.183876953125,0.05191710963845253,0.23308461904525757,0.4051100015640259
1726225778905912800,1.193912841796875,-0.024046899750828743,0.21833893656730652,-0.15087032318115234
1726225778915948800,1.20394873046875,-0.08633770793676376,0.21834532916545868,-0.20530693233013153
1726225778925984000,1.21398388671875,-0.15544356405735016,0.194423645734787,0.02024657279253006
1726225778936020000,1.22402001953125,-0.15647022426128387,0.16972416639328003,0.13132941722869873
1726225778946056000,1.234055908203125,-0.15192557871341705,0.13858617842197418,0.0002032625488936901
1726225778956092000,1.244091796875,-0.1174674704670906,0.06786458939313889,-0.02253613993525505
1726225778966126800,1.254126953125,-0.10283201932907104,0.03664017468690872,0.06291242688894272
1726225778976162800,1.264162841796875,-0.10585789382457733,0.05781203880906105,0.10997340828180313
1726225778986198800,1.27419873046875,-0.14212705194950104,0.08021031320095062,0.2622782289981842
1726225778996234000,1.28423388671875,-0.1743856519460678,0.008843187242746353,0.2091979682445526
1726225779006270000,1.29427001953125,-0.2500048875808716,0.051756877452135086,-0.13610218465328217
1726225779016306000,1.304305908203125,-0.24854521453380585,0.03444100543856621,-0.22783662378787994
1726225779026342000,1.314341796875,-0.26354262232780457,0.004275668412446976,0.0762595608830452
1726225779036376800,1.324376953125,-0.25065159797668457,0.04099080711603165,-0.004511188715696335
1726225779046413000,1.3344130859375,-0.18712057173252106,0.005230464041233063,-0.05558481067419052
1726225779056449000,1.344448974609375,-0.2217845320701599,-0.0009086546488106251,0.04466642439365387
1726225779066484000,1.35448388671875,-0.17751231789588928,0.02572779357433319,0.00726222014054656
1726225779076520000,1.36452001953125,-0.17927800118923187,0.012223970144987106,0.1930139809846878
1726225779086556000,1.374555908203125,-0.23969556391239166,0.02301326021552086,0.021901672706007957
1726225779096591000,1.384591064453125,-0.21580222249031067,-0.004217295907437801,-0.31116363406181335
1726225779106627000,1.394626953125,-0.2314193695783615,0.005732760764658451,-0.20233160257339478
1726225779116663000,1.4046630859375,-0.1967862993478775,-0.014061450958251953,0.25216323137283325
1726225779126699000,1.414698974609375,-0.1921038031578064,-0.0006165546365082264,0.0667862743139267
1726225779136734000,1.42473388671875,-0.17796748876571655,-0.03253720700740814,-0.30480724573135376
1726225779146770000,1.43477001953125,-0.16894693672657013,-0.07188627868890762,0.1439627707004547
1726225779156806000,1.444805908203125,-0.22255611419677734,-0.021118173375725746,0.2979542016983032
1726225779166841000,1.454841064453125,-0.22067660093307495,-0.022864069789648056,0.050871483981609344
1726225779176877000,1.464876953125,-0.2356632649898529,-0.03690585494041443,-0.05776657909154892
1726225779186913000,1.4749130859375,-0.19228170812129974,-0.09015415608882904,0.0026605487801134586
1726225779196949000,1.484948974609375,-0.17531923949718475,-0.1231299564242363,0.15700377523899078
1726225779206984000,1.49498388671875,-0.18458741903305054,-0.13056744635105133,0.0733245462179184
1726225779217020200,1.505020263671875,-0.14880253374576569,-0.10034135729074478,-0.24517939984798431
1726225779227056000,1.51505615234375,-0.1845845729112625,-0.10276500880718231,0.04912227392196655
1726225779237091000,1.525091064453125,-0.15803870558738708,-0.17425036430358887,-0.09905600547790527
1726225779247127000,1.535126953125,-0.19892017543315887,-0.11059540510177612,-0.18615485727787018
1726225779257163000,1.5451630859375,-0.14041824638843536,-0.14676272869110107,0.04699743911623955
1726225779267199000,1.555198974609375,-0.12245957553386688,-0.07827038317918777,-0.06619326770305634
1726225779277234000,1.56523388671875,-0.11410897225141525,-0.04028971493244171,0.08601517975330353
1726225779287270100,1.575270263671875,-0.04609151557087898,-0.09618885815143585,0.1221928521990776
1726225779297306000,1.58530615234375,-0.10178167372941971,-0.09633879363536835,0.05692863091826439
1726225779307340800,1.5953408203125,-0.050712861120700836,-0.12023430317640305,0.023757046088576317
1726225779317376800,1.605376708984375,-0.05754440277814865,-0.11893094331026077,-0.15142463147640228
1726225779327412700,1.615412841796875,-0.09907292574644089,-0.13578754663467407,0.07047655433416367
1726225779337449000,1.625448974609375,-0.0462760291993618,-0.1529737263917923,-0.13602228462696075
1726225779347484000,1.63548388671875,-0.08787287026643753,-0.0728582814335823,-0.18222501873970032
1726225779357520000,1.645519775390625,-0.0646599605679512,-0.09320483356714249,0.07473913580179214
1726225779367555800,1.655555908203125,-0.0927772969007492,-0.06547421216964722,-0.08213327825069427
1726225779377590800,1.6655908203125,-0.1003582552075386,-0.06216496601700783,0.0011112815700471401
1726225779387627000,1.675626953125,-0.07456131279468536,-0.07302611321210861,0.18145528435707092
1726225779397663000,1.6856630859375,-0.0749615877866745,-0.1325024962425232,0.06778276711702347
1726225779407699200,1.69569921875,-0.08216218650341034,-0.11443879455327988,-0.18553835153579712
1726225779417734000,1.70573388671875,-0.06262923777103424,-0.1742699146270752,-0.3259580433368683
1726225779427769900,1.715769775390625,-0.11126469075679779,-0.2088828980922699,-0.00795151386409998
1726225779437805800,1.725805908203125,-0.09358663111925125,-0.14526823163032532,-0.15166740119457245
1726225779447841000,1.735841064453125,-0.05603674799203873,-0.21357105672359467,-0.14510025084018707
1726225779457877000,1.745876953125,-0.12856820225715637,-0.21744249761104584,0.060407888144254684
1726225779467913000,1.755912841796875,-0.08603537082672119,-0.22304388880729675,0.06719882786273956
1726225779477949000,1.765948974609375,-0.11659887433052063,-0.17391656339168549,0.049437135457992554
1726225779487983900,1.77598388671875,-0.14772747457027435,-0.20146100223064423,0.08785431832075119
1726225779498019800,1.786019775390625,-0.17105410993099213,-0.21207156777381897,-0.06795045733451843
1726225779508055800,1.796055908203125,-0.19994191825389862,-0.218557670712471,-0.21586228907108307
1726225779518092000,1.806092041015625,-0.18659494817256927,-0.21890096366405487,0.03808875381946564
1726225779528127000,1.816126953125,-0.17113298177719116,-0.26975181698799133,0.038464877754449844
1726225779538163000,1.826162841796875,-0.20277398824691772,-0.29979628324508667,-0.35831549763679504
1726225779548199000,1.836198974609375,-0.16586317121982574,-0.2937191128730774,0.03192361816763878
1726225779558233900,1.84623388671875,-0.1307922750711441,-0.2756412923336029,0.09467142075300217
1726225779568270000,1.85627001953125,-0.1530550867319107,-0.2836606800556183,-0.07371631264686584
1726225779578306000,1.86630615234375,-0.12140900641679764,-0.274867981672287,-0.10865139216184616
1726225779588342000,1.876342041015625,-0.07916451245546341,-0.26354750990867615,-0.0020582550205290318
1726225779598377000,1.886376953125,-0.1028919443488121,-0.22339901328086853,0.4134872853755951
1726225779608413000,1.896412841796875,-0.047984298318624496,-0.2413020133972168,0.14503265917301178
1726225779618449000,1.906448974609375,-0.04693474620580673,-0.20199455320835114,-0.24666213989257812
1726225779628484000,1.916484130859375,0.003437188919633627,-0.18950240314006805,-0.030678650364279747
1726225779638520000,1.92652001953125,0.03632935881614685,-0.1563606858253479,0.1108129695057869
1726225779648556000,1.93655615234375,0.02263137698173523,-0.16690663993358612,-0.012701021507382393
1726225779658592000,1.946592041015625,0.07082207500934601,-0.14547137916088104,0.07165008038282394
1726225779668627000,1.956626953125,0.08878634870052338,-0.09733244776725769,0.055035047233104706
1726225779678663000,1.966662841796875,0.06965740025043488,-0.06333427131175995,0.06940147280693054
1726225779688699000,1.976698974609375,0.11230414360761642,-0.08887064456939697,0.14819680154323578
1726225779698734000,1.986734130859375,0.11558302491903305,-0.08498003333806992,0.18118883669376373
1726225779708770000,1.99677001953125,0.169818714261055,-0.07572907954454422,-0.08627541363239288
1726225779718806000,2.006805908203125,0.2168426811695099,-0.06165294349193573,0.06176145747303963
1726225779728842000,2.016842041015625,0.22078989446163177,-0.047063134610652924,0.18382582068443298
1726225779738877200,2.026877197265625,0.27693092823028564,-0.039837710559368134,-0.15976589918136597
1726225779748913200,2.0369130859375,0.28063881397247314,-0.034890107810497284,0.05060694366693497
1726225779758949000,2.04694921875,0.27518945932388306,-0.01886533573269844,0.2478308081626892
1726225779768985000,2.056985107421875,0.31140390038490295,0.01626298949122429,-0.03678552433848381
1726225779779020000,2.06702001953125,0.3410531282424927,0.018045444041490555,-0.04226524382829666
1726225779789056000,2.077055908203125,0.3347497284412384,0.03154631704092026,0.2575128972530365
1726225779799092000,2.087092041015625,0.3776266276836395,0.012079407460987568,0.2098497748374939
1726225779809127200,2.097127197265625,0.3219001591205597,0.08715824037790298,-0.16348746418952942
1726225779819163100,2.1071630859375,0.35078585147857666,0.09964900463819504,-0.05716102570295334
1726225779829199000,2.11719921875,0.3708527386188507,0.10646471381187439,0.048359401524066925
1726225779839235000,2.127235107421875,0.3832356333732605,0.11187812685966492,-0.08299728482961655
1726225779849270000,2.13727001953125,0.428596168756485,0.08918864279985428,0.08684402704238892
1726225779859306000,2.147305908203125,0.37344956398010254,0.16604001820087433,0.07490161061286926
1726225779869342200,2.15734228515625,0.42171481251716614,0.1626860350370407,-0.006413748022168875
1726225779879378200,2.167378173828125,0.3772352337837219,0.17313335835933685,0.19385197758674622
1726225779889412900,2.177412841796875,0.37030941247940063,0.1193939745426178,0.2658287286758423
1726225779899449000,2.187448974609375,0.3472808003425598,0.23913529515266418,0.08259393274784088
1726225779909485000,2.197485107421875,0.2910269498825073,0.31179097294807434,-0.34779876470565796
1726225779919520000,2.20752001953125,0.285986065864563,0.2347414642572403,-0.06822438538074493
1726225779929556000,2.217555908203125,0.2328612059354782,0.2511596083641052,-0.04101843386888504
1726225779939592000,2.227592041015625,0.30234017968177795,0.22684921324253082,-0.08258052170276642
1726225779949628200,2.237628173828125,0.3379167318344116,0.18535950779914856,0.15881934762001038
1726225779959662800,2.247662841796875,0.34452882409095764,0.21635043621063232,0.08428971469402313
1726225779969698800,2.25769873046875,0.3705493211746216,0.25015881657600403,-0.01550175528973341
1726225779979734800,2.26773486328125,0.28639423847198486,0.2603291869163513,0.16997861862182617
1726225779989771000,2.27777099609375,0.21070511639118195,0.29242396354675293,0.011618206277489662
1726225779999806000,2.287805908203125,0.18980754911899567,0.32667967677116394,-0.12926673889160156
1726225780009842000,2.297842041015625,0.15919096767902374,0.33372482657432556,0.000680052675306797
1726225780019878000,2.3078779296875,0.12869323790073395,0.31613489985466003,-0.0865054503083229
1726225780029912800,2.317912841796875,0.17780978977680206,0.27767226099967957,0.04892722889780998
1726225780039949000,2.327948974609375,0.1835409253835678,0.24553854763507843,-0.12196808308362961
1726225780049985000,2.337985107421875,0.22601941227912903,0.23359830677509308,-0.05436786264181137
1726225780060021000,2.34802099609375,0.2638373374938965,0.21226824820041656,0.0651681199669838
1726225780070056000,2.358055908203125,0.18633298575878143,0.23514293134212494,-0.02481396682560444
1726225780080092000,2.368091796875,0.2263328582048416,0.1862797886133194,0.11689683049917221
1726225780090128000,2.3781279296875,0.1497049480676651,0.15020886063575745,0.005650694947689772
1726225780100163800,2.388163818359375,0.08163003623485565,0.18607445061206818,-0.33780306577682495
1726225780110199000,2.398198974609375,0.10262689739465714,0.22247561812400818,-0.12568040192127228
1726225780120235000,2.408235107421875,0.10721525549888611,0.2566027045249939,0.018396887928247452
1726225780130271000,2.41827099609375,0.08504841476678848,0.11999064683914185,-0.17063525319099426
1726225780140306000,2.428305908203125,0.013618706725537777,0.14760468900203705,0.019464904442429543
1726225780150342000,2.438341796875,0.03468699753284454,0.18130047619342804,0.18242096900939941
1726225780160377900,2.4483779296875,-0.03389472886919975,0.11509908735752106,-0.038085564970970154
1726225780170414000,2.4584140625,-0.1257593333721161,0.11532790958881378,0.11500648409128189
1726225780180449000,2.468448974609375,-0.08437727391719818,0.11812129616737366,0.13742125034332275
1726225780190485000,2.478485107421875,-0.11510787904262543,0.1809852123260498,-0.0894131287932396
1726225780200521000,2.48852099609375,-0.1489097774028778,0.0855923667550087,-0.31574562191963196
1726225780210557000,2.498556884765625,-0.14550375938415527,0.04105640575289726,0.04133802652359009
1726225780220592000,2.508592041015625,-0.0857996866106987,0.052979908883571625,-0.10895267128944397
1726225780230628000,2.518628173828125,-0.12728829681873322,0.03341704234480858,-0.102295882999897
1726225780240664000,2.5286640625,-0.1255716234445572,0.03461732715368271,0.02030700445175171
1726225780250700000,2.538699951171875,-0.11239947378635406,0.057969555258750916,-0.029926331713795662
1726225780260735000,2.54873486328125,-0.16989286243915558,0.08909951150417328,0.021256960928440094
1726225780270771000,2.55877099609375,-0.14313240349292755,0.054072968661785126,0.24279427528381348
1726225780280807000,2.568806884765625,-0.2018047720193863,0.03623325005173683,0.0412590317428112
1726225780290843100,2.578843017578125,-0.21560177206993103,-0.03830492123961449,-0.060030341148376465
1726225780300878000,2.588878173828125,-0.21774668991565704,-0.009795516729354858,-0.3063194751739502
1726225780310914000,2.5989140625,-0.19772376120090485,0.007962590083479881,-0.09375328570604324
1726225780320950000,2.608949951171875,-0.12213259935379028,0.00640570605173707,-0.20935365557670593
1726225780330985000,2.61898486328125,-0.14067398011684418,0.03143727779388428,-0.19718323647975922
1726225780341021200,2.629021240234375,-0.11355901509523392,0.021508749574422836,0.03679623827338219
1726225780351057200,2.63905712890625,-0.09478436410427094,0.018294239416718483,0.11375673115253448
1726225780361093000,2.649093017578125,-0.10589107871055603,0.06120096147060394,0.08427447825670242
1726225780371128000,2.659128173828125,-0.04760315269231796,0.05410338565707207,0.10840874910354614
1726225780381164000,2.6691640625,-0.05975249409675598,0.0014883787371218204,0.18885672092437744
1726225780391200000,2.679199951171875,-0.028854645788669586,-0.023030541837215424,-0.08615048974752426
1726225780401236000,2.689236083984375,0.029508262872695923,-0.005443026777356863,0.03317057341337204
1726225780411267800,2.699267822265625,-0.016323192045092583,0.02293885499238968,-0.06626194715499878
1726225780421303800,2.7093037109375,0.009667130187153816,0.04342655465006828,-0.0866447165608406
1726225780431339800,2.71933984375,0.013336936943233013,0.0637335479259491,0.06430388987064362
1726225780441375700,2.729375732421875,0.004244105890393257,0.09822467714548111,0.0060355281457304955
1726225780451410700,2.73941064453125,0.04311302304267883,0.09978842735290527,0.06714565306901932
1726225780461446700,2.74944677734375,0.0753958597779274,0.10422259569168091,0.1950271874666214
1726225780471483000,2.75948291015625,0.10010065138339996,0.04334370791912079,0.21759504079818726
1726225780481517800,2.769517822265625,0.10380350798368454,0.1120482087135315,-0.10750102996826172
1726225780491553800,2.7795537109375,0.1332264542579651,0.09628355503082275,0.06773834675550461
1726225780501589800,2.78958984375,0.10882683843374252,0.06950600445270538,0.09226951748132706
1726225780511625700,2.799625732421875,0.09151320904493332,0.1627865880727768,-0.25060462951660156
1726225780521661000,2.809660888671875,0.10297678411006927,0.10745596885681152,0.08378001302480698
1726225780531697000,2.81969677734375,0.042310453951358795,0.16403859853744507,0.1636672019958496
1726225780541732900,2.82973291015625,0.09871567040681839,0.16112269461154938,0.09638350456953049
1726225780551768800,2.839768798828125,0.09607035666704178,0.14954093098640442,0.10435978323221207
1726225780561803800,2.8498037109375,0.07607240974903107,0.11465059220790863,0.44128403067588806
1726225780571839700,2.85983984375,0.1221003606915474,0.13072457909584045,0.30325573682785034
1726225780581875700,2.869875732421875,0.059331245720386505,0.11436078697443008,-0.12373554706573486
1726225780591911700,2.87991162109375,0.048795703798532486,0.09495839476585388,-0.07268185168504715
1726225780601947000,2.88994677734375,0.035613588988780975,0.055497005581855774,-0.23558475077152252
1726225780611982800,2.89998291015625,0.019331403076648712,-0.0142755638808012,-0.32432615756988525
1726225780622018800,2.910018798828125,0.011787733063101768,0.021085355430841446,-0.12027449905872345
1726225780632054800,2.9200546875,0.026599958539009094,0.06399751454591751,0.09587492793798447
1726225780642089700,2.93008984375,0.049295686185359955,0.07277529686689377,0.0591621920466423
1726225780652126000,2.9401259765625,0.06719961017370224,0.04766789451241493,0.5174930095672607
1726225780662162000,2.950161865234375,0.04019089415669441,0.051245853304862976,0.3527171313762665
1726225780672198000,2.960197998046875,0.02773241698741913,0.0599709115922451,-0.21195842325687408
1726225780682232800,2.97023291015625,0.0401185117661953,0.03847920149564743,-0.08502525091171265
1726225780692268800,2.980268798828125,-0.025067921727895737,-0.028888676315546036,0.08332990854978561
1726225780702304800,2.9903046875,-0.0767526850104332,-0.04630761221051216,-0.14807268977165222
1726225780712340700,3.0003408203125,-0.13566981256008148,-0.10829826444387436,-0.1079753041267395
1726225780722376000,3.0103759765625,-0.20964017510414124,-0.17145060002803802,0.05470309033989906
1726225780732412000,3.020411865234375,-0.2950979173183441,-0.21435193717479706,0.045640431344509125
1726225780742447900,3.03044775390625,-0.3733466565608978,-0.18644653260707855,0.22849813103675842
1726225780752483800,3.04048388671875,-0.449036180973053,-0.26993873715400696,0.13180410861968994
1726225780762518800,3.050518798828125,-0.5600718855857849,-0.26915761828422546,-0.26706022024154663
1726225780772554800,3.0605546875,-0.5573821067810059,-0.32243093848228455,0.051724471151828766
1726225780782591000,3.070591064453125,-0.621928334236145,-0.39852091670036316,-0.17638219892978668
1726225780792626000,3.0806259765625,-0.6494067311286926,-0.3770769536495209,-0.25335991382598877
1726225780802662000,3.090661865234375,-0.5633701682090759,-0.41805902123451233,-0.012528667226433754
1726225780812697900,3.10069775390625,-0.5783328413963318,-0.3903176784515381,-0.014586757868528366
1726225780822733800,3.11073388671875,-0.5094107985496521,-0.4008009433746338,0.08551400899887085
1726225780832769000,3.12076904296875,-0.5308360457420349,-0.3799005150794983,0.04985690861940384
1726225780842805000,3.130804931640625,-0.5010225176811218,-0.38608860969543457,0.10420030355453491
1726225780852841000,3.140841064453125,-0.4495193660259247,-0.2887093126773834,0.08872843533754349
1726225780862877000,3.150876953125,-0.36572355031967163,-0.29316744208335876,-0.32773295044898987
1726225780872912000,3.160911865234375,-0.29389873147010803,-0.30385246872901917,-0.20308971405029297
1726225780882947800,3.17094775390625,-0.23923735320568085,-0.28502604365348816,-0.2103785127401352
1726225780892983800,3.18098388671875,-0.11768727749586105,-0.24845483899116516,-0.2271815836429596
1726225780903020000,3.19102001953125,-0.05508807301521301,-0.17557691037654877,-0.1337517648935318
1726225780913055000,3.201054931640625,0.030616965144872665,-0.13469263911247253,0.11714880168437958
1726225780923091000,3.211091064453125,0.07294018566608429,-0.11749421805143356,0.12594681978225708
1726225780933127000,3.221126953125,0.10296213626861572,-0.07482217252254486,0.20887123048305511
1726225780943163000,3.231162841796875,0.1450749635696411,-0.037664152681827545,0.2723996043205261
1726225780953197800,3.24119775390625,0.18528547883033752,-0.07658776640892029,-0.16408118605613708
1726225780963234000,3.251234130859375,0.1800699383020401,0.007198474835604429,-0.15738892555236816
1726225780973270000,3.26127001953125,0.24882549047470093,0.014330325648188591,-0.04706331342458725
1726225780983306000,3.271305908203125,0.2992098331451416,0.015509572811424732,-0.04755200445652008
1726225780993340700,3.281340576171875,0.35210323333740234,0.003481594379991293,-0.16928225755691528
1726225781003376600,3.291376708984375,0.42215606570243835,-0.004093501251190901,0.0668538436293602
1726225781013412600,3.30141259765625,0.4126082956790924,0.03571149334311485,0.14298781752586365
1726225781023448800,3.31144873046875,0.42971697449684143,0.023853503167629242,0.020954864099621773
1726225781033483800,3.32148388671875,0.393117219209671,0.08027536422014236,-0.0649615079164505
1726225781043519700,3.331519775390625,0.3636900782585144,0.10288959741592407,-0.054887834936380386
1726225781053555700,3.3415556640625,0.30280086398124695,0.10663280636072159,0.013202400878071785
1726225781063591700,3.351591796875,0.2732725143432617,0.13876278698444366,-0.17084014415740967
1726225781073627000,3.361626953125,0.2681608498096466,0.12105511128902435,0.047726742923259735
1726225781083662800,3.371662841796875,0.2411734163761139,0.15950903296470642,0.046517666429281235
1726225781093698800,3.38169873046875,0.3421734869480133,0.10111315548419952,0.05922368913888931
1726225781103734800,3.39173486328125,0.2631354033946991,0.13458536565303802,0.13346223533153534
1726225781113769700,3.401769775390625,0.3475572168827057,0.07554859668016434,0.044797010719776154
1726225781123805700,3.4118056640625,0.25850164890289307,0.09169241786003113,0.015666289255023003
1726225781133841700,3.421841552734375,0.18578751385211945,0.1456989049911499,0.051606688648462296
1726225781143877600,3.431877685546875,0.23258405923843384,0.16802072525024414,-0.1175202876329422
1726225781153912800,3.441912841796875,0.11743533611297607,0.19427630305290222,0.14526928961277008
1726225781163948800,3.45194873046875,0.15205109119415283,0.1299079805612564,0.007758032530546188
1726225781173984800,3.46198486328125,0.14042693376541138,0.13102036714553833,-0.1145351231098175
1726225781184020700,3.472020751953125,0.14681291580200195,0.11803880333900452,0.04731209948658943
1726225781194055700,3.4820556640625,0.17211522161960602,0.10739622265100479,-0.02796991914510727
1726225781204092000,3.492091796875,0.14875131845474243,0.10570937395095825,0.30273663997650146
1726225781214127900,3.5021279296875,0.1656375229358673,0.06553773581981659,0.172206848859787
1726225781224163800,3.512163818359375,0.09378544241189957,0.09714599698781967,-0.14109674096107483
1726225781234198800,3.52219873046875,0.07400856167078018,0.08805464953184128,0.017616908997297287
1726225781244234800,3.53223486328125,0.02651241049170494,0.11800802499055862,0.017620904371142387
1726225781254270700,3.542270751953125,0.057098422199487686,0.08043182641267776,-0.10035371780395508
1726225781264306700,3.552306640625,0.010649166069924831,0.07606078684329987,-0.06022121384739876
1726225781274342000,3.562341796875,0.037662070244550705,0.04897616431117058,-0.01780666969716549
1726225781284377900,3.5723779296875,0.028323162347078323,0.07661232352256775,0.1991778314113617
1726225781294413800,3.582413818359375,0.024976402521133423,-0.004766557365655899,0.37918078899383545
1726225781304449800,3.59244970703125,0.009836863726377487,0.059823356568813324,-0.08864474296569824
1726225781314484700,3.602484619140625,-0.03385729342699051,0.09388502687215805,-0.20089685916900635
1726225781324520700,3.612520751953125,-0.010198036208748817,0.060355301946401596,-0.013991422951221466
1726225781334557000,3.622556884765625,0.024355102330446243,0.0817466452717781,-0.1058235689997673
1726225781344593000,3.632593017578125,0.04063820466399193,0.05197623744606972,0.01214514672756195
1726225781354627800,3.6426279296875,0.04080842062830925,0.06503207981586456,0.05052604898810387
1726225781364663800,3.652663818359375,0.05080805718898773,0.07675211876630783,-0.03585224971175194
1726225781374699800,3.66269970703125,0.026120349764823914,0.12135539203882217,0.3088453412055969
1726225781384735700,3.67273583984375,0.004012917168438435,0.18068023025989532,0.15788964927196503
1726225781394771000,3.68277099609375,0.03575056791305542,0.08872354030609131,-0.25903183221817017
1726225781404807000,3.692806884765625,0.0023859539069235325,0.09106605499982834,0.0379875972867012
1726225781414841900,3.702841796875,0.04423984885215759,0.05936137214303017,-0.04307691752910614
1726225781424877800,3.7128779296875,0.041488803923130035,0.08617274463176727,-0.13489285111427307
1726225781434913000,3.7229130859375,0.04344048351049423,0.0831046774983406,-0.024837829172611237
1726225781444949000,3.732948974609375,0.10785489529371262,0.061179399490356445,-0.1362503618001938
1726225781454985000,3.74298486328125,0.05815424025058746,0.10773763060569763,0.040925491601228714
1726225781465021000,3.75302099609375,0.12190578132867813,0.10597594827413559,0.1270582526922226
1726225781475055900,3.763055908203125,0.11261536180973053,0.1182737797498703,-0.19763922691345215
1726225781485091800,3.773091796875,0.09016118198633194,0.17326274514198303,-0.22372861206531525
1726225781495127800,3.7831279296875,0.18712279200553894,0.1297459602355957,-0.008117418736219406
1726225781505164000,3.7931640625,0.12201730161905289,0.17364975810050964,-0.2632914185523987
1726225781515199000,3.803198974609375,0.21508707106113434,0.2893814146518707,-0.4237220883369446
1726225781525235000,3.81323486328125,0.28502941131591797,0.14040496945381165,-0.038427140563726425
1726225781535271000,3.82327099609375,0.21374133229255676,0.16425859928131104,0.11403637379407883
1726225781545307000,3.833306884765625,0.3069860339164734,0.18938125669956207,-0.08555343747138977
1726225781555342000,3.843342041015625,0.2822551727294922,0.22213785350322723,0.06282351166009903
1726225781565378000,3.8533779296875,0.26187506318092346,0.19457706809043884,0.24159805476665497
1726225781575414000,3.8634140625,0.33518186211586,0.23105774819850922,-0.015536908991634846
1726225781585450000,3.873449951171875,0.23878556489944458,0.2520168125629425,-0.12749940156936646
1726225781595485000,3.88348486328125,0.25257501006126404,0.25246986746788025,-0.11366928368806839
1726225781605521000,3.89352099609375,0.2642260491847992,0.22496981918811798,-0.05951976031064987
1726225781615556900,3.903556884765625,0.2416604608297348,0.19666795432567596,0.016263512894511223
1726225781625592800,3.9135927734375,0.26822414994239807,0.2310970425605774,-0.08564979583024979
1726225781635628000,3.9236279296875,0.24368564784526825,0.27335160970687866,-0.025446856394410133
1726225781645664000,3.9336640625,0.1882879137992859,0.2771002948284149,0.23965591192245483
1726225781655700000,3.943699951171875,0.16188572347164154,0.31736695766448975,0.2749675214290619
1726225781665736000,3.95373583984375,0.16038982570171356,0.24706405401229858,-0.17852486670017242
1726225781675772000,3.96377197265625,0.11004495620727539,0.24016080796718597,-0.13175687193870544
1726225781685807000,3.97380712890625,0.1518065184354782,0.23308877646923065,-0.10529278218746185
1726225781695843000,3.983843017578125,0.12162712216377258,0.22780171036720276,-0.1940326690673828
1726225781705879000,3.993879150390625,0.11351912468671799,0.1956499069929123,-0.12183624505996704
1726225781715915000,4.0039150390625,0.10624720901250839,0.21873824298381805,-0.23156532645225525
1726225781725950000,4.013949951171875,0.08062227070331573,0.20972131192684174,-0.03923902288079262
1726225781735986000,4.02398583984375,0.05031736567616463,0.1498997062444687,0.239464670419693
1726225781746022000,4.03402197265625,0.0054388404823839664,0.1871781051158905,-0.2974112927913666
1726225781756057900,4.044057861328125,-0.07044906914234161,0.15606142580509186,-0.14852274954319
1726225781766093000,4.054093017578125,-0.052750762552022934,0.13553404808044434,-0.1825086772441864
1726225781776129000,4.06412890625,-0.11814618110656738,0.05157194286584854,-0.07429632544517517
1726225781786165000,4.0741650390625,-0.15542057156562805,0.03127466142177582,0.11529944092035294
1726225781796201000,4.084200927734375,-0.12935563921928406,0.03481218218803406,-0.11962085217237473
1726225781806236000,4.09423583984375,-0.1499788910150528,-0.01884758286178112,-0.15607313811779022
1726225781816272100,4.104272216796875,-0.12028566002845764,-0.17694735527038574,0.10494764894247055
1726225781826308000,4.11430810546875,-0.17741286754608154,-0.22455774247646332,0.22418855130672455
1726225781836344000,4.124343994140625,-0.2419033646583557,-0.06727933883666992,0.003182521089911461
1726225781846379000,4.13437890625,-0.33096691966056824,-0.06943570077419281,-0.6196616291999817
1726225781856415000,4.1444150390625,-0.36098578572273254,-0.15326645970344543,-0.06696464121341705
1726225781866451000,4.154450927734375,-0.45351412892341614,-0.07012682408094406,0.3407149910926819
1726225781876487000,4.16448681640625,-0.4093196392059326,-0.15387138724327087,-0.5920573472976685
1726225781886522000,4.174522216796875,-0.40520212054252625,-0.15259785950183868,-0.5153298377990723
1726225781896558000,4.18455810546875,-0.36303001642227173,-0.1596142053604126,0.37752828001976013
1726225781906594000,4.194593994140625,-0.33484843373298645,-0.16947776079177856,0.6078940629959106
1726225781916630000,4.204630126953125,-0.30649706721305847,-0.1581905484199524,0.39082056283950806
1726225781926666000,4.214666015625,-0.3529987931251526,-0.20451676845550537,0.5647177696228027
1726225781936701200,4.224701171875,-0.3894442915916443,-0.0727887749671936,0.12999863922595978
1726225781946737200,4.234737060546875,-0.2509878873825073,-0.13453735411167145,-0.07434944808483124
1726225781956773000,4.244773193359375,-0.32223251461982727,-0.15464359521865845,0.16243469715118408
1726225781966809000,4.25480908203125,-0.24194379150867462,-0.11347164958715439,-0.15136316418647766
1726225781976844000,4.264843994140625,-0.2001979500055313,-0.11545765399932861,0.13467222452163696
1726225781986880000,4.2748798828125,-0.1780758649110794,-0.115653395652771,-0.13935586810112
1726225781996916000,4.284916015625,-0.1322399526834488,-0.1381664127111435,0.07635540515184402
1726225782006952000,4.294951904296875,-0.14436373114585876,-0.006236341316252947,0.2489495426416397
1726225782016987100,4.304987060546875,-0.07492931187152863,-0.017254235222935677,-0.49874475598335266
1726225782027023000,4.315023193359375,-0.10087276250123978,-0.009169410914182663,-0.28459304571151733
1726225782037059000,4.32505908203125,-0.08415435999631882,0.033515941351652145,0.20104360580444336
1726225782047095000,4.335094970703125,-0.06462886184453964,-0.023412322625517845,-0.01434246264398098
1726225782057130000,4.3451298828125,-0.0541534461081028,-0.007162204943597317,0.4660356342792511
1726225782067166200,4.355166259765625,0.010196247138082981,0.047215551137924194,0.1276320368051529
1726225782077202200,4.3652021484375,0.02699882909655571,0.03215548023581505,0.3263092339038849
1726225782087238100,4.375238037109375,0.0017169066704809666,0.07280436903238297,0.8426167964935303
1726225782097273000,4.385273193359375,0.0885961651802063,-0.008070703595876694,0.21529069542884827
1726225782107309000,4.39530908203125,0.023145785555243492,0.03214595839381218,-0.21951723098754883
1726225782117345000,4.405344970703125,-0.03720499575138092,0.04980013892054558,0.03696655482053757
1726225782127381000,4.415381103515625,-0.057516925036907196,0.055012743920087814,-0.49826037883758545
1726225782137417000,4.4254169921875,-0.09916692972183228,0.018737416714429855,-0.6815970540046692
1726225782147452000,4.435451904296875,-0.04267675802111626,0.0296502523124218,-0.2625989615917206
1726225782157488000,4.445488037109375,-0.0490255169570446,-0.048658616840839386,0.4509977400302887
1726225782167524000,4.455524169921875,0.05824527516961098,-0.08239128440618515,1.0085598230361938
1726225782177560000,4.46556005859375,0.14598028361797333,-0.05264846980571747,1.0266605615615845
1726225782187595000,4.475594970703125,0.11436721682548523,-0.17896325886249542,0.4699286222457886
1726225782197631000,4.485630859375,-0.10834652930498123,0.0072944751009345055,-0.09507112205028534
1726225782207667200,4.495667236328125,-0.22313250601291656,-0.035344865173101425,0.3342648148536682
1726225782217703200,4.505703125,-0.48881077766418457,0.2355945110321045,0.41695302724838257
1726225782227737900,4.51573779296875,-0.17247173190116882,-0.021702006459236145,-0.9147364497184753
1726225782237773800,4.52577392578125,-0.2902825176715851,-0.08819422870874405,-1.0076156854629517
1726225782247809800,4.535809814453125,-0.088199183344841,-0.05905897915363312,0.007533019408583641
1726225782257845800,4.545845703125,-0.06716582179069519,-0.012714903801679611,0.7649056911468506
1726225782267881000,4.555880859375,0.03229392319917679,-0.10012704133987427,0.1491013467311859
1726225782277917000,4.5659169921875,0.006408149376511574,-0.08038482069969177,-0.32819658517837524
1726225782287953000,4.575952880859375,-0.07097825407981873,-0.02861696481704712,0.10037687420845032
1726225782297988900,4.58598876953125,-0.14815935492515564,0.04122402146458626,0.261790931224823
1726225782308024800,4.59602490234375,-0.1774386763572693,-0.08236449211835861,-0.41256752610206604
1726225782318060000,4.60606005859375,-0.13634580373764038,-0.10460006445646286,-0.5559768676757812
1726225782328096000,4.616095947265625,-0.16236647963523865,0.0024251933209598064,0.23517927527427673
1726225782338132000,4.626132080078125,-0.12841828167438507,0.0258607380092144,0.5741423964500427
1726225782348168000,4.63616796875,-0.09206559509038925,0.06567845493555069,0.5060976147651672
1726225782358203000,4.646202880859375,-0.15719103813171387,-0.07157690823078156,-0.42558324337005615
1726225782368238800,4.65623876953125,-0.1017695888876915,0.008381843566894531,0.08103466778993607
1726225782378274800,4.66627490234375,-0.17295578122138977,-0.017642222344875336,0.08439325541257858
1726225782388310800,4.676310791015625,-0.1960880011320114,-0.008878292515873909,-0.7767324447631836
1726225782398346000,4.686345947265625,-0.11678259074687958,0.05296117812395096,-0.5661119818687439
1726225782408386000,4.696385986328125,-0.06403735280036926,0.08971679210662842,0.11549076437950134
1726225782418422000,4.706422119140625,0.012893680483102798,0.030071355402469635,0.05680704116821289
1726225782428458000,4.7164580078125,0.06250810623168945,-0.03144686669111252,-0.07472222298383713
1726225782438494000,4.726493896484375,-0.023381924256682396,-0.03698573261499405,-0.030588358640670776
1726225782448529000,4.73652880859375,0.027893779799342155,-0.03745311498641968,0.11727433651685715
1726225782458565000,4.746565185546875,0.010613980703055859,0.07285072654485703,0.8777911067008972
1726225782468601000,4.75660107421875,0.004041831940412521,0.044878214597702026,-0.24809835851192474
1726225782478637000,4.766636962890625,-0.035114653408527374,0.09037169814109802,-0.4622710943222046
1726225782488672000,4.776672119140625,0.007439464330673218,0.16711227595806122,-0.021851105615496635
1726225782498708000,4.7867080078125,0.07767587155103683,0.11257386952638626,-0.37561294436454773
1726225782508744000,4.796743896484375,0.12840908765792847,-0.012492166832089424,-0.26545366644859314
1726225782518780000,4.80677978515625,0.1510346680879593,-0.02779175341129303,0.3156110644340515
1726225782528815000,4.816815185546875,0.06722259521484375,0.10546936094760895,-0.08804184198379517
1726225782538851000,4.82685107421875,0.11100025475025177,0.11565649509429932,-0.534557044506073
1726225782548887000,4.836886962890625,-0.025086477398872375,0.17346440255641937,-0.08040577918291092
1726225782558923000,4.846923095703125,0.04940282180905342,0.17068186402320862,0.8917438387870789
1726225782568959000,4.856958984375,0.05131177604198456,0.07979857176542282,0.7205885648727417
1726225782578994000,4.866993896484375,-0.06341549009084702,0.14701654016971588,-1.0573179721832275
1726225782589030100,4.877030029296875,-0.010926450602710247,0.03530946001410484,-1.4439256191253662
1726225782599066000,4.887066162109375,-0.104581817984581,0.130760058760643,-0.12995363771915436
1726225782609102000,4.89710205078125,-0.1025378406047821,0.11307214945554733,0.7141405940055847
1726225782619137000,4.907136962890625,-0.0751306563615799,-0.1199072003364563,0.007417906541377306
1726225782629173000,4.917173095703125,-0.27702435851097107,0.07665114104747772,-0.3643884062767029
1726225782639209000,4.927208984375,-0.1435113102197647,-0.050450872629880905,0.07448269426822662
1726225782649245000,4.937244873046875,-0.2674636244773865,-0.0593721978366375,0.7233057022094727
1726225782659280100,4.947280029296875,-0.21917439997196198,-0.07666728645563126,-0.45258986949920654
1726225782669316000,4.957316162109375,-0.18238896131515503,-0.15035854279994965,-1.4504820108413696
1726225782679352000,4.96735205078125,-0.31122860312461853,0.018665973097085953,-0.7937681674957275
1726225782689388000,4.977387939453125,-0.22374722361564636,0.027217915281653404,0.7990469336509705
1726225782699424000,4.987424072265625,-0.21833306550979614,-0.14633668959140778,1.0192880630493164
1726225782709459000,4.997458984375,-0.2465391457080841,-0.18020783364772797,0.007238667458295822
1726225782719495200,5.0074951171875,-0.21662406623363495,-0.05351119488477707,0.4242619574069977
1726225782729531100,5.01753125,-0.22860269248485565,-0.0396057665348053,0.4170282781124115
1726225782739567000,5.027567138671875,-0.17909224331378937,-0.23671305179595947,-0.7471234202384949
1726225782749602000,5.03760205078125,-0.2890259325504303,-0.30362311005592346,-0.8260208964347839
1726225782759638000,5.047637939453125,-0.12324834614992142,-0.042749933898448944,0.1687461882829666
1726225782769674000,5.057674072265625,-0.21022027730941772,-0.026754189282655716,0.394827276468277
1726225782779710000,5.0677099609375,-0.22086888551712036,-0.08281990140676498,-0.10399506986141205
1726225782789746000,5.077745849609375,-0.1658058911561966,0.012076247483491898,0.24842609465122223
1726225782799781000,5.087781005859375,-0.036124665290117264,-0.07159052789211273,0.25670096278190613
1726225782809817000,5.097817138671875,-0.04370135813951492,-0.13973656296730042,0.3122848570346832
1726225782819853000,5.10785302734375,-0.04186125099658966,-0.04688255116343498,-0.4908561110496521
1726225782829889000,5.117888916015625,-0.04114273190498352,-0.0209960900247097,-0.0972617045044899
1726225782839924200,5.12792431640625,-0.12509573996067047,-0.05871296674013138,0.23484690487384796
1726225782849960200,5.137960205078125,-0.16381996870040894,-0.07048680633306503,-0.34269821643829346
1726225782859996200,5.14799609375,-0.24004711210727692,-0.12663252651691437,-0.5018003582954407
1726225782870032100,5.1580322265625,-0.25454404950141907,-0.15649108588695526,0.2745153307914734
1726225782880067000,5.168067138671875,-0.14354616403579712,-0.1604221612215042,0.27833274006843567
1726225782890103000,5.17810302734375,-0.12735973298549652,-0.1405576467514038,-0.34302428364753723
1726225782900139000,5.188138916015625,-0.05552995949983597,-0.1477191001176834,-0.36058416962623596
1726225782910175000,5.198175048828125,-0.12889711558818817,0.021784707903862,0.34974053502082825
1726225782920211200,5.208211181640625,-0.18010008335113525,-0.07010576128959656,0.7060897946357727
1726225782930246100,5.21824609375,-0.2193010151386261,-0.30737555027008057,-0.027575954794883728
1726225782940282000,5.2282822265625,-0.3964206576347351,-0.15838855504989624,-0.006636194884777069
1726225782950318000,5.238318115234375,-0.28987959027290344,-0.31722986698150635,0.651118814945221
1726225782960354000,5.24835400390625,-0.3787524402141571,-0.21157458424568176,-0.06462094187736511
1726225782970389000,5.258388916015625,-0.16506147384643555,-0.40913477540016174,-0.9129916429519653
1726225782980425000,5.268425048828125,-0.29025134444236755,-0.2701667845249176,-0.24100689589977264
1726225782990461200,5.278461181640625,-0.2017851322889328,-0.40514376759529114,0.8491935133934021
1726225783000497200,5.2884970703125,-0.5219786763191223,-0.19767948985099792,0.751511812210083
1726225783010533000,5.298533203125,-0.3251708447933197,-0.3914998471736908,-0.5509729385375977
1726225783020567800,5.30856787109375,-0.45535269379615784,-0.23787665367126465,-0.39800938963890076
1726225783030603800,5.318603759765625,-0.3663645088672638,-0.36759549379348755,0.5105013847351074
1726225783040640000,5.328639892578125,-0.3735062777996063,-0.3970876932144165,0.06262675672769547
1726225783050676200,5.33867626953125,-0.30801597237586975,-0.5146926045417786,-0.5936200618743896
1726225783060711000,5.3487109375,-0.33991900086402893,-0.4427601397037506,-0.20125362277030945
1726225783070747000,5.358746826171875,-0.374432235956192,-0.41418176889419556,0.7611507177352905
1726225783080782800,5.368782958984375,-0.39100825786590576,-0.26643815636634827,0.6161543726921082
1726225783090818800,5.37881884765625,-0.22890084981918335,-0.42008069157600403,-0.14037084579467773
1726225783100855000,5.38885498046875,-0.2521969676017761,-0.34020376205444336,0.20793752372264862
1726225783110890000,5.398889892578125,-0.21143169701099396,-0.40023675560951233,0.16360041499137878
1726225783120926000,5.408926025390625,-0.19183769822120667,-0.31130754947662354,-0.16840405762195587
1726225783130962000,5.4189619140625,-0.1836511343717575,-0.19274736940860748,0.21700754761695862
1726225783140998000,5.428997802734375,0.0022881189361214638,-0.20690637826919556,0.03116266243159771
1726225783151032800,5.43903271484375,-0.0615696907043457,-0.19902928173542023,-0.3337351381778717
1726225783161068800,5.44906884765625,0.006689268164336681,-0.2466450184583664,0.502560019493103
1726225783171105000,5.45910498046875,0.07588804513216019,-0.17488135397434235,0.19658145308494568
1726225783181141000,5.46914111328125,0.064519502222538,-0.2421519011259079,-0.4030013680458069
1726225783191177000,5.479177001953125,0.14943332970142365,-0.1711283177137375,-0.07833142578601837
1726225783201212000,5.4892119140625,0.11530496180057526,-0.1774587631225586,0.4024462103843689
1726225783211247900,5.499247802734375,0.1586417853832245,-0.08783434331417084,0.1475992649793625
1726225783221283800,5.509283935546875,0.15917609632015228,-0.19580015540122986,-0.6640293598175049
1726225783231319800,5.51931982421875,0.09894578903913498,-0.18695923686027527,-0.5213049650192261
1726225783241355000,5.52935498046875,0.16404125094413757,-0.13989035785198212,0.016579285264015198
1726225783251391000,5.539390869140625,0.10351824015378952,-0.2577061951160431,-0.3439898192882538
1726225783261427000,5.549427001953125,0.17754967510700226,-0.3066893517971039,-0.45382940769195557
1726225783271463000,5.559462890625,0.24618491530418396,-0.2232474833726883,-0.021591980010271072
1726225783281499000,5.569498779296875,0.18425792455673218,-0.16324327886104584,0.43867307901382446
1726225783291533800,5.579533935546875,0.18792429566383362,-0.14584645628929138,0.9157962203025818
1726225783301570000,5.589570068359375,0.11894017457962036,-0.2497454285621643,0.1195686012506485
1726225783311606000,5.59960595703125,0.0806412547826767,-0.07491447776556015,-0.5251970887184143
1726225783321642000,5.60964208984375,0.0602961927652359,-0.3064846396446228,-0.02474338561296463
1726225783331678000,5.619677978515625,-0.0782206729054451,-0.049842480570077896,0.3305968940258026
1726225783341713000,5.629712890625,0.07466515153646469,-0.022553572431206703,-0.6085183620452881
1726225783351748900,5.639748779296875,0.07536636292934418,-0.16151413321495056,-0.9118236303329468
1726225783361784800,5.649784912109375,0.23620069026947021,-0.10614156723022461,-0.428982675075531
1726225783371820800,5.65982080078125,0.24340400099754333,-0.05764167010784149,0.682574987411499
1726225783381856000,5.66985595703125,0.40755200386047363,-0.15945473313331604,0.8944327235221863
1726225783391892000,5.67989208984375,0.3723013401031494,-0.12202559411525726,0.5097004771232605
1726225783401928000,5.689927978515625,0.45633530616760254,-0.10687264055013657,-0.4017452597618103
1726225783411960000,5.6999599609375,0.38290050625801086,0.027758145704865456,0.16845349967479706
1726225783421995300,5.709995361328125,0.35720574855804443,0.2436531037092209,-0.5353037714958191
1726225783432031200,5.72003125,0.5205057263374329,0.0070166029036045074,-1.347419023513794
1726225783442067200,5.730067138671875,0.42438527941703796,0.3933374583721161,-0.7819103598594666
1726225783452103200,5.740103271484375,0.7160109877586365,0.4051845371723175,0.4387892186641693
1726225783462139100,5.75013916015625,0.7556099891662598,0.3451375663280487,0.9404634833335876
1726225783472174000,5.760174072265625,0.8491527438163757,0.35645997524261475,0.32734522223472595
1726225783482210000,5.7702099609375,0.686600923538208,0.3896998167037964,0.1434537023305893
1726225783492246300,5.780246337890625,0.7688294649124146,0.32534268498420715,-0.029359089210629463
1726225783502282200,5.7902822265625,0.7556001543998718,0.3743695318698883,-0.11553959548473358
1726225783512318200,5.800318115234375,0.7215449810028076,0.32647842168807983,-0.07867132127285004
1726225783522353200,5.810353271484375,0.7401305437088013,0.37491217255592346,-0.3434865474700928
1726225783532389000,5.82038916015625,0.7488055229187012,0.3293018341064453,-0.2566179633140564
1726225783542425000,5.830425048828125,0.8090347647666931,0.48661524057388306,0.25725415349006653
1726225783552461000,5.8404609375,1.0208172798156738,0.42481285333633423,0.47595879435539246
1726225783562496300,5.850496337890625,0.7345759868621826,0.40460312366485596,0.2688083350658417
1726225783572532200,5.8605322265625,0.7702682018280029,0.349947065114975,0.5876992344856262
1726225783582568200,5.870568115234375,0.6815989017486572,0.4782226085662842,0.8232476711273193
1726225783592604200,5.880604248046875,0.5522425174713135,0.3471364974975586,0.293192595243454
1726225783602640100,5.89064013671875,0.3600148558616638,0.30307531356811523,-0.4234141409397125
1726225783612675000,5.900675048828125,0.3063715994358063,0.3375760316848755,-0.9090719223022461
1726225783622711300,5.910711181640625,0.24489286541938782,0.3703189492225647,-0.4883379340171814
1726225783632747300,5.920747314453125,0.37209635972976685,0.24772538244724274,0.1656968593597412
1726225783642783200,5.930783203125,0.17744021117687225,0.3361048400402069,0.173099085688591
1726225783652818000,5.94081787109375,0.31758826971054077,0.3349865972995758,0.0719575509428978
1726225783662854100,5.950854248046875,0.10203751921653748,0.41816991567611694,0.5959026217460632
1726225783672890000,5.96089013671875,0.0733502134680748,0.4028652608394623,0.8492438197135925
1726225783682926000,5.970926025390625,-0.08461431413888931,0.21366643905639648,-0.20070494711399078
1726225783692962000,5.980962158203125,0.059185467660427094,0.20034503936767578,-1.0196332931518555
1726225783702997000,5.9909970703125,-0.02290523611009121,0.09100387245416641,0.006541836075484753
1726225783713033000,6.001032958984375,-0.01321692205965519,0.06833744049072266,0.7188287377357483
1726225783723069200,6.011069091796875,-0.10754597932100296,-0.020580438897013664,-0.16823354363441467
1726225783733105200,6.021105224609375,-0.0769483894109726,0.11500401794910431,-0.33003973960876465
1726225783743141000,6.03114111328125,0.03952658548951149,0.19311049580574036,0.47812843322753906
1726225783753176000,6.041176025390625,-0.11248131841421127,0.14521807432174683,0.6006392240524292
1726225783763212000,6.0512119140625,-0.08972703665494919,0.05194276198744774,-0.16218683123588562
1726225783773248300,6.061248291015625,0.001832710113376379,0.24946916103363037,-0.7001770734786987
1726225783783284200,6.0712841796875,0.05515728145837784,0.20641469955444336,0.7302992343902588
1726225783793319000,6.08131884765625,0.05094442516565323,0.2624926269054413,1.0689764022827148
1726225783803355000,6.09135498046875,-0.05168857052922249,-0.037973809987306595,-0.3001180589199066
1726225783813390800,6.101390869140625,-0.059368595480918884,0.01085365004837513,-0.7900952100753784
1726225783823427000,6.111427001953125,-0.11916989088058472,0.10170187056064606,0.39134687185287476
1726225783833463300,6.12146337890625,-0.20889098942279816,-0.02075720578432083,0.004668921232223511
1726225783843498000,6.131498046875,-0.21381717920303345,-0.10492829233407974,-0.6545135974884033
1726225783853534000,6.141533935546875,-0.23624393343925476,-0.008650225587189198,-0.3345968425273895
1726225783863570000,6.15156982421875,-0.20200979709625244,0.001995227998122573,0.07422900199890137
1726225783873606000,6.16160595703125,-0.18541564047336578,0.013024975545704365,-0.00891195796430111
1726225783883642000,6.17164208984375,-0.18343345820903778,0.005272809416055679,-0.18382865190505981
1726225783893677000,6.181677001953125,-0.29444095492362976,-0.11501073092222214,-0.011611079797148705
1726225783903713000,6.191713134765625,-0.19004325568675995,-0.12349057197570801,0.275577187538147
1726225783913749000,6.2017490234375,-0.3338957726955414,0.02643660455942154,-0.004720509983599186
1726225783923785000,6.211784912109375,-0.3004392981529236,-0.20930500328540802,-0.5833229422569275
1726225783933820000,6.22181982421875,-0.4499659240245819,-0.2709343135356903,-0.5763081908226013
1726225783943856000,6.231856201171875,-0.38797032833099365,-0.10775099694728851,0.16838319599628448
1726225783953892000,6.24189208984375,-0.33018240332603455,-0.10613072663545609,0.5962061882019043
1726225783963928000,6.251927978515625,-0.34860339760780334,-0.1142561212182045,0.01079675741493702
1726225783973964000,6.261964111328125,-0.33312058448791504,-0.23094598948955536,-0.2697150707244873
1726225783983999000,6.2719990234375,-0.33175674080848694,-0.20035143196582794,0.21628689765930176
1726225783994035000,6.282034912109375,-0.3160528838634491,-0.08224689960479736,0.4992096722126007
1726225784004071000,6.29207080078125,-0.2757965922355652,-0.19762474298477173,-0.8466153740882874
1726225784014107000,6.30210693359375,-0.179327592253685,-0.248597651720047,-0.7435917854309082
1726225784024143000,6.31214306640625,-0.2071658968925476,-0.12933489680290222,0.3608061969280243
1726225784034178000,6.322177978515625,-0.1869993656873703,-0.2479156106710434,0.10910363495349884
1726225784044214000,6.332214111328125,-0.2624410390853882,-0.22675378620624542,0.03546735271811485
1726225784054250000,6.34225,-0.20363393425941467,-0.20803922414779663,-0.13774411380290985
1726225784064286000,6.352285888671875,-0.15523509681224823,-0.2594102621078491,-0.20251338183879852
1726225784074321200,6.362321044921875,-0.10137107223272324,-0.2311626523733139,0.06347781419754028
1726225784084357000,6.372357177734375,-0.09205544739961624,-0.1290440410375595,0.08640778809785843
1726225784094393000,6.38239306640625,-0.028771014884114265,-0.1504947394132614,0.17517708241939545
1726225784104429000,6.392428955078125,-0.09362191706895828,-0.10199272632598877,0.005551827605813742
1726225784114465000,6.402465087890625,-0.0381125807762146,-0.05182969197630882,0.42008695006370544
1726225784124500000,6.4125,0.03971748799085617,-0.09239920228719711,-0.1070098802447319
1726225784134536000,6.422535888671875,0.06653445959091187,-0.013536348938941956,-0.24625486135482788
1726225784144572000,6.432572021484375,0.18884865939617157,0.03292066976428032,0.17733390629291534
1726225784154608000,6.442608154296875,0.26636022329330444,0.13244885206222534,0.4817042052745819
1726225784164644000,6.45264404296875,0.38581404089927673,-0.07097991555929184,-0.21770404279232025
1726225784174679000,6.462678955078125,0.3034302294254303,0.019258636981248856,-0.14730843901634216
1726225784184715000,6.472715087890625,0.42110174894332886,0.0013840170577168465,-0.05752529948949814
1726225784194751000,6.4827509765625,0.28927552700042725,0.04886072129011154,0.16464945673942566
1726225784204787000,6.492786865234375,0.34644755721092224,0.01988905668258667,-0.2848161458969116
1726225784214822100,6.502822265625,0.3442627191543579,-0.006035219877958298,-0.48605602979660034
1726225784224858000,6.512858154296875,0.36999934911727905,0.20523947477340698,0.3737502098083496
1726225784234894000,6.52289404296875,0.32759571075439453,0.2073953002691269,0.9099648594856262
1726225784244930000,6.532929931640625,0.2934446632862091,0.13164938986301422,0.28726163506507874
1726225784254966000,6.542966064453125,0.3284604549407959,0.18134450912475586,-0.5308262705802917
1726225784265001000,6.5530009765625,0.32168278098106384,0.11299939453601837,-0.02248070016503334
1726225784275037000,6.563036865234375,0.3656523823738098,0.11890335381031036,0.45219606161117554
1726225784285073200,6.5730732421875,0.3310595154762268,0.07706348598003387,-0.7487236261367798
1726225784295109000,6.583109130859375,0.45920389890670776,0.15305358171463013,-0.9680359959602356
1726225784305145000,6.59314501953125,0.349616676568985,0.1384168565273285,0.7070611119270325
1726225784315180000,6.603179931640625,0.4174034595489502,0.22719359397888184,1.2500104904174805
1726225784325216000,6.613216064453125,0.27335357666015625,0.2745097875595093,0.7924917936325073
1726225784335252000,6.623251953125,0.33009806275367737,0.10865558683872223,-0.5074905753135681
1726225784345288000,6.633287841796875,0.17434406280517578,0.06451921910047531,-0.139543816447258
1726225784355324000,6.643323974609375,0.232829749584198,0.07442724704742432,0.5356045365333557
1726225784365359000,6.653359130859375,0.17451998591423035,0.04148789867758751,-0.43936604261398315
1726225784375395000,6.66339501953125,0.26930558681488037,0.038631659001111984,-1.0684996843338013
1726225784385431000,6.67343115234375,0.16581745445728302,0.2102968394756317,0.0855652391910553
1726225784395467000,6.683467041015625,0.05791494995355606,-0.04030926525592804,0.8563964366912842
1726225784405502200,6.693502197265625,-0.08106373250484467,0.09100034087896347,0.1520608514547348
1726225784415538200,6.7035380859375,-0.0390092171728611,0.0857725515961647,-0.23342718183994293
1726225784425574100,6.71357421875,-0.17774194478988647,-0.09113217890262604,0.2912713587284088
1726225784435610000,6.723610107421875,-0.3622606694698334,0.11609743535518646,0.2750124931335449
1726225784445646000,6.73364599609375,-0.19747836887836456,0.022091858088970184,-0.8249201774597168
1726225784455681000,6.743680908203125,-0.20109599828720093,-0.11767509579658508,-0.7685386538505554
1726225784465717000,6.753717041015625,-0.20851397514343262,-0.02093362621963024,0.4111524820327759
1726225784475753000,6.7637529296875,-0.11774572730064392,-0.11505533009767532,1.1415022611618042
1726225784485789200,6.7737890625,-0.17085863649845123,-0.2245364487171173,0.15491434931755066
1726225784495825200,6.7838251953125,-0.28784385323524475,0.067444808781147,-0.21184368431568146
1726225784505860000,6.793860107421875,-0.22213613986968994,0.12166737020015717,0.14452950656414032
1726225784515896000,6.80389599609375,-0.2803994417190552,0.14406003057956696,-0.10770754516124725
1726225784525932000,6.81393212890625,-0.14792239665985107,0.07314144819974899,-0.6878897547721863
1726225784535968000,6.823968017578125,0.08327195048332214,-0.023987499997019768,-0.3779103457927704
1726225784546004000,6.83400390625,0.20456255972385406,0.19861628115177155,0.24588845670223236
1726225784556039200,6.8440390625,0.23735511302947998,0.13901926577091217,0.10013124346733093
1726225784566075100,6.8540751953125,0.2691541612148285,0.16968193650245667,0.05170068144798279
1726225784576111000,6.864111083984375,0.1678251326084137,0.16921614110469818,0.3703303039073944
1726225784586147000,6.87414697265625,0.2774565517902374,0.3309890329837799,-0.11954828351736069
1726225784596182000,6.88418212890625,0.29710057377815247,0.33576861023902893,0.34517785906791687
1726225784606218000,6.894218017578125,0.1958497166633606,0.22001594305038452,-0.07550163567066193
1726225784616254200,6.904254150390625,0.29595741629600525,0.21564969420433044,-0.9801223278045654
1726225784626290200,6.914290283203125,0.45295193791389465,0.39995425939559937,-0.9309200048446655
1726225784636326100,6.924326171875,0.6734020113945007,0.2864428758621216,0.1991921365261078
1726225784646361000,6.934361083984375,0.6732965707778931,0.1753891557455063,1.1168230772018433
1726225784656397000,6.94439697265625,0.5571648478507996,0.12021298706531525,0.7248452305793762
1726225784666433000,6.95443310546875,0.3710283935070038,0.45482560992240906,0.28219228982925415
1726225784676469000,6.964468994140625,0.4803599417209625,0.25284403562545776,0.2544810473918915
1726225784686505000,6.9745048828125,0.19258654117584229,0.49832743406295776,-0.36345648765563965
1726225784696540200,6.9845400390625,0.3953913450241089,0.3670618236064911,-0.41209033131599426
1726225784706576100,6.994576171875,0.2681557238101959,0.41647738218307495,-0.048156172037124634
1726225784716612000,7.004612060546875,0.32463178038597107,0.21324782073497772,0.008706046268343925
1726225784726648000,7.01464794921875,0.1802728921175003,0.24162614345550537,-0.09106595069169998
1726225784736684000,7.02468408203125,0.22084800899028778,0.21524833142757416,0.3452376127243042
1726225784746719200,7.03471923828125,0.1530020534992218,0.28234097361564636,0.3077825903892517
1726225784756755200,7.044755126953125,0.05790136754512787,0.2275216430425644,-0.05787527933716774
1726225784766791200,7.054791259765625,0.04018165171146393,0.21178364753723145,0.020558403804898262
1726225784776827100,7.0648271484375,-0.06121394410729408,0.345745712518692,0.13741791248321533
1726225784786863000,7.074863037109375,0.07700732350349426,0.22220243513584137,-0.11641165614128113
1726225784796898000,7.08489794921875,-0.16015729308128357,0.235025554895401,-0.3402029573917389
1726225784806934000,7.09493408203125,-0.023320306092500687,0.095707006752491,-0.08931634575128555
1726225784816970000,7.104969970703125,-0.15451933443546295,0.2200358808040619,0.5633860230445862
1726225784827006200,7.115006103515625,-0.13453011214733124,0.03665260225534439,0.27543771266937256
1726225784837042200,7.125042236328125,-0.26191309094429016,0.022654756903648376,-0.3149201273918152
1726225784847077000,7.1350771484375,-0.16593793034553528,0.08101943880319595,-0.08019104599952698
1726225784857113000,7.145113037109375,-0.09905396401882172,0.03051764704287052,0.22593294084072113
1726225784867149000,7.155149169921875,-0.2188822329044342,0.0906883254647255,-0.1855698525905609
1726225784877185000,7.16518505859375,-0.1169675886631012,0.025040868669748306,0.06317445635795593
1726225784887220200,7.17522021484375,-0.24149110913276672,0.049729906022548676,0.3025713860988617
1726225784897256200,7.185256103515625,-0.16963262856006622,-0.00015296600759029388,-0.12464703619480133
1726225784907292200,7.195292236328125,-0.18544772267341614,0.014514220878481865,-0.11097560822963715
1726225784917328100,7.205328125,-0.18228894472122192,-0.015126228332519531,-0.7304002642631531
1726225784927364000,7.215364013671875,-0.17211253941059113,-0.11196024715900421,-0.8846220970153809
1726225784937399000,7.22539892578125,-0.16113418340682983,-0.00445136334747076,0.232707679271698
1726225784947435300,7.235435302734375,-0.3321341276168823,0.06464213877916336,0.4994557499885559
1726225784957471200,7.24547119140625,-0.1870690882205963,-0.09869938343763351,-0.3565675616264343
1726225784967507200,7.255507080078125,-0.24402965605258942,0.0020084816496819258,-0.24805767834186554
1726225784977543200,7.265543212890625,-0.2109377533197403,-0.06646325439214706,0.14494313299655914
1726225784987578000,7.275578125,-0.277640163898468,0.10393209010362625,-0.33673596382141113
1726225784997614000,7.285614013671875,-0.12235017120838165,-0.1084456816315651,-0.5474694967269897
1726225785007650000,7.295650146484375,-0.24096840620040894,-0.08004046231508255,-0.02341848611831665
1726225785017686000,7.30568603515625,-0.2272789627313614,-0.11731352657079697,-0.40482550859451294
1726225785027722200,7.31572216796875,-0.2482452690601349,-0.017669163644313812,0.2318856567144394
1726225785037757200,7.325757080078125,-0.13572537899017334,0.0003090384416282177,0.15349045395851135
1726225785047793200,7.335793212890625,-0.04436394199728966,-0.0012704022228717804,0.16447103023529053
1726225785057829000,7.3458291015625,-0.0401630699634552,0.059366047382354736,0.14785397052764893
1726225785067865000,7.355864990234375,-0.04817822203040123,-0.08627081662416458,-0.07943179458379745
1726225785077901000,7.365901123046875,-0.06898629665374756,0.010790212079882622,0.1900572031736374
1726225785087936300,7.375936279296875,0.0950392335653305,0.056100718677043915,-0.40439373254776
1726225785097972200,7.38597216796875,0.0750516802072525,0.08442343771457672,-0.5193016529083252
1726225785108008200,7.39600830078125,0.1819751262664795,0.015504982322454453,0.0019758110865950584
1726225785118044200,7.406044189453125,0.06550657004117966,-0.013568215072154999,0.06122768297791481
1726225785128080100,7.416080078125,0.08976909518241882,0.06362364441156387,0.1387491673231125
1726225785138115000,7.426114990234375,0.15113364160060883,0.0897950530052185,0.5398603677749634
1726225785148151000,7.436151123046875,0.04414407163858414,-0.08013693243265152,0.48826444149017334
1726225785158187300,7.446187255859375,0.026122726500034332,0.08285412192344666,0.21429762244224548
1726225785168223200,7.45622314453125,0.04030122235417366,0.05235114321112633,-0.8234527707099915
1726225785178259200,7.46625927734375,0.09133964031934738,-0.014487538486719131,-1.0333784818649292
1726225785188294100,7.476294189453125,0.07400551438331604,0.04987334460020065,-0.6875680088996887
1726225785198330000,7.486330078125,0.11194011569023132,-0.09546015411615372,0.10606919229030609
1726225785208366000,7.496365966796875,0.08370455354452133,0.021800003945827484,0.2058989256620407
1726225785218402000,7.506402099609375,0.18082818388938904,0.00925971008837223,0.37309136986732483
1726225785228438000,7.51643798828125,0.044511325657367706,-0.13166432082653046,0.8292425870895386
1726225785238473200,7.52647314453125,0.008324025198817253,-0.16295567154884338,0.8070973753929138
1726225785248509200,7.53650927734375,-0.12230806797742844,-0.10927025228738785,0.28338298201560974
1726225785258545200,7.546545166015625,-0.09291742742061615,0.010620731860399246,-0.148130863904953
1726225785268581000,7.5565810546875,-0.03262905776500702,-0.018052179366350174,0.13667477667331696
1726225785278617000,7.5666171875,-0.11640917509794235,-0.05833674967288971,-0.10831554234027863
1726225785288652300,7.57665234375,-0.0015253184828907251,-0.09957581013441086,-0.31694188714027405
1726225785298688300,7.586688232421875,-0.1490495353937149,-0.03971114754676819,-0.1572808474302292
1726225785308724200,7.59672412109375,-0.03662685304880142,-0.1364872008562088,0.5354392528533936
1726225785318760200,7.60676025390625,-0.1129988506436348,-0.09230749309062958,0.4738784432411194
1726225785328796200,7.616796142578125,-0.1061122789978981,-0.12576349079608917,0.29912272095680237
1726225785338831000,7.6268310546875,-0.11062101274728775,-0.03744855150580406,0.06929083168506622
1726225785348867000,7.6368671875,-0.1051747128367424,-0.08674000203609467,-0.29061540961265564
1726225785358903300,7.6469033203125,-0.07443650811910629,-0.07345828413963318,-0.24532859027385712
1726225785368939300,7.656939208984375,-0.018877774477005005,-0.12896518409252167,0.3470918536186218
1726225785378975200,7.666975341796875,-0.16775032877922058,-0.0099871214479208,0.03833988681435585
1726225785389010200,7.67701025390625,-0.09238523989915848,-0.013749761506915092,-0.08924055099487305
1726225785399046100,7.687046142578125,-0.0774475634098053,0.06943780183792114,0.40508127212524414
1726225785409082000,7.69708203125,-0.02974282205104828,-0.022858982905745506,0.4709005653858185
1726225785419118300,7.707118408203125,0.03859016299247742,-0.0031571839936077595,-0.0547938346862793
1726225785429154300,7.717154296875,0.048732541501522064,-0.08828219026327133,-0.3679426908493042
1726225785439189500,7.727189453125,0.00528306607156992,-0.0855010524392128,0.01790752075612545
1726225785449225500,7.7372255859375,0.03250900283455849,0.08379708230495453,-0.048126984387636185
1726225785459261400,7.747261474609375,0.08211437612771988,0.0387507826089859,-0.3947025239467621
1726225785469297400,7.75729736328125,0.008469071239233017,0.16510848701000214,0.0009707650169730186
1726225785479333400,7.76733349609375,0.1413022130727768,0.102385975420475,0.39906540513038635
1726225785489368300,7.777368408203125,0.09172581881284714,0.05203975737094879,0.6050456166267395
1726225785499404500,7.787404541015625,0.1019105464220047,0.1032872349023819,0.42038494348526
1726225785509440500,7.7974404296875,0.2320127636194229,0.0020838987547904253,-0.10544653981924057
1726225785519476500,7.8074765625,0.05281851813197136,0.08348741382360458,0.06609512120485306
1726225785529512400,7.817512451171875,0.06694243103265762,0.022433966398239136,0.06848251819610596
1726225785539547400,7.82754736328125,-0.030889861285686493,0.07507000863552094,-0.5609398484230042
1726225785549583400,7.837583251953125,-0.0033419067040085793,-0.007894017733633518,-0.5950366258621216
1726225785559619300,7.847619384765625,0.016030460596084595,0.14365263283252716,-0.11510782688856125
1726225785569655300,7.8576552734375,0.0782555416226387,0.12855321168899536,0.6206029653549194
1726225785579691500,7.86769140625,0.052915558218955994,0.0664387121796608,0.34383633732795715
1726225785589726500,7.8777265625,-0.036161139607429504,0.153436079621315,0.20221255719661713
1726225785599762400,7.887762451171875,0.10917901247739792,0.18131405115127563,0.0040070535615086555
1726225785609798400,7.89779833984375,0.05541887879371643,0.06185363605618477,0.12041839957237244
1726225785619834400,7.90783447265625,0.029572635889053345,0.05518721416592598,-0.413519024848938
1726225785629870300,7.917870361328125,0.09681688994169235,0.12601271271705627,-0.6113107204437256
1726225785639905500,7.927905517578125,0.013132642023265362,0.07419399172067642,-0.22008728981018066
1726225785649941500,7.93794140625,0.057044096291065216,0.16272799670696259,0.302874892950058
1726225785659977500,7.9479775390625,0.09824985265731812,0.16947297751903534,-0.20827224850654602
1726225785670013400,7.958013427734375,0.019338585436344147,0.22889792919158936,0.22749271988868713
1726225785680049400,7.96804931640625,0.0876246988773346,0.18582768738269806,0.3572691082954407
1726225785690084400,7.97808447265625,0.11612161248922348,0.04724092781543732,-0.12271865457296371
1726225785700120600,7.98812060546875,0.09881746023893356,0.016556518152356148,-0.6362027525901794
1726225785710156500,7.998156494140625,0.1159239187836647,0.12026898562908173,-0.47832584381103516
1726225785720192500,8.008192626953125,0.06444394588470459,0.13621386885643005,0.035164088010787964
1726225785730228500,8.018228515625,0.12509626150131226,0.24519170820713043,0.06308157742023468
1726225785740263400,8.028263427734375,0.21191105246543884,0.029705766588449478,-0.5590565800666809
1726225785750299400,8.03829931640625,0.07027617841959,0.12084068357944489,-0.5174994468688965
1726225785760335400,8.04833544921875,0.13072194159030914,0.21136072278022766,0.2781742513179779
1726225785770371300,8.058371337890625,0.05052955448627472,0.1482279896736145,0.3937596380710602
1726225785780407600,8.068407470703125,0.07075892388820648,0.11825891584157944,0.508432924747467
1726225785790443500,8.078443603515625,-0.04967828094959259,0.1851588636636734,-0.05753300338983536
1726225785800478500,8.088478515625,-0.01838693395256996,0.13348181545734406,0.022749848663806915
1726225785810514400,8.098514404296875,-0.13593967258930206,0.06879398226737976,0.14973832666873932
1726225785820550400,8.10855029296875,-0.17340023815631866,0.07667400687932968,-0.765758216381073
1726225785830586400,8.11858642578125,-0.15115554630756378,0.026294738054275513,-1.2372959852218628
1726225785840622300,8.128622314453125,-0.15178032219409943,0.24252955615520477,-0.11233863979578018
1726225785850657500,8.138657470703125,0.06738904118537903,-0.055364955216646194,0.807425856590271
1726225785860693500,8.148693603515625,-0.23826062679290771,0.07683674991130829,0.6574768424034119
1726225785870729500,8.1587294921875,-0.10154377669095993,0.012056668289005756,-0.037064384669065475
1726225785880765400,8.168765380859375,-0.19528572261333466,0.03459952771663666,0.1626947969198227
1726225785890801400,8.178801513671875,-0.226497620344162,0.1070302203297615,-0.10805708169937134
1726225785900836400,8.18883642578125,-0.2620449662208557,0.10505814850330353,-0.3442336618900299
1726225785910872600,8.19887255859375,-0.1997370421886444,0.05229833349585533,-0.23474939167499542
1726225785920908500,8.208908447265625,-0.07927053421735764,-0.0117336455732584,0.06740566343069077
1726225785930944500,8.218944580078125,-0.11454222351312637,-0.0926210880279541,0.19005443155765533
1726225785940980500,8.22898046875,-0.1271778643131256,-0.10886611044406891,0.18836358189582825
1726225785951015400,8.239015380859374,-0.09521356225013733,0.06452789157629013,0.27211663126945496
1726225785961051400,8.249051513671875,-0.041438210755586624,0.011552026495337486,-0.37208178639411926
1726225785971087400,8.25908740234375,-0.09764821827411652,-0.008526146411895752,0.16056811809539795
1726225785981123300,8.269123291015624,0.06902332603931427,0.04508674889802933,0.15413738787174225
1726225785991159600,8.27915966796875,0.05106183886528015,0.05411284416913986,-0.623516857624054
1726225786001194500,8.289194580078124,0.11336888372898102,-0.07300595939159393,-0.43736934661865234
1726225786011230500,8.29923046875,0.029887638986110687,0.15782155096530914,0.3854108452796936
1726225786021266400,8.309266357421874,0.035100776702165604,0.2605271637439728,0.3364611268043518
1726225786031302400,8.319302490234374,0.22889617085456848,0.013182483613491058,0.04671825096011162
1726225786041338400,8.32933837890625,0.1057358831167221,0.12147460132837296,-0.01566949486732483
1726225786051373600,8.33937353515625,0.25364118814468384,0.11584492772817612,0.2661997973918915
1726225786061409500,8.349409423828124,0.18434759974479675,0.04813911393284798,0.42685869336128235
1726225786071445500,8.359445556640624,0.10654477030038834,0.09716109186410904,0.1154571995139122
1726225786081481500,8.3694814453125,0.1841045469045639,0.011263757944107056,-0.09691471606492996
1726225786091517400,8.379517333984374,-0.0004399111494421959,0.14560645818710327,0.10577884316444397
1726225786101552400,8.389552490234376,0.20147724449634552,0.16200381517410278,-0.09203117340803146
1726225786111588400,8.39958837890625,0.1191178411245346,0.0695328488945961,0.2916211485862732
1726225786121624600,8.40962451171875,0.08813010156154633,-0.01699564978480339,0.11165245622396469
1726225786131660500,8.41966064453125,0.2521541714668274,-0.019432103261351585,-0.46934446692466736
1726225786141696500,8.429696533203124,0.07438523322343826,0.01219266839325428,0.1882544457912445
1726225786151731500,8.4397314453125,0.09500449150800705,-0.017319396138191223,0.5918524861335754
1726225786161767400,8.449767333984376,-0.05801035091280937,0.1914748251438141,-0.36575847864151
1726225786171803400,8.459803466796876,0.06559495627880096,-0.002920817583799362,-0.6581652164459229
1726225786181839400,8.46983935546875,-0.07163481414318085,0.03030877374112606,0.2532742917537689
1726225786191875600,8.47987548828125,-0.1649526059627533,-0.009041896089911461,0.45191189646720886
1726225786201911600,8.48991162109375,-0.11148351430892944,-0.013590576127171516,0.3731294572353363
1726225786211946500,8.499946533203126,-0.22289180755615234,-0.014371147379279137,-0.2948869466781616
1726225786221982500,8.509982421875,-0.21181544661521912,-0.06204013153910637,-0.23008506000041962
1726225786232018400,8.520018310546876,-0.22697797417640686,-0.11236457526683807,0.05536990240216255
1726225786242054400,8.530054443359376,-0.24969899654388428,-0.17095279693603516,-0.05403035879135132
1726225786252090400,8.54009033203125,-0.21636413037776947,-0.15698795020580292,0.018804125487804413
1726225786262125600,8.55012548828125,-0.2387019246816635,-0.1964096575975418,0.03190980851650238
1726225786272161500,8.56016162109375,-0.4183088541030884,-0.17894378304481506,0.11598565429449081
1726225786282197500,8.570197509765626,-0.34528419375419617,-0.25845882296562195,0.05922064185142517
1726225786292233500,8.5802333984375,-0.4069919288158417,-0.18201325833797455,-0.005679958499968052
1726225786302269400,8.59026953125,-0.3385936915874481,-0.16664734482765198,-0.8006918430328369
1726225786312304400,8.600304443359375,-0.306751549243927,-0.37647131085395813,-0.21278250217437744
1726225786322340600,8.610340576171875,-0.4314250349998474,-0.2475823163986206,0.3525554835796356
1726225786332376600,8.62037646484375,-0.2094707190990448,-0.2594420611858368,-0.13138048350811005
1726225786342412500,8.63041259765625,-0.29978010058403015,-0.22314904630184174,0.04854108393192291
1726225786352448500,8.640448486328125,-0.30172988772392273,-0.29386696219444275,0.3436373174190521
1726225786362483500,8.6504833984375,-0.22227340936660767,-0.2883278727531433,0.33058491349220276
1726225786372519400,8.66051953125,-0.2480415254831314,-0.21167245507240295,-0.20265887677669525
1726225786382555400,8.670555419921875,-0.10538104176521301,-0.26615673303604126,-0.52674400806427
1726225786392591400,8.68059130859375,-0.2258286327123642,-0.12840232253074646,0.043044086545705795
1726225786402627600,8.690627685546875,-0.006625712849199772,-0.12211193889379501,-0.049325257539749146
1726225786412664000,8.7006640625,-0.08908277750015259,-0.08433682471513748,-0.4392395317554474
1726225786422698800,8.71069873046875,0.03378348797559738,-0.03569232299923897,0.25784528255462646
1726225786432734700,8.720734619140625,0.0670223981142044,-0.06869927048683167,0.47382229566574097
1726225786442770700,8.730770751953125,0.049688685685396194,-0.1069587767124176,0.1248030811548233
1726225786452806700,8.740806640625,0.17542468011379242,-0.0364181250333786,0.3039677143096924
1726225786462843000,8.7508427734375,0.0700489953160286,0.036194026470184326,0.3990422785282135
1726225786472877800,8.7608779296875,0.17530448734760284,0.08074008673429489,-0.4209977984428406
1726225786482913800,8.770913818359375,0.19064801931381226,-0.033164650201797485,-0.3900763690471649
1726225786492949800,8.78094970703125,0.1500789374113083,0.08502904325723648,-0.03823592886328697
1726225786502985700,8.79098583984375,0.27944493293762207,-0.010846616700291634,0.22341404855251312
1726225786513022000,8.80102197265625,0.1695154905319214,0.047814562916755676,-0.016482695937156677
1726225786523056600,8.811056640625,0.1980009227991104,-0.022031625732779503,0.042562246322631836
1726225786533092900,8.8210927734375,0.15165117383003235,0.16049253940582275,0.43713322281837463
1726225786543128800,8.83112890625,0.14061103761196136,0.11773122847080231,0.28882071375846863
1726225786553164800,8.841164794921875,0.11871816217899323,0.1791040003299713,-0.36397698521614075
1726225786563200800,8.85120068359375,0.2475283443927765,0.125906303524971,-0.9867785573005676
1726225786573235700,8.861235595703125,0.14646849036216736,-0.025454586371779442,-0.5192108154296875
1726225786583271700,8.871271728515625,0.08440112322568893,0.10067431628704071,0.42907294631004333
1726225786593307600,8.8813076171875,0.23386047780513763,0.1499844193458557,0.5212421417236328
1726225786603343600,8.891343505859375,0.16155964136123657,0.020062100142240524,0.11216967552900314
1726225786613379800,8.9013798828125,0.12389739602804184,-0.0030467617325484753,-0.00423799455165863
1726225786623416000,8.911416015625,0.027245691046118736,0.20412185788154602,0.4886910021305084
1726225786633450800,8.92145068359375,0.04186449199914932,-0.08008191734552383,-0.5804727673530579
1726225786643486700,8.93148681640625,-0.0007356991991400719,-0.038389064371585846,-0.9868820309638977
1726225786653522700,8.941522705078125,0.082484170794487,0.12720556557178497,-0.389670729637146
1726225786663558700,8.95155859375,0.054614197462797165,0.08068093657493591,0.41786840558052063
1726225786673594600,8.9615947265625,0.033371493220329285,0.08026494085788727,0.10093016922473907
1726225786683629800,8.9716298828125,0.04586171731352806,0.08238375186920166,0.17510400712490082
1726225786693665800,8.981665771484375,-0.10202360898256302,0.18940956890583038,0.7444643378257751
1726225786703701800,8.99170166015625,0.02835063822567463,0.03112832084298134,0.14873702824115753
1726225786713737700,9.00173779296875,-0.1552840918302536,0.1061544194817543,-0.5149585008621216
1726225786723773700,9.011773681640625,0.01785014569759369,-0.028493938967585564,-0.25801992416381836
1726225786733808600,9.02180859375,-0.11409944295883179,0.05679578706622124,0.27760595083236694
1726225786743844900,9.031844970703125,-0.09461629390716553,0.04278969019651413,-0.47234979271888733
1726225786753880800,9.041880859375,-0.025857122614979744,-0.0669017806649208,-0.40603095293045044
1726225786763916800,9.051916748046875,-0.14622081816196442,0.06978948414325714,0.15351729094982147
1726225786773952800,9.061952880859375,-0.04718806594610214,0.1819460541009903,0.5966634154319763
1726225786783988700,9.07198876953125,-0.020975369960069656,0.03918304294347763,-0.002064972650259733
1726225786794023700,9.082023681640624,-0.01694067195057869,0.03242184594273567,-0.8906101584434509
1726225786804059600,9.0920595703125,0.030866267159581184,-0.05377322807908058,-0.5112534761428833
1726225786814095600,9.102095703125,0.0157616063952446,0.021273259073495865,0.6929482221603394
1726225786824131800,9.1121318359375,-0.03669334575533867,-0.09824115037918091,0.172868013381958
1726225786834167800,9.122167724609374,-0.14207036793231964,0.07870063185691833,-0.3797486424446106
1726225786844202800,9.13220263671875,-0.011118742637336254,-0.015406157821416855,-0.31546100974082947
1726225786854238700,9.14223876953125,-0.06918808072805405,0.18377675116062164,0.7155293226242065
1726225786864274700,9.152274658203124,-0.051000021398067474,0.08152546733617783,0.9417405724525452
1726225786874310700,9.162310546875,-0.12787188589572906,0.07676103711128235,0.03522352874279022
1726225786884346600,9.1723466796875,-0.05599450692534447,0.0029933443292975426,-0.5315192341804504
1726225786894381800,9.1823818359375,-0.0897376611828804,-0.048381708562374115,0.34875592589378357
1726225786904417800,9.192417724609374,-0.021402806043624878,-0.1473570168018341,-0.11742376536130905
1726225786914453800,9.202453857421874,-0.062444426119327545,-0.16933757066726685,-0.9217338562011719
1726225786924489700,9.21248974609375,-0.04701992869377136,-0.03900459036231041,-0.5855952501296997
1726225786934525700,9.222525634765624,0.002458760514855385,0.028322286903858185,0.5025014877319336
1726225786944561700,9.232561767578124,0.006096638273447752,0.0065592024475336075,1.1864601373672485
1726225786954596900,9.242596923828126,0.07306147366762161,0.13662129640579224,0.9230029582977295
1726225786964632800,9.2526328125,0.006812678650021553,0.00833975337445736,0.30570751428604126
1726225786974668800,9.262668701171876,0.0500408373773098,0.08282755315303802,0.13758063316345215
1726225786984704800,9.272704833984376,0.016565704718232155,0.04450039938092232,-0.40639930963516235
1726225786994740700,9.28274072265625,0.07806004583835602,0.06905987858772278,-1.0059843063354492
1726225787004775700,9.292775634765626,0.0143500417470932,0.023372549563646317,-0.32481592893600464
1726225787014811600,9.302811767578126,0.17519229650497437,-0.056755680590867996,0.4222496449947357
1726225787024848000,9.312847900390626,-0.11606831103563309,-0.02813788317143917,0.00472963135689497
1726225787034883800,9.3228837890625,0.23889073729515076,-0.1169254258275032,-0.2889796495437622
1726225787044919800,9.332919921875,0.009904160164296627,0.12373644858598709,0.4029404819011688
1726225787054955800,9.342955810546876,0.06140516698360443,0.08843253552913666,0.8960446715354919
1726225787064990700,9.35299072265625,0.09017849713563919,0.20458579063415527,0.16333609819412231
1726225787075026700,9.363026611328126,0.11900951713323593,0.3028962314128876,-0.512704074382782
1726225787085062700,9.373062744140626,0.15214484930038452,0.12602902948856354,0.08821529895067215
1726225787095098600,9.3830986328125,0.04928983002901077,0.18173177540302277,0.5100215077400208
1726225787105134800,9.393134765625,0.2509230971336365,-0.17590731382369995,-0.6108388304710388
1726225787115169800,9.403169677734375,0.14724062383174896,0.026819108054041862,-0.5070523619651794
1726225787125205800,9.413205810546875,0.23399922251701355,-0.045438844710588455,0.1641196310520172
1726225787135241700,9.42324169921875,-0.04693657159805298,0.043954648077487946,0.3783438503742218
1726225787145277700,9.433277587890625,0.04036824032664299,0.0838456079363823,-0.4228021204471588
1726225787155313700,9.443313720703125,-0.0371241569519043,0.07256823778152466,-1.2542840242385864
1726225787165348900,9.453348876953125,-0.08128096163272858,0.10674271732568741,-0.22159002721309662
1726225787175384800,9.463384765625,-0.12222448736429214,0.16905395686626434,0.8166226744651794
1726225787185420800,9.4734208984375,-0.005609194748103619,-0.07102042436599731,0.07175516337156296
1726225787195456800,9.483456787109375,0.008942315354943275,-0.15780942142009735,-0.45441535115242004
1726225787205492700,9.49349267578125,-0.0014237728901207447,-0.24285639822483063,-0.06425346434116364
1726225787215528700,9.50352880859375,-0.018200356513261795,-0.08943911641836166,0.426175057888031
1726225787225563600,9.513563720703125,-0.00956638716161251,-0.1852165013551712,-0.137640118598938
1726225787235600000,9.523599853515625,-0.031819406896829605,-0.17461629211902618,-0.1388404816389084
1726225787245635800,9.5336357421875,-0.09332671016454697,-0.19441449642181396,-0.08923911303281784
1726225787255671800,9.543671875,-0.2214154452085495,-0.09486203640699387,-0.016695473343133926
1726225787265707800,9.553707763671875,-0.10015265643596649,-0.10570722818374634,-0.21617741882801056
1726225787275742700,9.56374267578125,-0.21382133662700653,-0.21107086539268494,-0.5846189260482788
1726225787285778700,9.57377880859375,-0.11864235997200012,-0.1351444125175476,-0.10508432984352112
1726225787295814700,9.583814697265625,-0.2161232978105545,-0.10177994519472122,0.547437846660614
1726225787305850600,9.5938505859375,-0.22446592152118683,-0.263406366109848,0.6224425435066223
1726225787315886800,9.603886962890625,-0.19986389577388763,-0.10758404433727264,0.8493106365203857
1726225787325922800,9.6139228515625,-0.16060304641723633,-0.2919168472290039,-0.05690901726484299
1726225787335957800,9.623957763671875,-0.12475644797086716,-0.11304066330194473,-0.6153764128684998
1726225787345993700,9.63399365234375,-0.03252505511045456,-0.2308163046836853,0.03753159940242767
1726225787356029700,9.64402978515625,-0.17141512036323547,-0.10200116783380508,0.058238685131073
1726225787366065700,9.654065673828125,-0.0243335273116827,-0.19176168739795685,0.04687684401869774
1726225787376101600,9.6641015625,-0.12408808618783951,-0.19641156494617462,0.03010428138077259
1726225787386136800,9.67413671875,-0.09665139764547348,-0.1690228134393692,0.5956182479858398
1726225787396172800,9.6841728515625,-0.1396782398223877,0.06481977552175522,0.8449140787124634
1726225787406208800,9.694208740234375,-0.0018122398760169744,-0.10659858584403992,-0.4592326879501343
1726225787416243700,9.70424365234375,-0.007313442416489124,0.016831014305353165,-0.47520965337753296
1726225787426279700,9.71427978515625,0.014654973521828651,-0.1848006397485733,0.22173932194709778
1726225787436315000,9.72431494140625,-0.09889998286962509,-0.011819373816251755,0.7069115042686462
1726225787446350800,9.734350830078125,0.030749091878533363,-0.02749314345419407,-0.5402870178222656
1726225787456386800,9.74438671875,0.13402007520198822,-0.183017760515213,-1.2524200677871704
1726225787466422800,9.7544228515625,0.12149123847484589,0.10377299785614014,-0.3015873432159424
1726225787476458800,9.764458740234375,0.16323204338550568,-0.01282576285302639,1.1372207403182983
1726225787486494700,9.77449462890625,0.22409459948539734,-0.0893317237496376,0.4431684613227844
1726225787496530000,9.784530029296874,0.2302829772233963,0.04998275637626648,-0.3045576810836792
1726225787506566000,9.79456591796875,0.27418145537376404,-0.10076414048671722,-0.07905824482440948
1726225787516601900,9.804601806640624,0.08617514371871948,-0.036945465952157974,0.9431780576705933
1726225787526637800,9.814637939453124,0.06363308429718018,0.13839411735534668,0.5054537057876587
1726225787536673800,9.824673828125,0.22474366426467896,0.03933517634868622,-1.0781440734863281
1726225787546708700,9.834708740234374,0.13174767792224884,-0.09514966607093811,-1.2788915634155273
1726225787556744700,9.84474462890625,0.1284317821264267,0.17537854611873627,0.5311587452888489
1726225787566781000,9.854781005859374,0.08848889917135239,-0.012560469098389149,0.8629207015037537
1726225787576817000,9.86481689453125,0.3048394024372101,-0.0981820598244667,-0.2805652320384979
1726225787586852900,9.874852783203124,0.22897472977638245,-0.06067409738898277,-0.44512489438056946
1726225787596888800,9.884888916015624,0.1627739518880844,-0.06303705275058746,0.732094943523407
1726225787606923800,9.894923828125,0.07986655831336975,0.14311185479164124,0.8959206342697144
1726225787616959700,9.904959716796874,0.11725202202796936,0.12814544141292572,-0.6342563629150391
1726225787626995700,9.91499560546875,0.12094210088253021,0.09524475038051605,-1.308271050453186
1726225787637031700,9.92503173828125,-0.01095424685627222,0.13521815836429596,-0.5567829012870789
1726225787647068000,9.93506787109375,0.03142410144209862,-0.023319024592638016,-0.23285730183124542
1726225787657102800,9.945102783203126,0.08437342941761017,0.039118364453315735,-0.06413804739713669
1726225787667138800,9.955138916015626,0.2211986631155014,0.10848759114742279,0.7206366658210754
1726225787677174800,9.9651748046875,0.0884028747677803,0.11174891889095306,0.7498347163200378
1726225787687210800,9.975210693359376,-0.13098274171352386,0.0990094244480133,-0.3550247550010681
1726225787697246700,9.985246826171876,-0.09281377494335175,0.27251681685447693,-0.32059553265571594
1726225787707282700,9.99528271484375,0.007164484355598688,0.14553409814834595,0.06828188896179199
1726225787717318000,10.00531787109375,0.04848111420869827,0.00734832976013422,-0.32865414023399353
1726225787727353900,10.015353759765626,0.12833014130592346,-0.0611732080578804,-0.30703404545783997
1726225787737389800,10.025389892578126,0.0066228811629116535,0.01767420396208763,0.1512935906648636
1726225787747425800,10.03542578125,0.010288989171385765,0.07378514111042023,0.19631725549697876
1726225787757461800,10.045461669921876,-0.06485050171613693,0.1407460719347,0.4758482277393341
1726225787767496700,10.05549658203125,-0.07207006961107254,0.04310073330998421,0.03696541115641594
1726225787777533000,10.065532958984376,-0.12483961135149002,0.033115170896053314,-0.45880383253097534
1726225787787569000,10.07556884765625,-0.061334140598773956,-0.10001252591609955,-0.39864036440849304
1726225787797604900,10.08560498046875,-0.011127764359116554,-0.0039417073130607605,-0.20374885201454163
1726225787807640800,10.095640869140626,0.02945534512400627,-0.1484070122241974,-0.1906610131263733
1726225787817676800,10.1056767578125,-0.05350996553897858,-0.031930111348629,-0.15342101454734802
1726225787827711700,10.115711669921875,0.13270410895347595,-0.0005713896825909615,0.3020058870315552
1726225787837747700,10.125747802734375,-0.002244361210614443,-0.014270354993641376,0.7539265155792236
1726225787847783700,10.13578369140625,0.04419504106044769,0.034393057227134705,0.22375799715518951
1726225787857820000,10.14581982421875,-0.052760109305381775,0.06000341475009918,-0.8912168145179749
1726225787867856000,10.15585595703125,0.022178582847118378,-0.11608079820871353,-0.9522860050201416
1726225787877891800,10.165891845703126,0.05313330143690109,0.19740843772888184,0.16161862015724182
1726225787887926800,10.1759267578125,0.03993067890405655,-0.050321195274591446,0.9632284641265869
1726225787897962800,10.185962646484375,0.033786412328481674,-0.03815755248069763,-0.18446700274944305
1726225787907998700,10.195998779296875,0.05315291881561279,0.09433204680681229,-0.7018963098526001
1726225787918034700,10.20603466796875,0.1162743791937828,0.15683647990226746,0.20245951414108276
1726225787928070700,10.216070556640625,-0.008846523240208626,0.1183524802327156,0.8273958563804626
1726225787938105900,10.22610595703125,0.06365270912647247,0.027802329510450363,0.2690151333808899
1726225787948141800,10.236141845703125,-0.006369786337018013,0.0222975742071867,-0.06584832817316055
1726225787958177800,10.246177734375,-0.05013669654726982,0.07574325054883957,0.22738930583000183
1726225787968213800,10.2562138671875,-0.05500069260597229,0.04892095550894737,-0.4437648355960846
1726225787978249700,10.266249755859375,-0.04461443051695824,-0.1742975413799286,-1.0379176139831543
1726225787988285700,10.27628564453125,0.03277197107672691,0.11899825185537338,-0.36331045627593994
1726225787998321000,10.28632080078125,0.15543748438358307,0.10492134839296341,0.6526117920875549
1726225788008356900,10.29635693359375,0.02626006305217743,0.04589291289448738,0.9076856374740601
1726225788018392800,10.306392822265625,0.09293824434280396,-0.010909872129559517,0.0810939371585846
1726225788028428800,10.3164287109375,0.14360646903514862,0.08377774804830551,-0.28393250703811646
1726225788038464800,10.32646484375,-0.003030808176845312,0.13998068869113922,0.2868516147136688
1726225788048500700,10.336500732421875,0.1412336826324463,0.11518266797065735,-0.3676561713218689
1726225788058536000,10.346535888671875,0.06698937714099884,-0.09869252145290375,-0.6344249248504639
1726225788068572000,10.356572021484375,0.11967415362596512,0.08475667238235474,-0.028107281774282455
1726225788078608000,10.36660791015625,0.20370949804782867,0.1094014123082161,0.17119012773036957
1726225788088643800,10.376643798828125,0.16162356734275818,0.03492185100913048,0.4574922025203705
1726225788098679800,10.3866796875,0.25088849663734436,0.003059044247493148,0.2753767669200897
1726225788108714800,10.39671484375,0.15208016335964203,0.15738683938980103,-0.20056819915771484
1726225788118750700,10.406750732421875,0.23356673121452332,0.1246514692902565,0.247889444231987
1726225788128786700,10.41678662109375,0.1610690951347351,0.05901466682553291,0.358899861574173
1726225788138823000,10.426822998046875,0.14546050131320953,0.02821701020002365,-0.7632770538330078
1726225788148859000,10.43685888671875,0.2672942578792572,0.13515730202198029,-0.9932851791381836
1726225788158894800,10.446894775390625,0.18229156732559204,0.04427194967865944,0.06336455792188644
1726225788168929800,10.4569296875,0.16711954772472382,0.011987513862550259,0.6936570405960083
1726225788178965800,10.4669658203125,0.1488111913204193,0.011914359405636787,0.15393264591693878
1726225788189001700,10.477001708984375,0.20648619532585144,0.04052123799920082,-0.3034961521625519
1726225788199037700,10.48703759765625,0.27528640627861023,0.044421277940273285,-0.2604144513607025
1726225788209073700,10.49707373046875,0.29525771737098694,0.07459329813718796,0.4840170741081238
1726225788219108900,10.50710888671875,0.09934226423501968,0.056663546711206436,0.4861370623111725
1726225788229144800,10.517144775390625,0.04331468045711517,0.03472309187054634,-0.2633523643016815
1726225788239180800,10.527180908203125,0.04094170778989792,0.13747994601726532,-0.05768144130706787
1726225788249216800,10.537216796875,0.136792853474617,0.06435860693454742,0.4422154426574707
1726225788259252700,10.547252685546875,-0.031139470636844635,0.006877467967569828,0.050999660044908524
1726225788269288700,10.557288818359375,0.10535392165184021,-0.024216534569859505,-0.4014122784137726
1726225788279324000,10.567323974609375,0.13274557888507843,0.09073666483163834,0.14392168819904327
1726225788289360000,10.57735986328125,0.08088159561157227,-0.20037640631198883,0.9089024662971497
1726225788299395800,10.587395751953125,0.10988935828208923,-0.1288190633058548,0.15830133855342865
1726225788309431800,10.597431884765625,-0.029662683606147766,0.045466985553503036,-0.42652004957199097
1726225788319467800,10.6074677734375,0.07649455964565277,0.01754017546772957,-0.37393516302108765
1726225788329503700,10.617503662109375,0.027522483840584755,0.005683782510459423,0.3725384771823883
1726225788339538700,10.62753857421875,-0.08845152705907822,-0.0015517803840339184,0.07782674580812454
1726225788349575000,10.637574951171874,0.08604331314563751,-0.016275066882371902,-0.32704776525497437
1726225788359611000,10.64761083984375,0.03251441940665245,-0.02911374717950821,0.21264062821865082
1726225788369646800,10.657646728515624,-0.03742045909166336,-0.19246219098567963,0.6989785432815552
1726225788379682800,10.667682861328124,0.02120600827038288,0.113627590239048,0.021336950361728668
1726225788389717800,10.6777177734375,0.06313375383615494,0.18904060125350952,-0.08881592005491257
1726225788399753700,10.687753662109374,0.14712266623973846,0.028463425114750862,-0.12164764106273651
1726225788409789700,10.697789794921874,0.09157871454954147,-0.01601535826921463,-0.0661657378077507
1726225788419826000,10.707825927734374,0.19109472632408142,0.016881411895155907,-0.47807806730270386
1726225788429862000,10.71786181640625,0.22529743611812592,0.1294654756784439,-0.31069517135620117
1726225788439897900,10.72789794921875,0.3067421615123749,0.22733713686466217,0.25095728039741516
1726225788449932800,10.737932861328124,0.2668378949165344,0.013304740190505981,0.5019527673721313
1726225788459968800,10.74796875,0.2560074031352997,0.2643231749534607,0.1837291270494461
1726225788470004700,10.758004638671874,0.2498278170824051,0.40807607769966125,0.29049578309059143
1726225788480040700,10.768040771484374,0.3114970624446869,0.31935957074165344,-0.3551125228404999
1726225788490076700,10.77807666015625,0.29805368185043335,0.28492194414138794,-0.03672311455011368
1726225788500113000,10.78811279296875,0.3615849018096924,0.18587836623191833,-0.04694470763206482
1726225788510147800,10.79814794921875,0.2622503340244293,0.26401710510253906,-1.1252790689468384
1726225788520183800,10.808183837890626,0.24183373153209686,0.18728718161582947,-0.7748782634735107
1726225788530219800,10.8182197265625,0.23755376040935516,0.29692259430885315,0.18573647737503052
1726225788540255700,10.828255859375,0.25843384861946106,0.27649492025375366,0.5864706039428711
1726225788550291700,10.838291748046874,0.21030575037002563,0.4494667053222656,0.9138377904891968
1726225788560327000,10.848326904296876,0.1871495097875595,0.22332538664340973,-0.07715669274330139
1726225788570363000,10.85836279296875,0.07422350347042084,0.1151653602719307,-0.8194896578788757
1726225788580398800,10.86839892578125,0.032131657004356384,-0.007240465376526117,0.022119466215372086
1726225788590434800,10.878434814453126,-0.13551300764083862,0.08238130062818527,-0.026578299701213837
1726225788600470800,10.888470703125,-0.13927830755710602,-0.034509267657995224,-0.5435810089111328
1726225788610506800,10.8985068359375,-0.40853559970855713,-0.043725136667490005,0.3768758773803711
1726225788620541700,10.908541748046876,-0.5143463611602783,0.18577450513839722,0.33467721939086914
1726225788630578000,10.918577880859376,-0.4291675388813019,0.04385758191347122,0.3559015393257141
1726225788640614000,10.92861376953125,-0.5643347501754761,0.031901225447654724,0.37793487310409546
1726225788650649900,10.93864990234375,-0.4060487151145935,-0.2105974406003952,0.011251944117248058
1726225788660685800,10.948685791015626,-0.5626947283744812,-0.27879905700683594,-0.009398858062922955
1726225788670721800,10.9587216796875,-0.6742904782295227,-0.27838706970214844,0.1101379245519638
1726225788680756700,10.9687568359375,-0.6584393382072449,-0.169617161154747,-0.4874243140220642
1726225788690792700,10.978792724609375,-0.6643741726875305,-0.16603760421276093,-0.3483103811740875
1726225788700828700,10.98882861328125,-0.6559658646583557,-0.17834044992923737,-0.07862114906311035
1726225788710865000,10.998864990234376,-0.6661458015441895,-0.1719169020652771,0.13382160663604736
1726225788720900900,11.00890087890625,-0.5418540835380554,-0.17059874534606934,-0.1366136223077774
1726225788730935800,11.018935791015625,-0.4156029224395752,-0.08479436486959457,0.24248762428760529
1726225788740971800,11.0289716796875,-0.3881640136241913,-0.20799343287944794,0.7176651358604431
1726225788751007700,11.0390078125,-0.3553405702114105,-0.09692256897687912,0.20856568217277527
1726225788761043700,11.049043701171875,-0.5065416693687439,0.07791166752576828,-0.41675546765327454
1726225788771079700,11.05907958984375,-0.276130348443985,-0.1263708919286728,-0.06857775896787643
1726225788781115600,11.06911572265625,-0.2316315770149231,-0.06539462506771088,0.30446290969848633
1726225788791150800,11.07915087890625,-0.18180036544799805,-0.2825314700603485,-0.53377765417099
1726225788801186800,11.089186767578125,-0.06370923668146133,-0.23512409627437592,-0.7641621828079224
1726225788811222800,11.099222900390625,-0.10156900435686111,0.05070845037698746,0.271444708108902
1726225788821258800,11.1092587890625,0.003133099526166916,0.00646449439227581,0.4444381296634674
1726225788831294700,11.119294677734375,-0.051879286766052246,-0.03523048758506775,0.08328048884868622
1726225788841330700,11.12933056640625,0.04677918553352356,0.06696011871099472,-0.07503143697977066
1726225788851366000,11.139365966796875,0.14519257843494415,-0.026334142312407494,0.2034395933151245
1726225788861401900,11.14940185546875,0.08705133199691772,0.02578214555978775,-0.047082290053367615
1726225788871437800,11.159437744140625,0.25089138746261597,0.06658976525068283,-0.5687627792358398
1726225788881473800,11.169473876953125,0.29642894864082336,0.07552085816860199,0.022638890892267227
1726225788891509800,11.179509765625,0.31341034173965454,-0.0037755626253783703,0.5702521800994873
1726225788901545700,11.189545654296875,0.21040105819702148,0.17173199355602264,0.2254835069179535
1726225788911581000,11.199580810546875,0.2353772521018982,0.22272221744060516,-0.22954899072647095
1726225788921617000,11.209616943359375,0.28686991333961487,0.20299552381038666,0.07042679935693741
1726225788931652900,11.21965283203125,0.20486904680728912,0.19613255560398102,0.5101162791252136
1726225788941688800,11.229688720703125,0.23758502304553986,0.2366044819355011,-0.2624305486679077
1726225788951724800,11.239724853515625,0.23665744066238403,-0.06111189350485802,-1.216477632522583
1726225788961760800,11.2497607421875,0.12123415619134903,-0.005364782176911831,-0.32784485816955566
1726225788971795700,11.259795654296875,0.1038261353969574,0.2670457065105438,0.5112080574035645
1726225788981831700,11.269831787109375,0.20066003501415253,0.17585408687591553,-0.032026518136262894
1726225788991868000,11.279867919921875,0.0760459452867508,0.09076022356748581,0.33569422364234924
1726225789001903900,11.28990380859375,0.12675625085830688,0.2587105929851532,0.3785546123981476
1726225789011939800,11.29993994140625,0.08666609972715378,0.13788698613643646,0.11193624138832092
1726225789021974800,11.309974853515625,0.011071795597672462,0.18136873841285706,-0.37279659509658813
1726225789032010800,11.3200107421875,0.15650302171707153,0.1811245232820511,-0.5052308440208435
1726225789042046700,11.330046630859375,0.09178289771080017,0.10747827589511871,-0.17877711355686188
1726225789052082700,11.340082763671875,0.11347194015979767,0.11915437877178192,0.05884076654911041
1726225789062118700,11.35011865234375,0.20756714046001434,0.16609805822372437,-0.1949966847896576
1726225789072155000,11.36015478515625,0.20249569416046143,0.12637300789356232,0.01417410746216774
1726225789082189800,11.37018994140625,0.11938387900590897,0.12293364107608795,0.7047602534294128
1726225789092225800,11.380225830078125,0.13948355615139008,0.19874638319015503,0.25799739360809326
1726225789102261800,11.39026171875,0.18136140704154968,0.2722785770893097,-0.638502836227417
1726225789112297700,11.400297607421875,0.15822120010852814,-0.0008834707550704479,-0.726367175579071
1726225789122333700,11.410333740234375,0.10767140239477158,0.3194481432437897,0.0400698222219944
1726225789132369700,11.42036962890625,0.074428491294384,0.239435076713562,0.682870626449585
1726225789142404900,11.43040478515625,-0.0404234379529953,0.11497045308351517,-0.0768313854932785
1726225789152440800,11.44044091796875,0.07432284951210022,-0.010245252400636673,-0.6582846641540527
1726225789162476800,11.450476806640625,-0.04444100707769394,0.17108066380023956,0.07886065542697906
1726225789172512800,11.4605126953125,0.14942194521427155,-0.08840816468000412,0.7569499611854553
1726225789182548700,11.470548828125,-0.08943981677293777,0.019211309030652046,-0.20024940371513367
1726225789192584700,11.480584716796875,0.026619674637913704,-0.04049383103847504,-0.8163658976554871
1726225789202620000,11.490619873046874,-0.14458268880844116,-0.006261797156184912,-0.7326340675354004
1726225789212655900,11.50065576171875,-0.05666801705956459,0.05519384145736694,0.41949230432510376
1726225789222691800,11.51069189453125,-0.11020722985267639,0.1496685892343521,0.6575607061386108
1726225789232727800,11.520727783203125,-0.1359615921974182,-0.02226881869137287,0.16576674580574036
1726225789242763800,11.530763671875,-0.23942610621452332,-0.008014138787984848,0.12984658777713776
1726225789252798700,11.540798828125,-0.2619282305240631,0.0665128231048584,0.9558643102645874
1726225789262834700,11.550834716796874,-0.29965996742248535,-0.08645711094141006,-0.19028407335281372
1726225789272870700,11.56087060546875,-0.28435876965522766,-0.02613731659948826,-0.686469554901123
1726225789282907000,11.570906982421874,-0.19538968801498413,-0.027498405426740646,-0.09027203917503357
1726225789292942800,11.58094287109375,-0.3058277666568756,-0.12094047665596008,0.8818440437316895
1726225789302978800,11.590978759765624,-0.25458163022994995,-0.024049878120422363,0.3001979887485504
1726225789313013800,11.601013671875,-0.2066391557455063,-0.09004141390323639,-0.2486499547958374
1726225789323049700,11.6110498046875,-0.28903496265411377,-0.11974228918552399,0.242689847946167
1726225789333085700,11.621085693359374,-0.2992822825908661,-0.04237106442451477,-0.010293680243194103
1726225789343121700,11.63112158203125,-0.2982640564441681,-0.09266530722379684,-0.7650728821754456
1726225789353157600,11.64115771484375,-0.32249322533607483,-0.14674638211727142,-0.29516687989234924
1726225789363193900,11.65119384765625,-0.2968643605709076,-0.0738338977098465,0.48581695556640625
1726225789373228800,11.661228759765624,-0.33050087094306946,-0.1139506921172142,0.03260551393032074
1726225789383264800,11.6712646484375,-0.2889516055583954,-0.1358797401189804,-0.026173245161771774
1726225789393300700,11.68130078125,-0.3634149134159088,-0.24203254282474518,0.1399049311876297
1726225789403336700,11.691336669921874,-0.42255011200904846,-0.3211219608783722,0.07363379001617432
1726225789413372700,11.70137255859375,-0.39586707949638367,-0.24286231398582458,0.25680041313171387
1726225789423409000,11.711408935546874,-0.41193854808807373,-0.22746506333351135,-0.5760899782180786
1726225789433444000,11.721444091796876,-0.4380734860897064,-0.3027968108654022,-0.010056163184344769
1726225789443480000,11.73147998046875,-0.4746110439300537,-0.3348533511161804,0.20104244351387024
1726225789453516000,11.74151611328125,-0.5113799571990967,-0.3059213161468506,0.1860523223876953
1726225789463552000,11.751552001953126,-0.38142266869544983,-0.3723684251308441,-0.016847720369696617
1726225789473588000,11.761587890625,-0.5387997627258301,-0.3352740406990051,0.2835962474346161
1726225789483624000,11.7716240234375,-0.4133320152759552,-0.3413882851600647,-0.033967163413763046
1726225789493659100,11.7816591796875,-0.47715866565704346,-0.32366520166397095,0.32877933979034424
1726225789503695000,11.791695068359376,-0.4554547965526581,-0.2342776209115982,-0.11769747734069824
1726225789513731000,11.80173095703125,-0.3438585102558136,-0.2809532582759857,-0.31395620107650757
1726225789523767000,11.81176708984375,-0.3686249852180481,-0.2900766134262085,-0.11538954079151154
1726225789533803000,11.821802978515626,-0.21061325073242188,-0.27175354957580566,-0.24116292595863342
1726225789543838000,11.831837890625,-0.18760418891906738,-0.21339020133018494,0.23485109210014343
1726225789553874000,11.8418740234375,-0.2470075935125351,-0.3635275363922119,0.3484458327293396
1726225789563910000,11.851909912109376,-0.09269469976425171,-0.18361790478229523,0.6299857497215271
1726225789573946000,11.861946044921876,-0.021786976605653763,-0.19960539042949677,0.7031902074813843
1726225789583982000,11.871982177734376,0.05764106661081314,-0.24555286765098572,-0.9862080812454224
1726225789594018000,11.88201806640625,0.01654023304581642,-0.2131832093000412,-2.0876171588897705
1726225789604053000,11.892052978515625,-0.13590513169765472,-0.03398619592189789,-0.9493107795715332
1726225789614089000,11.9020888671875,0.16868193447589874,-0.04435787722468376,0.5986582636833191
1726225789624125000,11.912125,0.13710065186023712,-0.015891246497631073,1.0716530084609985
1726225789634161000,11.922160888671876,0.347493052482605,-0.19624078273773193,0.9074917435646057
1726225789644196900,11.93219677734375,0.16656729578971863,0.04251464083790779,1.1609001159667969
1726225789654233000,11.942233154296876,0.20162221789360046,0.036525990813970566,0.7823386788368225
1726225789664268000,11.95226806640625,0.11481872200965881,-0.009129004552960396,-0.4923889636993408
1726225789674304000,11.962303955078125,0.20374326407909393,-0.05354706943035126,-0.9621860384941101
1726225789684340000,11.972340087890625,0.07270444184541702,-0.08121690899133682,-0.3506423830986023
1726225789694376000,11.9823759765625,0.1731967031955719,-0.10709750652313232,-0.05567493289709091
1726225789704412000,11.992411865234375,0.20570601522922516,-0.1463896483182907,-0.20243409276008606
1726225789714448000,12.00244775390625,0.16767022013664246,-0.029388200491666794,0.07336819916963577
1726225789724483000,12.012483154296875,0.3233672082424164,-0.19171711802482605,0.18205146491527557
1726225789734519000,12.02251904296875,0.1392439752817154,0.0651538148522377,0.17221054434776306
1726225789744555000,12.032554931640625,0.24511857330799103,-0.022370092570781708,-0.3555240035057068
1726225789754591000,12.042591064453125,0.15138036012649536,0.13906966149806976,-0.019445857033133507
1726225789764627000,12.052626953125,0.31304070353507996,0.009536000899970531,0.3176574110984802
1726225789774662100,12.062662109375,0.2770792543888092,0.105598084628582,-0.012393197976052761
1726225789784698000,12.072697998046875,0.340311199426651,0.02513089030981064,-0.576600193977356
1726225789794734000,12.082734130859375,0.24004077911376953,-0.0016687652096152306,-0.3371942937374115
1726225789804770000,12.09277001953125,0.3787154257297516,0.10093949735164642,0.568170428276062
1726225789814806000,12.102805908203125,0.13436904549598694,0.17704465985298157,0.6016088128089905
1726225789824842000,12.112842041015625,0.2743099331855774,0.17497512698173523,-0.21237769722938538
1726225789834877000,12.122876953125,0.3521714508533478,0.06865136325359344,0.11836136132478714
1726225789844913000,12.132912841796875,0.3259273171424866,0.09355299174785614,0.1506580114364624
1726225789854949000,12.14294921875,0.47604626417160034,-0.007263634819537401,-0.6604897379875183
1726225789864985000,12.152985107421875,0.2871246933937073,0.09538432955741882,-0.7664557695388794
1726225789875021000,12.16302099609375,0.2778177559375763,0.10944715142250061,0.5109989047050476
1726225789885057000,12.17305712890625,0.16988162696361542,0.29875949025154114,1.743872046470642
1726225789895092000,12.183092041015625,0.22324764728546143,0.1553533375263214,1.0672787427902222
1726225789905128000,12.1931279296875,0.05282171815633774,0.1591508388519287,-0.6895091533660889
1726225789915164000,12.203163818359375,0.17216089367866516,-0.02511860430240631,-1.217445969581604
1726225789925200000,12.213199951171875,0.10697363317012787,0.06508294492959976,-0.9183559417724609
1726225789935236000,12.223236083984375,0.13512377440929413,0.013254903256893158,-0.17488232254981995
1726225789945272000,12.23327197265625,0.1494513303041458,0.18394702672958374,1.044620394706726
1726225789955307000,12.24330712890625,0.19626784324645996,-0.16086281836032867,1.1829249858856201
1726225789965343000,12.253343017578125,0.1017066165804863,0.11604751646518707,0.41952207684516907
1726225789975379000,12.26337890625,0.11536011099815369,-0.02766571380198002,-0.7590707540512085
1726225789985415000,12.273414794921875,-0.04404968023300171,0.09701854735612869,-0.20832911133766174
1726225789995451000,12.283450927734375,0.039743222296237946,-0.048047564923763275,0.27658647298812866
1726225790005486800,12.29348681640625,-0.07824211567640305,0.06957587599754333,-0.3604695796966553
1726225790015522000,12.30352197265625,0.06982165575027466,-0.0585583932697773,-0.4434962868690491
