time,seconds_elapsed,z,y,x
1726406894850400000,0.06139990234375,-0.030884383085370063,0.02820245052501559,-0.02566796361133456
1726406894860398000,0.071398193359375,0.05868190607130527,0.008279606436938047,0.03223448252007365
1726406894870396200,0.081396240234375,0.1611661289900541,0.006684373134747147,0.07417319745272398
1726406894880394000,0.09139404296875,0.13388941500782967,0.01762136221267283,0.17562383954003452
1726406894890392000,0.10139208984375,0.03688450028300285,0.034815585054457185,0.1861233139835298
1726406894900390000,0.111389892578125,-0.023410686203837395,0.0533711593773216,0.11684183409512042
1726406894910388000,0.121387939453125,-0.057415247136354444,0.043677521423995495,0.10323211867660284
1726406894920386000,0.131385986328125,-0.09973054029643535,0.035327041707932945,0.06835179782286285
1726406894930384000,0.1413837890625,-0.2411626257687807,-0.02168313175886869,0.0073110536657273765
1726406894940382000,0.1513818359375,-0.2839829458415508,0.006684811526164412,-0.08382190028578043
1726406894950380000,0.161380126953125,-0.226879833394289,0.032170623503625394,-0.13233137191087008
1726406894960377900,0.1713779296875,-0.1893313162446022,0.025362112532556054,-0.14008534703850745
1726406894970376000,0.1813759765625,-0.22011282347738742,0.025139921149238943,-0.09644830375537276
1726406894980374000,0.1913740234375,-0.17600889333486555,0.025901626236736773,-0.04212532354593277
1726406894990371800,0.201371826171875,-0.08525719378590584,0.04275083503313362,0.020323826104402542
1726406895000370000,0.211369873046875,-0.031491116806864734,0.08701112478114664,0.053881227791309355
1726406895010369000,0.221369140625,-0.026493454650044438,0.06583908434957265,0.050599575772136446
1726406895020366800,0.231366943359375,-0.11060147840082644,0.03880801569148898,0.07162848140597343
1726406895030365000,0.241364990234375,-0.2430664135634899,0.0365202700804919,0.11242913221940398
1726406895040363000,0.251363037109375,-0.33605624742805956,0.0457048625331372,0.14812836824059486
1726406895050360800,0.26136083984375,-0.3474175993978977,0.08990333909131586,0.09158873489499092
1726406895060359000,0.27135888671875,-0.290836464998126,0.14945705956108868,0.0845049141138792
1726406895070357000,0.28135693359375,-0.20741408542394638,0.2143683615412563,0.19111410800814627
1726406895080354800,0.291354736328125,-0.17215747860372066,0.25104769464097915,0.2543890409581363
1726406895090353000,0.301352783203125,-0.22767010698914528,0.21396635661162436,0.08603504629060625
1726406895100351000,0.31135107421875,-0.3883347161978483,0.13446443841680883,-0.1425795019418001
1726406895110349000,0.32134912109375,-0.547433391264081,0.10243914166800677,-0.17831249410212038
1726406895120347100,0.33134716796875,-0.6731470986008644,0.14838950339481233,-0.04703823002874851
1726406895130345200,0.34134521484375,-0.7172025134265423,-0.0012022153966128825,-0.19506547598242757
1726406895140343000,0.351343017578125,-0.5020499427050352,-0.08568111828640103,-0.18914806863218545
1726406895150341000,0.361341064453125,-0.2867249380260706,0.04685542080774903,0.10743921497762203
1726406895160339200,0.371339111328125,-0.10996610310673713,0.21786562907248735,0.29138240844309327
1726406895170337000,0.3813369140625,-0.13020634258091449,0.34140374593585726,0.29754326916038987
1726406895180335900,0.3913359375,-0.37948739287555217,0.41097193381115793,0.20176935753524303
1726406895190334200,0.401334228515625,-0.6961503730475902,0.4915246031679213,0.10782821429520845
1726406895200332000,0.41133203125,-0.9130448190003633,0.5280702268853783,0.10512801542580127
1726406895210330000,0.421330078125,-0.6991396179914474,0.45479558570757506,0.07054214747399092
1726406895220328200,0.431328125,-0.328615868294239,0.23907281388267873,0.1446688754364848
1726406895230326000,0.441325927734375,0.06730828011929989,-0.21891922977864742,0.13458762640506028
1726406895240324000,0.451323974609375,0.1722118391394615,-0.2925795092731714,0.11263473779410123
1726406895250322200,0.461322265625,0.09886486337780952,-0.21661723644658923,0.07862520842552184
1726406895260320000,0.471320068359375,0.07582476405203342,-0.11517375475242733,-0.03402151206731796
1726406895270318000,0.481318115234375,-0.14086685280501843,-0.10754019113406538,-0.16850275548845528
1726406895280316200,0.491316162109375,-0.19687398670911788,-0.04425795166045427,-0.14192776003479957
1726406895290314000,0.50131396484375,-0.28536241750121116,0.09477554823756218,-0.02539806062877178
1726406895300312000,0.51131201171875,-0.2641343360334635,0.11273732138574123,-0.1284086455091834
1726406895310310100,0.52131005859375,-0.25572540412843225,0.1327218325331807,-0.17761837435811756
1726406895320308000,0.531307861328125,-0.2641378431648016,0.10581862803846596,-0.12495441340208052
1726406895330306000,0.54130615234375,-0.06655132427215575,0.21980507270246744,-0.10664368068575858
1726406895340305200,0.55130517578125,0.0947568435370922,0.23440935211628675,-0.028034254351258277
1726406895350303000,0.561302978515625,0.11585340757966041,0.1453393220439553,0.08246464045792817
1726406895360301000,0.571301025390625,-0.010597381860017775,0.12838584915548562,0.08240531148612498
1726406895370299100,0.581299072265625,-0.32155133673548697,0.1091349129796028,-0.00989741689711809
1726406895380297000,0.591296875,-0.6530301932454109,0.08107435514330863,-0.11640461172163485
1726406895390295000,0.601294921875,-0.8858873474836348,0.08925766159892082,-0.21022388214766977
1726406895400293000,0.611293212890625,-0.8991396277666092,0.05591156457513571,-0.2342348723322153
1726406895410291000,0.621291015625,-0.6139093122124671,0.055656128509342664,-0.1829611966907978
1726406895420289000,0.6312890625,-0.2268190431177616,0.08699848449528216,-0.06886866130381822
1726406895430287000,0.641287109375,0.1279576868712902,0.10404752671271562,0.09022183045595884
1726406895440285000,0.651284912109375,0.3649199383407831,0.17385317660570143,0.23490181180834768
1726406895450283000,0.661282958984375,0.41247897737324235,0.258016145414114,0.2824976757198572
1726406895460281000,0.671281005859375,0.575841155102849,0.18319500544667242,0.3425055696979165
1726406895470279000,0.68127880859375,0.6588257277816534,0.07114332823753357,0.2375920738056302
1726406895480277000,0.691277099609375,0.5402449410647153,-0.06578589285761118,0.01056932480931282
1726406895490274800,0.70127490234375,0.31865269268453117,-0.18555442805439232,-0.1655783924743533
1726406895500273000,0.71127294921875,0.05522504361569881,-0.07282061379998922,-0.5311334138482808
1726406895510271000,0.72127099609375,-0.5947235502272844,0.4500657807067036,-1.3531936013266443
1726406895520270000,0.73127001953125,-1.3868933340936898,1.1763961879625915,-1.9370275087490676
1726406895530268000,0.741267822265625,-1.6383189952015875,1.5146511144787072,-1.7851961943373083
1726406895540266000,0.751265869140625,-1.0013193147808312,1.4513263510376213,-1.2954060137465595
1726406895550264000,0.76126416015625,0.07739478984773158,1.1746265479415654,-0.9485282203137874
1726406895560262000,0.771261962890625,0.7765384994924068,0.3842553379297256,-0.7605057947106659
1726406895570260000,0.781260009765625,1.282670743075013,-0.2812912225395441,-1.060953407010436
1726406895580258000,0.791258056640625,1.7135633290171621,-0.367117156124115,-1.3538903514191507
1726406895590255900,0.801255859375,1.9605559761136768,0.05772182886749506,-1.4053990048602223
1726406895600254000,0.81125390625,2.0677216348469254,0.4133744649082422,-1.1857806869015097
1726406895610251800,0.821251708984375,2.0652783333480356,0.9588979308977723,-1.4392280630953609
1726406895620250000,0.83125,1.929790835493803,1.5299252559781074,-1.940143302682042
1726406895630248200,0.841248291015625,2.1304607073545454,1.7411054159373045,-2.4899668039530516
1726406895640246000,0.85124609375,1.6115338641285895,1.8293103536128996,-3.189167796742916
1726406895650244000,0.861244140625,1.2508517094880343,2.053973680001497,-3.523644958285987
1726406895660242200,0.8712421875,1.4993150136590003,2.7916835594058034,0.013787410072982311
1726406895670240000,0.881239990234375,-1.0155343026161194,3.276065743473172,3.0254432154417037
1726406895680238000,0.891238037109375,-1.034054294168949,4.6976212256252765,2.3024662102669478
1726406895690237000,0.90123681640625,-0.17762743444740772,6.374866456070542,2.031909732231498
1726406895700235000,0.911235107421875,0.6727993080765009,6.8591305667161935,2.8800533322542905
1726406895710233000,0.921233154296875,1.5820798061072825,6.54102264843285,2.6825919010460377
1726406895720231200,0.931231201171875,2.483388010084629,6.860609991618991,2.0855665036171676
1726406895730229000,0.94122900390625,1.6653519635558127,8.739695306748152,3.188384537410736
1726406895740227000,0.95122705078125,1.3071972815662622,9.820290402817726,4.052216120430827
1726406895750225200,0.96122509765625,0.6181488494783639,10.174052402806282,3.6512387802809476
1726406895760223000,0.971222900390625,0.19379472539424894,9.686669867879152,2.466428691977262
1726406895770221000,0.981220947265625,1.1842568383350969,9.350258815664052,0.2096481280863285
1726406895780219100,0.99121923828125,2.0584701146379114,8.708173210281133,-0.836988584280014
1726406895790217000,1.001217041015625,2.0891525454103945,7.674716297483444,-1.7091747386693954
1726406895800215000,1.011215087890625,1.2165379364758728,7.602412693294882,-2.804178299319744
1726406895810213000,1.021213134765625,-0.5036509481608867,6.958809084564447,-1.7538520847856998
1726406895820211200,1.031211181640625,-2.168531494812667,6.7888400559157125,-1.5504448969155549
1726406895830209000,1.041208984375,-4.085010136529803,6.427871485549211,-2.3217408195793627
1726406895840207000,1.05120703125,-5.972269990286231,5.647157161676883,-3.495743098142743
1726406895850205200,1.061205078125,-6.213627846366166,4.459974206762015,-5.57077242565453
1726406895860203000,1.071203125,-5.071282688826322,1.981035285040736,-7.325565006160736
1726406895870201000,1.081201171875,-3.7937422943770884,0.6259300048738717,-7.685570868974923
1726406895880200200,1.0912001953125,-2.472343468979001,0.11471972737461328,-7.517880306652188
1726406895890198000,1.101197998046875,-1.5609543082311748,-0.14154606724083424,-7.572540702122449
1726406895900196000,1.111196044921875,-1.2793211403861642,0.287794613084197,-7.995083392870426
1726406895910194200,1.121194091796875,-0.7397495685383677,-0.0602665449142456,-8.545302615460752
1726406895920192000,1.13119189453125,-0.08033844208419323,-0.6189882229119539,-9.783781165587902
1726406895930190000,1.141190185546875,0.4504103563606739,-1.1602291892766952,-10.415407336276768
1726406895940188200,1.151188232421875,1.2242092017561197,-1.5976064610630274,-10.375554633837938
1726406895950186000,1.16118603515625,2.6557392576947807,-2.451076809066534,-10.06101872882247
1726406895960184000,1.17118408203125,4.6165983084082605,-2.621588274028897,-10.205118572199344
1726406895970182100,1.18118212890625,5.689745426559448,-2.2687217615753412,-10.912995623397826
1726406895980180000,1.191179931640625,6.8310641636610026,-1.4099141441971064,-10.93102344751954
1726406895990178000,1.201177978515625,6.258749429118633,-0.7500058818757533,-10.111639493513106
1726406896000176000,1.211176025390625,5.165342197749018,-0.34356443110108376,-8.532769881623983
1726406896010174000,1.221174072265625,4.529106487438082,0.012849544700980186,-6.913771672964096
1726406896020172000,1.231172119140625,4.487473915845156,0.39561318276822566,-6.398184787815809
1726406896030170000,1.241170166015625,4.052314904630184,0.1686351496964693,-5.889158576357365
1726406896040168000,1.25116796875,4.71917313221991,-0.29526071118116376,-5.906567976319789
1726406896050166000,1.261166015625,6.987402141842246,-1.2489555204778908,-6.492490380454063
1726406896060164000,1.2711640625,8.797612073665857,-2.312068151348829,-7.266815880072117
1726406896070162200,1.281162109375,10.406561181998253,-3.0980969482421874,-7.815404871112108
1726406896080161000,1.2911611328125,11.615752262842655,-2.775360201114416,-8.025042477804423
1726406896090159000,1.3011591796875,10.945286950671672,-1.8156985923677682,-6.928692763242125
1726406896100157000,1.311156982421875,9.341212170377373,-1.0635025069713593,-6.5274044574469325
1726406896110155000,1.321155029296875,7.39362965760529,0.8758107746273278,-4.6390743441104885
1726406896120153000,1.331153076171875,4.544247357946634,2.8517537049651143,-2.0621195770561696
1726406896130151000,1.34115087890625,2.501060444897413,4.286582510188222,-0.1399830557078123
1726406896140149000,1.35114892578125,3.079492201015353,3.6804596140682695,0.38161797516345974
1726406896150147000,1.36114697265625,3.5293326485335825,2.287012036025524,1.9301602533280848
1726406896160145200,1.371145263671875,2.47156196321249,3.251699363979697,4.379805568286776
1726406896170143200,1.381143310546875,3.7190994335860013,0.7136568036437034,2.5149872634410855
1726406896180141300,1.391141357421875,4.841472647199034,-0.38585400529801844,2.5324159526258705
1726406896190139100,1.40113916015625,2.2563304820358754,3.4107033464998007,5.640187322664261
1726406896200137200,1.41113720703125,-3.7147067515850063,4.343667502456904,5.976943242794275
1726406896210135000,1.421135009765625,-3.6178269245445724,2.0050351693093775,6.041174599686265
1726406896220133000,1.431133056640625,-6.177859198370576,1.9388883341848848,6.207807761910558
1726406896230131200,1.441131103515625,-6.5712880228370425,0.9157599231779575,6.254713305470347
1726406896240129000,1.45112890625,-2.9048797304749487,-1.4638959097534416,4.485191942387819
1726406896250127000,1.461127197265625,0.09875906491577624,-2.480090137583017,1.6102409017086028
1726406896260125200,1.471125244140625,1.9350883573800324,-1.2591519203215837,0.4260620970457792
1726406896270123000,1.481123046875,2.089312119886279,-1.0493033012270927,-0.3758861535131931
1726406896280121000,1.49112109375,3.178645233684778,-0.7406856803447007,-0.3891051160484552
1726406896290119200,1.501119140625,1.2994397993072866,1.48517893627882,-0.7244231123298406
1726406896300117000,1.511116943359375,4.780425181040168,0.7243506316155195,-0.02205050376653671
1726406896310115000,1.521114990234375,7.759118920266628,3.2093127591490744,2.3367566024035216
1726406896320114200,1.5311142578125,5.5908221109926695,6.11790946432054,4.491845555058122
1726406896330112300,1.5411123046875,2.285481903848797,4.58750490039289,6.667584497031569
1726406896340110000,1.551110107421875,-0.15122443455979226,2.9808465333461758,4.2568250853061675
1726406896350108200,1.561108154296875,0.23434658907838166,-1.2935761679708957,-1.3000263670235872
1726406896360106000,1.57110595703125,-2.8554087203413245,-0.6197691441565751,-4.674000111541152
1726406896370104000,1.58110400390625,-2.0656758082330224,-1.2836843040317296,-4.6181174807995555
1726406896380102100,1.59110205078125,-0.5978607157418504,-1.5283131446063518,-3.6005110480844973
1726406896390100000,1.601099853515625,1.4489935241758822,-0.4922019179075956,-1.3839140260219573
1726406896400098000,1.61109814453125,1.7413247577764093,-0.9581436053991317,1.3794021015554665
1726406896410096000,1.62109619140625,1.241704526436329,-2.053342980882525,2.988400309726596
1726406896420094000,1.631093994140625,0.7987050308540463,-1.1840928799450396,3.675644907262921
1726406896430092000,1.641092041015625,-0.17740706969499587,-0.29703531963825225,3.4670477495342493
1726406896440090000,1.651090087890625,-0.8684501827314496,-1.6076766041785477,2.176388930314779
1726406896450088000,1.661087890625,-1.9653297663867473,-2.2795880235046146,2.0227859300553797
1726406896460086000,1.6710859375,-3.4080309124201533,-1.748456363222003,1.6676146477907896
1726406896470084000,1.681083984375,-4.589430315497517,-1.5199141495734452,0.12628332391828298
1726406896480082000,1.69108203125,-6.587604366865754,-2.901691163566708,-0.7180369184240698
1726406896490080000,1.701080078125,-7.173663549122214,-3.1339421686053273,-0.7090577854156493
1726406896500078000,1.711078125,-4.544640741178393,-2.9975673665225506,-0.4719917813107371
1726406896510076200,1.721076171875,-1.6979139244645833,-1.8274597573101519,0.35390199298113584
1726406896520074200,1.73107421875,-0.12452478981316088,-0.16357435917556284,1.2334881944939493
1726406896530072300,1.741072265625,1.6096347525089978,-0.6972340766310692,0.8887678713560104
1726406896540070100,1.751070068359375,3.663571607631445,-3.113188718912005,0.45455710077658296
1726406896550068200,1.761068115234375,2.6415426822990176,-4.75473836659789,0.7543383581221104
1726406896560067000,1.771067138671875,1.7382476884186266,-4.042351729020476,1.7642298325456678
1726406896570065000,1.78106494140625,1.3852467359304428,-4.640142850124835,1.3738887449614703
1726406896580063200,1.791063232421875,-0.5252227284997701,-4.967885442715883,1.35944009450078
1726406896590061300,1.801061279296875,-1.2409148373633623,-2.4264169995844362,1.0432856483727693
1726406896600059100,1.81105908203125,-1.767790593767166,6.392640597692131,1.4246256833776831
1726406896610057200,1.82105712890625,-2.5378335937604306,13.672766625714301,0.7557425988968461
1726406896620055300,1.83105517578125,-2.271590595009923,21.735418410944938,-1.1988903438434004
1726406896630053000,1.84105322265625,-1.109999177469313,18.915979414129257,-1.754423308802396
1726406896640051200,1.85105126953125,-2.791209219892323,16.928366504263877,-1.1274937714971602
1726406896650049300,1.86104931640625,-3.8534476982772348,10.015988331484794,-3.518449435469508
1726406896660047000,1.871047119140625,-2.6421228202745315,4.104474130934476,-3.141762486967444
1726406896670045200,1.881045166015625,-1.9002084749177097,1.574595003309846,-2.6930063275545835
1726406896680043300,1.891043212890625,-1.2651090751603244,-0.662336366251111,-2.5223729897782206
1726406896690041000,1.901041015625,-0.780844379992783,-2.114107538446784,-2.5201164430230856
1726406896700039200,1.9110390625,-0.9584256372109055,-3.0497680938810108,-2.9770968254238364
1726406896710037000,1.921037109375,-1.4510852357581256,-2.9026883579105136,-2.9850752569571135
1726406896720035000,1.93103515625,-2.396732639938593,-1.8332862715065479,-2.3752970532000064
1726406896730033200,1.941033203125,-2.6052701764345167,-0.5407365239739418,-1.6916240305401384
1726406896740031000,1.951031005859375,-2.2608356845006345,0.6945201414972544,-0.5488510029770434
1726406896750029000,1.961029052734375,-1.02046620606035,1.5108587364584207,0.1409612530902028
1726406896760027100,1.971027099609375,0.4965750184252858,1.5177245305746794,0.6993439083918929
1726406896770025000,1.98102490234375,1.6990122410953044,1.152210133472085,0.7988764418981968
1726406896780023000,1.99102294921875,2.6689059055209157,0.8447972122043371,0.7352887897372246
1726406896790021000,2.001021240234375,3.511011686684191,0.6946604267507791,0.7004359414122998
1726406896800019000,2.01101904296875,4.123529252277314,0.7046773783743381,0.7685983541429042
1726406896810017000,2.02101708984375,4.48106872497797,0.5490501788109541,0.6549909719243645
1726406896820015600,2.031015625,4.575321418385207,0.029919921967387197,0.21587167877629398
1726406896830013700,2.041013671875,4.241951049040257,-0.8203630281716585,-0.2638036427743733
1726406896840011500,2.051011474609375,3.4846988492980597,-1.302609369254112,-0.7475349617175757
1726406896850009600,2.061009521484375,2.9485680655539035,-1.1950590951174498,-1.0722957620188593
1726406896860007700,2.071007568359375,2.567385266937315,-1.0800146658331156,-1.3299082950681447
1726406896870005500,2.081005615234375,1.3655027555406092,-1.7458143242806194,-1.4968898323386908
1726406896880004600,2.091004638671875,0.9255341520868241,-1.0159417143732308,-1.763695141147077
1726406896890002700,2.101002685546875,0.590873012278974,-0.203617615750432,-1.670754407121241
1726406896900000500,2.11100048828125,-0.8067293473556637,-0.15238953281641004,-1.490027837614715
1726406896909998600,2.12099853515625,-0.3399018169403076,0.8396095804333686,-1.221599603779614
1726406896919996700,2.13099658203125,-0.15120003077089786,1.151068562221527,0.36164661575853824
1726406896929994500,2.140994384765625,-2.0708312913000584,0.4080629144966602,0.701945323061943
1726406896939992600,2.15099267578125,-2.313049271340668,0.2792074020028114,0.4836006783008575
1726406896949990700,2.16099072265625,-2.258671784465015,0.2851338694423437,-0.12252572495043278
1726406896959988500,2.170988525390625,-2.4031883919492363,0.5414946488648653,-0.4539093043923378
1726406896969986600,2.180986572265625,-2.2673311839997767,0.5863742395550012,-0.6531774927616119
1726406896979984600,2.190984619140625,-2.1503639699593187,0.5109136326402426,-0.9465195108398795
1726406896989982700,2.200982666015625,-1.9505635744094847,0.3569131574958563,-1.1464587303385139
1726406896999980800,2.210980712890625,-1.7377765637755394,0.28864859956502914,-1.1356658259063959
1726406897009978600,2.220978515625,-1.454128256715834,0.3468868535220623,-0.9780933374941349
1726406897019976700,2.230976806640625,-1.148062073881924,0.31665888851881024,-0.7496174670800566
1726406897029974800,2.240974853515625,-0.8953928424537181,0.32064298971891403,-0.3752136610791087
1726406897039972600,2.25097265625,-0.8582219264447688,0.2599544200003147,-0.06446721147447824
1726406897049970700,2.260970703125,-0.967520213292539,0.26065818435549737,0.03377396704703569
1726406897059968800,2.27096875,-0.9101566963434219,0.35264965483248234,-0.023146774570643902
1726406897069966600,2.280966552734375,-0.6789362033963203,0.3796861303180456,-0.25007600006461145
1726406897079964700,2.290964599609375,-0.36297874114513395,0.515358921611309,-0.5460305387288331
1726406897089962800,2.300962646484375,-0.015756079797446726,0.579449993249774,-0.7858052172705531
1726406897099960600,2.310960693359375,0.24658655051365494,0.526655391651392,-1.0047492892295122
1726406897109958700,2.320958740234375,0.38593028540462254,0.5871978308975696,-1.3002525769948958
1726406897119956700,2.330956787109375,0.6809248929955065,0.7067723048269748,-1.4409747606322167
1726406897129954600,2.34095458984375,0.8968414338268339,0.7871037326484918,-1.5067583154022692
1726406897139952600,2.35095263671875,0.9159070765636861,0.7312064888596534,-1.6314061470732093
1726406897149950700,2.36095068359375,1.07681674657464,0.7632552395492792,-1.7842197505205868
1726406897159948500,2.370948486328125,1.0993488233130424,0.8196002271056175,-1.8996467493817208
1726406897169946600,2.380946533203125,1.2021452539861202,0.8494728027999401,-1.8796251210942863
1726406897179944700,2.39094482421875,1.1958557984530924,0.6973714392751454,-1.806181991481781
1726406897189942500,2.400942626953125,1.2403962203167378,0.626737229603529,-1.6979931271806359
1726406897199940600,2.410940673828125,1.2562917085848748,0.5926929211825132,-1.566910878548026
1726406897209938400,2.4209384765625,1.2246857332266867,0.5485322924166918,-1.5310127589538693
1726406897219936500,2.4309365234375,1.2212439952749758,0.4541875368118286,-1.5720502872630953
1726406897229935600,2.440935546875,1.1327098987102509,0.4311205494791269,-1.6522145418241618
1726406897239933700,2.45093359375,0.97289445367679,0.26311492985785007,-1.593037545712292
1726406897249931500,2.460931640625,0.9421031557023525,0.1649316190034151,-1.5399115202024578
1726406897259929600,2.4709296875,0.882717996732518,-0.060980830663442606,-1.4167211938634514
1726406897269927700,2.480927734375,0.6980406437736004,-0.24183541046380996,-1.314502636143565
1726406897279925500,2.490925537109375,0.4760159222602844,-0.32405250590145585,-1.2000462358802557
1726406897289923600,2.500923583984375,0.2774607775311917,-0.21802315772175787,-1.1138660820305346
1726406897299921700,2.510921630859375,0.12509360267706215,-0.06801321351826191,-0.9847057413712144
1726406897309919500,2.52091943359375,-0.09487952006869017,0.08005494896769523,-0.8591966166958213
1726406897319917600,2.53091748046875,-0.34177111794352527,0.3549281211584806,-0.7526262935072183
1726406897329915600,2.54091552734375,-0.5601883164841681,0.7779390139400959,-0.6295286138877272
1726406897339913700,2.550913818359375,-0.7995381206773221,1.1724971346974373,-0.45756490429043767
1726406897349911800,2.560911865234375,-1.010611459261179,1.2106482939153909,-0.3923603184521198
1726406897359909600,2.57090966796875,-1.1445406217575071,1.0491413886636496,-0.3402373325049877
1726406897369907700,2.58090771484375,-1.151177356358245,0.7439385446608067,-0.4065726759389043
1726406897379905800,2.59090576171875,-1.1271967613119631,0.30158406898379325,-0.5329828411072493
1726406897389903600,2.600903564453125,-1.030022262173891,-0.018922142612934113,-0.799645526574552
1726406897399901700,2.610901611328125,-0.9469606056708842,-0.12122750183343886,-0.9765294491782784
1726406897409899800,2.620899658203125,-0.9232955793797969,-0.04425765939950943,-1.0292951169431208
1726406897419897600,2.630897705078125,-0.9224690654277801,0.13772972382307053,-1.0621844101101159
1726406897429895700,2.640895751953125,-0.9950712872367352,0.48463119039237496,-1.1366332096338272
1726406897439893800,2.650893798828125,-1.1250421405613422,0.815018744534254,-1.3022645013391971
1726406897449891600,2.6608916015625,-1.0723474191408604,1.1961767009705304,-1.4562909877076744
1726406897459889700,2.6708896484375,-0.9557773877244442,1.4917483777970075,-1.5627283321663736
1726406897469887700,2.6808876953125,-0.822906355978921,1.6049340274721382,-1.5994634871065616
1726406897479885600,2.690885498046875,-0.739468267378956,1.4088754487991333,-1.6102280422270296
1726406897489883600,2.700883544921875,-0.6291513780731708,0.8774450978308915,-1.531981019464135
1726406897499881700,2.7108818359375,-0.4973569260505959,0.13044833464324473,-1.3762807546645401
1726406897509879600,2.720879638671875,-0.38481538296528156,-0.38080782782435413,-1.2643880674093961
1726406897519877600,2.730877685546875,-0.271947640132904,-0.6981207963377237,-1.1426736588418482
1726406897529875700,2.740875732421875,-0.18005378481149673,-0.8769552684873342,-1.0549190952822565
1726406897539873500,2.75087353515625,-0.1589934611260891,-1.020542486166954,-0.9387281263113021
1726406897549871600,2.76087158203125,-0.1474982536435127,-1.1952689384758473,-0.7931359985500573
1726406897559869400,2.770869384765625,-0.1998059485077858,-1.1585481043219565,-0.6840452169731259
1726406897569867500,2.780867431640625,-0.25739534663464875,-0.8904670764893293,-0.5624217015594244
1726406897579865600,2.790865478515625,-0.3251707328090444,-0.4232523003220558,-0.4934621471017599
1726406897589863400,2.800863525390625,-0.3962251771867275,-0.08436638242602348,-0.35951691025346516
1726406897599861500,2.810861572265625,-0.4970972887337208,0.29032033216953274,-0.2634635971650481
1726406897609859600,2.820859619140625,-0.6446890658795833,0.6556114419102669,-0.15243687908947468
1726406897619857700,2.830857666015625,-0.7750117283165454,1.0223317076712846,0.052661622868478294
1726406897629855700,2.840855712890625,-0.7883154465258121,1.472847277972102,0.3360968716993928
1726406897639854600,2.8508544921875,-0.7305716980874538,1.874748747229576,0.5669871097788214
1726406897649852700,2.860852783203125,-0.6478548364341259,2.0120926866054534,0.8207055579990148
1726406897659850500,2.8708505859375,-0.4763093522489071,1.7187468691349028,0.9499377948507666
1726406897669848600,2.8808486328125,-0.24660158368600532,0.9997031117558479,0.9769076348409056
1726406897679846400,2.890846435546875,0.1596983945250511,0.33094284993708134,0.9231979642242193
1726406897689844700,2.9008447265625,0.7118260810852051,0.03847907599806785,0.8208832526534795
1726406897699842800,2.9108427734375,1.2965484617799519,0.06643032824099064,0.6617620734944939
1726406897709840600,2.920840576171875,1.8332815953314303,0.2503337742179632,0.4481915112674236
1726406897719838700,2.930838623046875,2.1761527834713457,0.40414895592331884,0.22890461722016334
1726406897729836800,2.9408369140625,2.2661942889243365,0.3043184623837471,0.06668985596001148
1726406897739834600,2.950834716796875,2.202469712510705,-0.05967150163054466,-0.10608517002016306
1726406897749832700,2.960832763671875,2.0710855583220718,-0.4910948334485292,-0.2068573283240199
1726406897759830800,2.970830810546875,1.9659978749066591,-0.8146873206228017,-0.1389817697107792
1726406897769828600,2.98082861328125,1.807101444414258,-0.8685293854475021,-0.026195640747249126
1726406897779826700,2.99082666015625,1.5005156216204165,-0.6266875452429056,0.09207359580248593
1726406897789824800,3.00082470703125,1.0475193404197691,-0.26834464720487594,0.17185995696187018
1726406897799822600,3.010822509765625,0.6450035386562347,-0.05993687456846237,0.1637637442678213
1726406897809820700,3.020820556640625,0.29057810632288456,0.068906362965703,0.06120996324419975
1726406897819818200,3.030818359375,0.00677694678902626,0.1025911904245615,-0.0981336264938116
1726406897829816000,3.040816162109375,-0.17098083603978156,0.01980886231958866,-0.31736966713666914
1726406897839814100,3.050814208984375,-0.3043926966637373,-0.21094342859387397,-0.5009563022494316
1726406897849812000,3.06081201171875,-0.42314825542569157,-0.40650691722631455,-0.5824360233232379
1726406897859810000,3.07081005859375,-0.4960942491710186,-0.5622276402920484,-0.603844137533009
1726406897869808000,3.08080810546875,-0.602743775075674,-0.598926262614131,-0.6309339506410062
1726406897879806000,3.090805908203125,-0.6845230636179447,-0.4884381814599037,-0.7434428700983524
1726406897889804000,3.100803955078125,-0.7294774731099605,-0.20455577338337896,-0.8927208467654884
1726406897899802000,3.110802001953125,-0.7190729834735393,0.15101649089753627,-1.1008593009412289
1726406897909800000,3.120800048828125,-0.7184136427819728,0.5025415256142616,-1.3312030110538005
1726406897919798000,3.130798095703125,-0.7257704352855682,0.7978507521122693,-1.4548317288100718
1726406897929796000,3.140796142578125,-0.7649182043254376,0.8108774069458246,-1.5627474752582609
1726406897939794200,3.150794189453125,-0.8178010687291621,0.5380874707698822,-1.6127800647974013
1726406897949792300,3.160792236328125,-0.8436497957348823,0.15368658688962458,-1.5731718386389315
1726406897959790300,3.170790283203125,-0.8091092282295227,-0.19093115265667437,-1.489591199763119
1726406897969788200,3.1807880859375,-0.7757599163353442,-0.4899772275954485,-1.3774134119562804
1726406897979786200,3.1907861328125,-0.6813093622684478,-0.5504138683795928,-1.2479651942662895
1726406897989784300,3.200784423828125,-0.6267734699606895,-0.2883399720072746,-1.0735399168610573
1726406897999782100,3.2107822265625,-0.6170306591033935,0.03285714446306229,-0.8644685657493769
1726406898009780200,3.2207802734375,-0.6134194828689098,0.2809907782882452,-0.6315655265428125
1726406898019778300,3.2307783203125,-0.692465547055006,0.3123813573300838,-0.4306834732361138
1726406898029776100,3.240776123046875,-0.7303367202877998,0.2905108863055706,-0.3625369887270033
1726406898039774200,3.250774169921875,-0.7188111176669597,0.28791268650591373,-0.26980259092822667
1726406898049772300,3.260772216796875,-0.6297358268976211,0.6339660118132829,-0.08904372658729552
1726406898059770000,3.27077001953125,-0.5129296486377716,1.077076274293661,0.12921236310750245
1726406898069768200,3.280768310546875,-0.4413794931650161,1.4486889882713556,0.31009017765298486
1726406898079766000,3.29076611328125,-0.4398608687629923,1.4687702377915381,0.32713001365065575
1726406898089764000,3.30076416015625,-0.42295061396174133,1.2503256397873161,0.22523425814434886
1726406898099762200,3.31076220703125,-0.3792073703577742,0.9389116661846637,0.04328706080168485
1726406898109760000,3.320760009765625,-0.2785480065123178,0.6097972007185221,-0.14281623330712317
1726406898119758000,3.330758056640625,-0.10266425566077232,0.2906587703436613,-0.386520652513206
1726406898129756200,3.340756103515625,0.1249029754757881,0.032494156369566915,-0.689776161840558
1726406898139754000,3.35075390625,0.37033319556117056,-0.09298983386456966,-0.9374545992441475
1726406898149752000,3.360751953125,0.6279378375649451,-0.06878712050020694,-1.1919703353218734
1726406898159750100,3.370750244140625,1.0013935490608215,0.29858313360214234,-1.5911892874971032
1726406898169749200,3.380749267578125,1.2995908982157707,0.7279191377520561,-1.998569334296137
1726406898179747000,3.3907470703125,1.4907073443114756,1.004070659315586,-2.328420005082339
1726406898189745200,3.4007451171875,1.4979238515615463,1.1128875923871993,-2.616905961431563
1726406898199743000,3.410742919921875,1.4547341136544942,1.0558867712706326,-2.623178173568845
1726406898209741000,3.420740966796875,1.3212287295281886,0.6143371822357178,-2.5923610105007886
1726406898219739100,3.4307392578125,1.1556319246143103,0.26643501419126986,-2.5528216117948292
1726406898229737000,3.440737060546875,0.9818822083830833,0.11330313857495784,-2.5818852091938256
1726406898239735000,3.450735107421875,0.9410656293481587,0.20035598360598086,-2.548812376153469
1726406898249733000,3.460733154296875,0.9563596445918082,0.3522925119578838,-2.399793342683464
1726406898259731000,3.47073095703125,0.9317442587733268,0.40362697787582874,-2.274661673018336
1726406898269729000,3.48072900390625,0.7921697838664055,0.38885610972344875,-2.233207965123653
1726406898279727000,3.49072705078125,0.6973246775239705,0.3436141154617071,-2.205143900156021
1726406898289725200,3.50072509765625,0.6292331380724907,0.3408767994523048,-2.0770834835626184
1726406898299723300,3.51072314453125,0.5340513471215963,0.31041093403995035,-2.0987324207909404
1726406898309721300,3.520721435546875,0.41554654825031756,0.2692944952756166,-2.2049922167256475
1726406898319719200,3.53071923828125,0.22435528335273264,0.20492285313010214,-2.300171085067093
1726406898329717200,3.54071728515625,-0.009302072219317779,0.05632862094342708,-2.3018534851960837
1726406898339715300,3.55071533203125,-0.18990531674027442,0.01348550451695919,-2.2456069895781576
1726406898349713200,3.560713134765625,-0.4340110102236271,0.029465748459100723,-2.0870089575104416
1726406898359711200,3.570711181640625,-0.6360223598212004,0.07634323496818542,-1.9585139488920569
1726406898369709300,3.580709228515625,-0.8435375675320624,0.18075930273234844,-1.792802285426855
1726406898379707100,3.59070703125,-1.0425006354749202,0.1800637216836214,-1.5710359956540167
1726406898389705200,3.600705322265625,-1.2298410701632498,0.1435042155712843,-1.3288720838882029
1726406898399703000,3.610703125,-1.3640028723716735,0.0847182646036148,-1.0556849650882183
1726406898409701000,3.620701171875,-1.3906886347234249,0.13215630760490893,-0.7698862019963562
1726406898419699200,3.63069921875,-1.3627391360461711,0.22106091798245905,-0.5944910566456616
1726406898429697000,3.640697021484375,-1.3489070100486278,0.29562369927465915,-0.475966237899661
1726406898439695000,3.650695068359375,-1.2804302706718445,0.26031799261569977,-0.3910490897230804
1726406898449693200,3.660693115234375,-1.2125848149359226,0.17513327954411506,-0.2590032567553222
1726406898459691000,3.67069091796875,-1.1396645401537417,0.06963058558702469,-0.20218670616447926
1726406898469689000,3.680689208984375,-1.0099217234313487,-0.025468787777423858,-0.1804655804827809
1726406898479687200,3.690687255859375,-0.9205845668554306,-0.0123784200578928,-0.02518660983517766
1726406898489685000,3.70068505859375,-0.8318015370309353,0.02655482944846153,0.14084054931998252
1726406898499683000,3.71068310546875,-0.7261001056313514,0.10929799458682536,0.15537790097743273
1726406898509681200,3.72068115234375,-0.6699135235071182,0.15880466055572032,0.25752310120016336
1726406898519679000,3.730678955078125,-0.6565303103208542,0.18805939661264418,0.2343057456113398
1726406898529677000,3.740677001953125,-0.6370236458182335,0.09667699794471263,0.2194208956904709
1726406898539675100,3.750675048828125,-0.5912638016948476,0.04039747684001922,0.28266134184896946
1726406898549673000,3.7606728515625,-0.49336449541356414,0.07331482705771923,0.40148338997587557
1726406898559671000,3.770671142578125,-0.12860763868000358,0.16959142750799655,0.5786091585114598
1726406898569669000,3.780669189453125,0.3751496924648061,0.28447920492589474,0.7202218612477183
1726406898579667200,3.790667236328125,0.679749857866764,0.3389747652232647,0.5334501663580536
1726406898589665300,3.800665283203125,0.745897862035036,0.2189934640586376,0.2999789718747139
1726406898599663400,3.810663330078125,0.605710771655105,0.0646539662182331,-0.0991981869854033
1726406898609661200,3.8206611328125,0.3285527033975348,-0.16855974637269971,-0.5183544501654803
1726406898619659300,3.8306591796875,0.16502105085253715,-0.42079789290726183,-0.772223412772268
1726406898629657000,3.840656982421875,0.10168689852859825,-0.5827987191557884,-0.9325698959425092
1726406898639655200,3.8506552734375,0.04933828713204711,-0.6789291891336441,-1.1591662362203001
1726406898649653200,3.8606533203125,0.09404716089777648,-0.7460849090397358,-1.3088443181209266
1726406898659651000,3.870651123046875,0.2339688783397898,-0.7032675115764141,-1.4244310375884175
1726406898669649200,3.880649169921875,0.2814425771763548,-0.5620201350212097,-1.5585915246225892
1726406898679647200,3.890647216796875,0.3046878436854109,-0.4532511327445507,-1.6111789132110774
1726406898689645000,3.90064501953125,0.2920610383570194,-0.3367600117832422,-1.6599062653705476
1726406898699643100,3.91064306640625,0.21152440681960433,-0.2992816372603178,-1.6388494488164782
1726406898709641200,3.92064111328125,0.10224106181263923,-0.3051367930293083,-1.5747548700466751
1726406898719639000,3.93063916015625,-0.012760112851858138,-0.1555026964008808,-1.5628063658386468
1726406898729637000,3.94063720703125,-0.0554220640251413,0.12870996654331684,-1.577920056079328
1726406898739635200,3.95063525390625,-0.157173241695296,0.36606034054756165,-1.491862213435024
1726406898749633000,3.960633056640625,-0.2159376018856652,0.3948854530155658,-1.3732064617857336
1726406898759631000,3.970631103515625,-0.292802212113142,0.27847324250936506,-1.2877702581711112
1726406898769629200,3.980629150390625,-0.3751192607939243,0.1828133126527071,-1.2354061569444834
1726406898779627000,3.990626953125,-0.338524683368206,0.19336393276154995,-1.1982970541253686
1726406898789625000,4.000625,-0.24105797808421775,0.18496376868486403,-1.1230226174324751
1726406898799623200,4.010623046875,-0.13976849964167923,0.1834609629064798,-1.084574959485978
1726406898809621000,4.02062109375,-0.06701194578753784,0.19971534761488435,-1.0629786292277277
1726406898819618800,4.030618896484375,-0.00846972218155861,0.24950316861271857,-1.0502625016480684
1726406898829617000,4.040616943359375,0.034819968968629836,0.29052666839659214,-1.011507677448541
1726406898839615000,4.050614990234375,0.07911741238925606,0.27227964856624604,-0.9630128188706933
1726406898849613000,4.060613037109375,0.02120879224538803,0.18403496340215206,-0.8489506786219775
1726406898859611000,4.07061083984375,-0.027008381902240215,0.13484101664423942,-0.7776676496528089
1726406898869609000,4.08060888671875,-0.059299782241322097,0.1555634866774082,-0.7217096155874431
1726406898879607000,4.09060693359375,-0.10841712009906768,0.16729074935019014,-0.6793895001217722
1726406898889604900,4.10060498046875,-0.1254606458911672,0.1212175649613142,-0.6101331546746194
1726406898899603000,4.11060302734375,-0.15644147508833556,0.011560089412331581,-0.5231156732179224
1726406898909600800,4.120600830078125,-0.20531451932881026,-0.057929041877388954,-0.41199820811897514
1726406898919598800,4.130598876953125,-0.23272267767097798,-0.11677402955591679,-0.34946532570794225
1726406898929597000,4.140596923828125,-0.2557084529936314,-0.10649228951632976,-0.3404747945226729
1726406898939594800,4.1505947265625,-0.2570645437777042,-0.02916296612024307,-0.24164646376296878
1726406898949592800,4.1605927734375,-0.30439452329464256,-0.01035889692902565,-0.18357786728441713
1726406898959591000,4.1705908203125,-0.32482235776279117,-0.015472878941893576,-0.08736205711066722
1726406898969588700,4.180588623046875,-0.3723089160809293,-0.061471244528889656,-0.004381429954618215
1726406898979586800,4.1905869140625,-0.3402115770092234,-0.046963411226868625,0.0728536392867565
1726406898989585000,4.2005849609375,-0.3111726025948301,-0.005192307946085929,0.09184329417794942
1726406898999582700,4.210582763671875,-0.26229718373417854,0.041138650596141815,0.1078001572445035
1726406899009580800,4.220580810546875,-0.21190785317923871,-0.006531447595357894,-0.0037285190038383004
1726406899019579000,4.230578857421875,-0.15536237461473792,-0.09468260925710201,-0.1145369181536138
1726406899029576700,4.24057666015625,-0.1158182997336611,-0.1774187601327896,-0.24299159476161003
1726406899039574800,4.25057470703125,-0.02014141874220222,-0.18722937552928923,-0.4562330711647868
1726406899049572900,4.26057275390625,0.1060848412266001,-0.17935937280654907,-0.6565536911964416
1726406899059570700,4.27057080078125,0.197663164325431,-0.19426058934032917,-0.7582548009134829
1726406899069568800,4.28056884765625,0.23967852469086645,-0.2569347799181938,-0.789795602080971
1726406899079566800,4.29056689453125,0.24334924909286199,-0.31132337270975113,-0.839324479881674
1726406899089565000,4.30056494140625,0.2118914500337094,-0.2278472171217203,-0.9505435056589543
1726406899099563000,4.31056298828125,0.12079378659129142,-0.10946107619404792,-0.9490463989689946
1726406899109561000,4.32056103515625,-0.013259294545650481,-0.03137012077569962,-0.8718016120512038
1726406899119559000,4.330558837890625,-0.15190671773552894,-0.059817047581076616,-0.7716581801049411
1726406899129557000,4.340556884765625,-0.254407307267189,-0.10596212816238403,-0.6414550523944199
1726406899139554800,4.350554931640625,-0.3813549403131008,-0.1985714382767677,-0.5306746372301131
1726406899149553000,4.360552978515625,-0.45596207220368085,-0.38255788636207577,-0.4616757736753672
1726406899159551000,4.370551025390625,-0.44714521708488464,-0.5364747748762368,-0.4002097898434847
1726406899169548800,4.380548828125,-0.3978757939379662,-0.6685697076827287,-0.2879746458262205
1726406899179547000,4.390546875,-0.31186807404570277,-0.753712335178256,-0.27822686653286216
1726406899189545000,4.400544921875,-0.2537760601589456,-0.7101952650129795,-0.22834793318547308
1726406899199542800,4.410542724609375,-0.2049684823701158,-0.5618704974174499,-0.17607435978651045
1726406899209540900,4.420540771484375,-0.14512977094650267,-0.43182022218108174,-0.0582223257355392
1726406899219539000,4.4305390625,-0.11079612419009208,-0.34169805270731446,0.07476392988748848
1726406899229536800,4.440536865234375,-0.11780220355987549,-0.3046855421304703,0.2414955109849572
1726406899239534800,4.450534912109375,-0.16593407404422758,-0.17604864082336424,0.33959750023148955
1726406899249533000,4.460532958984375,-0.177946035409905,-0.014921090278029441,0.4378573103882372
1726406899259530800,4.47053076171875,-0.19881810651421547,0.11813947269022464,0.5478165453627706
1726406899269528800,4.48052880859375,-0.18317286668010055,0.28191549191772936,0.6032414954647422
1726406899279527000,4.49052685546875,-0.21506555002517996,0.43907355431020256,0.6888347162719816
1726406899289524700,4.500524658203125,-0.242095011248067,0.5392641133338213,0.8200053007751703
1726406899299522800,4.510522705078125,-0.2321745057363063,0.5217208578586578,0.8040623201034963
1726406899309521000,4.52052099609375,-0.19029577736258504,0.39100364314615726,0.723259110051766
1726406899319518700,4.530518798828125,-0.10493212752752006,0.23969664486944675,0.5794015509981661
1726406899329516800,4.540516845703125,-0.019070611172914503,0.22819442312419413,0.4864624244075268
1726406899339515000,4.550514892578125,0.026588804783299565,0.2944295210540295,0.3383768723953515
1726406899349512700,4.5605126953125,0.026904446603730318,0.335874461120367,0.13569843719117342
1726406899359510800,4.5705107421875,-0.04491816913485527,0.2887853776872158,-0.07938793642632663
1726406899369508900,4.5805087890625,-0.14897249091453849,0.15044424396753311,-0.2773605320271104
1726406899379507000,4.5905068359375,-0.2128385946907103,0.004462824627757072,-0.47861565642990167
1726406899389505000,4.600505126953125,-0.2497206838209182,-0.1102156939536333,-0.6339290408037602
1726406899399502800,4.6105029296875,-0.23814115905575453,-0.10419219588041305,-0.799687831346318
1726406899409501000,4.6205009765625,-0.1682768377780914,0.10731588085889816,-0.9228392139144241
1726406899419499000,4.6304990234375,-0.09146481625437736,0.40101942572593685,-1.0434623931791633
1726406899429496800,4.640496826171875,-0.05573299313783645,0.6277922916144132,-1.0548996599294245
1726406899439495000,4.650494873046875,-0.09771335525512695,0.7307435475230216,-0.9860142666865139
1726406899449493000,4.660492919921875,-0.23037417831607163,0.713280956068635,-0.9633806292697786
1726406899459490800,4.67049072265625,-0.38942126932553944,0.6029074412047862,-0.9359145301952958
1726406899469489000,4.680489013671875,-0.5442857408881188,0.3742237732589245,-0.912226123028621
1726406899479487000,4.690487060546875,-0.6542237869441508,0.06693710871934891,-0.8623809458203613
1726406899489484800,4.70048486328125,-0.6612170068323612,-0.2994622545242309,-0.8057090643972158
1726406899499483000,4.71048291015625,-0.5733224502801895,-0.550581626161933,-0.7902270523007958
1726406899509481000,4.72048095703125,-0.4295909287590533,-0.6279027662515639,-0.872879543481022
1726406899519478800,4.730478759765625,-0.260778668930009,-0.504870260822773,-0.93424206693843
1726406899529476900,4.740476806640625,-0.12262560512833297,-0.34673838496208187,-0.9101705056730657
1726406899539475000,4.750474853515625,-0.07963760033845901,-0.2532897014141083,-0.8649575183100998
1726406899549472800,4.76047265625,-0.14764548009447753,-0.22963994575738905,-0.808843855291605
1726406899559470800,4.770470947265625,-0.28219547790288924,-0.17752514311671255,-0.7536062444552779
1726406899569468700,4.78046875,-0.37378077873177823,-0.1541869376271963,-0.6807197258122265
1726406899579466800,4.790466796875,-0.4396353529114276,-0.02339607315659523,-0.5750375836350023
1726406899589464800,4.80046484375,-0.4390366563659161,0.05927227317988872,-0.518362633471936
1726406899599462700,4.810462646484375,-0.3982944577414542,0.01490238557755947,-0.400712405603379
1726406899609460700,4.820460693359375,-0.38859022532887755,-0.02535188339948654,-0.31154490650594235
1726406899619458800,4.830458740234375,-0.39478023907542226,-0.09942541987001895,-0.25710867518037556
1726406899629456600,4.84045654296875,-0.4066249906480312,-0.21986557071805,-0.17616729876697063
1726406899639454700,4.850454833984375,-0.4239011196196079,-0.3140478292375803,-0.10118760723695158
1726406899649452800,4.860452880859375,-0.41075061921067535,-0.34458675988614557,-0.04878726565316319
1726406899659451000,4.870450927734375,-0.3415666083473712,-0.31546120316684245,0.09650354107394814
1726406899669449000,4.880448974609375,-0.2896084575731307,-0.3320984497129917,0.20280264610573648
1726406899679447000,4.890447021484375,-0.27097623781748115,-0.4655237543404102,0.27149858119115233
1726406899689444900,4.90044482421875,-0.26763511069603263,-0.5588257228940725,0.4223071284264326
1726406899699443000,4.91044287109375,-0.23237200106978415,-0.511621488648653,0.41039691040217874
1726406899709441000,4.92044091796875,-0.21903080039434134,-0.41763153783082957,0.4726581362649798
1726406899719438800,4.93043896484375,-0.22363215670995412,-0.3520966971248388,0.7060545119464398
1726406899729437000,4.94043701171875,-0.20243637007661164,-0.13828443509638308,0.8608819394342601
1726406899739435000,4.95043505859375,-0.19498020885176956,0.2556529234141111,0.8936584198765456
1726406899749432800,4.960432861328125,-0.15209851398058236,0.6628630204737186,0.9754581666849553
1726406899759431000,4.970430908203125,-0.04602423068061471,0.9121312112867832,1.007598687311262
1726406899769429000,4.980428955078125,-0.06870009980387985,0.5761906991928816,0.9610843350261449
1726406899779426800,4.9904267578125,-0.06235453016944229,-0.11019991186261176,0.7405407189160585
1726406899789425000,5.0004248046875,0.020502543672174214,-0.6695213093191384,0.24648498983532188
1726406899799422700,5.010422607421875,0.16104169889278708,-0.9224334095925092,-0.4248739101745188
1726406899809420800,5.0204208984375,0.49442602369785305,-0.6608581103920936,-1.008663393933326
1726406899819419400,5.03041943359375,0.7947896109759807,-0.11560849290788174,-1.4233055406898258
1726406899829417500,5.04041748046875,0.9084498924255371,0.36602877636551856,-1.6753053484238682
1726406899839415300,5.050415283203125,0.861395880305767,0.7857412121236323,-1.9199661915719508
1726406899849413400,5.060413330078125,0.7358312260508537,1.078441717427969,-2.1525242167331275
1726406899859411500,5.070411376953125,0.5637620102524757,1.1659785465836525,-2.4000290511354803
1726406899869409300,5.0804091796875,0.4077542504062876,1.061639635708928,-2.432026217768341
1726406899879407400,5.090407470703125,0.29416411158349365,0.9669313074886798,-2.522062316393852
1726406899889405400,5.100405517578125,0.2308627290179953,0.9746113405972718,-2.559546828396618
1726406899899403300,5.1104033203125,0.20365444062948226,0.9480372219264507,-2.486039985898137
1726406899909401300,5.1204013671875,0.24122049343585966,0.7446551684975624,-2.361096532281488
1726406899919399400,5.1303994140625,0.6367009897351265,0.3888309752821922,-2.200680783267319
1726406899929397200,5.140397216796875,1.0509399625182152,0.08229249876141548,-1.8072995973348616
1726406899939395300,5.150395263671875,1.2650514997541904,-0.19069266772568225,-1.2618049190483986
1726406899949393400,5.160393310546875,1.32715695053339,-0.3522410740315914,-0.7243415715262294
1726406899959391200,5.17039111328125,1.1707833165168762,-0.2753302683085203,-0.29859745438843965
1726406899969389300,5.180389404296875,0.8231868534207344,-0.23953999300301074,-0.007347440153360366
1726406899979387400,5.190387451171875,0.39753680777456607,-0.2700420987725258,0.14787775448039173
1726406899989385500,5.200385498046875,0.06586969868354499,-0.37854748167693614,0.25429975523948667
1726406899999383600,5.210383544921875,-0.1003087055105716,-0.5304740731567144,0.3051351855941117
1726406900009381400,5.22038134765625,-0.14034136762619018,-0.6644248629629611,0.27138357650935646
1726406900019379500,5.23037939453125,-0.042988004789873954,-0.7379583012074231,0.29427359983995555
1726406900029377500,5.24037744140625,0.0886486628551036,-0.6358002415031194,0.31463980378136036
1726406900039375400,5.250375244140625,0.17646372443027794,-0.4152256457328796,0.3859827462442219
1726406900049373400,5.26037353515625,0.13812610272951423,-0.14679507381021975,0.46994025560840963
1726406900059371500,5.27037158203125,0.06900982334017754,0.06653320409357548,0.40625747250989075
1726406900069369300,5.280369384765625,-0.06944478069134057,0.06640460927784443,0.20139321769922972
1726406900079367400,5.290367431640625,-0.1618587874293327,-0.04566518810987472,0.026456629770994184
1726406900089365500,5.300365478515625,-0.1405401050686836,-0.007580079865455627,-0.20294073940217494
1726406900099363300,5.31036328125,0.11315284338407218,0.1242190848648548,-0.47809974279701706
1726406900109361400,5.320361328125,0.31316454359702767,0.2638841606646776,-0.6632593263149261
1726406900119359500,5.330359375,0.39710188695602117,0.5020306534826755,-0.8456250413306057
1726406900129357300,5.340357421875,0.5533831665139645,0.697532767316699,-1.0115110384494066
1726406900139355400,5.35035546875,0.5942810671567916,0.7917980279445648,-1.052164682007581
1726406900149353500,5.360353515625,0.5232100735031068,0.9707090724617242,-1.1447362904600797
1726406900159351300,5.370351318359375,0.5022351630788296,1.2085030985802412,-1.2850154065050183
1726406900169349400,5.380349365234375,0.3368715823989361,1.1969079378545284,-1.1957533609919249
1726406900179347200,5.39034716796875,0.053723553011566394,1.0689233629763126,-1.0526984966233373
1726406900189345300,5.40034521484375,-0.19178981531262396,0.807495363292098,-0.9467569728575647
1726406900199343400,5.41034326171875,-0.3140998516857624,0.3862690158396959,-0.8239053769536316
1726406900209341200,5.420341064453125,-0.35319041064567863,-0.02253682597875595,-0.6469385983720422
1726406900219339300,5.43033935546875,-0.297133665446192,-0.30530513533353804,-0.5114857334397733
1726406900229337300,5.44033740234375,-0.11597966430783271,-0.4441273305684328,-0.33677389417812226
1726406900239335400,5.45033544921875,0.1889126524411142,-0.41981940326392647,-0.17898849366754294
1726406900249333500,5.46033349609375,0.4398128283701837,-0.36335692680776116,-0.0808925688356161
1726406900259331600,5.47033154296875,0.6666330405317247,-0.46760172965824603,-0.041910073360055686
1726406900269329400,5.480329345703125,0.8674327493172138,-0.6240168647289276,-0.06119111241325736
1726406900279327500,5.490327392578125,0.9603086744785309,-0.6799117704302072,-0.1261943304605782
1726406900289325600,5.50032568359375,0.9289479060530662,-0.72720309843719,-0.16878332599550486
1726406900299323400,5.510323486328125,0.8378745733343065,-0.6431108567774295,-0.1902056148611009
1726406900309321500,5.520321533203125,0.6835154940105974,-0.5565554398745298,-0.2251703991279006
1726406900319319600,5.530319580078125,0.4541453051052987,-0.49280748258531093,-0.3065951751440763
1726406900329317400,5.5403173828125,0.29833631923422216,-0.4414899678021669,-0.3293688786186278
1726406900339315500,5.5503154296875,0.11745850468873976,-0.3848550573885441,-0.29460780023038385
1726406900349313500,5.5603134765625,0.03556698794364929,-0.387816829803586,-0.33915143696442246
1726406900359311400,5.570311279296875,0.02080664118528366,-0.27905834892094133,-0.3858255098558962
1726406900369309400,5.580309326171875,-0.007578910821676253,-0.13540215765833855,-0.4425004600189626
1726406900379307500,5.5903076171875,0.028114333850145338,-0.0032540333598852157,-0.5013857797078788
1726406900389305300,5.600305419921875,0.01590352544412017,0.016128127980232238,-0.5502732908651232
1726406900399302400,5.610302490234375,0.029464433284848927,-0.023459786042571068,-0.6133671681597829
1726406900409301200,5.62030126953125,0.10130363483205437,-0.07387889068126678,-0.6531165563546121
1726406900419298300,5.63029833984375,0.15746668995022772,-0.03486556167602539,-0.6974211236357688
1726406900429296400,5.64029638671875,0.13972060537934303,0.052830257433652876,-0.6990553007088601
1726406900439294500,5.65029443359375,0.14097045930996535,0.15524901390075682,-0.6360470558710396
1726406900449292500,5.66029248046875,0.12559168839231133,0.3079612028002739,-0.6756639037273824
1726406900459290600,5.67029052734375,0.15952406087145207,0.46254269270300863,-0.7206960546307265
1726406900469288400,5.680288330078125,0.12882263313755393,0.5959153903603553,-0.7260683953188359
1726406900479286500,5.69028662109375,0.04072480909824371,0.689481562808156,-0.7652173334024847
1726406900489284400,5.700284423828125,-0.07774155745878815,0.6925409503787756,-0.6352502064049244
1726406900499282400,5.710282470703125,-0.18366715300306677,0.7227543023347854,-0.5572120040871202
1726406900509280500,5.720280517578125,-0.1650058532834053,0.657875295189023,-0.541515691652894
1726406900519278300,5.7302783203125,-0.10372326319441198,0.6019283670395612,-0.4537671194426715
1726406900529276400,5.7402763671875,-0.06756839236021041,0.49690381198823447,-0.41582141966894265
1726406900539274500,5.7502744140625,-0.12973945572152734,0.2838169416248798,-0.42086335935890673
1726406900549272300,5.760272216796875,-0.22132336831092833,0.16466683058738707,-0.39821240548118947
1726406900559270400,5.7702705078125,-0.30701793060079213,0.2155997299671173,-0.3105373368985951
1726406900569268500,5.7802685546875,-0.25559520187750456,0.3222001560330391,-0.21987463080734013
1726406900579266300,5.790266357421875,-0.13929770379215478,0.3489642443180084,-0.1534814197063446
1726406900589264400,5.800264404296875,-0.07186477437987923,0.27498072421848774,-0.10812179041430353
1726406900599262500,5.810262451171875,-0.019735650952905415,0.14012567904889583,-0.000014759177714586257
1726406900609260300,5.82026025390625,0.009703063368797301,-0.004234861090779305,0.07304916185885667
1726406900619258400,5.83025830078125,0.04631035414561629,-0.22887889825701713,0.05780775358527898
1726406900629256400,5.84025634765625,0.12034107438772916,-0.49248774911165233,0.00961246247589588
1726406900639254300,5.850254150390625,0.2495418931879103,-0.6829366712093353,-0.03408420203998685
1726406900649252400,5.86025244140625,0.45978243420943615,-0.6989724447309971,-0.08795651587247848
1726406900659250400,5.87025048828125,0.630225510110706,-0.5536719933927059,-0.15456307746320963
1726406900669248300,5.880248291015625,0.645771308158338,-0.39119478180408473,-0.12270195830017327
1726406900679246300,5.890246337890625,0.5224957877539098,-0.2374111642807722,-0.07179346270933747
1726406900689244400,5.900244384765625,0.2961598519779742,-0.10267419253289699,-0.1380219847679138
1726406900699242200,5.9102421875,0.20704218337163327,0.015972645157575606,-0.1360574066966772
1726406900709240300,5.920240234375,0.2397032207407057,0.06763327428996563,-0.09181552938818931
1726406900719238400,5.93023828125,0.2273895364820957,-0.0018050035953521728,-0.05184124639630317
1726406900729236500,5.940236572265625,0.249195563968271,-0.10462474207878113,0.061889616071432826
1726406900739234600,5.950234619140625,0.3091935210742056,-0.10032207644879818,0.16888474054336547
1726406900749232400,5.960232421875,0.2256673888646066,0.08636836989820003,0.3723800450883806
1726406900759230500,5.97023046875,0.04791194412335753,0.21589900517463684,0.4845607555046677
1726406900769228500,5.980228515625,-0.1393229843638837,0.1999234374076128,0.5731038390934466
1726406900779226400,5.990226318359375,-0.36971462527140975,-0.024606617990136144,0.6359361428424716
1726406900789224400,6.000224365234375,-0.5042049287818372,-0.21263445042073725,0.5908712587133049
1726406900799222500,6.010222412109375,-0.5310604947425425,-0.37151919047534465,0.42585298433974383
1726406900809220400,6.020220458984375,-0.47514030846953387,-0.49356385391056534,0.1917772480919957
1726406900819218200,6.03021826171875,-0.3348595849893987,-0.49258302617967126,-0.11721373614743351
1726406900829216000,6.040216064453125,-0.23881927751302717,-0.4883399817824363,-0.4485255655273795
1726406900839214000,6.050214111328125,-0.19322452429085968,-0.4830623336404562,-0.7836929012916982
1726406900849212200,6.060212158203125,-0.22914777832627295,-0.536310524225235,-1.087789537618309
1726406900859210000,6.0702099609375,-0.3502072301164269,-0.5595207194209099,-1.2127272921465337
1726406900869208000,6.0802080078125,-0.509200691242516,-0.5128764571458101,-1.2023831543952226
1726406900879204900,6.090204833984375,-0.5873734797254204,-0.4513900150477886,-1.2661366646423935
1726406900889204000,6.100203857421875,-0.7186696633696555,-0.33139059370458124,-1.2540478751808404
1726406900899201300,6.110201171875,-0.7691773230746388,-0.11044599557816982,-1.2104628543458877
1726406900909199000,6.12019921875,-0.8030079887449741,0.15193594383001327,-1.3556411406092346
1726406900919197200,6.130197265625,-0.8743043155871331,0.43771629448235033,-1.3399524269595742
1726406900929195300,6.1401953125,-0.9475647821091114,0.7246393854290246,-1.1706262262590228
1726406900939193000,6.150193115234375,-0.951042833483219,0.8175240053534507,-1.0897886024810373
1726406900949191200,6.160191162109375,-0.9125685797907411,0.622305969157815,-0.9751574301727115
1726406900959189200,6.170189208984375,-0.7817465895295143,0.5530553227990865,-0.7361379539124667
1726406900969187000,6.18018701171875,-0.6322713367246091,0.4434539613515138,-0.5684320478901267
1726406900979185200,6.19018505859375,-0.5238404803611337,0.23237083202600478,-0.37439854530394073
1726406900989183200,6.200183349609375,-0.43856575091853733,0.0013356325179338453,-0.13010200542360542
1726406900999181000,6.21018115234375,-0.44325829264894123,-0.22214286800026892,0.03847016203925013
1726406901009179100,6.22017919921875,-0.4028970561660826,-0.3760270232886076,0.18584902708679438
1726406901019177200,6.23017724609375,-0.3090812928713858,-0.6575310117959976,0.26169512618780133
1726406901029175000,6.240175048828125,-0.26354557636007664,-0.9076467593491077,0.28388211581557987
1726406901039173000,6.250173095703125,-0.19885200878381729,-0.9279045344799757,0.31466449983119965
1726406901049171200,6.260171142578125,-0.09610241292715072,-0.8986731792986392,0.17739406408295033
1726406901059169000,6.2701689453125,-0.030633477064222096,-0.6895978826642036,-0.008918342731893063
1726406901069167000,6.2801669921875,-0.012997428739070891,-0.33108781136572357,-0.15593363516405223
1726406901079165200,6.290165283203125,0.0021849428236484524,0.09773439804315566,-0.2889315081596374
1726406901089163000,6.3001630859375,-0.03436784128695726,0.46311844676434993,-0.29088395740166306
1726406901099161000,6.3101611328125,-0.0786241855122149,0.6889677680671215,-0.3439345795877278
1726406901109159000,6.320158935546875,-0.16262918727993964,0.7694114240914582,-0.5091052680440247
1726406901119157000,6.330156982421875,-0.2741886970579624,0.7116752744376659,-0.6261147137910127
1726406901129155000,6.340155029296875,-0.35301980331912636,0.5953934123128652,-0.6912365897819399
1726406901139153000,6.35015283203125,-0.3899744462288916,0.48838440544605255,-0.6328557124838232
1726406901149151000,6.36015087890625,-0.45501288172006604,0.5028109902054071,-0.5464649846233427
1726406901159149000,6.370149169921875,-0.5546541362978518,0.4156611145406961,-0.4483535699613392
1726406901169147100,6.380147216796875,-0.6471792752601206,0.37124388066530223,-0.42851562767773865
1726406901179145200,6.390145263671875,-0.6559444732569157,0.3606114274919033,-0.39609570558816193
1726406901189143300,6.400143310546875,-0.6667639734350145,0.3127525287300348,-0.2567725750938058
1726406901199141000,6.41014111328125,-0.7178209375858307,0.2585077283233404,-0.033280630572140216
1726406901209139200,6.42013916015625,-0.7143126372039318,0.21069091513752936,0.18737806328497825
1726406901219137300,6.43013720703125,-0.7753355534434319,0.14984627807438372,0.32010347601473327
1726406901229135000,6.440135009765625,-0.7674526912391185,0.12135960378050803,0.3575423953101039
1726406901239133200,6.45013330078125,-0.6068401044785976,0.1537462081223726,0.304670198430866
1726406901249130000,6.4601298828125,-0.42409269666895266,0.14710954658687114,0.23108261884637177
1726406901259128000,6.470128173828125,-0.3030019729577005,0.08665653918981552,0.18201375977285206
1726406901269126100,6.480126220703125,-0.18277780294790863,-0.08899871840178966,0.08648622412420809
1726406901279124000,6.4901240234375,-0.07935337656959891,-0.33792964008450505,-0.021866452436521647
1726406901289122000,6.5001220703125,-0.01821267916932702,-0.5811819316089153,-0.051132878931239245
1726406901299120000,6.5101201171875,-0.019414310044050215,-0.790533122575283,-0.048001010646298525
1726406901309118000,6.520117919921875,-0.053216188011318444,-1.030216323441267,0.019862638333439826
1726406901319116000,6.530115966796875,-0.10977803318873047,-1.1997913843363524,0.06233830968700349
1726406901329114000,6.540114013671875,-0.12101356682181358,-1.242975861546397,0.07274133801870047
1726406901339112000,6.55011181640625,-0.091140991127491,-1.1069558642506598,0.0470610994476825
1726406901349110000,6.560110107421875,0.005380085603147745,-0.9020429479926824,-0.026872663225978612
1726406901359108000,6.570108154296875,0.0909587664283812,-0.6600485475748777,-0.17998693012036382
1726406901369106200,6.580106201171875,0.1407202839411795,-0.3276449774354696,-0.3454504640433937
1726406901379104300,6.590104248046875,0.15946093250736593,0.043026071777939795,-0.4896748836480081
1726406901389102300,6.600102294921875,0.21300766764730214,0.37316169698536394,-0.7428150205235928
1726406901399100200,6.61010009765625,0.22242665337771175,0.7048217552810907,-0.905476283442229
1726406901409098200,6.62009814453125,0.17327669189199804,1.0259487291246652,-1.070910737401247
1726406901419096000,6.630095947265625,0.14566650817170737,1.381902101677656,-1.262014031754434
1726406901429094100,6.64009423828125,0.11556684572324157,1.6851158176898955,-1.4137655589282512
1726406901439092200,6.65009228515625,-0.006758388219028711,1.8531717061936854,-1.510944076654315
1726406901449090000,6.660090087890625,-0.17974881051555275,1.8064041097998618,-1.5089105250000954
1726406901459088100,6.670088134765625,-0.3362418331280351,1.506288944324851,-1.5215882202655076
1726406901469086200,6.680086181640625,-0.5369863776601851,1.1024135446459054,-1.4969316256538032
1726406901479084000,6.690083984375,-0.6943219885766506,0.615509733146429,-1.365047997510433
1726406901489082000,6.70008203125,-0.7566859441615641,0.15080723206102847,-1.2724303579591214
1726406901499080200,6.710080078125,-0.7255037471733987,-0.19093582883179186,-1.1493882809843867
1726406901509078000,6.720078125,-0.5781180139936506,-0.46301264830231664,-1.043382898202166
1726406901519076000,6.730076171875,-0.47985038585662837,-0.6628823096960783,-0.8516517542742192
1726406901529074200,6.74007421875,-0.33403891625627874,-0.7928338007330894,-0.7208551907151937
1726406901539072000,6.750072021484375,-0.08238836035132407,-0.7375882988512515,-0.6114812082827091
1726406901549069000,6.760069091796875,0.05404942396506667,-0.6049637892127037,-0.4716792082302272
1726406901559067100,6.770067138671875,0.11655132671594619,-0.4726262798219919,-0.4277159286674112
1726406901569065200,6.780065185546875,0.08924129498600959,-0.4960977563023567,-0.4089903315398842
1726406901579063300,6.790063232421875,0.04338789082765579,-0.6158972711592913,-0.3901095438506454
1726406901589061000,6.80006103515625,0.029872429563850163,-0.6366413685023784,-0.38551045255735517
1726406901599059200,6.81005908203125,-0.0036953473865985868,-0.5526607705235481,-0.39720461667813356
1726406901609057300,6.820057373046875,-0.016883184131234883,-0.40073067191243167,-0.3808958714339882
1726406901619055000,6.83005517578125,-0.11432780544757842,-0.20607786838412284,-0.3363020388826728
1726406901629053200,6.84005322265625,-0.25684958585277196,0.04344283588528633,-0.30334070339277386
1726406901639051300,6.85005126953125,-0.2973230505384505,0.40249358993172646,-0.3156894589647651
1726406901649049000,6.860049072265625,-0.19270166946053505,0.7370487851470708,-0.39614517075307665
1726406901659047200,6.870047119140625,-0.07465177474990486,1.064935170122981,-0.5487303722720593
1726406901669045200,6.880045166015625,0.02597162273302674,1.348145962548256,-0.7478452697757632
1726406901679043000,6.89004296875,0.11999196868911385,1.5017255819320678,-0.9688656365521252
1726406901689041200,6.900041259765625,0.12816460762023926,1.5740093123763799,-1.11314982351996
1726406901699039200,6.910039306640625,0.00023366262540221213,1.5281868878781795,-1.1738907079476864
1726406901709037000,6.920037109375,-0.1338917530953884,1.398728148794174,-1.2298951384380459
1726406901719035100,6.93003515625,-0.2866752536654472,1.1973223638743162,-1.1850260691419243
1726406901729033000,6.940032958984375,-0.3046177375912666,1.019445923101902,-1.0889118927117436
1726406901739031000,6.950031005859375,-0.3593338087715208,0.7491121479064226,-0.9002287381775677
1726406901749029000,6.960029052734375,-0.47976183079034085,0.42210956002771854,-0.633329029083997
1726406901759027000,6.97002685546875,-0.639946109136194,0.22252865244746206,-0.38764987573884424
1726406901769025000,6.98002490234375,-0.7381095462463796,0.08525602474212646,-0.2009679049592465
1726406901779023000,6.990023193359375,-0.742851480076462,-0.040592122629284855,0.06641374243237078
1726406901789021000,7.00002099609375,-0.7188892974697053,-0.20885551640391348,0.24002346567101776
1726406901799019000,7.01001904296875,-0.6984766240380704,-0.45145197436809537,0.47361361035890875
1726406901809016000,7.02001611328125,-0.6242239316083491,-0.6674193686038256,0.7133977873813361
1726406901819015000,7.030014892578125,-0.5850153722919523,-0.8070008577734231,0.8624192320041358
1726406901829012700,7.0400126953125,-0.42667409146428104,-0.8284709313035011,0.9952360493443906
1726406901839010800,7.0500107421875,-0.12704451754912732,-0.7989455616116523,1.0744091009110213
1726406901849009000,7.0600087890625,0.11149418945685029,-0.7276128482818603,1.0496182854603975
1726406901859006700,7.0700068359375,0.25110446632951494,-0.7399199566692114,1.0557190134882926
1726406901869004800,7.0800048828125,0.34579715858921406,-0.7997790898263454,1.010484325750172
1726406901879003000,7.0900029296875,0.3476175058841705,-0.867156928050518,1.0497609818667173
1726406901889000700,7.100000732421875,0.2478838968478143,-0.8972960457265376,1.0535396236225962
1726406901898998800,7.109998779296875,0.06823226309642196,-0.8611088800579308,0.9239728941194713
1726406901908996900,7.119996826171875,-0.03808627728819847,-0.6666179890930652,0.6895371654529124
1726406901918994700,7.12999462890625,-0.049708764412254094,-0.33278584745526313,0.5030058917229995
1726406901928992800,7.13999267578125,-0.014318594340234993,-0.015830606338381768,0.2887641887687146
1726406901938990800,7.149990966796875,-0.07510901699811219,0.22608605266809462,0.1519166911402717
1726406901948988700,7.15998876953125,-0.18323036902099846,0.3091992201626301,0.08363160187806934
1726406901958986800,7.16998681640625,-0.29516733380928634,0.2560866386562586,0.06808163911197335
1726406901968984800,7.17998486328125,-0.3848278771206736,0.20691198112070558,0.03659552727378904
1726406901978982700,7.189982666015625,-0.41824879294633865,0.24327450335621834,-0.061879496536217625
1726406901988980700,7.199980712890625,-0.450929557929188,0.3272930952578783,-0.1400174329014495
1726406901998978600,7.209978515625,-0.512777672946453,0.37265140937566754,-0.23941870471090076
1726406902008976600,7.2199765625,-0.5629106541201472,0.35096623179018493,-0.3293138239631429
1726406902018974700,7.229974609375,-0.5016754103042185,0.2684258957475424,-0.3355306161187589
1726406902028972500,7.23997265625,-0.4803077742353081,0.13953706550598144,-0.35032165027633305
1726406902038969900,7.249969970703125,-0.47339156510606406,0.0013350479960441588,-0.3962636095009744
1726406902048968000,7.259968017578125,-0.37733226066827774,-0.13018062361776828,-0.42093510942086576
1726406902058965800,7.2699658203125,-0.24847820947915314,-0.14340543137192727,-0.5083637654943391
1726406902068963800,7.2799638671875,-0.2218120286107063,-0.1397568457365036,-0.5467230510376393
1726406902078961700,7.289961669921875,-0.1735856117106974,-0.26293723520338536,-0.5235923142863437
1726406902088959700,7.299959716796875,-0.2307750872671604,-0.4356476715147495,-0.5471637440098449
1726406902098957800,7.309957763671875,-0.2970256750270724,-0.5442027387797832,-0.5628092761049047
1726406902108955600,7.31995556640625,-0.29222938066124915,-0.581781066545844,-0.5100356442293152
1726406902118953700,7.32995361328125,-0.3000675269410014,-0.5756880103677511,-0.3340468073017895
1726406902128951800,7.339951904296875,-0.35127865874022246,-0.4756108485907316,-0.1335486752787605
1726406902138949600,7.34994970703125,-0.31651714196056124,-0.3440577675759792,0.08556271607112138
1726406902148947700,7.35994775390625,-0.1381190154016018,-0.1853179889500141,0.2937901637045666
1726406902158945800,7.36994580078125,-0.11419219636917113,-0.013726327535510062,0.47695681983958926
1726406902168943600,7.379943603515625,-0.10221300476193428,0.12280045023858546,0.6188070941913872
1726406902178941700,7.389941650390625,-0.1283601301923394,0.171405198931694,0.7358331257469952
1726406902188939800,7.399939697265625,-0.12682839058041573,0.2288584399908781,0.8299502100758254
1726406902198937600,7.4099375,-0.09188917914628981,0.25077216563522814,0.8967310322549193
1726406902208935700,7.419935791015625,-0.10790507892370223,0.2700567118197679,0.9385920057762414
1726406902218933800,7.429933837890625,-0.09235328952670097,0.27621289636194707,0.9487180437974632
1726406902228931600,7.439931640625,-0.08491583300232887,0.216989723020792,1.0288460580013692
1726406902238929700,7.4499296875,-0.06009469547867775,0.13086509875059127,1.0952531514972448
1726406902248927700,7.459927734375,-0.027567367491871116,-0.024779636469483373,1.158030437123403
1726406902258924800,7.4699248046875,0.036847383143007756,-0.14032850814461706,1.1195256421621889
1726406902268923000,7.4799228515625,0.040355099003016946,-0.22808920918405054,0.9860963189467787
1726406902278920700,7.489920654296875,0.13554010482430456,-0.36043782449066636,0.8882881980802864
1726406902288918800,7.499918701171875,0.19368834241032598,-0.4245265580415725,0.7734734128333628
1726406902298916900,7.509916748046875,0.1969550891213119,-0.40382746888399124,0.48814248644895847
1726406902308914700,7.519914794921875,0.32103198903650043,-0.3268634716689586,0.24625125414468346
1726406902318912800,7.529912841796875,0.3842053613081574,-0.19309914434552192,0.058895183495804665
1726406902328910800,7.539910888671875,0.3125203274093568,-0.06370353362560272,-0.13857326197512446
1726406902338908700,7.54990869140625,0.17194632007107138,-0.013852584263682365,-0.3405451563451439
1726406902348906800,7.55990673828125,0.05200798126533627,-0.0869534763097763,-0.4885083971519023
1726406902358904800,7.56990478515625,-0.08025500158444046,-0.16443185278773306,-0.5381644815288483
1726406902368902700,7.579902587890625,-0.19259733230322598,-0.15142273361086844,-0.47980808108486234
1726406902378900700,7.589900634765625,-0.14658172332048416,-0.07009001979231834,-0.39951983481794595
1726406902388898600,7.599898681640625,0.031737200522422786,-0.001079027408361435,-0.2942185086518526
1726406902398896600,7.609896728515625,0.08371785538941622,0.085907766649127,-0.274662305919081
1726406902408894700,7.619894775390625,0.17173486927747725,0.20913550238907336,-0.29830592409595846
1726406902418892500,7.629892578125,0.2880462497577071,0.29589608647525306,-0.4219621874462813
1726406902428890600,7.639890625,0.3812894738614559,0.34826866326928135,-0.48758660613186655
1726406902438888700,7.649888671875,0.4215991262875497,0.25401860021054745,-0.5400074790470302
1726406902448886500,7.659886474609375,0.49613253535479307,-0.029070027139782902,-0.5080046863909811
1726406902458883800,7.6698837890625,0.47506315158009527,-0.320359496602416,-0.4852039487790316
1726406902468882000,7.6798818359375,0.39314094743579625,-0.48372108981013295,-0.5098214534893631
1726406902478879700,7.689879638671875,0.4022644573509693,-0.534344777110219,-0.5071800721351057
1726406902488877800,7.6998779296875,0.42071985923498867,-0.4570972867786884,-0.33602519470266995
1726406902498875600,7.709875732421875,0.46078313568457957,-0.320495690202713,-0.22970716577470301
1726406902508873700,7.719873779296875,0.532984156281501,-0.14740414561927317,-0.2433000031236559
1726406902518871800,7.729871826171875,0.5091524681866169,0.006228080734610557,-0.24166195359304546
1726406902528869600,7.73986962890625,0.5124618849955499,0.09524901096820831,-0.2215660910256207
1726406902538867700,7.74986767578125,0.445639488697052,0.18708032244741915,-0.27022892658151687
1726406902548865800,7.75986572265625,0.40874519767239686,0.14969313333928586,-0.327863807817921
1726406902558863600,7.769863525390625,0.36539486237615343,0.1291910280585289,-0.3567661502406001
1726406902568861700,7.77986181640625,0.29507980165630576,0.15435001923441885,-0.3713192839890718
1726406902578859800,7.78985986328125,0.25858897686600685,0.191047472512722,-0.4235701340995729
1726406902588857600,7.799857666015625,0.19112389874979852,0.29350539194643493,-0.39116190244778987
1726406902598855700,7.809855712890625,0.1837219519302249,0.3236205442249775,-0.3351324105814099
1726406902608853800,7.819853759765625,0.20858780537843702,0.2670832489669323,-0.32179815110340715
1726406902618851600,7.8298515625,0.2082677796438336,0.1347065766096115,-0.30234606633223593
1726406902628849700,7.839849609375,0.21074030723720788,-0.018061141869425774,-0.30774361452683807
1726406902638847700,7.84984765625,0.2926220332406461,-0.16624796229898928,-0.37845768450163303
1726406902648844800,7.8598447265625,0.3109060240805149,-0.2957201453864574,-0.3715142220392823
1726406902658843000,7.8698427734375,0.4876056761585176,-0.39929625519514084,-0.3887245922982692
1726406902668840700,7.8798408203125,0.5534238638505339,-0.434096934941411,-0.37944874136559664
1726406902678838800,7.8898388671875,0.4820844285190105,-0.37231180215775966,-0.3930003699213266
1726406902688836900,7.8998369140625,0.4734916644796729,-0.23569617705643175,-0.45656544492430984
1726406902698834700,7.909834716796875,0.6031824587538838,-0.04983808988034725,-0.5041624778795987
1726406902708832800,7.919832763671875,0.5962652267113328,0.08678454948365688,-0.513299943254888
1726406902718830800,7.929830810546875,0.4165104248464107,0.05391454553902149,-0.4637468808609992
1726406902728828700,7.93982861328125,0.36961525655016303,-0.05792378118038177,-0.5096375482898206
1726406902738826800,7.94982666015625,0.3212963390611112,-0.17350655512511728,-0.557479788177833
1726406902748824800,7.959824951171875,0.26103885423615575,-0.24755086550116537,-0.5157906640920787
1726406902758822700,7.96982275390625,0.23120091146379707,-0.3801490716546774,-0.4460667741984129
1726406902768820700,7.97982080078125,0.21293167980164288,-0.4189478811264038,-0.39451428161561486
1726406902778818800,7.98981884765625,0.18725977066755295,-0.44450376266539093,-0.31437749958336353
1726406902788816600,7.999816650390625,0.06277531286478043,-0.48284255340993404,-0.23689795406162736
1726406902798814700,8.009814697265625,-0.05773644191473722,-0.4203197540014982,-0.21020904990471898
1726406902808812500,8.0198125,-0.13785948768258094,-0.2835784566938877,-0.11750490111373364
1726406902818810000,8.02981005859375,-0.04139467118382454,-0.2177998703598976,-0.038695568292960524
1726406902828807200,8.03980712890625,0.09157339119538664,-0.20371055473089217,0.09997275155447423
1726406902838805200,8.04980517578125,0.17320771830901502,-0.18533494008481502,0.1544575712621212
1726406902848803300,8.05980322265625,0.253638953243196,-0.04396306036710739,0.062082362164556974
1726406902858801200,8.06980126953125,0.19536811219081282,0.16237725834548472,-0.03735927818790078
1726406902868799200,8.07979931640625,0.16210428662300108,0.3141121266454458,-0.24202662218697368
1726406902878797300,8.08979736328125,0.13117138822078703,0.34835283442139625,-0.4664901882197708
1726406902888795100,8.099795166015625,0.20182927102893589,0.2737058819770813,-0.6588933861903846
1726406902898793200,8.109793212890626,0.36960400450378655,0.253165198251605,-0.7650553477738052
1726406902908791300,8.119791259765625,0.38334903673976656,0.21555355273783205,-0.6799879044063389
1726406902918789000,8.1297890625,0.42883010045439,0.22418518748283384,-0.7500446064509451
1726406902928787200,8.139787109375,0.4806768998086452,0.10655249527096748,-0.7431706290282308
1726406902938785300,8.149785400390625,0.47666561834067106,-0.034109774872660634,-0.7451117531586438
1726406902948783000,8.159783203125,0.3481473749771714,-0.31278526195585726,-0.7458567263070494
1726406902958781200,8.16978125,0.3723661626935005,-0.5022165314435959,-0.733304484052211
1726406902968779300,8.179779296875,0.3691258655980229,-0.5206944374203681,-0.7564755893465132
1726406902978777000,8.189777099609374,0.4301059656091034,-0.5398129793882369,-0.5963940407227725
1726406902988774400,8.1997744140625,0.38659196418374775,-0.40824528532624244,-0.3908494024325162
1726406902998772200,8.209772216796875,0.2512625795006752,-0.17236147674322128,-0.283590001001209
1726406903008770300,8.219770263671874,0.18052637075930833,-0.016734277179837227,-0.18821312586963176
1726406903018768400,8.229768310546875,0.14373144845589994,-0.05178805490434169,-0.10533442471809684
1726406903028766200,8.23976611328125,-0.08624006734341383,-0.1633756217330694,-0.09321304816119372
1726406903038764300,8.249764404296876,-0.23381781596392393,-0.3055389440894127,-0.032678792221471666
1726406903048762400,8.259762451171875,-0.1022010220631957,-0.24778467425704,0.07965498986467719
1726406903058760200,8.26976025390625,0.017327420767396687,-0.04856675477027893,0.1728537903048098
1726406903068758300,8.27975830078125,0.03360737830847502,0.11379998218119143,0.21397033866699783
1726406903078756400,8.28975634765625,-0.10251827131882309,0.17088555897176264,0.23047186653688548
1726406903088754200,8.299754150390624,-0.22568390160799026,0.18154840728342533,0.17524594613835215
1726406903098752300,8.309752197265626,-0.2915919595405459,0.05619125829935073,0.12763042767830193
1726406903108750300,8.319750244140625,-0.23734599009007215,-0.17171733362078664,0.038760888614132995
1726406903118748200,8.329748046875,-0.24646219348162413,-0.22239947310984134,-0.13044833464324473
1726406903128746200,8.339746337890626,-0.05214022934287786,-0.17488602678477763,-0.13705072858296333
1726406903138744000,8.349744140625,0.1414797240063548,-0.20046587372124194,-0.15843407367765902
1726406903148742100,8.3597421875,0.11827654307335614,-0.41270986351966854,-0.12197495919987558
1726406903158739500,8.369739501953125,0.12978753264695406,-0.47035365871489043,-0.22283099639490245
1726406903168737300,8.3797373046875,0.20662804961279033,-0.45775428938269613,-0.30233152635023
1726406903178735400,8.3897353515625,0.1796060410439968,-0.5870914479136466,-0.27270722632855177
1726406903188733400,8.3997333984375,0.24969635309726,-0.6519044040858745,-0.15279979411773384
1726406903198731300,8.409731201171875,0.3001039134286344,-0.5424591099828482,-0.04814304946549237
1726406903208729300,8.419729248046876,0.3921206644773483,-0.3466887006014585,0.09373298038206994
1726406903218727200,8.42972705078125,0.4836133916519582,-0.2230202353566885,0.1687398521799594
1726406903228725200,8.439725341796875,0.5711459830239415,-0.04330722680687904,0.277815436187759
1726406903238723300,8.449723388671876,0.5810426692686975,0.16334405755102632,0.4711545267689973
1726406903248721200,8.45972119140625,0.3155724084563553,0.2518897714883089,0.6797906282685696
1726406903258719200,8.46971923828125,-0.054178457172214985,0.19779343964159488,0.7483124488960952
1726406903268717300,8.47971728515625,-0.2594467627391219,-0.007348609197139739,0.8578590844817459
1726406903278715100,8.489715087890625,-0.2957552166998386,-0.26598142520487306,0.9339049439385533
1726406903288713200,8.499713134765624,-0.28835750766396523,-0.45454117255508897,0.9490528287097811
1726406903298711300,8.509711181640625,-0.29605303060263394,-0.5529278970271349,0.8928014377210288
1726406903308708000,8.5197080078125,-0.19488792745843528,-0.5904506952136754,0.7801162118487059
1726406903318706200,8.5297060546875,-0.06236278654113411,-0.41405192577838895,0.7197273557290434
1726406903328704000,8.5397041015625,-0.08808744877576828,-0.3155453743189573,0.49951582111753523
1726406903338702000,8.5497021484375,-0.09246902486085891,-0.1648486168950796,0.32501565184518694
1726406903348700200,8.5597001953125,-0.03502542841285467,-0.057876434907317156,0.07850760992784053
1726406903358698200,8.5696982421875,0.11480433691814541,0.05707914704978466,-0.15438823235295712
1726406903368696300,8.5796962890625,0.08329056988805532,0.18686638743579387,-0.3222636862559244
1726406903378694400,8.5896943359375,0.05819836033806204,0.3636918578505516,-0.49405298913437873
1726406903388692200,8.599692138671875,-0.04161357463151216,0.682674220880866,-0.6767546946387738
1726406903398690300,8.609690185546874,-0.23521336197555065,0.9377496366679667,-0.8055871185179799
1726406903408688400,8.6196884765625,-0.4050619791150093,0.9139841456770896,-0.8537154818709939
1726406903418686200,8.629686279296875,-0.6315010830044746,0.691583503523469,-0.8445079469341784
1726406903428684300,8.639684326171874,-0.8966749912187456,0.542768906584382,-0.8623411983318626
1726406903438682400,8.649682373046875,-0.9936077174901962,0.255893746432662,-0.8019985925067216
1726406903448680200,8.65968017578125,-1.0773194353997706,-0.09153145174980164,-0.6853044232539832
1726406903458677200,8.66967724609375,-1.014266036245972,-0.31364392461180685,-0.5343479919806122
1726406903468675000,8.679675048828125,-0.7538406377330422,-0.3453057218104601,-0.43042708732225
1726406903478673200,8.689673095703125,-0.5584636115834116,-0.19318740715086458,-0.3389856519434601
1726406903488671200,8.699671142578126,-0.16840791681185363,0.04624211121499538,-0.2628396200478077
1726406903498669000,8.7096689453125,0.2169783248439431,0.24011808515191077,-0.06020129765830934
1726406903508667100,8.719667236328124,0.3889885039314627,0.28378888457417484,0.05979615092352032
1726406903518665200,8.729665283203126,0.4342962569057941,0.30206454597711563,0.10632811193056405
1726406903528663000,8.7396630859375,0.41206805848479267,0.16612813531160353,0.16644319261014462
1726406903538661000,8.7496611328125,0.30581819942221045,-0.07470189750194549,0.1306850660085678
1726406903548659200,8.7596591796875,0.07781842208728194,-0.3816027775943279,0.2279208668798208
1726406903558657300,8.7696572265625,-0.09757891522049904,-0.4464361920326948,0.1750316458005458
1726406903568655400,8.7796552734375,-0.20120032547563313,-0.4656009112298488,0.22296207542866467
1726406903578653400,8.7896533203125,-0.5192813557520508,-0.45932197709083555,0.3327195772860199
1726406903588651300,8.7996513671875,-0.6912640623107552,-0.2690864054828882,0.24362244001105426
1726406903598648300,8.8096484375,-0.58403585973531,-0.04314297615587711,0.13220796472691
1726406903608646100,8.819646240234375,-0.5571460992440581,0.2288005723237991,0.00494468986056745
1726406903618644200,8.829644287109375,-0.5268199345633388,0.5369815553545951,-0.046719884794577955
1726406903628642300,8.839642333984376,-0.5162026789590716,0.6644201867878436,0.02855904541034251
1726406903638640000,8.84964013671875,-0.40996845585703845,0.7040221293359995,0.0504946175603196
1726406903648638200,8.85963818359375,-0.3342690717503428,0.6114741940200329,0.11490330378059298
1726406903658636300,8.86963623046875,-0.3314765184223652,0.30864275532364843,0.06181998490132391
1726406903668634000,8.879634033203125,-0.1386509303212166,0.04513561127781868,-0.008332724863663316
1726406903678632200,8.889632080078124,0.13022913893461227,-0.2308271097153425,-0.058878488089330494
1726406903688630300,8.89963037109375,0.25716654284745455,-0.5019949976474046,-0.04256718556191772
1726406903698628000,8.909628173828125,0.36656682876497504,-0.6429471906483173,-0.03539817071538418
1726406903708626200,8.919626220703124,0.6568053278699517,-0.802377874147892,-0.03837506763432175
1726406903718624000,8.9296240234375,1.0072294156074524,-0.8815221380114555,-0.06146740860398858
1726406903728621300,8.939621337890625,1.0153272357366978,-0.8994552695870399,-0.04500741832088679
1726406903738619400,8.949619384765626,0.8397194705486297,-0.8039549142062663,-0.03146159845143556
1726406903748617200,8.9596171875,0.822964588972181,-0.7646744586974382,0.08484843032192438
1726406903758615300,8.969615234375,0.9070097766198217,-0.6813859346359967,0.19804237290136514
1726406903768613400,8.97961328125,1.0594761740647256,-0.48748482625782485,0.14909012594483792
1726406903778611200,8.989611083984375,1.0706031327567993,-0.34668285538256166,0.07056399397961795
1726406903788609300,8.999609375,1.0216975014209746,-0.1649614296197891,-0.002304039158672094
1726406903798607000,9.009607177734376,0.8332720479749143,0.06207213303148746,-0.17818262064475565
1726406903808605200,9.019605224609375,0.6796468358837068,0.25409224996864793,-0.36814934871606525
1726406903818603300,9.029603271484374,0.517266801059246,0.43073476503193375,-0.4816615634644404
1726406903828601300,9.039601318359376,0.43283992061764,0.555124530288577,-0.44435920309554783
1726406903838599400,9.049599365234375,0.43470776031613345,0.7450894682615995,-0.4052792020622641
1726406903848597200,9.05959716796875,0.3728083535030484,0.9020265813797712,-0.36473380465153604
1726406903858595300,9.06959521484375,0.33084903417378664,0.9239800545126199,-0.27745891436766834
1726406903868592400,9.07959228515625,0.40624592820256944,0.9247346722722053,-0.16514540788456797
1726406903878590500,9.089590576171876,0.4959525026127696,0.7779647329032421,-0.11312102347370237
1726406903888588500,9.099588623046875,0.564119737648964,0.5850532200843095,-0.00728029320128262
1726406903898586400,9.10958642578125,0.6240154034242034,0.3519499821305275,0.08138364028818905
1726406903908584400,9.11958447265625,0.6470129787825047,0.20563889244496822,0.10564962814711033
1726406903918582500,9.12958251953125,0.6732356536671519,0.21078677672743795,0.10471088599227368
1726406903928580400,9.139580322265624,0.7304302437901496,0.25824469347298146,0.10048051841352135
1726406903938578400,9.149578369140626,0.7146782556459307,0.1650970386981964,0.14735190397538245
1726406903948576500,9.159576416015625,0.5754574164822698,-0.07615969509482383,0.09391936979964374
1726406903958574300,9.16957421875,0.3649158466875553,-0.4035334543734789,0.04776369475908577
1726406903968572400,9.179572509765626,0.05348609099388122,-0.6477297487497329,-0.053273544221743935
1726406903978570500,9.189570556640625,-0.18284560748711226,-0.7092050849318504,-0.20913042435515672
1726406903988567300,9.1995673828125,-0.10638912140280007,-0.6222691442787647,-0.2363906255939975
1726406903998565400,9.2095654296875,0.07995163472369313,-0.5302449405759573,-0.17143789562489836
1726406904008563200,9.219563232421875,0.010065320809930563,-0.4788578676879406,-0.15409388904888183
1726406904018561300,9.229561279296876,0.055471127331256864,-0.3939157312005758,-0.12553184796385466
1726406904028559400,9.239559326171875,0.07373845929726958,-0.44552667597234247,-0.2422926892446354
1726406904038557200,9.24955712890625,-0.000621054507791996,-0.4814303485244512,-0.2857353789994493
1726406904048555300,9.25955517578125,0.08169979356527328,-0.47215340161323543,-0.35873032645303754
1726406904058553300,9.26955322265625,0.17587328425645826,-0.30679332806468007,-0.4676292387196794
1726406904068551400,9.279551513671874,0.09123802176117897,-0.11605915928483009,-0.5617560041923075
1726406904078549500,9.289549560546876,-0.002791676545143127,0.044321372285485265,-0.5607390457021072
1726406904088547600,9.299547607421875,-0.04072364005446434,0.182712774887681,-0.5178477062197402
1726406904098545400,9.30954541015625,-0.13893617700338362,0.38599779768288134,-0.5202168830364943
1726406904108543500,9.31954345703125,-0.12504691399112344,0.4871399583429098,-0.48257860524412244
1726406904118540300,9.329540283203125,-0.018922288743406533,0.5940449203133583,-0.5357775498596951
1726406904128538400,9.339538330078126,0.14822539887428282,0.7130892328888178,-0.5687309577714651
1726406904138536400,9.349536376953125,0.3557879528582096,0.8091361162364482,-0.5475376918887719
1726406904148534300,9.3595341796875,0.36881694577932356,0.8392670506060123,-0.5339141671406105
1726406904158532400,9.369532470703126,0.3543079434335232,0.7918506349146366,-0.47264567864220586
1726406904168530400,9.379530517578125,0.3394339071676135,0.6876666223406791,-0.46580198675990103
1726406904178528300,9.3895283203125,0.1450043910011649,0.4972130240678787,-0.4343899265386164
1726406904188526300,9.3995263671875,-0.025763386809825897,0.22630758646428584,-0.3241037611646578
1726406904198524200,9.409524169921875,-0.06070347502678632,-0.013161094868183135,-0.31776977237015963
1726406904208522200,9.419522216796874,0.01843377457410097,-0.010644143611192702,-0.28512533907601606
1726406904218520300,9.429520263671876,0.21662088970839977,-0.02361176173388958,-0.08569589573042467
1726406904228518100,9.43951806640625,0.2016200121924281,-0.005530746120214462,0.10880131537737324
1726406904238515500,9.449515380859374,0.050741468460857864,-0.1568663859695196,0.28625101863769814
1726406904248513500,9.459513427734375,-0.045836745284497736,-0.3626204292267561,0.363139923056215
1726406904258511400,9.469511474609375,-0.14920651886612177,-0.5419651889860629,0.5114650925105437
1726406904268509400,9.479509521484376,-0.2139107539668679,-0.7809627456754445,0.6101880631996318
1726406904278507500,9.489507568359375,-0.13369272339195012,-0.7965466837763786,0.7484563874114304
1726406904288505300,9.49950537109375,-0.07951105134934186,-0.7021779627740383,0.8942669802289456
1726406904298503400,9.50950341796875,-0.005373801992833614,-0.5856693061560392,1.0365680305555462
1726406904308501200,9.519501220703125,-0.1334144909724593,-0.4646668452501297,1.1683287629716097
1726406904318499300,9.529499267578124,-0.26901597059518095,-0.38191432776153084,1.2042186261940746
1726406904328497400,9.539497314453126,-0.2413070026755333,-0.403428824955225,1.23556163976714
1726406904338495200,9.5494951171875,-0.403067005905509,-0.42462651128470896,1.260777767957747
1726406904348493300,9.559493408203124,-0.46710050213783977,-0.392289006781578,1.2623790656745433
1726406904358490400,9.569490478515625,-0.5927440668478607,-0.3435802131921053,1.2627438073337078
1726406904368488200,9.57948828125,-0.7503615634456277,-0.16824176646471023,1.4244472580708563
1726406904378486300,9.589486328125,-0.8802326827228069,-0.02968552868962288,1.439986041855812
1726406904388484400,9.599484375,-0.8279995143994688,0.16154431465268135,1.2720862206965684
1726406904398482400,9.609482421875,-0.9638619830459356,0.273687761798501,1.1330324086628853
1726406904408480500,9.61948046875,-1.1938088027954101,0.2541162153661251,0.9250680689450352
1726406904418478300,9.629478271484375,-1.31316934171319,0.15110942987799644,0.7683185142882167
1726406904428476400,9.639476318359375,-1.2989587377920746,0.11025368787646293,0.6117610481373965
1726406904438474500,9.649474609375,-1.1395493893414734,0.22508301310539244,0.36648236535191536
1726406904448472300,9.659472412109375,-1.1249185141816735,0.24239362886846064,0.19801374959507956
1726406904458470400,9.669470458984375,-1.0381658211410045,0.43155017306804655,-0.05211524103209376
1726406904468467200,9.67946728515625,-1.107250171022117,0.5623983206838369,-0.26036588687803597
1726406904478465300,9.68946533203125,-1.3241793960273265,0.5865589484721422,-0.36820805663336065
1726406904488463400,9.69946337890625,-1.3313204999536274,0.6074924309074878,-0.5188807755945251
1726406904498461200,9.709461181640625,-1.275076634684205,0.5160878204077481,-0.521907028080523
1726406904508459300,9.719459228515625,-1.2271052154585718,0.33644086283147334,-0.4184956073142588
1726406904518457300,9.729457275390626,-1.3603154160305857,-0.001786298894882202,-0.41592959275115277
1726406904528455200,9.739455078125,-1.3839225015893577,-0.17220073322355747,-0.3696077673634514
1726406904538453200,9.749453369140625,-1.25180126529783,-0.12196867558956145,-0.34460688935872164
1726406904548451300,9.759451416015626,-1.1874223166286946,-0.09176935215890407,-0.34620972144547846
1726406904558449200,9.76944921875,-1.2566063274919985,-0.06747603790163993,-0.39379714632220564
1726406904568447200,9.779447265625,-1.0584683121964336,-0.031873394122719764,-0.37969796688631174
1726406904578445300,9.7894453125,-0.9667992055416107,-0.0787923816859722,-0.30588443305883556
1726406904588442400,9.7994423828125,-0.8991782062113285,-0.2692746215313673,-0.20246566923633216
1726406904598440400,9.8094404296875,-0.7339736154854297,-0.5419143355816602,-0.06208448105640709
1726406904608438300,9.819438232421875,-0.46972179055213925,-0.5376578471809625,0.000651413113437593
1726406904618436400,9.829436279296875,-0.25916005475223064,-0.2972691283941269,-0.022080716241709885
1726406904628434400,9.839434326171874,-0.01528057124018669,-0.053857262393832206,-0.02108648103997111
1726406904638432300,9.849432373046875,0.30371055961847304,0.025043255841732025,-0.0026917233020067213
1726406904648430300,9.859430419921875,0.5184273692712188,0.0676478873372078,-0.007406184603273868
1726406904658428400,9.869428466796874,0.6318497503116727,0.19066753328442573,-0.0888274534881115
1726406904668426200,9.87942626953125,0.766325440774858,0.3139356010347605,-0.0946737683635205
1726406904678424300,9.88942431640625,0.8687713775098324,0.3934247328132391,-0.16062058740388602
1726406904688421400,9.89942138671875,0.8713985111430287,0.3365320482462644,-0.16513203694634138
1726406904698419500,9.90941943359375,0.7882713151231407,0.2304530157059431,-0.2504112233683467
1726406904708417500,9.91941748046875,0.7485653276786207,0.100316815751791,-0.34701515607684846
1726406904718415400,9.929415283203125,0.8003551361486315,0.018766075268387795,-0.5143588411906734
1726406904728413400,9.939413330078125,0.9819847919747233,0.008098550781607627,-0.5621154851544649
1726406904738411500,9.94941162109375,1.1770479298695922,0.05381283873021602,-0.5116295258246362
1726406904748409300,9.959409423828125,1.2879706030488014,0.0980640683889389,-0.3865786663107574
1726406904758407400,9.969407470703125,1.3193340018227695,0.10132628505527973,-0.2766784315144643
1726406904768405500,9.979405517578124,1.1473209001258016,-0.057794601842761036,-0.21257862858027218
1726406904778403300,9.9894033203125,1.0181295798063277,-0.2555851188749075,-0.18498510373383759
1726406904788401400,9.9994013671875,1.1352949467673896,-0.5243541289716959,-0.13585041288249194
1726406904798398200,10.009398193359376,1.2171537302866577,-0.564973724129796,-0.1144781737037003
1726406904808396300,10.019396240234375,1.223988544742763,-0.4805120646357536,-0.12772413384374232
1726406904818394400,10.029394287109374,1.3024421959936618,-0.33993396564424033,-0.07591335565093904
1726406904828392400,10.039392333984376,1.3444281110689043,-0.17508008805215358,0.02095664411522448
1726406904838390500,10.049390625,1.2229638778701424,0.0076852938055992125,-0.0056446182908490294
1726406904848388400,10.059388427734374,0.9008663054287434,0.0578571456849575,0.00605966536514461
1726406904858386400,10.069386474609376,0.6993991457104682,0.17550269737839697,0.0629547245522961
1726406904868384300,10.07938427734375,0.5649392373383045,0.2221878761857748,0.07540968044511974
1726406904878382300,10.08938232421875,0.46259091575890776,0.24336919590234754,0.07839351856149733
1726406904888380400,10.09938037109375,0.3799629014328122,0.24851006592214106,0.06407591060195118
1726406904898378500,10.10937841796875,0.46206893771141766,0.2251321129441261,0.07349266784265637
1726406904908375600,10.11937548828125,0.5139312268957495,0.2324614329189062,0.07096289363671093
1726406904918373600,10.12937353515625,0.5021875976100564,0.20873042871952055,0.11873517356105148
1726406904928371500,10.139371337890625,0.47589025005400176,0.10249182170331478,0.17908402646388857
1726406904938369500,10.14936962890625,0.6993292953446507,0.1591191333323717,0.14049454889390617
1726406904948367600,10.15936767578125,0.5228679820671678,0.0513695372313261,0.10563103304449468
1726406904958365400,10.169365478515624,0.3708352998644113,-0.22631401620507238,0.27652444652915
1726406904968363500,10.179363525390626,0.36078999892920255,-0.313050634893775,0.34246410517636683
1726406904978361300,10.189361328125,0.4005556076064706,-0.3431441598623991,0.41701570748742667
1726406904988359400,10.199359375,0.3969607979848981,-0.2815858215719461,0.5277329942876473
1726406904998357500,10.209357421875,0.4990747262865305,-0.11267010136842727,0.6079210315831005
1726406905008354300,10.219354248046875,0.35854134321957826,0.01336567752957344,0.65265419953987
1726406905018352400,10.229352294921876,0.15470160915106534,0.08820493767559529,0.7125766071915626
1726406905028350500,10.2393505859375,0.05861351701021194,0.11494213795363903,0.5902267867973074
1726406905038348500,10.2493486328125,0.002348316691815853,0.13056933067440987,0.3773220315352082
1726406905048346600,10.2593466796875,-0.18745938489288091,0.2040712047368288,0.21415523024722932
1726406905058344400,10.269344482421875,-0.43963264949768777,0.2109329071998596,0.20690018108505753
1726406905068342500,10.279342529296875,-0.6304658947378396,0.07282558223605155,0.15673581839241085
1726406905078340600,10.289340576171876,-0.7433657132089138,-0.07946399733722209,0.08522296272274106
1726406905088338400,10.29933837890625,-0.7254843118205666,-0.22755554069876668,-0.014157302831299602
1726406905098336500,10.30933642578125,-0.6610057021692395,-0.26995149787962436,-0.09583097557462751
1726406905108333600,10.31933349609375,-0.7891048433378338,-0.2175035177618265,-0.20041940423101184
1726406905118331400,10.329331298828125,-0.7974658444479107,-0.08687222776710987,-0.38312052521351725
1726406905128329500,10.33932958984375,-0.653434682393074,-0.0299982479006052,-0.462204912116006
1726406905138327300,10.349327392578125,-0.6831196265608072,-0.02919745291173458,-0.5655346824808046
1726406905148325400,10.359325439453125,-0.6976701299607754,-0.08554653212130069,-0.696660806787759
1726406905158323500,10.369323486328126,-0.8283075574353337,-0.07065583698153495,-0.7396701466266066
1726406905168321300,10.3793212890625,-0.9029252837851643,-0.02071194863915443,-0.6673116704456508
1726406905178319400,10.3893193359375,-0.9373772962242364,-0.04401566733717918,-0.5864903767479583
1726406905188317400,10.3993173828125,-0.9450921083852648,0.07346212657392025,-0.5596690053177997
1726406905198315300,10.409315185546875,-0.9337553063347935,0.22497253846824167,-0.5763511869842186
1726406905208312600,10.4193125,-0.8776105175256729,0.4088607868760824,-0.572867253858596
1726406905218310700,10.429310546875,-0.8318801552250981,0.5885317098498344,-0.47519729935377836
1726406905228308500,10.43930859375,-0.9530334227785467,0.5725333457291126,-0.36500071195941414
1726406905238306600,10.449306640625,-1.1865662843212486,0.5676338832497596,-0.2753410819634795
1726406905248304400,10.459304443359375,-1.2819944512486456,0.4164145632565021,-0.08879556051250546
1726406905258302500,10.469302490234375,-1.2671481797724962,0.3277595437258482,0.004678878531232476
1726406905268300500,10.479300537109374,-1.118678743009269,0.19222528412044046,0.17803871866203844
1726406905278298400,10.48929833984375,-1.0604960186317562,0.0553822800040245,0.47829146597683425
1726406905288296400,10.49929638671875,-0.8365496083408593,-0.0658656800955534,0.6909663945384323
1726406905298294500,10.50929443359375,-0.5647951526924967,-0.10887889239192008,0.7821358811080455
1726406905308291300,10.519291259765625,-0.3880889247432351,-0.10615618942975998,0.9042385583408177
1726406905318289400,10.529289306640624,-0.24604835198372602,-0.2275987953186035,1.0191286738462746
1726406905328287500,10.53928759765625,-0.2712751476988196,-0.31807050888240335,1.2054176997855306
1726406905338285600,10.54928564453125,-0.2119745252072811,-0.35274902355372906,1.2358550697557626
1726406905348283600,10.55928369140625,-0.1661468400120735,-0.318988792771101,1.3428139538705348
1726406905358281500,10.569281494140625,-0.04386982912570238,-0.20398060384392738,1.3552557945534587
1726406905368279600,10.579279541015625,0.12362199575453996,-0.08831365874707699,1.2519285449393094
1726406905378277600,10.589277587890624,0.08122077787667513,-0.08777180695533753,1.186766044677049
1726406905388275500,10.599275390625,-0.05494242728203535,-0.1383762050330639,1.0564584336787461
1726406905398272500,10.6092724609375,0.006781330703198909,-0.14819325017035007,0.9370816012132912
1726406905408270300,10.619270263671876,0.15673282271772623,0.02839315079152584,0.7803742051977663
1726406905418268400,10.629268310546875,0.13406564835757015,0.1916314098805189,0.5352868802659213
1726406905428266500,10.6392666015625,0.25814152535945173,0.349578576824069,0.29379622811917216
1726406905438264300,10.649264404296876,0.5404200053706765,0.4957487967342138,0.006412899249605834
1726406905448262400,10.659262451171875,0.8478437402933835,0.45518531567752357,-0.23364930926291272
1726406905458260500,10.669260498046874,1.1343129499927163,0.21793197230696676,-0.33596045890338716
1726406905468258300,10.67925830078125,1.247379357202351,-0.028344635474681853,-0.23282588231712578
1726406905478256400,10.68925634765625,1.2648995240628718,-0.08220306691229343,-0.3018478344865143
1726406905488254500,10.69925439453125,1.1762322295725345,-0.12718494893312454,-0.3278387829745188
1726406905498251500,10.70925146484375,0.9381795525178313,-0.20202946977615355,-0.24920056893695144
1726406905508249600,10.71924951171875,0.6758890907853842,-0.24339257677793502,-0.1861846157167107
1726406905518247400,10.729247314453126,0.43783407564312216,-0.3732634037941694,-0.12967844624929128
1726406905528245500,10.73924560546875,0.29485300716310736,-0.479095768097043,-0.04951426475346088
1726406905538243600,10.74924365234375,0.07017477546632289,-0.4681067565709352,0.10762969604842364
1726406905548241400,10.759241455078126,-0.05711071123182773,-0.27258476899266243,0.2748199806988239
1726406905558239500,10.769239501953125,-0.09752046303153038,0.017819149807095525,0.33513544278871266
1726406905568237600,10.779237548828124,-0.05915741462856531,0.09176642954945564,0.44156862252894785
1726406905578235400,10.7892353515625,0.005940788225829601,-0.06559329289495945,0.4387226950459182
1726406905588232400,10.799232421875,0.019641689059138295,-0.2560463066458702,0.33601277361251414
1726406905598230300,10.809230224609376,-0.06991378644257784,-0.2964917142808437,0.12637750500775874
1726406905608228400,10.819228271484375,-0.08629881179332732,-0.17938216916024685,0.06098123252224177
1726406905618226400,10.829226318359375,-0.1029065399840474,0.1080593927025795,-0.1398662243951112
1726406905628224300,10.839224365234376,-0.25118746843785045,0.35648762556016445,-0.3847113380689174
1726406905638222300,10.849222412109375,-0.345984643985331,0.39655250944495196,-0.5329014829667285
1726406905648220400,10.859220458984375,-0.39882980672717094,0.37061668867766856,-0.5110941037736833
1726406905658218500,10.869218505859376,-0.5497416682064533,0.2365308743149042,-0.5833759345218539
1726406905668216600,10.879216552734375,-0.6837573399424552,0.0031377135038375852,-0.642365226041898
1726406905678213600,10.889213623046874,-0.7890893535077571,-0.29665245780050753,-0.6968521646413952
1726406905688211500,10.89921142578125,-0.7652104652702808,-0.44256490355730055,-0.8156202175587415
1726406905698209500,10.90920947265625,-0.7089484798222779,-0.3544815464347601,-0.978587916078046
1726406905708207400,10.919207275390624,-0.6080632165327667,-0.1587228274911642,-1.032746280310303
1726406905718205400,10.929205322265625,-0.38169337848722934,-0.024169980138540267,-0.9731726130310445
1726406905728203500,10.93920361328125,-0.2773103362098336,0.12529752775132655,-0.8493732879482209
1726406905738201300,10.949201416015624,-0.1941819711461663,0.26479776837825775,-0.8238236900195479
1726406905748199400,10.959199462890625,-0.12601502837091683,0.2679594472795725,-0.7683831039570271
1726406905758197500,10.969197509765625,-0.07414893979430198,0.17944822013378142,-0.5857208171475679
1726406905768194600,10.979194580078126,-0.10239332976490259,0.1379313838750124,-0.5048641598755493
1726406905778192600,10.989192626953125,-0.1862529317125678,0.03551730358302593,-0.47282176586147395
1726406905788190500,10.9991904296875,-0.13700491667985915,0.026841245174407957,-0.38092027522288263
1726406905798188500,11.0091884765625,-0.06821048965603113,-0.0014443535894155502,-0.26017471168749035
1726406905808186600,11.0191865234375,0.07937339644432068,-0.07116027937233448,-0.07875972152538598
1726406905818184400,11.029184326171874,0.13475713775306938,-0.1723515398710966,0.04598404480069875
1726406905828182300,11.039182373046875,0.15581483108997343,-0.24958324811160562,0.20222521154396234
1726406905838180400,11.049180419921875,0.006584931348264217,-0.24083880064189434,0.2546499386503361
1726406905848178400,11.059178466796874,-0.03032119624465704,-0.2033119108021259,0.32268118101563303
1726406905858175200,11.06917529296875,0.1327589496731758,-0.1333387953877449,0.5055790301466361
1726406905868173300,11.07917333984375,0.2381774724781513,-0.1022644426882267,0.5181901995144784
1726406905878171100,11.089171142578126,0.21285656873881817,-0.057985155978798865,0.4723966723171994
1726406905888169200,11.099169189453125,0.17740151673704385,-0.11009586696624755,0.4778830313064158
1726406905898167300,11.109167236328124,0.3696589495614171,-0.022747838380932806,0.48172410730663684
1726406905908165000,11.1191650390625,0.409435956415534,0.11609715320765972,0.41945597677901386
1726406905918163200,11.1291630859375,0.3724395201906562,0.19513211147785187,0.38859307487308975
1726406905928161300,11.139161376953124,0.15956044735908506,0.24080665193796155,0.4223594431355595
1726406905938159000,11.1491591796875,0.005685352160036563,0.2149544178009033,0.44491417009718714
1726406905948156400,11.159156494140625,-0.0076499302312731735,0.17427052523493766,0.43684502807315434
1726406905958154200,11.169154296875,0.025885844145715237,0.1585223364830017,0.37371991539001465
1726406905968152300,11.17915234375,0.09692629653066397,0.030455928540229795,0.31263131350316103
1726406905978150400,11.189150390625,-0.0784089353263378,-0.1680167255371809,0.3108466220434755
1726406905988148200,11.199148193359376,-0.3191232328057289,-0.24345278253257274,0.2422333602728322
1726406905998146300,11.209146240234375,-0.3010056845739484,-0.15347615900933742,0.16979980956166982
1726406906008144400,11.219144287109375,-0.16162264058589934,0.05665127702653408,0.12549184474702924
1726406906018142200,11.22914208984375,-0.0884589124366641,0.06991817035675048,0.1327197501739487
1726406906028139300,11.23913916015625,-0.05624737240076065,0.032600539353489874,0.10228037090972066
1726406906038137000,11.24913720703125,0.024131401693820952,-0.09794365687966346,0.035216092146746814
1726406906048135200,11.25913525390625,0.20198738420009613,-0.30804128229916095,-0.13735435117203743
1726406906058133200,11.26913330078125,0.14598025029599665,-0.37910920721292496,-0.20652426044475286
1726406906068131300,11.27913134765625,0.07767126870155334,-0.43292146142125126,-0.14766904363315553
1726406906078129400,11.28912939453125,0.07862637746930122,-0.3512082238525152,-0.17029705502670256
1726406906088127500,11.29912744140625,-0.03288812412321567,-0.27691549167335033,-0.11586780143119393
1726406906098125300,11.309125244140626,0.007056348252296447,-0.1462958921164274,-0.0590452960235998
1726406906108122400,11.319122314453125,-0.08156769161820411,-0.06888882730901241,0.029076931804604828
1726406906118120200,11.3291201171875,-0.23149521823525426,-0.022296002960205077,0.0029821210833266376
1726406906128118300,11.3391181640625,-0.3665118837073445,0.08987783932387829,0.08414948827233165
1726406906138116400,11.349116455078125,-0.4024012354731559,0.23530922356545925,0.044226716271974144
1726406906148114200,11.3591142578125,-0.2887003297522664,0.23004618847072122,0.06543514319118111
1726406906158112300,11.3691123046875,-0.19737462970763445,0.20794658486545084,0.09846749809067695
1726406906168110300,11.3791103515625,-0.1782443973019719,0.17999650166630743,0.04033595591112971
1726406906178108200,11.389108154296874,-0.3801514097422361,0.09772329212725162,0.04268401687461883
1726406906188106200,11.399106201171875,-0.6358923037007451,-0.010063713374733925,0.12691879054391755
1726406906198103300,11.409103271484375,-0.5641907570585608,-0.042917350706458086,0.12673822807893156
1726406906208101400,11.419101318359376,-0.40547669739574194,0.11599193926751612,0.24947085551200432
1726406906218099500,11.429099365234375,-0.25516104824393987,0.17561843271255492,0.39172128989621996
1726406906228097300,11.43909716796875,-0.13544599680006503,0.18661913467645644,0.4049905943792313
1726406906238095400,11.449095458984376,-0.09173457310646772,0.02158522434234619,0.4196467866433784
1726406906248093400,11.459093505859375,-0.13965513892769812,-0.07471300341784953,0.42687659176643933
1726406906258091300,11.46909130859375,-0.24697481917887926,-0.21808862417340277,0.4888442780427634
1726406906268089300,11.47908935546875,-0.16121318300217388,-0.2891623943060636,0.4797153978327289
1726406906278086100,11.489086181640625,-0.06623714375644922,-0.22925533035397527,0.4568272011330351
1726406906288084200,11.499084228515626,-0.20543109491318462,-0.17486966017186642,0.5096274652872235
1726406906298082300,11.509082275390625,-0.28033494472801684,-0.10291969172656536,0.5417207857709377
1726406906308080000,11.519080078125,-0.23491496355086564,-0.0807359169691801,0.45473326106108725
1726406906318078200,11.529078125,-0.19032500345706937,-0.1144160682529211,0.42425928540751334
1726406906328076300,11.539076171875,-0.18800708190351723,-0.09681728319823742,0.45717444366812704
1726406906338074000,11.54907421875,-0.07438070272356272,-0.018134791627526282,0.37015769286379213
1726406906348072200,11.559072265625,-0.10238573098033665,0.2376385432958603,0.26816368288109077
1726406906358069200,11.5690693359375,-0.14249679209440946,0.43887832399904725,0.04697057162001729
1726406906368067300,11.5790673828125,-0.1469356513246894,0.6163391697078943,-0.20405997095676137
1726406906378065400,11.5890654296875,-0.17149784565120935,0.7640881832420825,-0.36032428111359477
1726406906388063200,11.599063232421875,-0.045777416312694545,0.8196113330215216,-0.5199838779982179
1726406906398061300,11.609061279296874,-0.15865326938629148,0.5615390735059976,-0.6796200209420173
1726406906408059400,11.619059326171875,-0.5851452822819352,0.24478899957239628,-0.7558047774128616
1726406906418057200,11.62905712890625,-0.8749649714529514,-0.06347206295728683,-0.7433489082045853
1726406906428055300,11.63905517578125,-0.8259758996173739,-0.28114918372035025,-0.7524762905772775
1726406906438052000,11.649052001953125,-0.7168602758601308,-0.41993046242296694,-0.7380420339681207
1726406906448050200,11.65905029296875,-0.5824985671654344,-0.472521650403738,-0.7916516052111983
1726406906458048300,11.66904833984375,-0.41758243799209593,-0.5784662429094314,-0.6838860808886588
1726406906468046000,11.679046142578125,-0.32172873912900685,-0.6565262186676264,-0.7555719185050577
1726406906478044200,11.689044189453124,-0.4182087531968951,-0.4500421075701713,-0.80147471476309
1726406906488042200,11.699042236328125,-0.4345250972256064,-0.10597381860017775,-0.7162013735599816
1726406906498040300,11.709040283203125,-0.6633271308541298,0.21628011344671247,-0.5527000065553933
1726406906508038400,11.719038330078124,-0.8929255755573511,0.4939601597517729,-0.4159441327331587
1726406906518035200,11.72903515625,-1.233679040890932,0.686859397611022,-0.29775899427030234
1726406906528033300,11.739033203125,-1.4258353514283895,0.7806079408884048,-0.2889114882849157
1726406906538031400,11.74903125,-1.5904980903625487,0.7136614798188209,-0.12936810165848583
1726406906548029200,11.759029296875,-1.380098559387028,0.4980278475821018,0.017702756885811684
1726406906558027300,11.76902734375,-0.921617124773562,0.31736499096155163,0.20436182171385733
1726406906568025300,11.779025390625,-0.624443273447454,0.13853285689949987,0.5463893621038646
1726406906578023200,11.789023193359375,-0.34276392837315794,-0.00858078134059906,0.8055060891710222
1726406906588021200,11.799021240234374,-0.1565983826830983,-0.11976795067489146,0.9196501355495303
1726406906598018000,11.80901806640625,-0.053476738643646236,-0.23734803591668605,0.913589885662496
1726406906608016100,11.81901611328125,0.12109452310353516,-0.28545711004734037,0.9434870112761855
1726406906618014200,11.82901416015625,0.4806488427579403,-0.32324586569368835,0.901554506888613
1726406906628012300,11.83901220703125,0.8404340485587716,-0.244966694226861,0.8723808001786469
1726406906638010400,11.84901025390625,0.9051774466261268,-0.1989911249935627,0.8052508723009377
1726406906648008400,11.859008544921876,0.7079808038339018,-0.22689912261664866,0.6363266034647822
1726406906658006300,11.86900634765625,0.38723084660917517,-0.25269290456473825,0.4117239212222397
1726406906668004400,11.87900439453125,0.18044424543380735,-0.11148176836669445,0.19971607826724647
1726406906678001200,11.889001220703125,0.04053162461370229,0.06726210289001465,-0.10440401200018823
1726406906687999200,11.898999267578125,0.11806377710551023,0.14482465052008628,-0.2909242528794333
1726406906697997300,11.908997314453124,0.22214316026121378,0.24280747036635875,-0.49485199402496216
1726406906707995100,11.9189951171875,0.11866934178322552,0.2925982139736414,-0.6913546632036567
1726406906717993200,11.9289931640625,-0.2018818779990077,0.24378420644402501,-0.7646382183402777
1726406906727991300,11.9389912109375,-0.4156327652290463,0.12756430363953114,-0.8472308690920471
1726406906737989000,11.948989013671875,-0.7162813069283962,0.09314999286234378,-0.9678571170967072
1726406906747986400,11.958986328125,-0.605392243757844,0.13116788108944893,-1.0101946951538323
1726406906757984300,11.968984375,-0.6218608557388187,0.2114952172577381,-1.0211123950093983
1726406906767982300,11.978982421875,-0.683272771295905,0.21843407661020756,-0.9659717417415231
1726406906777980400,11.98898046875,-0.6517746402263641,0.18209551977217198,-1.0221392538391052
1726406906787978200,11.998978271484376,-0.6501698353782296,0.09236907161772251,-1.100013790027797
1726406906797976300,12.008976318359375,-0.5737272316887975,0.14838146621882914,-1.1124288888342677
1726406906807974400,12.018974365234374,-0.5850128880739212,0.0981599299788475,-0.8935540827192365
1726406906817972200,12.02897216796875,-0.47239919306784867,0.030195816299319264,-0.5879180714635178
1726406906827969000,12.038968994140625,-0.25190175418704747,-0.005707856252789497,-0.34003790094275027
1726406906837967000,12.048967041015626,-0.09357844740748406,-0.11949322538673877,-0.14601006091237068
1726406906847965200,12.058965087890625,0.10290537094026804,-0.15210194804668425,-0.03862038416489959
1726406906857963000,12.068962890625,0.1639560519695282,-0.17705226490795611,0.11669267141539602
1726406906867961000,12.078961181640626,0.08840922807604074,-0.13183482056558132,0.15112871910035608
1726406906877959200,12.088959228515625,-0.024862346316874027,-0.028799393504858016,0.07773216857593507
1726406906887957000,12.09895703125,0.0009425415471196174,-0.0276759424328804,-0.04074523083176464
1726406906897954300,12.108954345703125,0.19295213709026574,-0.22130992430746554,-0.08355327594485133
1726406906907952000,12.1189521484375,0.12942951298952102,-0.2870335655838251,-0.04920351830385625
1726406906917950200,12.1289501953125,-0.07879939594864845,-0.19854981096684932,-0.04173373041246086
1726406906927948300,12.1389482421875,-0.03373071242719888,0.030109891581535337,-0.003299772197753191
1726406906937946000,12.148946044921875,-0.042139352071285247,0.2027507697880268,-0.1671351569296792
1726406906947944200,12.158944091796876,-0.19056553421467542,0.3090928371787071,-0.25631717774281276
1726406906957942300,12.1689423828125,-0.32662060282379385,0.3817454009354114,-0.16576757663721217
1726406906967940000,12.178940185546875,-0.34237580583840604,0.3456932598233223,-0.09728417005762457
1726406906977937200,12.188937255859376,-0.22694179271459577,0.1048176343023777,-0.020835520219895987
1726406906987935000,12.19893505859375,-0.2892600094616413,-0.18823942935466764,0.10305135528221726
1726406906997933000,12.20893310546875,-0.20820202093124388,-0.2138087548971176,0.09514290197892114
1726406907007931100,12.21893115234375,-0.026824001778662204,-0.06171499015688896,0.12726316526848822
1726406907017929000,12.228928955078125,-0.07312076579034328,0.1042336969345808,0.21218224967382848
1726406907027927000,12.238927001953124,-0.2594473472610116,0.312923793643713,0.196762087299861
1726406907037925000,12.248925048828125,-0.3586766600370407,0.41426118461489675,0.1445405728816986
1726406907047922200,12.258922119140625,-0.12685089467316865,0.3256850755393505,0.036236996159702536
1726406907057920300,12.268920166015626,-0.14672230083495377,-0.015547113221883773,0.00856357447747141
1726406907067918000,12.27891796875,-0.4253180006802082,-0.09901859263479709,-0.05275825164336711
1726406907077916200,12.288916259765625,-0.5413306904748082,-0.07860708824694156,-0.06084408907387405
1726406907087914200,12.298914306640626,-0.6079132866680622,-0.0012830255478620527,-0.18806867589764295
1726406907097912000,12.308912109375,-0.5750795230805874,-0.029508418557047843,-0.204643816993013
1726406907107910100,12.31891015625,-0.34501521443128585,-0.06666062986552715,-0.2622247395524755
1726406907117907000,12.328906982421875,-0.19822949297130107,-0.0030021044254302976,-0.2531550421837717
1726406907127905000,12.338905029296875,-0.31258681677430866,0.016515081471204757,-0.21655874772500244
1726406907137903000,12.348903076171876,-0.3809419755980372,-0.0032236382216215133,-0.2096839665846899
1726406907147901200,12.358901123046875,-0.2593286893174052,-0.1610579924404621,-0.2866568777585402
1726406907157899300,12.368899169921875,-0.09788841956108808,-0.4041974712401628,-0.24787458103019744
1726406907167897300,12.3788974609375,0.016522095733880995,-0.4540718014776706,-0.2511743897605687
1726406907177895200,12.388895263671875,0.02673047827631235,-0.4434557149171829,-0.23222797122290356
1726406907187892200,12.398892333984374,-0.09405395596474408,-0.4290554336428642,-0.22767633580053223
1726406907197890000,12.40889013671875,-0.07051292137950659,-0.24901684640049934,-0.15848096329299732
1726406907207888100,12.41888818359375,0.018760814571380614,-0.179758601257205,-0.14496378499614074
