time,seconds_elapsed,z,y,x
1726406894834152000,0.04515185546875,-0.13448138535022736,-0.12239675223827362,0.11238086968660355
1726406894844150000,0.05514990234375,-0.12638749182224274,-0.0918220654129982,0.08950751274824142
1726406894854149000,0.065149169921875,-0.11316623538732529,-0.10373970866203308,0.05404166504740715
1726406894864147000,0.07514697265625,-0.10516849905252457,-0.13607102632522583,0.00663340138271451
1726406894874145000,0.08514501953125,-0.09523516893386841,-0.16361209750175476,-0.03488767519593239
1726406894884143000,0.09514306640625,-0.08536390215158463,-0.18388940393924713,-0.04896834120154381
1726406894894141000,0.105140869140625,-0.08020561933517456,-0.22184105217456818,-0.050463974475860596
1726406894904139000,0.115138916015625,-0.07667533308267593,-0.25745123624801636,-0.04830921068787575
1726406894914137000,0.12513720703125,-0.07285662740468979,-0.260842502117157,-0.037160683423280716
1726406894924135000,0.135135009765625,-0.06938839703798294,-0.2283942848443985,-0.009838782250881195
1726406894934133000,0.145133056640625,-0.0756409615278244,-0.1893715262413025,0.020257068797945976
1726406894944131000,0.155131103515625,-0.085859514772892,-0.1519991159439087,0.03894686698913574
1726406894954129000,0.16512890625,-0.10296899080276489,-0.13630244135856628,0.05162964016199112
1726406894964127000,0.175126953125,-0.12242178618907928,-0.125433549284935,0.049491118639707565
1726406894974124800,0.185124755859375,-0.129954531788826,-0.10125125199556351,0.031439147889614105
1726406894984123000,0.195122802734375,-0.11475134640932083,-0.06611963361501694,-0.000853809411637485
1726406894994121000,0.205120849609375,-0.09989570081233978,-0.03362267464399338,-0.02322915568947792
1726406895004119000,0.215119140625,-0.10561776906251907,-0.03418433666229248,-0.010276339948177338
1726406895014118000,0.225117919921875,-0.11471673101186752,-0.09130940586328506,0.044491302222013474
1726406895024116000,0.235115966796875,-0.1291651725769043,-0.19293829798698425,0.12898993492126465
1726406895034114000,0.245114013671875,-0.14388792216777802,-0.2881835997104645,0.22609491646289825
1726406895044112000,0.25511181640625,-0.16612479090690613,-0.3682856261730194,0.3083716928958893
1726406895054110000,0.26510986328125,-0.17451322078704834,-0.43452802300453186,0.3598063886165619
1726406895064108000,0.27510791015625,-0.15263375639915466,-0.4634243845939636,0.37354588508605957
1726406895074105900,0.28510595703125,-0.12445670366287231,-0.42477846145629883,0.37200790643692017
1726406895084104000,0.29510400390625,-0.13837438821792603,-0.3347415030002594,0.38699591159820557
1726406895094102000,0.30510205078125,-0.19271299242973328,-0.2567034363746643,0.44659000635147095
1726406895104100000,0.31510009765625,-0.21985220909118652,-0.21987563371658325,0.529075562953949
1726406895114098200,0.32509814453125,-0.21555359661579132,-0.17067188024520874,0.6367482542991638
1726406895124096000,0.335095947265625,-0.27469441294670105,-0.20189663767814636,0.7290360927581787
1726406895134094000,0.345093994140625,-0.32751715183258057,-0.290018230676651,0.7646923661231995
1726406895144092200,0.355092041015625,-0.2990141212940216,-0.3429672122001648,0.7652356028556824
1726406895154090000,0.365090087890625,-0.2120070606470108,-0.33488956093788147,0.7553558349609375
1726406895164088000,0.375088134765625,-0.09058396518230438,-0.2980439364910126,0.7421532273292542
1726406895174086100,0.385086181640625,0.051240019500255585,-0.21591684222221375,0.7366830706596375
1726406895184085200,0.395085205078125,0.226933553814888,-0.07727241516113281,0.7707300186157227
1726406895194083000,0.4050830078125,0.3832493722438812,0.09171154350042343,0.8162415623664856
1726406895204081200,0.4150810546875,0.4696178138256073,0.1501207947731018,0.8154793381690979
1726406895214079000,0.425078857421875,0.4876950979232788,0.061982411891222,0.7868607640266418
1726406895224077000,0.4350771484375,0.3029193878173828,-0.22205090522766113,0.7401736974716187
1726406895234075100,0.4450751953125,0.13590137660503387,-0.5277599692344666,0.7346649169921875
1726406895244073000,0.455072998046875,0.01883467473089695,-0.7498825192451477,0.7155846953392029
1726406895254071000,0.465071044921875,-0.03604615107178688,-0.7822689414024353,0.6856225728988647
1726406895264069000,0.475069091796875,-0.03428766503930092,-0.8039686679840088,0.6647473573684692
1726406895274067000,0.48506689453125,-0.0024588967207819223,-0.7895625233650208,0.6519378423690796
1726406895284065000,0.49506494140625,-0.0035289546940475702,-0.5893807411193848,0.6507402062416077
1726406895294063000,0.50506298828125,-0.04327317327260971,-0.3457328975200653,0.6246987581253052
1726406895304061000,0.51506103515625,-0.08021281659603119,-0.1083829328417778,0.5863004922866821
1726406895314059000,0.52505908203125,-0.07393600791692734,0.08455749601125717,0.5444532036781311
1726406895324057000,0.53505712890625,-0.0776258185505867,0.21879546344280243,0.47507837414741516
1726406895334056000,0.545055908203125,-0.08195851743221283,0.32401803135871887,0.3967963457107544
1726406895344054000,0.555053955078125,-0.07139428704977036,0.34613823890686035,0.33542487025260925
1726406895354052000,0.565052001953125,-0.06442373245954514,0.28687331080436707,0.31248387694358826
1726406895364050000,0.5750498046875,-0.08010175824165344,0.200972780585289,0.3468511700630188
1726406895374048000,0.585048095703125,-0.1077408418059349,0.14009372889995575,0.44042080640792847
1726406895384046000,0.595046142578125,-0.11940522491931915,0.12783652544021606,0.5737324953079224
1726406895394044000,0.6050439453125,-0.134750097990036,0.16118036210536957,0.7137812376022339
1726406895404042000,0.6150419921875,-0.15216396749019623,0.15661518275737762,0.806429922580719
1726406895414040000,0.6250400390625,-0.18438102304935455,0.10954780131578445,0.8313376903533936
1726406895424038000,0.635037841796875,-0.20137545466423035,0.0791587308049202,0.7961072325706482
1726406895434036000,0.645035888671875,-0.18513309955596924,0.12063586711883545,0.7248826026916504
1726406895444034000,0.655033935546875,-0.13210131227970123,0.21808306872844696,0.6450042724609375
1726406895454032000,0.665031982421875,-0.046119026839733124,0.27400463819503784,0.5290856957435608
1726406895464030000,0.675030029296875,-0.0012895026011392474,0.30505526065826416,0.4256269335746765
1726406895474028000,0.685028076171875,-0.008497880771756172,0.2805086374282837,0.37774330377578735
1726406895484025900,0.69502587890625,-0.053883206099271774,0.20292675495147705,0.3986397981643677
1726406895494024000,0.70502392578125,-0.07987059652805328,0.22209379076957703,0.45018500089645386
1726406895504022000,0.71502197265625,0.019773438572883606,0.6122607588768005,0.5190373063087463
1726406895514020900,0.725020751953125,0.36527758836746216,1.4675953388214111,0.5716741681098938
1726406895524019000,0.73501904296875,0.8500610589981079,2.370518207550049,0.6117552518844604
1726406895534017000,0.74501708984375,1.2375890016555786,2.653034210205078,0.5974199771881104
1726406895544014800,0.755014892578125,1.3488596677780151,2.2470452785491943,0.5449983477592468
1726406895554013000,0.765012939453125,1.2359153032302856,1.502416968345642,0.5862602591514587
1726406895564011000,0.775010986328125,0.9617692232131958,0.701212465763092,0.688076913356781
1726406895574008800,0.7850087890625,0.7103803753852844,0.032222386449575424,0.8005251884460449
1726406895584007000,0.7950068359375,0.6098737120628357,-0.5301591753959656,0.9088716506958008
1726406895594005000,0.8050048828125,0.6835170388221741,-1.0838717222213745,0.9974262714385986
1726406895604003000,0.815003173828125,0.9356318712234497,-1.6570124626159668,0.9692153930664062
1726406895614001200,0.825001220703125,1.2105026245117188,-1.9389399290084839,0.7797983288764954
1726406895623999200,0.834999267578125,1.4645566940307617,-2.5503909587860107,0.7165618538856506
1726406895633997000,0.8449970703125,1.7040412425994873,-2.9973042011260986,0.7866434454917908
1726406895643995100,0.8549951171875,2.1076900959014893,-3.646803617477417,0.9514901638031006
1726406895653993200,0.8649931640625,2.7622175216674805,-4.034855842590332,1.42373788356781
1726406895663991000,0.874990966796875,3.4388580322265625,-4.174465656280518,2.3538739681243896
1726406895673989000,0.884989013671875,3.948777198791504,-4.191585063934326,3.3561365604400635
1726406895683987000,0.894987060546875,4.1987409591674805,-4.105892658233643,4.223845958709717
1726406895693986000,0.904986083984375,4.352841854095459,-4.00456428527832,4.7175612449646
1726406895703984000,0.914984130859375,4.326777935028076,-3.7205817699432373,4.721231937408447
1726406895713982200,0.924982177734375,4.551628589630127,-3.2788925170898438,4.2494215965271
1726406895723980000,0.93497998046875,5.256406307220459,-3.072274923324585,4.135469913482666
1726406895733978000,0.94497802734375,6.06576681137085,-3.1552889347076416,4.299557209014893
1726406895743976200,0.95497607421875,6.8920722007751465,-3.2276694774627686,4.6380815505981445
1726406895753974000,0.96497412109375,7.469137668609619,-2.8068108558654785,4.783614635467529
1726406895763972000,0.97497216796875,7.762226104736328,-2.456390142440796,4.566776275634766
1726406895773970200,0.98497021484375,7.956823348999023,-2.4865190982818604,4.061001777648926
1726406895783968000,0.994968017578125,8.036827087402344,-2.4729459285736084,3.5851449966430664
1726406895793966000,1.004966064453125,8.139148712158203,-2.343832492828369,3.247901201248169
1726406895803964200,1.014964111328125,8.363208770751953,-2.172548770904541,3.1116902828216553
1726406895813962200,1.024962158203125,8.599801063537598,-2.1295506954193115,3.115908622741699
1726406895823960000,1.0349599609375,8.888910293579102,-2.082035541534424,3.2773630619049072
1726406895833958100,1.044958251953125,9.050834655761719,-1.8618379831314087,3.6170132160186768
1726406895843956000,1.0549560546875,8.811317443847656,-1.689880609512329,4.001482009887695
1726406895853954000,1.0649541015625,8.341245651245117,-1.504880666732788,4.251774787902832
1726406895863952100,1.0749521484375,7.918896198272705,-1.2875808477401733,4.351387977600098
1726406895873950000,1.084949951171875,7.622098922729492,-0.9560942649841309,4.296476364135742
1726406895883949000,1.094948974609375,7.418576240539551,-0.5254278182983398,4.164786338806152
1726406895893947100,1.104947021484375,7.222775459289551,-0.07650702446699142,4.000185489654541
1726406895903945200,1.1149453125,6.877680778503418,0.03161172196269035,3.9035472869873047
1726406895913943000,1.124943115234375,6.347483158111572,-0.1836411952972412,3.982724189758301
1726406895923941000,1.134941162109375,5.694377422332764,-0.5293133854866028,4.199526786804199
1726406895933939200,1.144939208984375,5.075178623199463,-0.8213540315628052,4.403469085693359
1726406895943937000,1.15493701171875,4.54128360748291,-1.0849318504333496,4.388108253479004
1726406895953935000,1.16493505859375,3.8464014530181885,-0.7656481266021729,4.155242919921875
1726406895963933000,1.174932861328125,3.112872362136841,-0.02382916584610939,3.6904215812683105
1726406895973931000,1.184930908203125,2.277536392211914,1.0151562690734863,2.9562954902648926
1726406895983929000,1.19492919921875,1.5845144987106323,1.9544233083724976,2.3042173385620117
1726406895993927000,1.204927001953125,1.087135910987854,2.6908137798309326,1.8694708347320557
1726406896003925000,1.214925048828125,0.7109745144844055,2.9377386569976807,1.6377452611923218
1726406896013923000,1.224923095703125,0.37305960059165955,2.717353582382202,1.5534034967422485
1726406896023921000,1.2349208984375,0.0361124649643898,2.1724965572357178,1.6754419803619385
1726406896033919000,1.2449189453125,-0.37804102897644043,1.5660688877105713,1.766310453414917
1726406896043917000,1.2549169921875,-0.8643973469734192,0.8933784365653992,1.642674446105957
1726406896053915100,1.2649150390625,-1.4280754327774048,0.402686208486557,1.284623622894287
1726406896063913200,1.274913330078125,-1.998236894607544,0.13067811727523804,0.6980398297309875
1726406896073911300,1.284911376953125,-2.593148708343506,-0.0289435014128685,-0.10929852724075317
1726406896083910000,1.294909912109375,-3.0975332260131836,-0.0936812162399292,-0.8827324509620667
1726406896093908000,1.304907958984375,-3.6057872772216797,-0.11426931619644165,-1.5745666027069092
1726406896103906000,1.314906005859375,-3.8362314701080322,-0.11780039966106415,-2.103665590286255
1726406896113903900,1.32490380859375,-3.7825753688812256,-0.024113059043884277,-2.347727060317993
1726406896123902200,1.334902099609375,-3.667435884475708,0.024208933115005493,-2.493013858795166
1726406896133900300,1.344900390625,-3.5334763526916504,0.36290842294692993,-2.7849977016448975
1726406896143898000,1.354898193359375,-3.093019723892212,0.2719963490962982,-2.834651231765747
1726406896153896200,1.364896240234375,-2.7916128635406494,0.04145849496126175,-2.8614561557769775
1726406896163894300,1.374894287109375,-2.793973445892334,-0.19530372321605682,-2.949103593826294
1726406896173892000,1.38489208984375,-2.6782684326171875,-0.5046064257621765,-3.231125593185425
1726406896183890200,1.39489013671875,-2.3439745903015137,-1.1377415657043457,-3.3852970600128174
1726406896193888300,1.40488818359375,-2.1062099933624268,-1.706324815750122,-3.053208589553833
1726406896203886000,1.414885986328125,-1.752276062965393,-1.7987618446350098,-2.935878038406372
1726406896213884200,1.42488427734375,-1.4123334884643555,-1.471245527267456,-2.3900115489959717
1726406896223882200,1.43488232421875,-1.022438883781433,-0.8737090826034546,-2.0733141899108887
1726406896233880000,1.444880126953125,-0.9097379446029663,-0.4762387275695801,-2.0870816707611084
1726406896243878100,1.454878173828125,-1.086915135383606,-0.3748777508735657,-2.360109329223633
1726406896253876200,1.464876220703125,-1.3672319650650024,-0.13463637232780457,-2.984283685684204
1726406896263874000,1.4748740234375,-1.7301993370056152,0.05408747121691704,-3.646738290786743
1726406896273872100,1.4848720703125,-1.8512508869171143,0.7058538198471069,-4.387057304382324
1726406896283870200,1.4948701171875,-2.0508885383605957,0.9252806901931763,-4.637723445892334
1726406896293868000,1.504867919921875,-1.6394171714782715,1.9426114559173584,-5.4131903648376465
1726406896303867100,1.5148671875,-1.2008830308914185,2.676640510559082,-6.231311321258545
1726406896313865200,1.524865234375,-0.9080183506011963,1.851128339767456,-6.736661434173584
1726406896323863000,1.534863037109375,-0.23494753241539001,0.7938651442527771,-6.7194366455078125
1726406896333861000,1.544861083984375,0.1546337902545929,-0.8867604732513428,-6.435795783996582
1726406896343859200,1.554859130859375,-0.11689519137144089,-2.179018020629883,-6.209499835968018
1726406896353857000,1.56485693359375,-0.4977906048297882,-1.9107235670089722,-5.6774516105651855
1726406896363855000,1.574855224609375,-0.7609626054763794,-1.1341012716293335,-5.394077777862549
1726406896373853200,1.584853271484375,-0.8362591862678528,-0.12150565534830093,-5.418783664703369
1726406896383851000,1.59485107421875,-0.5711183547973633,0.6095552444458008,-5.702629089355469
1726406896393849000,1.60484912109375,-0.04247049614787102,0.5484125018119812,-6.114187240600586
1726406896403847200,1.61484716796875,0.5812063813209534,-0.09635449945926666,-6.742002964019775
1726406896413845000,1.624844970703125,1.7599507570266724,-2.136859655380249,-7.086487293243408
1726406896423843000,1.634843017578125,2.917351007461548,-4.040069103240967,-7.124224662780762
1726406896433841000,1.6448408203125,3.9609673023223877,-6.034129619598389,-6.809165000915527
1726406896443839000,1.6548388671875,5.037728786468506,-8.487560272216797,-5.996370792388916
1726406896453837000,1.664837158203125,5.768808364868164,-10.224929809570312,-4.6510233879089355
1726406896463835000,1.6748349609375,5.89775276184082,-10.378204345703125,-2.989705801010132
1726406896473833000,1.6848330078125,5.437314033508301,-8.518521308898926,-0.9349727630615234
1726406896483831000,1.6948310546875,4.646816730499268,-5.883968830108643,1.0968972444534302
1726406896493829000,1.7048291015625,3.7540688514709473,-3.7658374309539795,2.5918474197387695
1726406896503827200,1.7148271484375,3.004363775253296,-2.4400346279144287,3.6609151363372803
1726406896513825300,1.7248251953125,2.3602840900421143,-1.3031270503997803,4.400542736053467
1726406896523823000,1.734822998046875,1.6104375123977661,-0.9685352444648743,4.639219284057617
1726406896533821200,1.7448212890625,0.8459147810935974,-1.6666650772094727,4.472762107849121
1726406896543819300,1.7548193359375,0.5488615036010742,-2.376814365386963,4.231535911560059
1726406896553817000,1.764817138671875,0.47387516498565674,-2.987654685974121,3.9021334648132324
1726406896563816200,1.774816162109375,0.305001437664032,-3.4699134826660156,3.657796859741211
1726406896573814300,1.784814208984375,0.16986334323883057,-3.389021873474121,3.474569320678711
1726406896583812000,1.79481201171875,0.27046212553977966,-3.2176454067230225,3.318113088607788
1726406896593810200,1.80481005859375,0.8567959070205688,-2.93445086479187,3.368356704711914
1726406896603808300,1.814808349609375,1.5669219493865967,-2.571491241455078,3.5474700927734375
1726406896613806000,1.82480615234375,2.3708908557891846,-2.5774457454681396,2.848438262939453
1726406896623804200,1.83480419921875,3.260526657104492,-2.7713189125061035,1.9566724300384521
1726406896633802200,1.84480224609375,4.055069446563721,-2.0551297664642334,1.3810641765594482
1726406896643800000,1.854800048828125,4.127743721008301,-1.0803898572921753,0.8983848690986633
1726406896653798100,1.864798095703125,3.9967973232269287,-0.06348896026611328,0.4403688609600067
1726406896663796200,1.874796142578125,3.7655880451202393,0.9510667324066162,0.03116031549870968
1726406896673794000,1.8847939453125,3.4657092094421387,1.6751930713653564,-0.3532763123512268
1726406896683792100,1.894792236328125,3.0586843490600586,2.0833580493927,-0.6305009722709656
1726406896693790200,1.904790283203125,2.425508737564087,2.36079740524292,-0.7196851968765259
1726406896703788000,1.9147880859375,1.6940652132034302,2.760313034057617,-0.538635790348053
1726406896713786000,1.9247861328125,0.9800041317939758,3.506402015686035,-0.032290827482938766
1726406896723784200,1.9347841796875,0.38362833857536316,4.216040134429932,0.6463172435760498
1726406896733782000,1.944781982421875,0.0708475410938263,4.6013031005859375,1.326224684715271
1726406896743780000,1.954780029296875,0.03800597041845322,4.45025110244751,1.7739760875701904
1726406896753778200,1.964778076171875,0.20851433277130127,3.6900155544281006,2.012956380844116
1726406896763776000,1.97477587890625,0.4184579849243164,2.6778271198272705,2.0109102725982666
1726406896773774000,1.984774169921875,0.6031537652015686,1.7027753591537476,1.8648372888565063
1726406896783772000,1.99477197265625,0.7305692434310913,0.9376739859580994,1.674063801765442
1726406896793770000,2.00477001953125,0.7897289991378784,0.3956195116043091,1.4888896942138672
1726406896803768000,2.01476806640625,0.8027119040489197,0.09469428658485413,1.259124994277954
1726406896813766700,2.0247666015625,0.7737281918525696,-0.1538074016571045,0.9878029227256775
1726406896823764500,2.034764404296875,0.7221621870994568,-0.4154627025127411,0.7125202417373657
1726406896833762600,2.044762451171875,0.6894828081130981,-0.5830077528953552,0.4184393286705017
1726406896843760600,2.0547607421875,0.6592609882354736,-0.7397899031639099,0.12006009370088577
1726406896853758500,2.064758544921875,0.6832435727119446,-0.8350264430046082,-0.19361713528633118
1726406896863756500,2.074756591796875,0.7068452835083008,-0.7872477173805237,-0.47575056552886963
1726406896873755600,2.084755615234375,0.6920706033706665,-0.8309246301651001,-0.7054237127304077
1726406896883753500,2.09475341796875,0.6936338543891907,-0.8180975317955017,-0.8223995566368103
1726406896893751600,2.10475146484375,0.6561554670333862,-0.46031567454338074,-0.7983152866363525
1726406896903749600,2.11474951171875,0.7117708325386047,-0.2891750931739807,-0.7960278987884521
1726406896913747500,2.12474755859375,0.8806948661804199,-0.0767965093255043,-0.5810276865959167
1726406896923745500,2.13474560546875,1.003142237663269,0.45619282126426697,-0.18670649826526642
1726406896933743600,2.14474365234375,1.1342471837997437,0.9209107160568237,0.13248081505298615
1726406896943741400,2.154741455078125,1.2125766277313232,1.2753633260726929,0.37132322788238525
1726406896953739500,2.164739501953125,1.2982401847839355,1.5304139852523804,0.5384474992752075
1726406896963737600,2.174737548828125,1.3513199090957642,1.685006022453308,0.6055554151535034
1726406896973735700,2.184735595703125,1.321065068244934,1.7289252281188965,0.6334664225578308
1726406896983733800,2.194733642578125,1.1621805429458618,1.6639747619628906,0.6220992207527161
1726406896993731800,2.20473193359375,0.9327899813652039,1.4811875820159912,0.5913271903991699
1726406897003729700,2.214729736328125,0.6418827772140503,1.1764780282974243,0.5586076378822327
1726406897013727700,2.224727783203125,0.3476751446723938,0.7890645265579224,0.5467397570610046
1726406897023725800,2.234725830078125,0.18035006523132324,0.45919448137283325,0.5789640545845032
1726406897033723600,2.2447236328125,0.13068237900733948,0.2904132008552551,0.7035158276557922
1726406897043721700,2.2547216796875,0.163816899061203,0.286725789308548,0.9186534285545349
1726406897053719800,2.2647197265625,0.23672625422477722,0.38956746459007263,1.150892734527588
1726406897063717600,2.274717529296875,0.28862088918685913,0.5170218348503113,1.338118076324463
1726406897073715700,2.2847158203125,0.3130066394805908,0.5992897748947144,1.4554798603057861
1726406897083713500,2.294713623046875,0.3087088465690613,0.5831281542778015,1.505711555480957
1726406897093711600,2.304711669921875,0.30147701501846313,0.4925553798675537,1.5112406015396118
1726406897103709700,2.314709716796875,0.26382312178611755,0.4266088306903839,1.4834129810333252
1726406897113707500,2.32470751953125,0.24406220018863678,0.4074561893939972,1.3926491737365723
1726406897123705600,2.33470556640625,0.23744504153728485,0.41803452372550964,1.2695189714431763
1726406897133703700,2.34470361328125,0.2273055911064148,0.44370022416114807,1.1484251022338867
1726406897143701500,2.354701416015625,0.1989748775959015,0.4225943982601166,1.0253673791885376
1726406897153699600,2.364699462890625,0.1574532687664032,0.37123799324035645,0.9107025265693665
1726406897163697700,2.37469775390625,0.11396411806344986,0.3066810965538025,0.8118758201599121
1726406897173695500,2.384695556640625,0.0764407142996788,0.2271476686000824,0.7319825887680054
1726406897183693600,2.394693603515625,0.06141488999128342,0.11613832414150238,0.6582098603248596
1726406897193691600,2.404691650390625,0.051238685846328735,-0.01176078524440527,0.5785983800888062
1726406897203689500,2.414689453125,0.045939527451992035,-0.1236329898238182,0.485405832529068
1726406897213687600,2.4246875,0.0398922897875309,-0.23014691472053528,0.3684091866016388
1726406897223685600,2.434685546875,0.028116855770349503,-0.2939687669277191,0.2521584630012512
1726406897233684500,2.4446845703125,0.012380769476294518,-0.32448914647102356,0.14001329243183136
1726406897243682600,2.4546826171875,0.000969656917732209,-0.3798104524612427,0.02468004636466503
1726406897253680600,2.4646806640625,-0.023274429142475128,-0.38630348443984985,-0.09941074252128601
1726406897263678500,2.474678466796875,-0.05180567502975464,-0.3635273575782776,-0.19574527442455292
1726406897273676500,2.484676513671875,-0.08792639523744583,-0.32551658153533936,-0.26596084237098694
1726406897283674600,2.494674560546875,-0.11815779656171799,-0.3390797972679138,-0.3153457045555115
1726406897293672400,2.50467236328125,-0.13993127644062042,-0.3824789226055145,-0.35106003284454346
1726406897303670500,2.51467041015625,-0.15037192404270172,-0.42554065585136414,-0.3601195514202118
1726406897313668600,2.524668701171875,-0.13592959940433502,-0.45535632967948914,-0.3452972173690796
1726406897323666700,2.534666748046875,-0.09975641965866089,-0.45147398114204407,-0.3125070333480835
1726406897333664800,2.544664794921875,-0.03506877273321152,-0.4049443006515503,-0.25265488028526306
1726406897343662800,2.554662841796875,0.02009701170027256,-0.3365386128425598,-0.1826813966035843
1726406897353660700,2.56466064453125,0.051910337060689926,-0.286877304315567,-0.10868227481842041
1726406897363658800,2.57465869140625,0.07014712691307068,-0.3002202808856964,-0.052502088248729706
1726406897373656800,2.58465673828125,0.05260036140680313,-0.34119459986686707,-0.011469702236354351
1726406897383654700,2.594654541015625,-0.040998831391334534,-0.3967446982860565,0.008582835085690022
1726406897393652700,2.60465283203125,-0.17040155827999115,-0.45943522453308105,0.00006604639202123508
1726406897403650800,2.61465087890625,-0.2718461751937866,-0.5256182551383972,-0.01980592869222164
1726406897413648600,2.624648681640625,-0.3115594983100891,-0.5804578065872192,-0.01823998987674713
1726406897423646700,2.634646728515625,-0.3115192651748657,-0.5511989593505859,0.028150411322712898
1726406897433644500,2.64464453125,-0.3000546395778656,-0.4351317584514618,0.10818985104560852
1726406897443642600,2.654642578125,-0.2970961332321167,-0.29452937841415405,0.18174555897712708
1726406897453640700,2.664640625,-0.31053122878074646,-0.16791443526744843,0.2320377677679062
1726406897463638500,2.674638427734375,-0.3342032730579376,-0.0611504390835762,0.2638193964958191
1726406897473636600,2.68463671875,-0.3812570869922638,-0.012537096627056599,0.29159802198410034
1726406897483634700,2.694634765625,-0.4280671775341034,-0.015838617458939552,0.3167896568775177
1726406897493632500,2.704632568359375,-0.46452587842941284,-0.04379381984472275,0.34522396326065063
1726406897503630600,2.714630615234375,-0.5016500353813171,-0.1396031677722931,0.36383840441703796
1726406897513628700,2.724628662109375,-0.5378512144088745,-0.28264954686164856,0.36325863003730774
1726406897523626500,2.73462646484375,-0.5680298805236816,-0.40221667289733887,0.33456307649612427
1726406897533624600,2.74462451171875,-0.5924955606460571,-0.48859843611717224,0.2850743532180786
1726406897543622700,2.75462255859375,-0.6076361536979675,-0.5076121091842651,0.22593912482261658
1726406897553620500,2.764620361328125,-0.6024951934814453,-0.5041717886924744,0.1594647616147995
1726406897563618600,2.77461865234375,-0.5803437829017639,-0.48369264602661133,0.0895698294043541
1726406897573616600,2.78461669921875,-0.5520056486129761,-0.4435662627220154,0.019527096301317215
1726406897583614500,2.794614501953125,-0.5309898257255554,-0.38402649760246277,-0.03557929769158363
1726406897593612500,2.804612548828125,-0.50209641456604,-0.31351238489151,-0.06491588056087494
1726406897603611000,2.81461083984375,-0.4820963442325592,-0.2236618548631668,-0.0561508871614933
1726406897613608700,2.824608642578125,-0.4519200623035431,-0.12449266016483307,0.0004719121498055756
1726406897623606800,2.834606689453125,-0.39332813024520874,-0.061419419944286346,0.09174403548240662
1726406897633604600,2.8446044921875,-0.3245687484741211,-0.04108778014779091,0.21489232778549194
1726406897643603500,2.854603515625,-0.25839319825172424,-0.03819319233298302,0.35853391885757446
1726406897653601500,2.8646015625,-0.20553530752658844,-0.049422942101955414,0.52474445104599
1726406897663599600,2.874599609375,-0.17569592595100403,-0.068450428545475,0.697631299495697
1726406897673597700,2.88459765625,-0.13938745856285095,-0.06881208717823029,0.8471595048904419
1726406897683595800,2.894595703125,-0.1118309274315834,-0.10319189727306366,0.9421603679656982
1726406897693593900,2.90459375,-0.09796198457479477,-0.19158726930618286,0.960181713104248
1726406897703591700,2.914591796875,-0.09060686826705933,-0.31228917837142944,0.8857649564743042
1726406897713589800,2.92458984375,-0.08518493175506592,-0.4046425521373749,0.7383608818054199
1726406897723587800,2.934587890625,-0.08765075355768204,-0.45621493458747864,0.551486074924469
1726406897733585700,2.944585693359375,-0.08746673166751862,-0.4340797960758209,0.3488629162311554
1726406897743583700,2.954583740234375,-0.0777970626950264,-0.39615294337272644,0.1321420520544052
1726406897753581800,2.964581787109375,-0.06279813498258591,-0.3673394024372101,-0.09966001659631729
1726406897763579600,2.97457958984375,-0.05728619173169136,-0.3326280117034912,-0.33286023139953613
1726406897773577700,2.98457763671875,-0.04782770946621895,-0.2861614525318146,-0.5211707949638367
1726406897783575600,2.994575439453125,-0.03423706442117691,-0.2271559238433838,-0.6306988596916199
1726406897793573600,3.00457373046875,-0.03171025961637497,-0.1290903389453888,-0.6686118841171265
1726406897803571700,3.01457177734375,-0.0453760027885437,-0.020242420956492424,-0.6558476090431213
1726406897813569000,3.024569091796875,-0.0729312002658844,0.07110559940338135,-0.623749852180481
1726406897823567000,3.034567138671875,-0.10928814113140106,0.13403768837451935,-0.584290087223053
1726406897833565200,3.044565185546875,-0.14081624150276184,0.15539251267910004,-0.5465559959411621
1726406897843563000,3.05456298828125,-0.16682280600070953,0.1446237564086914,-0.5115333199501038
1726406897853561000,3.06456103515625,-0.18154023587703705,0.11138112097978592,-0.46653255820274353
1726406897863559200,3.07455908203125,-0.19293376803398132,0.09326709806919098,-0.41206425428390503
1726406897873557000,3.084556884765625,-0.20555634796619415,0.08649387955665588,-0.3472229540348053
1726406897883555000,3.09455517578125,-0.21333198249340057,0.09547698497772217,-0.28154993057250977
1726406897893553200,3.10455322265625,-0.22591541707515717,0.1311737298965454,-0.22802624106407166
1726406897903551000,3.114551025390625,-0.2444177269935608,0.1965455412864685,-0.18107950687408447
1726406897913549300,3.12454931640625,-0.2665099799633026,0.2941029965877533,-0.14370523393154144
1726406897923547100,3.134547119140625,-0.3004887104034424,0.4258847236633301,-0.10448220372200012
1726406897933545200,3.144545166015625,-0.3407205641269684,0.5580890774726868,-0.05451996624469757
1726406897943543300,3.154543212890625,-0.36907339096069336,0.6656501889228821,-0.006388390902429819
1726406897953541000,3.164541015625,-0.3780665993690491,0.7426709532737732,0.03537982702255249
1726406897963539200,3.174539306640625,-0.3868590295314789,0.7839230298995972,0.05998903512954712
1726406897973537300,3.184537353515625,-0.42151740193367004,0.814875066280365,0.06359735131263733
1726406897983535000,3.19453515625,-0.44326716661453247,0.8371468186378479,0.05276015028357506
1726406897993533200,3.204533203125,-0.4555281102657318,0.8216941356658936,0.05805158615112305
1726406898003531300,3.21453125,-0.44212016463279724,0.7970089912414551,0.08144186437129974
1726406898013529000,3.224529052734375,-0.4125627875328064,0.7884080410003662,0.1365429311990738
1726406898023527200,3.234527099609375,-0.3848899006843567,0.7711137533187866,0.20962274074554443
1726406898033525200,3.244525146484375,-0.34220901131629944,0.7235238552093506,0.28251397609710693
1726406898043523000,3.254523193359375,-0.3008809983730316,0.6837527751922607,0.32002460956573486
1726406898053521200,3.264521240234375,-0.22586482763290405,0.660419225692749,0.3128974437713623
1726406898063519200,3.274519287109375,-0.1318722814321518,0.6510310173034668,0.28374436497688293
1726406898073517000,3.28451708984375,-0.05290982127189636,0.6462485194206238,0.25702381134033203
1726406898083515100,3.29451513671875,-0.008072307333350182,0.6234902143478394,0.23443619906902313
1726406898093513200,3.30451318359375,0.028125910088419914,0.5909748673439026,0.2241571992635727
1726406898103511000,3.314510986328125,0.06898945569992065,0.5148329734802246,0.2385726273059845
1726406898113509000,3.324509033203125,0.10385396331548691,0.3861525058746338,0.27903908491134644
1726406898123507200,3.334507080078125,0.12645141780376434,0.21349869668483734,0.3290330171585083
1726406898133505000,3.344505126953125,0.1460416316986084,0.03279629722237587,0.3857460916042328
1726406898143503000,3.354503173828125,0.16323792934417725,-0.12717312574386597,0.4476190507411957
1726406898153501000,3.3645009765625,0.14998283982276917,-0.30402007699012756,0.47850534319877625
1726406898163499000,3.3744990234375,0.10767879337072372,-0.5073010325431824,0.4623418152332306
1726406898173498000,3.384498046875,0.03644402697682381,-0.7466603517532349,0.4000089168548584
1726406898183496200,3.39449609375,-0.050339870154857635,-0.9911990165710449,0.31940168142318726
1726406898193494000,3.404493896484375,-0.11282002180814743,-1.2081949710845947,0.22215929627418518
1726406898203492000,3.4144921875,-0.14520059525966644,-1.360993504524231,0.1343197226524353
1726406898213490200,3.424490234375,-0.15622581541538239,-1.4553229808807373,0.06066521257162094
1726406898223488000,3.434488037109375,-0.1819210648536682,-1.4808392524719238,0.0038133803755044937
1726406898233486000,3.444486083984375,-0.2017299234867096,-1.4848958253860474,-0.05269996449351311
1726406898243484200,3.454484130859375,-0.19988808035850525,-1.4954246282577515,-0.12126970291137695
1726406898253482000,3.46448193359375,-0.17945630848407745,-1.5036436319351196,-0.18695177137851715
1726406898263480000,3.47447998046875,-0.1510358601808548,-1.4750663042068481,-0.24069756269454956
1726406898273478100,3.48447802734375,-0.12687751650810242,-1.373234748840332,-0.28451773524284363
1726406898283476200,3.494476318359375,-0.08749256283044815,-1.1964032649993896,-0.34137198328971863
1726406898293474300,3.504474365234375,-0.07527744024991989,-1.0089436769485474,-0.39912447333335876
1726406898303472000,3.51447216796875,-0.09267987310886383,-0.8740779757499695,-0.4554048180580139
1726406898313470200,3.52447021484375,-0.11840147525072098,-0.8294721245765686,-0.5009480714797974
1726406898323468300,3.53446826171875,-0.14920467138290405,-0.8562198877334595,-0.5199302434921265
1726406898333466000,3.544466064453125,-0.16482196748256683,-0.8898723721504211,-0.5277903079986572
1726406898343464200,3.554464111328125,-0.16755197942256927,-0.8891913890838623,-0.5270203948020935
1726406898353462300,3.564462158203125,-0.17652523517608643,-0.809707760810852,-0.5299890041351318
1726406898363460000,3.574460205078125,-0.1890045404434204,-0.6608690023422241,-0.5333014726638794
1726406898373458200,3.584458251953125,-0.19101043045520782,-0.46251970529556274,-0.5234584212303162
1726406898383456300,3.594456298828125,-0.1844918131828308,-0.2388056516647339,-0.4963458478450775
1726406898393454000,3.6044541015625,-0.1653335690498352,-0.0199862252920866,-0.45552676916122437
1726406898403452200,3.6144521484375,-0.13705399632453918,0.15070189535617828,-0.4154248833656311
1726406898413450200,3.6244501953125,-0.10893580317497253,0.26713210344314575,-0.37582927942276
1726406898423448000,3.634447998046875,-0.10047148168087006,0.3290623128414154,-0.3406582474708557
1726406898433446100,3.644446044921875,-0.10429977625608444,0.32404279708862305,-0.303952693939209
1726406898443444200,3.6544443359375,-0.11635243892669678,0.290346622467041,-0.27097582817077637
1726406898453442000,3.664442138671875,-0.14352653920650482,0.2100728154182434,-0.2373901903629303
1726406898463440100,3.674440185546875,-0.17122101783752441,0.09040766209363937,-0.20586900413036346
1726406898473438200,3.684438232421875,-0.17075948417186737,-0.0454242080450058,-0.17133153975009918
1726406898483436000,3.69443603515625,-0.14570553600788116,-0.20016637444496155,-0.14147910475730896
1726406898493434000,3.70443408203125,-0.12207876890897751,-0.3612695038318634,-0.11578705161809921
1726406898503432000,3.714431884765625,-0.09229397773742676,-0.5145903825759888,-0.08690187335014343
1726406898513430000,3.724429931640625,-0.0719199925661087,-0.6481812000274658,-0.05218890309333801
1726406898523428000,3.734427978515625,-0.06579259783029556,-0.7503640055656433,-0.016098542138934135
1726406898533426000,3.744426025390625,-0.05365550518035889,-0.8101210594177246,0.014093182049691677
1726406898543424300,3.75442431640625,-0.02575809322297573,-0.810541570186615,0.02095162123441696
1726406898553422300,3.76442236328125,0.03616998717188835,-0.6852244138717651,-0.033661823719739914
1726406898563420200,3.774420166015625,0.12501490116119385,-0.4849666953086853,-0.14957857131958008
1726406898573418200,3.784418212890625,0.17870768904685974,-0.31475260853767395,-0.27846384048461914
1726406898583416300,3.794416259765625,0.20078369975090027,-0.24320892989635468,-0.3841434121131897
1726406898593414100,3.8044140625,0.17957481741905212,-0.3177494704723358,-0.42182260751724243
1726406898603412200,3.814412109375,0.12697899341583252,-0.49479323625564575,-0.3884534537792206
1726406898613410300,3.824410400390625,0.08334522694349289,-0.6703325510025024,-0.30445072054862976
1726406898623408000,3.834408203125,0.0577184222638607,-0.8415192365646362,-0.19644807279109955
1726406898633406200,3.84440625,0.03852235898375511,-1.0056405067443848,-0.07469474524259567
1726406898643404300,3.854404296875,0.02911660633981228,-1.1204030513763428,0.03321414440870285
1726406898653402000,3.864402099609375,0.01997876726090908,-1.181502103805542,0.10625240206718445
1726406898663400200,3.874400146484375,0.008132494986057281,-1.222305417060852,0.15708708763122559
1726406898673398300,3.884398193359375,-0.0026048377621918917,-1.2236762046813965,0.17555265128612518
1726406898683396000,3.89439599609375,-0.008563661016523838,-1.1958926916122437,0.17605385184288025
1726406898693394200,3.904394287109375,-0.006638461723923683,-1.145265817642212,0.16858582198619843
1726406898703392000,3.91439208984375,0.0034751589410007,-1.074973225593567,0.15979285538196564
1726406898713390000,3.92439013671875,-0.002275937469676137,-0.9973045587539673,0.13952593505382538
1726406898723388200,3.93438818359375,-0.01660347729921341,-0.9010373950004578,0.10753045231103897
1726406898733386000,3.944385986328125,-0.026328543201088905,-0.7830045223236084,0.06796599924564362
1726406898743384000,3.954384033203125,-0.027658792212605476,-0.616712749004364,0.017656758427619934
1726406898753382100,3.964382080078125,-0.030728884041309357,-0.4196593165397644,-0.023785756900906563
1726406898763380000,3.9743798828125,-0.03842834755778313,-0.20871512591838837,-0.06089823693037033
1726406898773378000,3.9843779296875,-0.04523991420865059,-0.018034394830465317,-0.09311342984437943
1726406898783376100,3.994376220703125,-0.04670971632003784,0.12833772599697113,-0.12304603308439255
1726406898793374000,4.0043740234375,-0.05301101878285408,0.2299858033657074,-0.15110935270786285
1726406898803372000,4.0143720703125,-0.060200754553079605,0.2817144989967346,-0.17507301270961761
1726406898813370000,4.0243701171875,-0.07613284885883331,0.2874613404273987,-0.19616630673408508
1726406898823368000,4.034367919921875,-0.08928673714399338,0.25792768597602844,-0.21080517768859863
1726406898833366000,4.044365966796875,-0.09780512005090714,0.19445469975471497,-0.22104370594024658
1726406898843363800,4.05436376953125,-0.09659658372402191,0.11623446643352509,-0.2121703177690506
1726406898853362000,4.06436181640625,-0.09614357352256775,0.032763805240392685,-0.19308210909366608
1726406898863360000,4.074360107421875,-0.09575369209051132,-0.055561527609825134,-0.16354818642139435
1726406898873357800,4.08435791015625,-0.1012461930513382,-0.14010225236415863,-0.13088291883468628
1726406898883356000,4.09435595703125,-0.11005566269159317,-0.2081681191921234,-0.09886905550956726
1726406898893354000,4.10435400390625,-0.11078430712223053,-0.27118968963623047,-0.0703364834189415
1726406898903351800,4.114351806640625,-0.10883886367082596,-0.31324127316474915,-0.04231869429349899
1726406898913350000,4.124349853515625,-0.11263146996498108,-0.3238574266433716,-0.019473033025860786
1726406898923348000,4.134347900390625,-0.11954743415117264,-0.31424182653427124,-0.007361509837210178
1726406898933345800,4.144345703125,-0.13231968879699707,-0.29053837060928345,-0.0072898706421256065
1726406898943343900,4.15434375,-0.1398652195930481,-0.25321975350379944,-0.01703544333577156
1726406898953342000,4.164342041015625,-0.13345366716384888,-0.2021413892507553,-0.03206286206841469
1726406898963339800,4.17433984375,-0.12101004272699356,-0.14587651193141937,-0.04987701028585434
1726406898973337900,4.184337890625,-0.10119453072547913,-0.10048319399356842,-0.06958227604627609
1726406898983335700,4.194335693359375,-0.08485310524702072,-0.06508046388626099,-0.09162099659442902
1726406898993333800,4.204333740234375,-0.07076232135295868,-0.03858760744333267,-0.10935578495264053
1726406899003331800,4.214331787109375,-0.06306152045726776,-0.03363945335149765,-0.12244309484958649
1726406899013329700,4.22432958984375,-0.048704687505960464,-0.04939844086766243,-0.12698271870613098
1726406899023327700,4.23432763671875,-0.042459577322006226,-0.08162348717451096,-0.11952852457761765
1726406899033325800,4.244325927734375,-0.04932307451963425,-0.13562333583831787,-0.11519689857959747
1726406899043323600,4.25432373046875,-0.061956312507390976,-0.20374460518360138,-0.12328891456127167
1726406899053321700,4.26432177734375,-0.07827349752187729,-0.29114848375320435,-0.13070474565029144
1726406899063319800,4.27431982421875,-0.08518440276384354,-0.3822011649608612,-0.1410125195980072
1726406899073318000,4.28431787109375,-0.09530308097600937,-0.4579760730266571,-0.1453217715024948
1726406899083316000,4.29431591796875,-0.1131659671664238,-0.5134193897247314,-0.14618730545043945
1726406899093314000,4.30431396484375,-0.13159450888633728,-0.5492029190063477,-0.13479003310203552
1726406899103312000,4.314311767578125,-0.1393621563911438,-0.5630481839179993,-0.10989747196435928
1726406899113310000,4.32431005859375,-0.13779407739639282,-0.5297320485115051,-0.07545747607946396
1726406899123308000,4.33430810546875,-0.1387786567211151,-0.4438035488128662,-0.03726774454116821
1726406899133305900,4.344305908203125,-0.14209935069084167,-0.30521103739738464,0.003459978848695755
1726406899143304000,4.354303955078125,-0.15161828696727753,-0.13735146820545197,0.0406358428299427
1726406899153302000,4.364302001953125,-0.15860243141651154,0.029592514038085938,0.06449936330318451
1726406899163299800,4.3742998046875,-0.15744927525520325,0.18638718128204346,0.07263478636741638
1726406899173298000,4.3842978515625,-0.1714244782924652,0.312238872051239,0.06320267170667648
1726406899183296000,4.3942958984375,-0.18656401336193085,0.4260663688182831,0.037212617695331573
1726406899193293800,4.4042939453125,-0.2041344940662384,0.5303472280502319,0.0019065570086240768
1726406899203292000,4.4142919921875,-0.20376910269260406,0.6382862329483032,-0.04566788673400879
1726406899213289700,4.424289794921875,-0.18851318955421448,0.731929361820221,-0.09444208443164825
1726406899223287800,4.434287841796875,-0.15649107098579407,0.8034245371818542,-0.14018134772777557
1726406899233286000,4.444285888671875,-0.12004038691520691,0.8422742486000061,-0.1761726289987564
1726406899243283700,4.45428369140625,-0.07615681737661362,0.8494178652763367,-0.20314140617847443
1726406899253281800,4.46428173828125,-0.04296237975358963,0.8264912366867065,-0.22456519305706024
1726406899263279900,4.47427978515625,-0.02485102042555809,0.7745140790939331,-0.24351198971271515
1726406899273277700,4.484277587890625,-0.010882741771638393,0.7072405219078064,-0.2533193528652191
1726406899283275800,4.49427587890625,0.004462392535060644,0.6093259453773499,-0.2514900267124176
1726406899293273900,4.50427392578125,0.008839564397931099,0.48093491792678833,-0.24119770526885986
1726406899303271700,4.514271728515625,-0.005885852500796318,0.3158612847328186,-0.22755646705627441
1726406899313269800,4.524269775390625,-0.02359507419168949,0.1139843612909317,-0.21023233234882355
1726406899323267800,4.534267822265625,-0.024892833083868027,-0.09758248180150986,-0.1917223036289215
1726406899333265700,4.544265625,-0.023316774517297745,-0.3085927367210388,-0.1741987019777298
1726406899343263700,4.554263671875,-0.01912842132151127,-0.4922211468219757,-0.15626390278339386
1726406899353261800,4.56426171875,-0.017404822632670403,-0.6258055567741394,-0.14127403497695923
1726406899363260000,4.574260009765625,-0.016709204763174057,-0.7072716355323792,-0.12574221193790436
1726406899373258000,4.584258056640625,-0.01973322406411171,-0.7429300546646118,-0.108685202896595
1726406899383256000,4.594256103515625,-0.023244868963956833,-0.7515802979469299,-0.0953502207994461
1726406899393254000,4.60425390625,-0.028553081676363945,-0.766078531742096,-0.09571001678705215
1726406899403252000,4.614251953125,-0.034996867179870605,-0.784909188747406,-0.10295567661523819
1726406899413250000,4.62425,-0.038662973791360855,-0.8188434839248657,-0.12723411619663239
1726406899423248000,4.634247802734375,-0.024694694206118584,-0.8550483584403992,-0.15755607187747955
1726406899433246000,4.644245849609375,0.012206599116325378,-0.8660778403282166,-0.1758168339729309
1726406899443243800,4.654243896484375,0.06176163628697395,-0.8301424384117126,-0.17728263139724731
1726406899453241900,4.664241943359375,0.11014674603939056,-0.7302742004394531,-0.15682104229927063
1726406899463240000,4.674239990234375,0.14937883615493774,-0.5807377099990845,-0.11633539944887161
1726406899473237800,4.68423779296875,0.1789628267288208,-0.41500037908554077,-0.05901298671960831
1726406899483235800,4.69423583984375,0.19707311689853668,-0.2769724726676941,0.0020061591640114784
1726406899493234000,4.70423388671875,0.19704994559288025,-0.17732924222946167,0.051240816712379456
1726406899503231700,4.714231689453125,0.1818869709968567,-0.12352566421031952,0.08294522017240524
1726406899513229800,4.724229736328125,0.1673908531665802,-0.11740811914205551,0.09187479317188263
1726406899523228000,4.734227783203125,0.16446325182914734,-0.14578969776630402,0.08665154129266739
1726406899533225700,4.744225830078125,0.17796626687049866,-0.17755721509456635,0.07836884260177612
1726406899543223800,4.754223876953125,0.19394470751285553,-0.18615762889385223,0.07673605531454086
1726406899553222000,4.764221923828125,0.2104531079530716,-0.15439648926258087,0.08205731958150864
1726406899563219700,4.7742197265625,0.22491860389709473,-0.0954655334353447,0.09532944858074188
1726406899573217800,4.7842177734375,0.23127582669258118,-0.028859345242381096,0.10988336056470871
1726406899583215900,4.7942158203125,0.2241380214691162,0.020474381744861603,0.11902865022420883
1726406899593213700,4.804213623046875,0.21187257766723633,0.04292110353708267,0.12499626725912094
1726406899603211800,4.814211669921875,0.19765742123126984,0.04836753383278847,0.1306605339050293
1726406899613209900,4.8242099609375,0.17407725751399994,0.05619749054312706,0.13857918977737427
1726406899623207700,4.834207763671875,0.1528068631887436,0.07710836827754974,0.14592285454273224
1726406899633206000,4.8442060546875,0.14083515107631683,0.09539975225925446,0.15951509773731232
1726406899643203800,4.854203857421875,0.13077639043331146,0.11465228348970413,0.17035655677318573
1726406899653202000,4.864201904296875,0.1337607204914093,0.1354430466890335,0.17572495341300964
1726406899663200000,4.874199951171875,0.13486407697200775,0.15220259130001068,0.16856931149959564
1726406899673197800,4.88419775390625,0.14634309709072113,0.16777275502681732,0.162024587392807
1726406899683196000,4.89419580078125,0.17200905084609985,0.1862867921590805,0.15109790861606598
1726406899693194000,4.904194091796875,0.17667943239212036,0.2127080112695694,0.12903840839862823
1726406899703191800,4.91419189453125,0.18778161704540253,0.2370290607213974,0.10353491455316544
1726406899713190000,4.92418994140625,0.21603348851203918,0.26575976610183716,0.08227543532848358
1726406899723188000,4.93418798828125,0.2532826066017151,0.28214994072914124,0.05320250242948532
1726406899733185800,4.944185791015625,0.2824101150035858,0.2685811221599579,0.025909096002578735
1726406899743184000,4.954183837890625,0.31624770164489746,0.21458686888217926,-0.011660384014248848
1726406899753182000,4.964181884765625,0.3564702272415161,0.10593175888061523,-0.050140131264925
1726406899763179800,4.9741796875,0.4094327986240387,-0.048942241817712784,-0.06554572284221649
1726406899773177900,4.984177734375,0.4720471501350403,-0.23787780106067657,-0.046733684837818146
1726406899783176000,4.994176025390625,0.5128750205039978,-0.4394966661930084,-0.0024431839119642973
1726406899793173800,5.004173828125,0.48036208748817444,-0.6334065198898315,0.040098682045936584
1726406899803171800,5.014171875,0.40537145733833313,-0.8280707597732544,0.05078248679637909
1726406899813170000,5.024169921875,0.32471710443496704,-1.0442880392074585,0.019363312050700188
1726406899823168300,5.034168212890625,0.2545798122882843,-1.2679378986358643,-0.02533145621418953
1726406899833166300,5.044166259765625,0.20275017619132996,-1.454656958580017,-0.06297922879457474
1726406899843164400,5.054164306640625,0.1503564864397049,-1.5622576475143433,-0.08818604797124863
1726406899853162200,5.064162353515625,0.0983518734574318,-1.5929956436157227,-0.0923381894826889
1726406899863160300,5.074160400390625,0.0716310441493988,-1.5554040670394897,-0.07189842313528061
1726406899873158400,5.084158447265625,0.05181685835123062,-1.4549293518066406,-0.03104659914970398
1726406899883156200,5.09415625,0.0464513897895813,-1.2857019901275635,0.018998458981513977
1726406899893154300,5.104154296875,0.06160876899957657,-1.0596179962158203,0.066591277718544
1726406899903152400,5.11415234375,0.08727045357227325,-0.7791871428489685,0.10198149085044861
1726406899913150200,5.124150146484375,0.09346257150173187,-0.49543851613998413,0.08459131419658661
1726406899923148300,5.134148193359375,0.09034720808267593,-0.25051984190940857,0.010742392390966415
1726406899933146400,5.144146484375,0.12362686544656754,-0.034692734479904175,-0.09180501848459244
1726406899943144400,5.15414453125,0.18688759207725525,0.15079191327095032,-0.20140688121318817
1726406899953142500,5.164142578125,0.2637972831726074,0.33391326665878296,-0.2987659275531769
1726406899963140600,5.174140625,0.33347463607788086,0.5183342099189758,-0.37068644165992737
1726406899973138400,5.184138427734375,0.36696842312812805,0.6858776807785034,-0.4113103151321411
1726406899983136500,5.194136474609375,0.3571983277797699,0.8428928852081299,-0.4229065179824829
1726406899993134600,5.204134521484375,0.30673596262931824,0.961602509021759,-0.42199358344078064
1726406900003132400,5.21413232421875,0.20805732905864716,1.0024969577789307,-0.40707987546920776
1726406900013130500,5.224130615234375,0.09756490588188171,0.9466778635978699,-0.397419810295105
1726406900023128600,5.234128662109375,-0.011783688329160213,0.7915697693824768,-0.37953028082847595
1726406900033126400,5.24412646484375,-0.08021627366542816,0.6184986233711243,-0.3518888056278229
1726406900043124500,5.25412451171875,-0.07339458912611008,0.43575841188430786,-0.3036581575870514
1726406900053122300,5.264122314453125,-0.02822418138384819,0.2522173225879669,-0.239096999168396
1726406900063120400,5.274120361328125,0.009702960960566998,0.11964943259954453,-0.15382897853851318
1726406900073118500,5.284118408203125,0.03961185738444328,0.04716644808650017,-0.07207339257001877
1726406900083116300,5.2941162109375,0.038227278739213943,0.0013582120882347226,-0.015308382920920849
1726406900093114400,5.3041142578125,0.01896010898053646,-0.043236419558525085,-0.005064000841230154
1726406900103112400,5.314112548828125,-0.01823573000729084,-0.07337354868650436,-0.030675088986754417
1726406900113110300,5.3241103515625,-0.05271301046013832,-0.09156160801649094,-0.07406703382730484
1726406900123108400,5.3341083984375,-0.07510779798030853,-0.10765189677476883,-0.13420307636260986
1726406900133106400,5.3441064453125,-0.0775320753455162,-0.12443007528781891,-0.19145305454730988
1726406900143104300,5.354104248046875,-0.07410618662834167,-0.11478783190250397,-0.22820201516151428
1726406900153102300,5.364102294921875,-0.0790996104478836,-0.09621495008468628,-0.25386157631874084
1726406900163100400,5.374100341796875,-0.06449004262685776,-0.052255745977163315,-0.24560870230197906
1726406900173098200,5.38409814453125,-0.04910176619887352,0.04313681647181511,-0.1952454000711441
1726406900183096300,5.394096435546875,-0.035297270864248276,0.17394863069057465,-0.1187564805150032
1726406900193094400,5.404094482421875,-0.04303135722875595,0.3291419446468353,-0.03266473487019539
1726406900203092200,5.41409228515625,-0.06792046129703522,0.4952901601791382,0.044618066400289536
1726406900213090300,5.42409033203125,-0.1013689637184143,0.650789737701416,0.10396847873926163
1726406900223088400,5.43408837890625,-0.11543285101652145,0.7749559283256531,0.13380414247512817
1726406900233086500,5.44408642578125,-0.10808412730693817,0.843113124370575,0.12800191342830658
1726406900243084500,5.45408447265625,-0.08540917187929153,0.8777560591697693,0.09115228056907654
1726406900253082400,5.464082275390625,-0.05985294654965401,0.870832085609436,0.03331481292843819
1726406900263080400,5.47408056640625,-0.036495160311460495,0.8281280398368835,-0.04321165382862091
1726406900273078500,5.48407861328125,-0.01883121207356453,0.7560285329818726,-0.1125185564160347
1726406900283076400,5.494076416015625,0.0009811085183173418,0.6489324569702148,-0.16064293682575226
1726406900293074400,5.504074462890625,0.021770276129245758,0.5419937372207642,-0.1902194768190384
1726406900303072500,5.514072509765625,0.0366903692483902,0.46300840377807617,-0.19871921837329865
1726406900313070300,5.5240703125,0.04291391000151634,0.4224018454551697,-0.18003208935260773
1726406900323068400,5.534068359375,0.04163666069507599,0.44385841488838196,-0.15493978559970856
1726406900333066500,5.54406640625,0.03817135468125343,0.5130132436752319,-0.1245211586356163
1726406900343064300,5.554064208984375,0.042825762182474136,0.5914369225502014,-0.1029956266283989
1726406900353062400,5.5640625,0.019870378077030182,0.633984386920929,-0.08146556466817856
1726406900363060500,5.574060546875,-0.0021811288315802813,0.6614919304847717,-0.06533932685852051
1726406900373058300,5.584058349609375,-0.009985256008803844,0.669023334980011,-0.05463874340057373
1726406900383056400,5.594056396484375,-0.016396550461649895,0.6807029247283936,-0.04693981260061264
1726406900393054500,5.604054443359375,-0.023154854774475098,0.6724036931991577,-0.03934234753251076
1726406900403052300,5.61405224609375,-0.027476897463202477,0.6557813286781311,-0.04302603006362915
1726406900413050400,5.62405029296875,-0.044546693563461304,0.6023684144020081,-0.053825680166482925
1726406900423047400,5.63404736328125,-0.05867796018719673,0.525108277797699,-0.05883801728487015
1726406900433045500,5.64404541015625,-0.05582571402192116,0.4507423937320709,-0.06813137978315353
1726406900443043600,5.654043701171875,-0.057197507470846176,0.397800087928772,-0.0820048525929451
1726406900453041400,5.66404150390625,-0.07316821813583374,0.36123037338256836,-0.10266592353582382
1726406900463039500,5.67403955078125,-0.08836901187896729,0.3304796516895294,-0.12351048737764359
1726406900473037600,5.68403759765625,-0.1008288785815239,0.30095744132995605,-0.12434139102697372
1726406900483035400,5.694035400390625,-0.08867047727108002,0.29893210530281067,-0.11200909316539764
1726406900493033500,5.704033447265625,-0.07350324839353561,0.3169451951980591,-0.08067673444747925
1726406900503031600,5.714031494140625,-0.0691111609339714,0.346691370010376,-0.050400324165821075
1726406900513029400,5.724029296875,-0.0710989460349083,0.38723400235176086,-0.031800806522369385
1726406900523027500,5.73402734375,-0.0806165486574173,0.3911325931549072,-0.015440741553902626
1726406900533025500,5.744025634765625,-0.08822493255138397,0.3430468440055847,0.01543648075312376
1726406900543023400,5.7540234375,-0.10428299754858017,0.30047115683555603,0.05672746151685715
1726406900553021400,5.764021484375,-0.10930145531892776,0.2856711745262146,0.10277378559112549
1726406900563019300,5.774019287109375,-0.0933067798614502,0.319934606552124,0.12057887762784958
1726406900573017300,5.784017333984375,-0.08112707734107971,0.36111027002334595,0.12041082978248596
1726406900583015400,5.794015380859375,-0.07237060368061066,0.3712292015552521,0.10798319429159164
1726406900593013200,5.80401318359375,-0.0526493638753891,0.34375256299972534,0.0896822139620781
1726406900603011300,5.81401123046875,-0.03014618344604969,0.2923325300216675,0.07366756349802017
1726406900613009400,5.824009521484375,-0.005638178437948227,0.24801646173000336,0.05384885147213936
1726406900623007200,5.83400732421875,0.011225489899516106,0.17901848256587982,0.0362248495221138
1726406900633005300,5.84400537109375,0.020434435456991196,0.09161433577537537,0.01599920727312565
1726406900643003400,5.85400341796875,0.009220662526786327,0.012691027484834194,-0.02171861194074154
1726406900653001200,5.864001220703125,-0.00748987402766943,-0.08767446130514145,-0.06253395229578018
1726406900662999300,5.873999267578125,0.004823517519980669,-0.1657564789056778,-0.10141317546367645
1726406900672997400,5.883997314453125,0.03813966363668442,-0.20694705843925476,-0.12377999722957611
1726406900682995200,5.8939951171875,0.05390717461705208,-0.19194573163986206,-0.11327995359897614
1726406900692993300,5.9039931640625,0.05758872628211975,-0.1357562392950058,-0.10156497359275818
1726406900702991400,5.913991455078125,0.06204605847597122,-0.05837409198284149,-0.09580748528242111
1726406900712989400,5.923989501953125,0.05615514889359474,0.016502277925610542,-0.0917685329914093
1726406900722987500,5.933987548828125,0.04989964887499809,0.07499754428863525,-0.08515404164791107
1726406900732985600,5.943985595703125,0.04158606007695198,0.11475268006324768,-0.08573327958583832
1726406900742983400,5.9539833984375,0.03305622190237045,0.20525728166103363,-0.08999806642532349
1726406900752981500,5.9639814453125,0.018499115481972694,0.3469680845737457,-0.10062434524297714
1726406900762979600,5.9739794921875,0.02624145708978176,0.48770469427108765,-0.10424011945724487
1726406900772977400,5.983977294921875,0.04656989872455597,0.6121677756309509,-0.10272850841283798
1726406900782975500,5.9939755859375,0.06090090051293373,0.7031530737876892,-0.09591028094291687
1726406900792973300,6.003973388671875,0.060870006680488586,0.7507815957069397,-0.08589226752519608
1726406900802971400,6.013971435546875,0.06009875610470772,0.7289332747459412,-0.07766310125589371
1726406900812969500,6.023969482421875,0.0629909485578537,0.6144506335258484,-0.07698798924684525
1726406900822967000,6.033967041015625,0.0592244416475296,0.4478480815887451,-0.07721515744924545
1726406900832965000,6.043965087890625,0.043472643941640854,0.2373979091644287,-0.08055849373340607
1726406900842963200,6.053963134765625,-0.003912449814379215,0.00974317453801632,-0.08136889338493347
1726406900852961000,6.0639609375,-0.04385028034448624,-0.1843157857656479,-0.07106219232082367
1726406900862959000,6.073958984375,-0.06862194091081619,-0.31396484375,-0.060975201427936554
1726406900872957000,6.08395703125,-0.0915171355009079,-0.39840835332870483,-0.04719281196594238
1726406900882955000,6.093955078125,-0.10294502228498459,-0.4209464192390442,-0.03057015873491764
1726406900892952300,6.103952392578125,-0.1041884571313858,-0.40039747953414917,-0.018483668565750122
1726406900902950100,6.1139501953125,-0.12741655111312866,-0.3494384288787842,-0.0029827402904629707
1726406900912948200,6.1239482421875,-0.1440703570842743,-0.2484002262353897,0.008164453320205212
1726406900922946300,6.1339462890625,-0.13732989132404327,-0.09548497945070267,0.025966886430978775
1726406900932944100,6.143944091796875,-0.13494236767292023,0.07963331043720245,0.04586336389183998
1726406900942942200,6.153942138671875,-0.1535876989364624,0.2575351297855377,0.0708848237991333
1726406900952940000,6.16393994140625,-0.1631534993648529,0.39382877945899963,0.08488079905509949
1726406900962938000,6.173938232421875,-0.17203594744205475,0.4732184112071991,0.09409986436367035
1726406900972936200,6.183936279296875,-0.16902124881744385,0.46724388003349304,0.10076309740543365
1726406900982934000,6.19393408203125,-0.1578546166419983,0.4097776710987091,0.11314412951469421
1726406900992932000,6.20393212890625,-0.146295428276062,0.3294079899787903,0.13626302778720856
1726406901002930200,6.21393017578125,-0.14052408933639526,0.2545579969882965,0.1600051075220108
1726406901012928000,6.223927978515625,-0.133853942155838,0.1935337781906128,0.17640964686870575
1726406901022926000,6.233926025390625,-0.12636007368564606,0.1422109305858612,0.18712009489536285
1726406901032924200,6.243924072265625,-0.1193077489733696,0.07993664592504501,0.190341979265213
1726406901042922000,6.253921875,-0.11293108016252518,0.029385851696133614,0.16589069366455078
1726406901052920000,6.263920166015625,-0.11089589446783066,-0.015267369337379932,0.12782055139541626
1726406901062918100,6.273918212890625,-0.11246556043624878,-0.053948983550071716,0.07670782506465912
1726406901072916000,6.283916015625,-0.11803369224071503,-0.08162961155176163,0.023791348561644554
1726406901082914000,6.2939140625,-0.10565345734357834,-0.09489162266254425,-0.021459752693772316
1726406901092912000,6.303912109375,-0.08521875739097595,-0.09680084139108658,-0.048112135380506516
1726406901102910000,6.313909912109375,-0.07304837554693222,-0.10212663561105728,-0.05230794474482536
1726406901112908000,6.323907958984375,-0.06568446755409241,-0.1125478520989418,-0.03548875078558922
1726406901122906000,6.333906005859375,-0.07083635777235031,-0.13318973779678345,-0.008414257317781448
1726406901132904000,6.343904052734375,-0.08822706341743469,-0.156121164560318,0.01290594507008791
1726406901142902000,6.353902099609375,-0.10395622253417969,-0.19222617149353027,0.02726783975958824
1726406901152900000,6.363900146484375,-0.10670114308595657,-0.21023499965667725,0.04867006838321686
1726406901162898200,6.373898193359375,-0.10900504887104034,-0.16904442012310028,0.06535956263542175
1726406901172896300,6.383896240234375,-0.12498720735311508,-0.08323896676301956,0.07613497972488403
1726406901182894000,6.39389404296875,-0.1266503483057022,-0.015488944947719574,0.08810828626155853
1726406901192892200,6.40389208984375,-0.11012516915798187,0.041002560406923294,0.10144805908203125
1726406901202890200,6.41389013671875,-0.0828581303358078,0.09716356545686722,0.11524377018213272
1726406901212888000,6.42388818359375,-0.059546418488025665,0.1530795693397522,0.1347450315952301
1726406901222886100,6.43388623046875,-0.04986982047557831,0.20167718827724457,0.15686525404453278
1726406901232884200,6.44388427734375,-0.06015707924962044,0.23573929071426392,0.16285549104213715
1726406901242881000,6.453881103515625,-0.07022196799516678,0.2354695051908493,0.16396602988243103
1726406901252879000,6.463879150390625,-0.06598034501075745,0.20357203483581543,0.15935929119586945
1726406901262877000,6.473876953125,-0.05445125699043274,0.1410607248544693,0.1545562893152237
1726406901272875000,6.483875,-0.045631665736436844,0.07543004304170609,0.14566372334957123
1726406901282873000,6.493873046875,-0.045472145080566406,0.014673218131065369,0.13296976685523987
1726406901292871000,6.503870849609375,-0.04321644455194473,-0.04020840674638748,0.12252698093652725
1726406901302869000,6.513868896484375,-0.036492496728897095,-0.09477365016937256,0.11216568946838379
1726406901312867000,6.5238671875,-0.026339994743466377,-0.12450544536113739,0.10170159488916397
1726406901322865000,6.533864990234375,-0.01715102419257164,-0.12450757622718811,0.08332045376300812
1726406901332863000,6.543863037109375,-0.013030581176280975,-0.11023063212633133,0.06329481303691864
1726406901342861000,6.553861083984375,-0.015244732610881329,-0.12347772717475891,0.030342459678649902
1726406901352859100,6.563859130859375,-0.011816712096333504,-0.1629742681980133,-0.015388810075819492
1726406901362857200,6.573857177734375,-0.00029640982393175364,-0.2559095323085785,-0.058506984263658524
1726406901372855300,6.583855224609375,0.010873686522245407,-0.3774884343147278,-0.10108533501625061
1726406901382853000,6.59385302734375,-0.0008165251929312944,-0.4952220022678375,-0.1484174281358719
1726406901392851200,6.603851318359375,-0.025320004671812057,-0.5984777808189392,-0.2001245766878128
1726406901402849300,6.613849365234375,-0.055930376052856445,-0.6931547522544861,-0.24353542923927307
1726406901412847000,6.62384716796875,-0.09229078143835068,-0.7915303707122803,-0.2760680615901947
1726406901422845200,6.63384521484375,-0.12895318865776062,-0.8648205399513245,-0.29950547218322754
1726406901432843300,6.64384326171875,-0.15646924078464508,-0.9173561930656433,-0.29599863290786743
1726406901442841000,6.653841064453125,-0.16240835189819336,-0.9362992644309998,-0.2643813192844391
1726406901452839200,6.663839111328125,-0.16143976151943207,-0.9158325791358948,-0.2057017683982849
1726406901462837200,6.673837158203125,-0.15382711589336395,-0.8218187689781189,-0.120864637196064
1726406901472835000,6.6838349609375,-0.14387807250022888,-0.6775246858596802,-0.020547885447740555
1726406901482833200,6.693833251953125,-0.14380350708961487,-0.5155611038208008,0.08352392166852951
1726406901492831000,6.7038310546875,-0.15240365266799927,-0.3243522346019745,0.16481611132621765
1726406901502829000,6.7138291015625,-0.16106052696704865,-0.09642427414655685,0.20786744356155396
1726406901512827100,6.7238271484375,-0.1628648191690445,0.09697981178760529,0.2275087833404541
1726406901522825000,6.733824951171875,-0.167385533452034,0.2343917340040207,0.21487289667129517
1726406901532823000,6.743822998046875,-0.16357800364494324,0.33151429891586304,0.15788070857524872
1726406901542821000,6.753821044921875,-0.1550990343093872,0.36304372549057007,0.0758470967411995
1726406901552818200,6.763818115234375,-0.13631629943847656,0.34186118841171265,-0.013096094131469727
1726406901562816300,6.773816162109375,-0.11829255521297455,0.245110422372818,-0.09280610084533691
1726406901572814000,6.78381396484375,-0.10576184839010239,0.10730408877134323,-0.15704821050167084
1726406901582812200,6.793812255859375,-0.10499965399503708,-0.045101165771484375,-0.20808395743370056
1726406901592810200,6.803810302734375,-0.12574994564056396,-0.22031079232692719,-0.2380376011133194
1726406901602808000,6.81380810546875,-0.15137220919132233,-0.3877679705619812,-0.2551502585411072
1726406901612806100,6.82380615234375,-0.17427539825439453,-0.5278611779212952,-0.24371998012065887
1726406901622804200,6.83380419921875,-0.1879507303237915,-0.6475659608840942,-0.2053299844264984
1726406901632802000,6.843802001953125,-0.18464867770671844,-0.7039147615432739,-0.17157761752605438
1726406901642800000,6.853800048828125,-0.1802070587873459,-0.74081951379776,-0.1585523635149002
1726406901652798200,6.863798095703125,-0.17608101665973663,-0.7923436760902405,-0.16482943296432495
1726406901662796000,6.873796142578125,-0.1777055412530899,-0.8763608336448669,-0.18487344682216644
1726406901672794000,6.883794189453125,-0.19041095674037933,-0.9806166291236877,-0.21736080944538116
1726406901682792200,6.893792236328125,-0.21758557856082916,-1.0896693468093872,-0.24996083974838257
1726406901692790000,6.9037900390625,-0.26489531993865967,-1.1459965705871582,-0.26498720049858093
1726406901702788000,6.9137880859375,-0.32907164096832275,-1.108736515045166,-0.2622174918651581
1726406901712786200,6.9237861328125,-0.38785240054130554,-0.9937087297439575,-0.24283555150032043
1726406901722784000,6.933783935546875,-0.43562525510787964,-0.7986902594566345,-0.22671277821063995
1726406901732782000,6.943781982421875,-0.4454496502876282,-0.5687132477760315,-0.19563262164592743
1726406901742780200,6.9537802734375,-0.41282832622528076,-0.3388536870479584,-0.1487114429473877
1726406901752778000,6.963778076171875,-0.376873254776001,-0.09492465108633041,-0.08463818579912186
1726406901762776000,6.973776123046875,-0.3408947288990021,0.15431207418441772,-0.020108196884393692
1726406901772774100,6.983774169921875,-0.30742332339286804,0.40737655758857727,0.02515542134642601
1726406901782772000,6.99377197265625,-0.284220814704895,0.6322059631347656,0.05390717461705208
1726406901792770000,7.00377001953125,-0.24339188635349274,0.8092440962791443,0.07622845470905304
1726406901802767000,7.01376708984375,-0.18150587379932404,0.9662784337997437,0.08543074131011963
1726406901812765200,7.02376513671875,-0.12809538841247559,1.0661041736602783,0.09530734270811081
1726406901822763800,7.033763671875,-0.07919042557477951,1.0943470001220703,0.08819776773452759
1726406901832761900,7.043761962890625,-0.06015921011567116,1.0612558126449585,0.04596216604113579
1726406901842759700,7.053759765625,-0.06812046468257904,0.9140549302101135,-0.012487562373280525
1726406901852757800,7.0637578125,-0.09927332401275635,0.6615329384803772,-0.07329951226711273
1726406901862755800,7.073755859375,-0.1429470330476761,0.3609062731266022,-0.1269150674343109
1726406901872753700,7.083753662109375,-0.15734994411468506,0.053821686655282974,-0.1698942333459854
1726406901882751700,7.093751708984375,-0.12838007509708405,-0.21109412610530853,-0.18774592876434326
1726406901892749800,7.103749755859375,-0.08506828546524048,-0.4079781770706177,-0.1794230192899704
1726406901902747600,7.11374755859375,-0.058393802493810654,-0.5424419641494751,-0.16262327134609222
1726406901912745700,7.123745849609375,-0.047382961958646774,-0.6734452843666077,-0.1520712971687317
1726406901922743800,7.133743896484375,-0.05572504922747612,-0.8094995021820068,-0.154141366481781
1726406901932741600,7.14374169921875,-0.07077323645353317,-0.9087086319923401,-0.16244830191135406
1726406901942739700,7.15373974609375,-0.08644381165504456,-0.925906777381897,-0.17037732899188995
1726406901952737800,7.16373779296875,-0.08293243497610092,-0.8964085578918457,-0.17447645962238312
1726406901962735600,7.173735595703125,-0.0722169354557991,-0.826448917388916,-0.17380215227603912
1726406901972733700,7.183733642578125,-0.0618620365858078,-0.7380231618881226,-0.1689610630273819
1726406901982731800,7.193731689453125,-0.051408860832452774,-0.6491937041282654,-0.15523779392242432
1726406901992729600,7.2037294921875,-0.048586178570985794,-0.5302119255065918,-0.13503451645374298
1726406902002727700,7.213727783203125,-0.05233777314424515,-0.40401938557624817,-0.10949107259511948
1726406902012725800,7.223725830078125,-0.03855537995696068,-0.2674913704395294,-0.09345857799053192
1726406902022723600,7.2337236328125,-0.018914302811026573,-0.12676434218883514,-0.07601699978113174
1726406902032721700,7.2437216796875,-0.0010410296963527799,-0.03159947320818901,-0.05266826972365379
1726406902042718700,7.25371875,0.019087940454483032,0.014489727094769478,-0.037689320743083954
1726406902052716800,7.263716796875,0.0169661995023489,0.009395099245011806,-0.02708381600677967
1726406902062715000,7.27371484375,0.006649114191532135,-0.03443200886249542,-0.01900644786655903
1726406902072712700,7.283712646484375,-0.00038456046604551375,-0.09019593894481659,-0.018090587109327316
1726406902082710800,7.293710693359375,-0.01224388275295496,-0.12522050738334656,-0.006856041960418224
1726406902092708900,7.303708984375,-0.03454785794019699,-0.14539048075675964,0.012064386159181595
1726406902102706700,7.313706787109375,-0.04725246503949165,-0.1641780138015747,0.03121837228536606
1726406902112704800,7.323704833984375,-0.04524950310587883,-0.16202566027641296,0.0466841496527195
1726406902122702800,7.333702880859375,-0.037935931235551834,-0.11568212509155273,0.06572175770998001
1726406902132700700,7.34370068359375,-0.02359747141599655,-0.043892621994018555,0.06825096160173416
1726406902142698800,7.35369873046875,0.0015158712631091475,0.07635948807001114,0.04005847126245499
1726406902152696600,7.363696533203125,0.03303278610110283,0.22793835401535034,0.005882923025637865
1726406902162694700,7.373694580078125,0.062186677008867264,0.32081344723701477,-0.024637170135974884
1726406902172692700,7.383692626953125,0.09445247054100037,0.3703133463859558,-0.03882516175508499
1726406902182690600,7.393690673828125,0.11848030984401703,0.3815516233444214,-0.03889600187540054
1726406902192688600,7.403688720703125,0.13513945043087006,0.3438521921634674,-0.03081570379436016
1726406902202686700,7.413686767578125,0.14362800121307373,0.2791711986064911,-0.01047607697546482
1726406902212684500,7.4236845703125,0.13592401146888733,0.1993597149848938,0.018924955278635025
1726406902222682600,7.4336826171875,0.13023869693279266,0.12067821621894836,0.04879550263285637
1726406902232680700,7.4436806640625,0.128740131855011,0.023869380354881287,0.08400595188140869
1726406902242678500,7.453678466796875,0.13722443580627441,-0.05278784781694412,0.10013991594314575
1726406902252676600,7.463676513671875,0.13855893909931183,-0.07797256112098694,0.1020861566066742
1726406902262673700,7.473673583984375,0.13273274898529053,-0.11686164140701294,0.1016605794429779
1726406902272671700,7.483671630859375,0.1503322422504425,-0.13294154405593872,0.08225572109222412
1726406902282669800,7.493669921875,0.18382123112678528,-0.13078171014785767,0.05531705170869827
1726406902292667600,7.503667724609375,0.2000822275876999,-0.13907906413078308,0.029320605099201202
1726406902302665700,7.513665771484375,0.2123631238937378,-0.15597468614578247,-0.012182364240288734
1726406902312663800,7.523663818359375,0.23318372666835785,-0.20322182774543762,-0.057504571974277496
1726406902322661600,7.53366162109375,0.25074246525764465,-0.25589969754219055,-0.09421838074922562
1726406902332659700,7.54365966796875,0.24341505765914917,-0.28722378611564636,-0.1066654622554779
1726406902342657800,7.55365771484375,0.2105039805173874,-0.29265743494033813,-0.10671819001436234
1726406902352655600,7.563655517578125,0.17331106960773468,-0.25138935446739197,-0.08695513755083084
1726406902362653700,7.57365380859375,0.14882995188236237,-0.1827426552772522,-0.0553511381149292
1726406902372651800,7.58365185546875,0.1385352462530136,-0.13042964041233063,-0.02563399076461792
1726406902382649600,7.593649658203125,0.14330656826496124,-0.050585146993398666,-0.01846236363053322
1726406902392647700,7.603647705078125,0.14652152359485626,0.05839113891124725,-0.01703118160367012
1726406902402645800,7.613645751953125,0.15738429129123688,0.14076963067054749,-0.015843678265810013
1726406902412643600,7.6236435546875,0.15173865854740143,0.1814693957567215,-0.018379006534814835
1726406902422641700,7.6336416015625,0.1434333324432373,0.18573445081710815,-0.014599182642996311
1726406902432639700,7.6436396484375,0.12881816923618317,0.1963476687669754,-0.015325160697102547
1726406902442637600,7.653637451171875,0.11946248263120651,0.2004268318414688,-0.018696721643209457
1726406902452635000,7.663634765625,0.10403238981962204,0.23391076922416687,-0.017197363078594208
1726406902462632700,7.6736328125,0.07594802975654602,0.2709726393222809,-0.0032714270055294037
1726406902472630800,7.683630859375,0.052743371576070786,0.2947719693183899,0.00866059958934784
1726406902482628900,7.69362890625,0.05110020190477371,0.33816659450531006,0.017917215824127197
1726406902492626700,7.703626708984375,0.06335952877998352,0.40494322776794434,0.014062022790312767
1726406902502624800,7.713624755859375,0.07400019466876984,0.492046982049942,-0.006456567905843258
1726406902512622800,7.723622802734375,0.08305307477712631,0.5425551533699036,-0.02690751478075981
1726406902522620700,7.73362060546875,0.10741886496543884,0.5494775176048279,-0.05981140211224556
1726406902532618800,7.74361865234375,0.11215823143720627,0.5437125563621521,-0.08513939380645752
1726406902542616800,7.753616943359375,0.11288047581911087,0.525412917137146,-0.11031346023082733
1726406902552614700,7.76361474609375,0.10619674623012543,0.5215547680854797,-0.1274873912334442
1726406902562612700,7.77361279296875,0.09151101112365723,0.4870165288448334,-0.1262841671705246
1726406902572610600,7.783610595703125,0.08102108538150787,0.4745907485485077,-0.11885714530944824
1726406902582608600,7.793608642578125,0.07752994447946548,0.4989805221557617,-0.10248136520385742
1726406902592606700,7.803606689453125,0.07471711188554764,0.5278851389884949,-0.08287730813026428
1726406902602604500,7.8136044921875,0.07714831084012985,0.5730355381965637,-0.06706878542900085
1726406902612602600,7.8236025390625,0.07507344335317612,0.6316069960594177,-0.05488641932606697
1726406902622600700,7.8336005859375,0.06564292311668396,0.6623111367225647,-0.04348968714475632
1726406902632598500,7.8435986328125,0.04844982549548149,0.6352065205574036,-0.02959810569882393
1726406902642595800,7.853595947265625,0.023631293326616287,0.5494106411933899,-0.012869193218648434
1726406902652593700,7.86359375,0.006561496295034885,0.46728596091270447,-0.02539137750864029
1726406902662591700,7.873591796875,0.005993976723402739,0.39271292090415955,-0.0445869080722332
1726406902672589800,7.88358984375,0.013364008627831936,0.3239216208457947,-0.051297809928655624
1726406902682587600,7.893587646484375,0.03027534857392311,0.29355570673942566,-0.06235019490122795
1726406902692585700,7.903585693359375,0.0311677735298872,0.28438085317611694,-0.0997827872633934
1726406902702583800,7.913583740234375,0.023739151656627655,0.2749095857143402,-0.1309817135334015
1726406902712581600,7.92358154296875,0.026309899985790253,0.3002852499485016,-0.14535532891750336
1726406902722579700,7.933579833984375,0.020365992560982704,0.303724467754364,-0.150070458650589
1726406902732577800,7.943577880859375,0.010718956589698792,0.3175952732563019,-0.14672473073005676
1726406902742575600,7.95357568359375,0.004067179746925831,0.3328019082546234,-0.1320863962173462
1726406902752573700,7.96357373046875,-0.0006269080913625658,0.2956756055355072,-0.11130548268556595
1726406902762571800,7.97357177734375,-0.001984054921194911,0.2698594331741333,-0.0899738296866417
1726406902772569600,7.983569580078125,0.0027598338201642036,0.29038548469543457,-0.07265955954790115
1726406902782567700,7.993567626953125,0.0037468012887984514,0.32461509108543396,-0.04470648616552353
1726406902792565800,8.003565673828126,0.004095675423741341,0.3537226617336273,-0.00820866134017706
1726406902802563600,8.0135634765625,0.004481833893805742,0.34316587448120117,0.029676135629415512
1726406902812561700,8.023561767578125,0.006156429648399353,0.27795225381851196,0.04216130077838898
1726406902822559200,8.033559326171876,0.016945693641901016,0.19367200136184692,0.025421470403671265
1726406902832556300,8.043556396484375,0.03543602302670479,0.13721245527267456,-0.010150105692446232
1726406902842554400,8.053554443359374,0.05131432041525841,0.1015481948852539,-0.0603935681283474
1726406902852552200,8.06355224609375,0.06690126657485962,0.08348690718412399,-0.09199889749288559
1726406902862550300,8.07355029296875,0.06814150512218475,0.07014340162277222,-0.10714003443717957
1726406902872548400,8.08354833984375,0.055150069296360016,0.07274451106786728,-0.10289149731397629
1726406902882546200,8.093546142578125,0.02881699986755848,0.09090354293584824,-0.1004168838262558
1726406902892544300,8.103544189453125,0.016229303553700447,0.12448147684335709,-0.11066286265850067
1726406902902542000,8.1135419921875,0.028063857927918434,0.18802689015865326,-0.11160535365343094
1726406902912540200,8.1235400390625,0.03133901581168175,0.2612963020801544,-0.10811714828014374
1726406902922538200,8.133538330078125,0.03850850835442543,0.3238166868686676,-0.10368058830499649
1726406902932536000,8.1435361328125,0.03729730471968651,0.3935012221336365,-0.0863383486866951
1726406902942534100,8.1535341796875,0.037530865520238876,0.4180417060852051,-0.04928339272737503
1726406902952532200,8.1635322265625,0.01671985723078251,0.3796232342720032,-0.014142717234790325
1726406902962530000,8.173530029296876,-0.026373283937573433,0.2771115005016327,0.018394986167550087
1726406902972528000,8.183528076171875,-0.044562406837940216,0.19845636188983917,0.029989857226610184
1726406902982526200,8.193526123046874,-0.038418229669332504,0.17164020240306854,0.02557620033621788
1726406902992523300,8.203523193359375,-0.023787355050444603,0.16699270904064178,0.02754960209131241
1726406903002521300,8.213521240234375,-0.011983426287770271,0.2159767746925354,0.011333081871271133
1726406903012519200,8.223519287109376,-0.007791344076395035,0.26285746693611145,-0.007623564917594194
1726406903022517200,8.233517333984375,-0.012270248495042324,0.31220343708992004,0.003959587775170803
1726406903032515300,8.243515380859375,-0.015499331057071686,0.2989765703678131,0.029576001688838005
1726406903042513200,8.25351318359375,-0.010970892384648323,0.21519966423511505,0.048523593693971634
1726406903052511200,8.26351123046875,-0.0037468012887984514,0.1047932580113411,0.051661595702171326
1726406903062509300,8.27350927734375,0.00595642626285553,0.027240142226219177,0.038852058351039886
1726406903072507100,8.283507080078126,0.015061507001519203,0.002746784361079335,0.03298031911253929
1726406903082505200,8.293505126953125,0.027907798066735268,0.022647788748145103,0.029101159423589706
1726406903092503300,8.30350341796875,0.04404948279261589,0.062256716191768646,0.02646995708346367
1726406903102501000,8.313501220703126,0.0480964221060276,0.06245139241218567,0.024116521701216698
1726406903112499200,8.323499267578125,0.032638903707265854,0.06433504819869995,0.041183121502399445
1726406903122497300,8.333497314453124,0.02171914465725422,0.04896434769034386,0.039914391934871674
1726406903132495000,8.3434951171875,0.016891365870833397,0.024729048833251,0.029155489057302475
1726406903142493200,8.3534931640625,0.027904069051146507,0.0006263754912652075,0.0318271704018116
1726406903152490200,8.363490234375,0.019639480859041214,-0.003078347770497203,0.03861610218882561
1726406903162488300,8.37348828125,0.013434848748147488,-0.012651080265641212,0.05348293110728264
1726406903172486400,8.383486328125,0.014313159510493279,-0.02762150764465332,0.09045000374317169
1726406903182484200,8.393484130859376,0.021558821201324463,-0.03436676040291786,0.13509203493595123
1726406903192482300,8.403482421875,0.019998742267489433,0.031436219811439514,0.17170651257038116
1726406903202480400,8.41348046875,0.012797554023563862,0.11906274408102036,0.19287997484207153
1726406903212478200,8.423478271484376,-0.008473645895719528,0.1799631118774414,0.19085358083248138
1726406903222476300,8.433476318359375,-0.03524507209658623,0.24652722477912903,0.16146212816238403
1726406903232474400,8.443474365234374,-0.04517253860831261,0.283887654542923,0.10605613142251968
1726406903242472200,8.45347216796875,-0.040956754237413406,0.29047444462776184,0.06449217349290848
1726406903252470300,8.46347021484375,-0.03586558997631073,0.34583303332328796,0.03623976185917854
1726406903262468400,8.47346826171875,-0.01876942627131939,0.42699819803237915,0.00854555144906044
1726406903272466200,8.483466064453125,-0.006622216198593378,0.4493466317653656,-0.01317865215241909
1726406903282464300,8.49346435546875,-0.0017502295086160302,0.4452650845050812,-0.028370920568704605
1726406903292462000,8.503462158203124,-0.005596633069217205,0.4356667995452881,-0.03287086263298988
1726406903302459100,8.513459228515625,0.0016524913953617215,0.3878800868988037,-0.04041879624128342
1726406903312457200,8.523457275390625,0.020082898437976837,0.2921311855316162,-0.05402861535549164
1726406903322455000,8.533455078125,0.041190046817064285,0.1819538176059723,-0.06346020102500916
1726406903332453400,8.543453369140625,0.07000305503606796,0.09332648664712906,-0.07301322370767593
1726406903342451500,8.553451416015625,0.08006580919027328,0.0135642783716321,-0.09757742285728455
1726406903352449300,8.56344921875,0.0846610888838768,-0.08878286927938461,-0.14671966433525085
1726406903362447400,8.573447265625,0.09086359292268753,-0.26486656069755554,-0.1876993328332901
1726406903372445400,8.583445556640624,0.08715913444757462,-0.4710005521774292,-0.2240927517414093
1726406903382443300,8.593443359375,0.06544797867536545,-0.6391205787658691,-0.23765037953853607
1726406903392441300,8.60344140625,0.03230707347393036,-0.714591383934021,-0.2242187261581421
1726406903402439200,8.613439208984374,0.009462211281061172,-0.6962653398513794,-0.19960498809814453
1726406903412437200,8.623437255859375,-0.010571683757007122,-0.6705213785171509,-0.14899401366710663
1726406903422435300,8.633435302734375,-0.0352109856903553,-0.5693444013595581,-0.08411300927400589
1726406903432433200,8.64343310546875,-0.05343259871006012,-0.4072687029838562,-0.028067320585250854
1726406903442431200,8.65343115234375,-0.05374312400817871,-0.2546434700489044,0.049678605049848557
1726406903452428300,8.66342822265625,-0.04008084163069725,-0.07677280902862549,0.12877635657787323
1726406903462426000,8.673426025390626,-0.02484516240656376,0.11191694438457489,0.19125384092330933
1726406903472424200,8.683424072265625,-0.015478292480111122,0.2920486330986023,0.24466753005981445
1726406903482422000,8.693422119140624,-0.015747804194688797,0.381021648645401,0.2552346885204315
1726406903492420000,8.703420166015626,-0.01119326613843441,0.366971880197525,0.23726527392864227
1726406903502418200,8.713418212890625,-0.007537811063230038,0.3115437626838684,0.2074011266231537
1726406903512416000,8.723416015625,0.01714702881872654,0.2451266646385193,0.17470762133598328
1726406903522414000,8.7334140625,0.032951559871435165,0.13349440693855286,0.14160293340682983
1726406903532412400,8.743412353515625,0.035112179815769196,-0.04703488573431969,0.11505867540836334
1726406903542410200,8.75341015625,0.023391608148813248,-0.21396900713443756,0.10317405313253403
1726406903552408300,8.763408203125,-0.01537496130913496,-0.3199273943901062,0.08829337358474731
1726406903562406400,8.773406494140625,-0.05410211533308029,-0.3224656581878662,0.07073675096035004
1726406903572404200,8.783404296875,-0.08441208302974701,-0.28543519973754883,0.09358427673578262
1726406903582402300,8.79340234375,-0.11069349199533463,-0.23703545331954956,0.1278245449066162
1726406903592399000,8.803399169921875,-0.14335688948631287,-0.13717010617256165,0.14699849486351013
1726406903602397200,8.813397216796876,-0.1704801321029663,-0.0694107636809349,0.18064488470554352
1726406903612395300,8.823395263671875,-0.18371151387691498,-0.01164626982063055,0.22006872296333313
1726406903622393000,8.83339306640625,-0.16984309256076813,0.08847527205944061,0.2635975480079651
1726406903632391200,8.84339111328125,-0.13987001776695251,0.14606745541095734,0.2979917526245117
1726406903642389200,8.85338916015625,-0.09157758951187134,0.20086413621902466,0.32880106568336487
1726406903652387000,8.863386962890624,-0.0574188195168972,0.30979248881340027,0.3691290318965912
1726406903662385200,8.87338525390625,-0.047511324286460876,0.37678268551826477,0.3889882266521454
1726406903672383200,8.88338330078125,-0.06926535815000534,0.425068736076355,0.3926450312137604
1726406903682381000,8.893381103515624,-0.0863197073340416,0.47164714336395264,0.39475902915000916
1726406903692379100,8.903379150390625,-0.09350252151489258,0.47144022583961487,0.3982134163379669
1726406903702377200,8.913377197265625,-0.08934878557920456,0.38038328289985657,0.36921772360801697
1726406903712375000,8.923375,-0.08020109683275223,0.2647014260292053,0.2987257242202759
1726406903722373000,8.933373046875,-0.0718531534075737,0.1564154326915741,0.2374248057603836
1726406903732370200,8.9433701171875,-0.06621737033128738,0.07344039529561996,0.19418865442276
1726406903742368300,8.9533681640625,-0.0434579961001873,0.021228855475783348,0.14258617162704468
1726406903752366300,8.963366455078125,-0.011544270440936089,-0.044797033071517944,0.06908133625984192
1726406903762364200,8.9733642578125,0.001895105466246605,-0.09731936454772949,-0.022250443696975708
1726406903772362200,8.9833623046875,0.011394334957003593,-0.16017848253250122,-0.10544413328170776
1726406903782360300,8.9933603515625,0.034205906093120575,-0.22230231761932373,-0.16861538589000702
1726406903792358100,9.003358154296874,0.04038097709417343,-0.2751348912715912,-0.19198301434516907
1726406903802356200,9.013356201171876,0.027045199647545815,-0.3552664816379547,-0.18692781031131744
1726406903812354300,9.023354248046875,0.009296296164393425,-0.3874766230583191,-0.16582438349723816
1726406903822352400,9.033352294921874,0.00239231763407588,-0.31511667370796204,-0.14835672080516815
1726406903832350200,9.04335009765625,0.004854409955441952,-0.20385752618312836,-0.1327734887599945
1726406903842348300,9.053348388671875,0.005148689262568951,-0.08329275995492935,-0.11282508820295334
1726406903852346400,9.063346435546874,0.008539426140487194,-0.0021289309952408075,-0.08577189594507217
1726406903862343400,9.073343505859375,0.0046448190696537495,0.09111233055591583,-0.07346915453672409
1726406903872341500,9.083341552734375,0.0013606089632958174,0.21023818850517273,-0.07344119250774384
1726406903882339300,9.09333935546875,0.007967645302414894,0.30932721495628357,-0.08552315831184387
1726406903892337400,9.10333740234375,0.025710156187415123,0.35545477271080017,-0.09923417866230011
1726406903902335500,9.11333544921875,0.050881821662187576,0.38528138399124146,-0.11643046885728836
1726406903912333300,9.123333251953126,0.07508223503828049,0.4299742877483368,-0.14166419208049774
1726406903922331400,9.133331298828125,0.09456219524145126,0.44328343868255615,-0.18024353682994843
1726406903932329500,9.14332958984375,0.12155652791261673,0.40717068314552307,-0.21586865186691284
1726406903942327300,9.153327392578126,0.136916846036911,0.33573833107948303,-0.23223243653774261
1726406903952325400,9.163325439453125,0.1414538025856018,0.30209460854530334,-0.23390570282936096
1726406903962323500,9.173323486328124,0.11117951571941376,0.2200908213853836,-0.19849471747875214
1726406903972321300,9.1833212890625,0.05926651880145073,0.1139630526304245,-0.13698075711727142
1726406903982319400,9.1933193359375,0.017227189615368843,0.046845536679029465,-0.11791998147964478
1726406903992316200,9.203316162109376,-0.00860094465315342,-0.004564924165606499,-0.1232987642288208
1726406904002314200,9.213314208984375,-0.012605540454387665,0.01266865711659193,-0.13871154189109802
1726406904012312300,9.223312255859375,0.0015893745003268123,0.0726126879453659,-0.17136189341545105
1726406904022310100,9.23331005859375,0.0031678301747888327,0.07190801203250885,-0.19950298964977264
1726406904032308200,9.24330810546875,0.010039851069450378,0.09766264259815216,-0.2286054790019989
1726406904042306300,9.253306396484374,0.018331335857510567,0.11922892183065414,-0.2702410817146301
1726406904052304400,9.263304443359376,0.015294267795979977,0.13018730282783508,-0.3126164972782135
1726406904062302500,9.273302490234375,-0.00902625173330307,0.12345855683088303,-0.33425015211105347
1726406904072300500,9.283300537109374,-0.03831063583493233,0.08743210881948471,-0.33490076661109924
1726406904082298400,9.29329833984375,-0.06054669991135597,0.03882462903857231,-0.32971450686454773
1726406904092296400,9.30329638671875,-0.07119428366422653,-0.014399445615708828,-0.31614330410957336
1726406904102294500,9.31329443359375,-0.05564195662736893,-0.028741633519530296,-0.31025347113609314
1726406904112291300,9.323291259765625,-0.04198659956455231,-0.00020399813365656883,-0.321393221616745
1726406904122289400,9.333289306640625,-0.034579016268253326,0.11322322487831116,-0.3528970777988434
1726406904132287200,9.343287353515626,-0.032164063304662704,0.21493840217590332,-0.4057784080505371
1726406904142285300,9.353285400390625,-0.04014289379119873,0.2662513852119446,-0.438703328371048
1726406904152283400,9.363283447265625,-0.04055514931678772,0.34168118238449097,-0.4680289924144745
1726406904162281200,9.37328125,-0.05107676610350609,0.40901386737823486,-0.47592419385910034
1726406904172279300,9.383279296875,-0.06157414987683296,0.4512082040309906,-0.4491210877895355
1726406904182277400,9.39327734375,-0.07373999804258347,0.4973093867301941,-0.3853362500667572
1726406904192275200,9.403275146484376,-0.09376537054777145,0.5445770025253296,-0.3166746199131012
1726406904202273300,9.413273193359375,-0.11233159899711609,0.5869311094284058,-0.2563673257827759
1726406904212271400,9.423271240234374,-0.1111781895160675,0.5832176208496094,-0.22497372329235077
1726406904222269200,9.433269287109376,-0.10216764360666275,0.6239834427833557,-0.18994730710983276
1726406904232266500,9.4432666015625,-0.08278276026248932,0.6814965009689331,-0.15228168666362762
1726406904242264300,9.453264404296876,-0.06589166820049286,0.7953218817710876,-0.12502902746200562
1726406904252262400,9.463262451171875,-0.06537368148565292,0.8724464774131775,-0.09913963079452515
1726406904262260500,9.473260498046875,-0.07497730851173401,0.842300295829773,-0.08105889707803726
1726406904272258300,9.48325830078125,-0.0615999810397625,0.7641663551330566,-0.08960817754268646
1726406904282256400,9.49325634765625,-0.03489460051059723,0.6637292504310608,-0.11504989117383957
1726406904292254500,9.50325439453125,-0.00024181502521969378,0.5376253724098206,-0.15948154032230377
1726406904302252300,9.513252197265626,0.030701186507940292,0.4651711583137512,-0.2005152553319931
1726406904312250400,9.52325048828125,0.056344497948884964,0.4147287607192993,-0.24744893610477448
1726406904322248400,9.53324853515625,0.06832552701234818,0.3480221629142761,-0.309363454580307
1726406904332246300,9.543246337890626,0.058274492621421814,0.2515760362148285,-0.36005696654319763
1726406904342244400,9.553244384765625,0.039135418832302094,0.15018710494041443,-0.4041892886161804
1726406904352241200,9.5632412109375,0.023017434403300285,0.07376396656036377,-0.4235003888607025
1726406904362239500,9.573239501953125,0.0514911524951458,-0.00833889003843069,-0.41401609778404236
1726406904372237600,9.583237548828125,0.08610399067401886,-0.14926111698150635,-0.38655543327331543
1726406904382235400,9.5932353515625,0.11705285310745239,-0.23042042553424835,-0.3773401081562042
1726406904392233500,9.6032333984375,0.12641333043575287,-0.24638395011425018,-0.36438700556755066
1726406904402231600,9.6132314453125,0.12983043491840363,-0.2893596291542053,-0.32717466354370117
1726406904412229400,9.6232294921875,0.13507206737995148,-0.3656024932861328,-0.28361228108406067
1726406904422227500,9.6332275390625,0.144990473985672,-0.4734186828136444,-0.24264752864837646
1726406904432225500,9.6432255859375,0.14262239634990692,-0.6410540342330933,-0.21323584020137787
1726406904442223400,9.653223388671876,0.13937413692474365,-0.8191718459129333,-0.17842113971710205
1726406904452221400,9.663221435546875,0.12857182323932648,-0.9946743845939636,-0.15488146245479584
1726406904462219300,9.67321923828125,0.11293187737464905,-1.1364011764526367,-0.10900424420833588
1726406904472216300,9.68321630859375,0.09068755805492401,-1.16775381565094,-0.0457746796309948
1726406904482214400,9.69321435546875,0.04633793607354164,-1.136984944343567,0.015311578288674355
1726406904492212200,9.703212158203126,0.015935556963086128,-1.0291988849639893,0.0660109743475914
1726406904502210300,9.713210205078125,-0.0011025486746802926,-0.8448742628097534,0.11229272186756134
1726406904512208400,9.72320849609375,-0.002987001556903124,-0.673734724521637,0.18067656457424164
1726406904522206200,9.733206298828126,0.010997523553669453,-0.4950883090496063,0.24768516421318054
1726406904532204300,9.743204345703125,0.040894437581300735,-0.35082459449768066,0.3001236021518707
1726406904542202000,9.7532021484375,0.054429687559604645,-0.22721824049949646,0.3445326089859009
1726406904552200200,9.7632001953125,0.042273420840501785,-0.10376022011041641,0.39533641934394836
1726406904562198500,9.773198486328125,0.013363209553062916,-0.0187824759632349,0.423204243183136
1726406904572196400,9.7831962890625,-0.007069360930472612,0.026213228702545166,0.4578016400337219
1726406904582193400,9.793193359375,-0.012715528719127178,0.06508712470531464,0.4844982326030731
1726406904592191500,9.80319140625,0.0084864292293787,0.08056169003248215,0.4883427917957306
1726406904602189300,9.813189208984374,0.028983181342482567,0.053707171231508255,0.47290337085723877
1726406904612187400,9.8231875,0.03338085860013962,0.02147919312119484,0.44736310839653015
1726406904622185500,9.833185546875,0.016708672046661377,-0.06046440824866295,0.42941367626190186
1726406904632183300,9.843183349609374,-0.020985176786780357,-0.1771569401025772,0.4049890339374542
1726406904642181400,9.853181396484375,-0.05715543031692505,-0.304362028837204,0.37784528732299805
1726406904652179200,9.86317919921875,-0.07683246582746506,-0.3990211486816406,0.3570483922958374
1726406904662177300,9.87317724609375,-0.0756785124540329,-0.4732157588005066,0.3349548280239105
1726406904672175400,9.88317529296875,-0.07320071011781693,-0.5059686303138733,0.3158474266529083
1726406904682173200,9.893173095703125,-0.05991233512759209,-0.4727560877799988,0.3026232421398163
1726406904692170500,9.90317041015625,-0.05228264629840851,-0.44541075825691223,0.31558483839035034
1726406904702168600,9.91316845703125,-0.05678258836269379,-0.42576196789741516,0.3409895598888397
1726406904712166400,9.92316650390625,-0.09548550844192505,-0.3989865481853485,0.3635033667087555
1726406904722164500,9.93316455078125,-0.13848304748535156,-0.4007410407066345,0.3695037364959717
1726406904732162300,9.943162353515625,-0.16036969423294067,-0.42690977454185486,0.351811021566391
1726406904742160400,9.953160400390624,-0.15613394975662231,-0.4388332962989807,0.30424803495407104
1726406904752158500,9.963158447265625,-0.1395336538553238,-0.3985883891582489,0.24187947809696198
1726406904762156300,9.97315625,-0.1280738115310669,-0.28051313757896423,0.19061815738677979
1726406904772154400,9.983154296875,-0.11671064049005508,-0.12084785848855972,0.15137700736522675
1726406904782152400,9.99315234375,-0.10197137296199799,-0.03321467712521553,0.09513157606124878
1726406904792150300,10.003150390625,-0.09088196605443954,-0.0162399560213089,0.0424657016992569
1726406904802147300,10.013147216796876,-0.07690596580505371,-0.037154559046030045,-0.0068331388756632805
1726406904812145200,10.023145263671875,-0.061048973351716995,-0.04482313245534897,-0.06949198991060257
1726406904822143500,10.0331435546875,-0.05100912228226662,-0.027782095596194267,-0.15092213451862335
1726406904832141300,10.043141357421876,-0.03633137419819832,0.05439186841249466,-0.21967989206314087
1726406904842139400,10.053139404296875,-0.016561400145292282,0.19737432897090912,-0.24504651129245758
1726406904852137500,10.063137451171874,0.010396714322268963,0.3505772054195404,-0.2465493232011795
1726406904862135300,10.07313525390625,0.022476013749837875,0.47142744064331055,-0.22474868595600128
1726406904872133400,10.08313330078125,0.034936945885419846,0.5543950200080872,-0.1823362559080124
1726406904882131500,10.09313134765625,0.04572967067360878,0.6087163090705872,-0.1394212692975998
1726406904892129500,10.103129638671875,0.052866142243146896,0.6712321639060974,-0.11347542703151703
1726406904902126600,10.113126708984375,0.054725296795368195,0.7095468044281006,-0.10863007605075836
1726406904912124400,10.12312451171875,0.058151986449956894,0.7453495264053345,-0.11264266073703766
1726406904922122500,10.13312255859375,0.07074101269245148,0.7913985252380371,-0.14298272132873535
1726406904932120600,10.14312060546875,0.06685253232717514,0.8266787528991699,-0.20876891911029816
1726406904942118400,10.153118408203126,0.05890805646777153,0.8718273043632507,-0.24066480994224548
1726406904952116500,10.163116455078125,0.06136588752269745,0.869633138179779,-0.2531853914260864
1726406904962114600,10.173114501953124,0.060334712266922,0.8563117384910583,-0.2558589279651642
1726406904972112400,10.1831123046875,0.05380570888519287,0.83660489320755,-0.2691313326358795
1726406904982110500,10.1931103515625,0.05999036505818367,0.8078523278236389,-0.28702297806739807
1726406904992108500,10.203108642578124,0.08153799921274185,0.7668894529342651,-0.3351958394050598
1726406905002106400,10.2131064453125,0.1050340086221695,0.7186665534973145,-0.372913122177124
1726406905012103700,10.223103759765625,0.1401728242635727,0.661923348903656,-0.3922165036201477
1726406905022101500,10.2331015625,0.15567614138126373,0.5749165415763855,-0.42898011207580566
1726406905032099600,10.243099609375,0.15633846819400787,0.407581090927124,-0.4661354720592499
1726406905042097700,10.25309765625,0.1427619457244873,0.20919263362884521,-0.477257639169693
1726406905052095500,10.263095458984376,0.13495010137557983,0.03164927288889885,-0.4577119052410126
1726406905062093600,10.273093505859375,0.11323707550764084,-0.07432004064321518,-0.4208683967590332
1726406905072091600,10.283091552734374,0.0942458063364029,-0.09111393243074417,-0.377062052488327
1726406905082089500,10.29308935546875,0.07292027771472931,-0.07777228951454163,-0.3469630181789398
1726406905092087600,10.303087646484375,0.06252223253250122,-0.07997100055217743,-0.3209362030029297
1726406905102085600,10.313085693359374,0.07056471705436707,-0.036624323576688766,-0.27731630206108093
1726406905112082400,10.32308251953125,0.06637529283761978,0.001228516222909093,-0.24515116214752197
1726406905122080500,10.33308056640625,0.05644915997982025,0.04621915891766548,-0.23618564009666443
1726406905132078300,10.343078369140626,0.03255235031247139,0.10912328958511353,-0.23794785141944885
1726406905142076400,10.353076416015625,0.0009406284661963582,0.12248996645212173,-0.24013377726078033
1726406905152074500,10.363074462890625,-0.023749005049467087,0.08553168177604675,-0.2167789191007614
1726406905162072300,10.373072265625,-0.028439098969101906,-0.0019478360190987587,-0.1799338161945343
1726406905172070400,10.3830703125,-0.021458953619003296,-0.08040935546159744,-0.14440537989139557
1726406905182068500,10.393068359375,-0.032766733318567276,-0.14193770289421082,-0.10827533900737762
1726406905192066300,10.40306640625,-0.05248478055000305,-0.1994481235742569,-0.07784872502088547
1726406905202064600,10.413064697265625,-0.07656774669885635,-0.26800134778022766,-0.06913299858570099
1726406905212061400,10.4230615234375,-0.09535155445337296,-0.30931442975997925,-0.06356406211853027
1726406905222059500,10.4330595703125,-0.11597107350826263,-0.26384416222572327,-0.03446343541145325
1726406905232057600,10.4430576171875,-0.12924480438232422,-0.14976419508457184,0.0324556790292263
1726406905242055400,10.453055419921874,-0.12552064657211304,-0.06337897479534149,0.12846902012825012
1726406905252053500,10.463053466796875,-0.14388179779052734,0.047928109765052795,0.2327360361814499
1726406905262051600,10.473051513671875,-0.17139998078346252,0.11229857802391052,0.33340486884117126
1726406905272049400,10.48304931640625,-0.18228192627429962,0.12597844004631042,0.43005868792533875
1726406905282047500,10.493047607421875,-0.1850428283214569,0.10290294885635376,0.4926821291446686
1726406905292045600,10.503045654296875,-0.1810816377401352,0.11030919849872589,0.5142444372177124
1726406905302042400,10.51304248046875,-0.1658984273672104,0.13793443143367767,0.5107378363609314
1726406905312040400,10.52304052734375,-0.1509314626455307,0.11126473546028137,0.4901326894760132
1726406905322038500,10.53303857421875,-0.12057647854089737,0.11383602023124695,0.4682857096195221
1726406905332036600,10.54303662109375,-0.09947598725557327,0.13541801273822784,0.4268525242805481
1726406905342034700,10.55303466796875,-0.06688422709703445,0.11414974182844162,0.3887424170970917
1726406905352032500,10.563032470703124,-0.04261190816760063,0.04102146998047829,0.3396124243736267
1726406905362030600,10.573030517578125,-0.03592311218380928,-0.06430894881486893,0.2840527594089508
1726406905372028700,10.583028564453125,-0.026583140715956688,-0.1846313625574112,0.2586294114589691
1726406905382026500,10.593026611328124,-0.02887985110282898,-0.28829410672187805,0.26234960556030273
1726406905392024600,10.603024658203125,-0.021096762269735336,-0.4016329050064087,0.25901558995246887
1726406905402021400,10.613021484375,-0.0008434231276623905,-0.5089734792709351,0.2484510838985443
1726406905412019500,10.62301953125,0.03141837567090988,-0.5376714468002319,0.26880350708961487
1726406905422017500,10.633017578125,0.06427672505378723,-0.4703587293624878,0.35184672474861145
1726406905432015400,10.643015380859374,0.09178557991981506,-0.3332573175430298,0.4843054413795471
1726406905442013400,10.653013427734376,0.10298869758844376,-0.20941287279129028,0.5998392105102539
1726406905452011500,10.663011474609375,0.10287445038557053,-0.19050763547420502,0.6190211772918701
1726406905462009300,10.67300927734375,0.0940825566649437,-0.2607932388782501,0.5359814167022705
1726406905472007400,10.68300732421875,0.054971374571323395,-0.31430360674858093,0.37014955282211304
1726406905482005500,10.693005615234375,0.014096111990511417,-0.2504929304122925,0.1691671907901764
1726406905492002600,10.70300244140625,-0.0046301716938614845,-0.08584326505661011,-0.024752750992774963
1726406905502000600,10.713000732421875,0.026942402124404907,0.06918146461248398,-0.17625784873962402
1726406905511998500,10.72299853515625,0.057497914880514145,0.17364369332790375,-0.28110170364379883
1726406905521996500,10.73299658203125,0.03860970959067345,0.25620540976524353,-0.34033387899398804
1726406905531994600,10.74299462890625,0.016937704756855965,0.2795986235141754,-0.3409426808357239
1726406905541992400,10.752992431640624,0.0025965820532292128,0.28787732124328613,-0.30782920122146606
1726406905551990500,10.762990478515626,0.0034373418893665075,0.3145294487476349,-0.2584954798221588
1726406905561988600,10.772988525390625,0.018639197573065758,0.3249192237854004,-0.20600083470344543
1726406905571986400,10.782986328125,0.04177753999829292,0.279587984085083,-0.15639173984527588
1726406905581984500,10.792984619140626,0.06886401772499084,0.21539193391799927,-0.11603179574012756
1726406905591981300,10.802981201171875,0.07802555710077286,0.10879865288734436,-0.09249291568994522
1726406905601979400,10.8129794921875,0.0878307893872261,-0.046192530542612076,-0.09165801107883453
1726406905611977500,10.8229775390625,0.08589466661214828,-0.19066768884658813,-0.11673913151025772
1726406905621975300,10.832975341796875,0.07323746383190155,-0.3420444130897522,-0.13851340115070343
1726406905631973600,10.8429736328125,0.041131459176540375,-0.4467537999153137,-0.17087800800800323
1726406905641971700,10.8529716796875,0.02412983775138855,-0.4164147973060608,-0.20740751922130585
1726406905651969500,10.862969482421875,0.013146428391337395,-0.3345699906349182,-0.22489942610263824
1726406905661967600,10.872967529296876,0.015921974554657936,-0.24889929592609406,-0.2061331868171692
1726406905671964400,10.88296435546875,0.02311277575790882,-0.20899289846420288,-0.16447922587394714
1726406905681962500,10.89296240234375,0.015031147748231888,-0.21646492183208466,-0.1084873303771019
1726406905691960600,10.902960693359375,-0.01847940869629383,-0.21109360456466675,-0.0516916885972023
1726406905701958400,10.91295849609375,-0.05805637687444687,-0.1808914840221405,-0.0057039582170546055
1726406905711956500,10.92295654296875,-0.09340984374284744,-0.18049733340740204,0.027892617508769035
1726406905721954600,10.93295458984375,-0.11311430484056473,-0.2037629783153534,0.0543452650308609
1726406905731952400,10.942952392578125,-0.13564331829547882,-0.2413756102323532,0.07830172777175903
1726406905741950500,10.952950439453126,-0.136919766664505,-0.27647101879119873,0.08764249831438065
1726406905751948500,10.962948486328125,-0.11120428889989853,-0.2523728609085083,0.08288370072841644
1726406905761945600,10.972945556640624,-0.09728633612394333,-0.16734744608402252,0.08231458067893982
1726406905771943700,10.982943603515626,-0.10215779393911362,-0.07439833134412766,0.09317974746227264
1726406905781941500,10.99294140625,-0.12198609113693237,-0.04181509092450142,0.10524892807006836
1726406905791939600,11.002939697265624,-0.1316959708929062,0.009743707254529,0.10789024829864502
1726406905801937700,11.012937744140626,-0.13955682516098022,0.05289091169834137,0.10075590759515762
1726406905811935500,11.022935546875,-0.14101970195770264,0.10377273708581924,0.09451025724411011
1726406905821933300,11.032933349609374,-0.12614594399929047,0.1625566929578781,0.08596843481063843
1726406905831931400,11.042931396484375,-0.11858576536178589,0.15854942798614502,0.10594241321086884
1726406905841929200,11.05292919921875,-0.10781807452440262,0.11968672275543213,0.12338478863239288
1726406905851926300,11.06292626953125,-0.07328140735626221,0.15579251945018768,0.10913820564746857
1726406905861924000,11.072924072265625,-0.05829260125756264,0.25625336170196533,0.0627770945429802
1726406905871922200,11.082922119140624,-0.04709747061133385,0.2848738133907318,0.03735269978642464
1726406905881920300,11.092920166015626,-0.031858064234256744,0.24482226371765137,0.012373578734695911
1726406905891918000,11.10291796875,-0.025108549743890762,0.16468828916549683,-0.030425017699599266
1726406905901916200,11.112916259765624,-0.021638449281454086,0.04646523669362068,-0.0672389566898346
1726406905911914200,11.122914306640626,-0.010486995801329613,-0.031921979039907455,-0.09967359900474548
1726406905921912300,11.132912353515625,0.007582818623632193,-0.049914829432964325,-0.10202596336603165
1726406905931910400,11.142910400390624,0.018972359597682953,-0.05134867504239082,-0.08900763839483261
1726406905941907200,11.1529072265625,0.025240907445549965,-0.10420283675193787,-0.08201604336500168
1726406905951905300,11.1629052734375,0.029925940558314323,-0.16374659538269043,-0.08576230704784393
1726406905961903400,11.1729033203125,0.04548812285065651,-0.2094419002532959,-0.11008203029632568
1726406905971901200,11.182901123046875,0.054134342819452286,-0.28375154733657837,-0.10517861694097519
1726406905981899300,11.192899169921875,0.061230067163705826,-0.2995728552341461,-0.0875634029507637
1726406905991897300,11.2028974609375,0.049792591482400894,-0.21210932731628418,-0.08675993233919144
1726406906001895200,11.212895263671875,0.03835165128111839,-0.0909687876701355,-0.10883300751447678
1726406906011893200,11.222893310546874,0.056359946727752686,0.009880327619612217,-0.1353578269481659
1726406906021890000,11.23289013671875,0.09220529347658157,0.09970049560070038,-0.15647828578948975
1726406906031888100,11.24288818359375,0.10641858726739883,0.13391491770744324,-0.18405212461948395
1726406906041886200,11.25288623046875,0.06894417852163315,0.17693056166172028,-0.21803165972232819
1726406906051884300,11.26288427734375,0.037816885858774185,0.22747203707695007,-0.22811704874038696
1726406906061882400,11.27288232421875,0.03804592043161392,0.23970793187618256,-0.21755895018577576
1726406906071880400,11.28288037109375,0.0366368405520916,0.2630643844604492,-0.19888140261173248
1726406906081878300,11.292878173828125,0.03792820870876312,0.27736929059028625,-0.15974226593971252
1726406906091876400,11.30287646484375,0.03038746677339077,0.29592540860176086,-0.13224191963672638
1726406906101874400,11.31287451171875,0.007677094545215368,0.29483935236930847,-0.10383638739585876
1726406906111871200,11.322871337890625,-0.007179349660873413,0.26703089475631714,-0.06942248344421387
1726406906121869300,11.332869384765624,0.007835818454623222,0.28567302227020264,-0.047208525240421295
1726406906131867100,11.3428671875,0.009913883171975613,0.25350630283355713,-0.036323919892311096
1726406906141865200,11.352865234375,-0.0034490597900003195,0.15692543983459473,-0.06052592769265175
1726406906151863300,11.36286328125,-0.015806926414370537,0.05656500905752182,-0.10974513739347458
1726406906161861000,11.372861083984375,-0.020445087924599648,-0.008105597458779812,-0.16085413098335266
1726406906171859200,11.382859130859375,-0.013468404300510883,0.050331346690654755,-0.17788903415203094
1726406906181857300,11.392857177734374,-0.013287043198943138,0.1336536705493927,-0.16196812689304352
1726406906191854300,11.402854248046875,-0.03533535450696945,0.19080989062786102,-0.14023379981517792
1726406906201852400,11.412852294921874,-0.03935379907488823,0.2534322738647461,-0.13267043232917786
1726406906211850200,11.422850341796876,-0.030475882813334465,0.3209223747253418,-0.1384422928094864
1726406906221848300,11.432848388671875,-0.02093750610947609,0.40529581904411316,-0.1453729122877121
1726406906231846400,11.442846435546874,-0.012051602825522423,0.4485445022583008,-0.14323465526103973
1726406906241844200,11.45284423828125,0.013646303676068783,0.492274671792984,-0.12312565743923187
1726406906251842300,11.46284228515625,0.04438797011971474,0.49071991443634033,-0.09250277280807495
1726406906261840400,11.47284033203125,0.05805877596139908,0.4285455048084259,-0.07514854520559311
1726406906271837200,11.482837158203125,0.05335909500718117,0.3390885889530182,-0.06408657133579254
1726406906281835300,11.492835205078125,0.06485329568386078,0.20564956963062286,-0.045710496604442596
1726406906291833000,11.5028330078125,0.07160254567861557,0.08330394327640533,-0.03099599853157997
1726406906301831200,11.5128310546875,0.05769019573926926,0.021199028939008713,-0.05582811310887337
1726406906311829200,11.522829345703125,0.047439154237508774,-0.02123924158513546,-0.10005123168230057
1726406906321827000,11.5328271484375,0.05429253354668617,-0.05513835325837135,-0.15416373312473297
1726406906331825200,11.5428251953125,0.06911329180002213,-0.08670533448457718,-0.2141522318124771
1726406906341823200,11.5528232421875,0.100895456969738,-0.06847067177295685,-0.2516777813434601
1726406906351820300,11.5628203125,0.10609394311904907,-0.09334752708673477,-0.28257283568382263
1726406906361818400,11.572818359375,0.07508436590433121,-0.13626010715961456,-0.29805779457092285
1726406906371816200,11.582816162109374,0.052387040108442307,-0.22407092154026031,-0.31095388531684875
1726406906381814300,11.592814208984375,0.024988174438476562,-0.32158946990966797,-0.32934755086898804
1726406906391812400,11.602812255859375,-0.004129763692617416,-0.40350618958473206,-0.3221535384654999
1726406906401810200,11.61281005859375,-0.030606111511588097,-0.41549333930015564,-0.24729607999324799
1726406906411808300,11.622808349609375,-0.03694257140159607,-0.37488600611686707,-0.1460496187210083
1726406906421806300,11.632806396484375,-0.04590117931365967,-0.33093610405921936,-0.07801597565412521
1726406906431803100,11.64280322265625,-0.0684293881058693,-0.31475821137428284,-0.04663621261715889
1726406906441801200,11.65280126953125,-0.09371531009674072,-0.3081490397453308,-0.045281462371349335
1726406906451799000,11.662799072265624,-0.1027974858880043,-0.3610394299030304,-0.07600688189268112
1726406906461797000,11.672797119140625,-0.12232165038585663,-0.4310528635978699,-0.12762346863746643
1726406906471795200,11.682795166015625,-0.1360315978527069,-0.47427836060523987,-0.1858218014240265
1726406906481793300,11.692793212890624,-0.12572303414344788,-0.5126044154167175,-0.23306627571582794
1726406906491791400,11.702791259765625,-0.1018587201833725,-0.501655101776123,-0.22983373701572418
1726406906501789400,11.71278955078125,-0.07031091302633286,-0.37405720353126526,-0.1892431676387787
1726406906511786200,11.7227861328125,-0.04585910215973854,-0.11856979131698608,-0.09839767962694168
1726406906521784300,11.732784423828125,-0.04470382258296013,0.13434183597564697,0.011373295448720455
1726406906531782100,11.7427822265625,-0.04938885569572449,0.3376004099845886,0.15192800760269165
1726406906541780200,11.7527802734375,-0.0667012631893158,0.47078749537467957,0.24955497682094574
1726406906551778300,11.7627783203125,-0.10268855839967728,0.5603184103965759,0.29594191908836365
1726406906561776000,11.772776123046874,-0.10936617106199265,0.6030597686767578,0.31438562273979187
1726406906571774200,11.782774169921876,-0.08038538694381714,0.6180105209350586,0.3121480345726013
1726406906581772300,11.792772216796875,-0.03569914028048515,0.5682408213615417,0.30850085616111755
1726406906591769300,11.802769287109374,-0.015748336911201477,0.5161451101303101,0.3006330728530884
1726406906601767400,11.812767333984375,-0.009364473633468151,0.3911893367767334,0.2766462564468384
1726406906611765500,11.822765625,-0.024506941437721252,0.17562055587768555,0.20325379073619843
1726406906621763300,11.832763427734376,-0.03912689536809921,-0.08485523611307144,0.09491799026727676
1726406906631761400,11.842761474609375,-0.020668527111411095,-0.3166687488555908,-0.01648576557636261
1726406906641759200,11.85275927734375,0.017136376351118088,-0.48666897416114807,-0.09911327064037323
1726406906651757300,11.86275732421875,0.056114934384822845,-0.6202243566513062,-0.13608646392822266
1726406906661755400,11.87275537109375,0.0875796526670456,-0.6819649934768677,-0.15518586337566376
1726406906671752200,11.882752197265624,0.09642080962657928,-0.6744982600212097,-0.1647079885005951
1726406906681750300,11.892750244140625,0.09036584943532944,-0.694800853729248,-0.1985383927822113
1726406906691748400,11.902748291015625,0.043902743607759476,-0.7459269165992737,-0.24396845698356628
1726406906701746200,11.91274609375,-0.0006056028068996966,-0.806129515171051,-0.26402950286865234
1726406906711744300,11.922744140625,-0.009129050187766552,-0.7888395190238953,-0.24977600574493408
1726406906721742000,11.9327421875,-0.022285863757133484,-0.7304502129554749,-0.22492951154708862
1726406906731740200,11.942740234375,-0.050520963966846466,-0.6377426385879517,-0.16362568736076355
1726406906741738200,11.95273828125,-0.07723646610975266,-0.5644282102584839,-0.1436317265033722
1726406906751735300,11.9627353515625,-0.0880076214671135,-0.48044252395629883,-0.09704505652189255
1726406906761733400,11.9727333984375,-0.0728856548666954,-0.40980616211891174,-0.03660781309008598
1726406906771731500,11.9827314453125,-0.06307990103960037,-0.3069506287574768,0.011506720446050167
1726406906781729300,11.992729248046874,-0.0832940936088562,-0.19342352449893951,0.04616083577275276
1726406906791727400,12.002727294921876,-0.11831625550985336,-0.06458564847707748,0.07794380187988281
1726406906801725400,12.012725341796875,-0.13625957071781158,0.02358921617269516,0.1256285011768341
1726406906811723300,12.02272314453125,-0.1335410177707672,0.04236450046300888,0.1525416076183319
1726406906821720000,12.032719970703125,-0.12825597822666168,0.04459916055202484,0.14411403238773346
1726406906831718100,12.04271826171875,-0.12783120572566986,0.10207470506429672,0.10440576821565628
1726406906841716000,12.052716064453126,-0.1322736144065857,0.1568676382303238,0.0454428493976593
1726406906851714000,12.062714111328125,-0.1203296035528183,0.14768026769161224,0.015052719041705132
1726406906861712100,12.072712158203124,-0.08480623364448547,0.15141722559928894,-0.008491755463182926
1726406906871710000,12.0827099609375,-0.05408560484647751,0.15310272574424744,-0.002805373864248395
1726406906881708000,12.0927080078125,-0.04346092417836189,0.16316016018390656,-0.017079384997487068
1726406906891706000,12.1027060546875,-0.06957082450389862,0.1430562287569046,-0.0556211844086647
1726406906901703200,12.112703125,-0.08293935656547546,0.08871069550514221,-0.06765946745872498
1726406906911701200,12.122701171875,-0.05505898967385292,0.08039630204439163,-0.06266524642705917
1726406906921699000,12.132698974609376,-0.015119831077754498,0.09785599261522293,-0.05988623574376106
1726406906931697200,12.142697265625,-0.03241785988211632,0.0645395815372467,-0.0547010637819767
1726406906941695200,12.1526953125,-0.06265538930892944,0.07706575840711594,-0.03466929867863655
1726406906951693000,12.162693115234376,-0.07083369046449661,0.07881651818752289,0.0056951697915792465
1726406906961691100,12.172691162109375,-0.04952361062169075,0.05828993767499924,0.03925259783864021
1726406906971688000,12.18268798828125,-0.04728815332055092,0.02564197964966297,0.04397624731063843
1726406906981686000,12.19268603515625,-0.04496294632554054,0.03519260883331299,0.04465961456298828
1726406906991684000,12.20268408203125,-0.055512528866529465,0.004728176165372133,0.036910880357027054
1726406907001682000,12.212681884765624,-0.052925266325473785,-0.027215376496315002,0.013822338543832302
1726406907011680000,12.222679931640625,-0.02767397277057171,-0.10650194436311722,-0.002139583695679903
1726406907021678300,12.23267822265625,0.001439971150830388,-0.09149795770645142,-0.0010327738709747791
1726406907031676200,12.24267626953125,0.017059143632650375,-0.034028805792331696,-0.013202887028455734
1726406907041673200,12.252673095703125,0.0035689021460711956,-0.07425292581319809,-0.042505647987127304
1726406907051671000,12.262671142578125,-0.02244219183921814,-0.1985652893781662,-0.05084161087870598
1726406907061669000,12.272669189453126,-0.03116724081337452,-0.2788132429122925,-0.009045693092048168
1726406907071667200,12.282667236328125,-0.013697436079382896,-0.2847917973995209,0.027103789150714874
1726406907081665000,12.2926650390625,-0.011347196996212006,-0.24807772040367126,0.06435928493738174
