time,seconds_elapsed,z,y,x
1726940685341811000,0.01981103515625,-1.364358261680603,-0.28289778095334767,-0.6777198133438825
1726940685351796000,0.0297958984375,-1.3928998810321092,-0.07073825456798076,-0.34898104932233687
1726940685361781800,0.03978173828125,-1.0864338852256537,0.14522797062397003,0.0015165420427918433
1726940685371768000,0.04976806640625,-0.7818640784293412,0.2508466921761632,0.40379941183328627
1726940685381753900,0.05975390625,-0.6545557953774929,0.3589516775861382,0.7129325810223818
1726940685391740000,0.069739990234375,-0.5613496884137392,0.47991789813488717,0.7773233662597835
1726940685401726000,0.079725830078125,-0.8879939643740653,0.2734320334717631,0.7684709283709525
1726940685411711000,0.0897109375,-1.0290326666146516,0.1947612323388457,0.7886915863618255
1726940685421697000,0.099697021484375,-1.388454007539153,0.24798750335276126,0.8552380883283912
1726940685431683000,0.10968310546875,-2.0893816779911516,0.5887158342450857,0.7796475714236497
1726940685441668900,0.1196689453125,-2.906885809600353,0.8008338595762848,0.8501295131430029
1726940685451655000,0.129655029296875,-3.959385276520252,0.6011705344095826,0.9742286248899996
1726940685461640000,0.139639892578125,-4.612582058504223,0.4078708990558982,0.6703579062737524
1726940685471626000,0.1496259765625,-5.204314025700092,0.31796266459375616,-0.13104060144796967
1726940685481612000,0.159612060546875,-5.259974538123608,0.38575025266259905,-0.7306323422335088
1726940685491597800,0.169597900390625,-5.443213967233896,0.4025309993326664,-0.94577731417045
1726940685501584100,0.179584228515625,-5.305926141959429,0.7722726587414741,-0.7265015260390937
1726940685511570000,0.18956982421875,-4.830034722861647,1.3295862235069273,-0.0437045555613935
1726940685521555000,0.199554931640625,-4.070105997386574,2.027904588243365,0.43966655176728964
1726940685531541000,0.209541015625,-2.994868044435978,2.765443787255883,0.8108088717542589
1726940685541527000,0.219527099609375,-2.1104770729899407,3.3849346989929674,1.4785259081304072
1726940685551512800,0.229512939453125,-0.5852502039611339,4.4802387038946145,1.7877467556029558
1726940685561499000,0.239498779296875,0.8919313038229941,5.109589330866933,2.612591897624731
1726940685571484000,0.24948388671875,1.5320739584445953,5.489895638909935,3.7061148643285033
1726940685581470000,0.259469970703125,2.0824761363863944,5.546392017635703,5.064220495355129
1726940685591456000,0.2694560546875,3.3086014008969067,4.401310713130235,7.532905441826582
1726940685601441800,0.27944189453125,4.912915835165977,4.161755522558093,8.860094541063905
1726940685611428000,0.289427978515625,5.9176019960314035,5.677233150988817,7.36787386958003
1726940685621414000,0.299413818359375,5.841151209035515,6.788880972447991,6.039502282559871
1726940685631399000,0.30939892578125,5.240342201414704,8.214384315443038,5.694847718134522
1726940685641385000,0.319385009765625,4.5063463740974665,8.933736115857958,6.056864920771122
1726940685651371000,0.32937109375,3.4655472818434236,8.144192588841914,6.273570566153526
1726940685661356800,0.339356689453125,3.005675269654393,7.059367892378568,4.485421367229521
1726940685671342800,0.3493427734375,2.8183810121953488,5.996455752515793,2.1217624371141195
1726940685681328000,0.359328125,3.016688246577978,5.457686144700646,0.41074879257977004
1726940685691314000,0.36931396484375,4.59209222818315,5.054366625338792,-0.20086744025945663
1726940685701300000,0.379300048828125,5.977689092725515,4.959223412832618,0.4454606249988079
1726940685711285800,0.38928564453125,6.212884334522485,4.889465985995531,1.5531979950159787
1726940685721272000,0.39927197265625,5.652734085026383,5.193417368632555,1.988398507285118
1726940685731257900,0.4092578125,4.196086831226944,5.401172230318188,1.87259653763175
1726940685741243000,0.419242919921875,2.6336332243487237,3.766279117912054,0.2822188587784767
1726940685751229000,0.42922900390625,1.702860440956056,1.964977591948211,-2.3459692519068716
1726940685761215000,0.439215087890625,1.4232710538983344,0.15386106667369603,-5.353757568192481
1726940685771200800,0.44920068359375,0.7999091459468006,-1.7671873671770095,-7.754160421076416
1726940685781187000,0.45918701171875,0.0014624737679958342,-1.841210342504084,-8.36932353274226
1726940685791171300,0.46917138671875,-0.0043690088644623756,-0.0829582691937685,-6.732650551182031
1726940685801157400,0.479157470703125,0.16969094235971569,1.789579231727123,-3.184226833209395
1726940685811143400,0.489143310546875,3.437999934226274,1.6553975557744502,-9.475221412372589
1726940685821129200,0.499129150390625,8.702989085641503,-4.429505711001157,-31.86693164870739
1726940685831115300,0.509115234375,-1.0952582660637795,-1.725779836511612,7.952775113973021
1726940685841101300,0.519101318359375,-2.681284910100698,-1.8526831920243798,4.631714628997445
1726940685851086300,0.52908642578125,-1.173530569398403,-2.2740129998512564,-9.123304163467884
1726940685861072400,0.539072265625,-0.5545364282023161,-0.49530280653238296,7.602593310558795
1726940685871058400,0.549058349609375,-0.8527344349443912,-0.22428850172683595,4.036648548942804
1726940685881044500,0.55904443359375,1.5030753891058266,-1.3503113238885998,0.32411504974365235
1726940685891030300,0.5690302734375,1.3347044433034956,-1.9234674776911735,-1.6118448297739028
1726940685901016600,0.5790166015625,-0.44500995862185955,-1.755171935212612,-4.258073624062538
1726940685911001300,0.58900146484375,-1.7267605181120336,-2.3593965964958072,-6.428018200543522
1726940685920987400,0.5989873046875,-2.5939725373506546,-1.872233403407782,-6.674027097299694
1726940685930973200,0.60897314453125,-2.1522534369677304,-0.5724160394923761,-4.444701526567339
1726940685940959500,0.61895947265625,-0.03302190657071769,-0.5877101643338799,-1.4649363587170838
1726940685950945300,0.6289453125,1.9091129352547227,-0.3694105277583003,-0.37676468991339207
1726940685960931300,0.638931396484375,3.153516053125262,-1.608190983441472,-0.7710334723353386
1726940685970916400,0.648916259765625,3.5554122616857287,-3.7975109992608425,-2.093613031950593
1726940685980902400,0.65890234375,3.077533468163013,-4.661781850481033,-3.117815794190764
1726940685990888400,0.668888427734375,2.4301462492406367,-5.8857777017474175,-3.078302114447951
1726940686000874200,0.678874267578125,2.278731698936224,-5.2809010062962765,-1.8895950187057255
1726940686010860500,0.688860595703125,2.3096260188937188,-4.6440489176526665,0.4586953696250915
1726940686020846300,0.698846435546875,2.763295669311285,-4.597084921903908,4.005616866341233
1726940686030831400,0.708831298828125,2.6591724470138547,-3.0316461617350576,6.023094753116369
1726940686040817200,0.718817138671875,1.6276362731456755,-2.0478956752620636,6.1962774831146
1726940686050803500,0.728803466796875,-0.21701441907063126,-1.165617604316771,4.3504894574314354
1726940686060789200,0.738789306640625,-1.7880103749752043,0.28413448314145207,2.7425463112711905
1726940686070775300,0.748775390625,-2.3334961393028495,1.4192913366124034,3.0620705260932444
1726940686080760600,0.758760498046875,-2.2444413067996503,1.7970777707889676,4.600042894926667
1726940686090746400,0.768746337890625,-2.0322233282253146,2.1775629425302148,4.718113978555798
1726940686100732400,0.778732421875,-2.150741571100056,0.5926689557850361,3.452303184866905
1726940686110718200,0.78871826171875,-1.6035300058931112,-1.5173498520433901,1.0400234317064285
1726940686120704500,0.79870458984375,-0.5216165207013488,-2.145193289323151,-1.2528022590339183
1726940686130690300,0.808690185546875,0.35662820307463405,-2.1676991356417536,-2.2119220159888267
1726940686140676400,0.81867626953125,1.4099579833388327,-1.7563292885541915,-2.0857751779317852
1726940686150661400,0.828661376953125,2.1637664723679424,-0.7565244699895382,-1.6176619916200636
1726940686160647400,0.8386474609375,1.702356583087146,0.8875304385155439,-0.2360731936752796
1726940686170633200,0.84863330078125,0.36376141595542427,2.8072888325557113,0.9437895013540982
1726940686180619500,0.85861962890625,-1.3889137340053914,3.666270052935183,1.7313637741237877
1726940686190605300,0.868605224609375,-4.091924738223851,2.027274181385338,-0.053128363597393036
1726940686200590300,0.87859033203125,-7.080970652377605,-0.2994537789568305,-4.302217886215448
1726940686210576400,0.888576416015625,-7.598137500193714,-2.4186826059401034,-7.529442734152078
1726940686220562400,0.8985625,-5.773727193582058,-3.8099241983711716,-9.245158272767066
1726940686230548500,0.908548583984375,-2.8596979419678448,-3.784063780927658,-9.012855245280265
1726940686240534300,0.9185341796875,0.3232327139511704,-3.016626287257671,-7.0181164290577165
1726940686250520600,0.9285205078125,3.4255689071983095,3.0692148448899386,-4.7051942912280555
1726940686260505300,0.93850537109375,5.598044463461637,5.647466958278417,3.056675389051437
1726940686270491400,0.948491455078125,6.037672144523262,6.795150554236769,7.277926472151279
1726940686280477200,0.958477294921875,3.3826875045880676,7.521955593267083,7.248190674579143
1726940686290463500,0.96846337890625,0.2954810759335756,4.961432321053743,6.644051061230898
1726940686300449300,0.97844921875,-0.760745302554965,3.4008465538740156,3.9521488955259323
1726940686310435300,0.988435302734375,-1.3918494951963425,1.8430352198436855,0.46062136925160885
1726940686320421400,0.99842138671875,-3.1069717440932987,1.3150497486323118,0.09195698368549346
1726940686330406400,1.008406494140625,-3.1757255468457934,1.0521236193448305,2.7584973291188475
1726940686340392400,1.018392333984375,-3.5471132198959587,-0.051475627954304215,4.545277285516262
1726940686350378200,1.028378173828125,-4.428085322809219,-0.6153349611014127,7.464224119788408
1726940686360364500,1.038364501953125,-4.132537319119274,-0.9970707174256443,9.113997405940294
1726940686370350300,1.048350341796875,-3.0284701620474457,0.013694471092522144,9.068393592628835
1726940686380336400,1.05833642578125,3.596770107990503,0.17704905003756283,-2.0216677396804092
1726940686390321200,1.068321044921875,4.09238154208064,1.7463117524087428,-1.4438105685800313
1726940686400307500,1.078307373046875,3.872780759778619,1.8271692499309777,-2.656204829379916
1726940686410293200,1.088293212890625,6.152180567234754,2.980048660966754,-7.3464435435384505
1726940686420279300,1.098279296875,5.148285264486074,3.751765731652081,-8.805375693404674
1726940686430265300,1.108265380859375,3.2480712366104125,4.982545836231112,-6.700950175538659
1726940686440250400,1.11825048828125,1.6366414173781871,5.130864174085855,-4.135971677482128
1726940686450236400,1.128236328125,1.3592092083543539,4.15519660243392,-3.5529882494091987
1726940686460222200,1.13822216796875,0.25464403863251206,3.132227181380987,-1.9577520246088504
1726940686470208500,1.14820849609375,-1.4661416428536176,1.7443720165178178,-1.0890490361601113
1726940686480194300,1.1581943359375,0.44463469556868074,0.06257540637850761,-1.5814222189813851
1726940686490180400,1.168180419921875,1.9882465315937994,0.17012305016666648,-0.7078297049254179
1726940686500166400,1.17816650390625,1.1092635566711424,0.609109218454361,-0.15395195982754228
1726940686510151400,1.1881513671875,0.7259194883674382,0.8308999120160937,0.2299386364430189
1726940686520137200,1.19813720703125,0.026708558705449102,1.052694989491999,0.5351835660219192
1726940686530123500,1.20812353515625,-0.5522013363182544,1.335918641398847,0.6075982293695211
1726940686540109300,1.218109375,-0.8884972377210855,1.0540766531087458,-0.12498656210601329
1726940686550095400,1.228095458984375,-0.7609580685228109,0.3737700381420552,-1.075799093964696
1726940686560081200,1.2380810546875,-0.5029395850211381,0.12625541299805043,-1.031344450688362
1726940686570066400,1.24806640625,-0.2185188322842121,-0.39129999574422836,-1.3008955510735511
1726940686580052500,1.258052490234375,0.13882161071300506,-0.9029670771002769,-1.3425742998957633
1726940686590038300,1.268038330078125,0.5260556721925735,-1.2589838702782987,-1.1975684475898742
1726940686600024600,1.278024658203125,0.6499181987047195,-1.4785440283089875,-0.7976420777976513
1726940686610010400,1.28801025390625,0.6083318043410778,-1.572271967189759,-0.43674189649224276
1726940686619996400,1.297996337890625,0.3340589361310005,-1.5933600556649268,-0.307602890881896
1726940686629981200,1.307981201171875,0.2542173376530409,-1.5834674610733985,-0.482518143761158
1726940686639967500,1.317967529296875,0.46514264606833455,-1.5017358110651373,-0.45891281176805493
1726940686649953300,1.327953369140625,0.5079448459625244,-1.268117170935124,-0.30777415579557416
1726940686659939300,1.337939208984375,0.3386977018475532,-1.1964344751238822,-0.5182359383523464
1726940686669925400,1.34792529296875,0.282647313323617,-1.1430126815378665,-0.9852081379354
1726940686679911400,1.357911376953125,0.3326303646326065,-1.0244416855625809,-1.150016422820091
1726940686689896400,1.367896484375,0.41280689415335653,-1.102738100425154,-1.0100924038231371
1726940686699882200,1.37788232421875,0.44618075596690177,-1.1122069166466593,-0.7517319750159979
1726940686709868500,1.38786865234375,0.30070728614926334,-1.1602490630209445,-0.43849487763941286
1726940686719854300,1.397854248046875,0.05499824912250042,-1.1851362515181303,-0.11931611525416373
1726940686729840400,1.40784033203125,-0.10128069234788417,-1.0356729814119636,0.04404255534410476
1726940686739826400,1.417826416015625,-0.15284019919335842,-0.6957447148561478,0.07667816601097584
1726940686749811500,1.4278115234375,-0.17793606200516224,-0.43869142312481996,0.12233809342384337
1726940686759797200,1.43779736328125,-0.21801088276207445,-0.31667905452400447,0.16037994704842568
1726940686769783300,1.447783203125,-0.1654676255762577,-0.20089725087583063,0.2458417234957218
1726940686779769300,1.457769287109375,-0.008285597786307334,-0.12060980832651257,0.37140111705362794
1726940686789756000,1.467755859375,0.08377192366421223,-0.16127587297484278,0.5721569136321545
1726940686799741700,1.47774169921875,0.10721125144064426,-0.27554420332014556,0.6788391727626323
1726940686809726700,1.487726806640625,0.10262450817227363,-0.34870793146938084,0.6829816793948411
1726940686819712800,1.497712646484375,0.15478198091089723,-0.4164278611294925,0.5065373172521591
1726940686829698800,1.50769873046875,0.23870178861320018,-0.3784245859496295,0.38278000468015666
1726940686839684600,1.5176845703125,0.13839900138676164,-0.3036611675187945,0.2906114240705967
1726940686849671000,1.5276708984375,0.011309914043545722,-0.2732338805511594,0.1997486653625965
1726940686859656700,1.53765673828125,0.07988719118535519,-0.17192206241264937,-0.07247545362412929
1726940686869641700,1.547641845703125,0.07669862427711487,-0.00040551206097006793,-0.4022375693440437
1726940686879627800,1.557627685546875,0.11816226904392242,0.11913622864261268,-0.4187947363913059
1726940686889613800,1.56761376953125,0.19497019891440867,0.0787612558953464,-0.3027484365880489
1726940686899600000,1.577599853515625,0.2357294948041439,-0.06774301827475428,-0.11381810235977172
1726940686909585700,1.587585693359375,0.22850597329139707,-0.29440818600505586,0.18565993425548075
1726940686919572000,1.597572021484375,0.14363164134323597,-0.4763077448137104,0.3928004634350538
1726940686929556700,1.607556640625,0.19965631090402602,-0.5333206947594881,0.5129881008267403
1726940686939542800,1.617542724609375,0.398665556076169,-0.5671431771233677,0.4704559500455856
1726940686949528800,1.62752880859375,0.6772720695763826,-0.5795942240260541,0.13443477393090725
1726940686959515000,1.637514892578125,0.8654089153394102,-0.4644976261630654,-0.22896833010613918
1726940686969500700,1.647500732421875,0.8639426421791314,-0.4326720167048275,-0.21977613886892794
1726940686979486700,1.65748681640625,0.6794342160463333,-0.32768428653255105,0.03275368408858776
1726940686989472000,1.667471923828125,0.6159358496040106,-0.32118323407545685,0.2405827800542116
1726940686999457800,1.677457763671875,0.6297141995877027,-0.43928076732009647,0.49238311969339843
1726940687009443800,1.68744384765625,0.5824269632339477,-0.5539825206466019,0.67638184273839
1726940687019430000,1.697429931640625,0.5061486101955175,-0.5332328703455627,0.6474269664108753
1726940687029416000,1.707416015625,0.4303746995478868,-0.39261721582263703,0.4342401428043842
1726940687039401700,1.717401611328125,0.3973971435755491,-0.2666524563342333,0.12551496989428995
1726940687049386800,1.72738671875,0.36262452087998387,-0.18319179057627916,-0.16137363426089285
1726940687059372800,1.737372802734375,0.3451128295868635,-0.18722835261598228,-0.2781336352914572
1726940687069358800,1.74735888671875,0.3084711981490254,-0.22488997475132344,-0.3121417033553123
1726940687079344600,1.7573447265625,0.33726591547876594,-0.2654543325908482,-0.5238181223988533
1726940687089331000,1.7673310546875,0.4275175565510988,-0.38038931015133853,-0.6490291409105062
1726940687099316700,1.777316650390625,0.31095249357074495,-0.5014962543450295,-0.45483401802182194
1726940687109301800,1.7873017578125,0.24465397501587866,-0.5435903059698641,-0.26655367213487624
1726940687119287800,1.797287841796875,0.2597153505474329,-0.5557052527859807,-0.4628910677492618
1726940687129273900,1.80727392578125,0.25660277148485183,-0.5300096705153584,-0.6636918725132942
1726940687139260000,1.817260009765625,0.32079993384629485,-0.565744123980403,-0.8234744381904602
1726940687149245700,1.82724560546875,0.3695037589997053,-0.6446652466125786,-0.9560860883474349
1726940687159232000,1.83723193359375,0.5072977802306413,-0.810123081447184,-1.0073317069381476
1726940687169216800,1.847216796875,0.6821002203851938,-0.8871640894211829,-1.0589555111914872
1726940687179202800,1.857202880859375,0.8362456569582224,-0.9980012762740254,-1.0469015007823705
1726940687189188600,1.867188720703125,0.9134323570132254,-1.069113478720933,-0.8490209673792123
1726940687199175000,1.8771748046875,0.9403738476917147,-1.1329156504154205,-0.7849830872327089
1726940687209160700,1.88716064453125,0.8673506970569491,-1.129570723901689,-0.8128583516299724
1726940687219146800,1.897146728515625,0.6432844597786664,-1.0550864146731793,-0.794337775555253
1726940687229132000,1.907132080078125,0.4153407965451479,-1.0711842936456202,-0.7347440153360366
1726940687239117800,1.917117919921875,0.2059285230413079,-1.14737029222548,-0.700915980014205
1726940687249104000,1.927103759765625,-0.0770411541044712,-1.1855313883155583,-0.2988847468972206
1726940687259089700,1.937089599609375,-0.38741701683104035,-1.1674129633009434,0.245035667809844
1726940687269076000,1.947075927734375,-0.7148758240446448,-0.9931953372970223,0.8298784600138663
1726940687279061800,1.957061767578125,-0.9644479662403463,-0.7652978512927889,1.2816700415998696
1726940687289047800,1.9670478515625,-1.0222793929621576,-0.439886770389229,1.2230015795320273
1726940687299032800,1.97703271484375,-0.7622416785925626,-0.13199848669469355,0.6371908190786838
1726940687309019000,1.987018798828125,-0.5526034873783588,0.14649346051514148,0.21479075167179107
1726940687319004700,1.997004638671875,-0.6010469080299139,0.3937361368499696,0.302397723454237
1726940687328991000,2.006990966796875,-0.7577934670120478,0.6879356485404073,0.42792438378632064
1726940687338976800,2.016976806640625,-0.5566173991948365,0.9836997791990637,0.1378869602113962
1726940687348962800,2.026962890625,-0.4263786156490445,1.2821667390756308,-0.05955868890583515
1726940687358947800,2.03694775390625,-0.22842209440022707,1.4226396241270005,-0.012852467310428618
1726940687368934000,2.046933837890625,-0.20382833589166402,1.4050636354260146,-0.028036592438817023
1726940687378920000,2.056919921875,-0.1880778090521693,1.3546848627977073,-0.16134382364451885
1726940687388905700,2.06690576171875,-0.19705869562625883,0.8775342374190688,-0.06321019715070725
1726940687398892000,2.07689208984375,-0.3419721934735775,0.37724808951616284,0.3884510360538959
1726940687408877800,2.0868779296875,-0.4287582042619586,-0.0833437613800168,0.867216549283266
1726940687418862800,2.09686279296875,-0.5851572649806738,-0.40281449244916434,1.3988637578725813
1726940687428848600,2.1068486328125,-0.6617734716713428,-0.6160853410772978,1.996231685128808
1726940687438835000,2.1168349609375,-0.6618593963891267,-0.6641359630189836,2.423498481789231
1726940687448820700,2.12682080078125,-0.49389323199540375,-0.583183626820147,2.3991204118579623
1726940687458806800,2.136806884765625,-0.34367665930390356,-0.40271585438027974,2.1973393638849257
1726940687468792800,2.146792724609375,-0.02531009008437395,-0.09286503844112157,1.927284405630827
1726940687478777900,2.15677783203125,0.4193792582809925,0.258467396312952,1.1429822863996029
1726940687488764000,2.166763916015625,0.8627601543962955,0.6263076060146093,0.18265315365493295
1726940687498749700,2.176749755859375,1.055364208701253,1.1589185450695454,-0.6155833829045295
1726940687508736000,2.186736083984375,1.0145493832319974,1.6673850768186151,-1.1151228040933607
1726940687518721800,2.1967216796875,0.837253372696042,2.3594418969422577,-1.3891630325913429
1726940687528707800,2.206707763671875,0.9435767353862523,2.9439912591576576,-1.5464152030080556
1726940687538692600,2.216692626953125,1.2472399487316608,2.9482793117403983,-1.7752029158502816
1726940687548679000,2.226678955078125,1.7352473375588655,2.120199863972515,-2.1795435949534174
1726940687558664700,2.236664794921875,2.461502341490984,1.0250748688995837,-2.431249826568365
1726940687568650800,2.246650634765625,3.1864903942272065,-0.4434495774373412,-2.5054911208212376
1726940687578636800,2.25663671875,3.603735855349898,-2.6033348244577645,-3.0335990493685006
1726940687588622800,2.266622802734375,3.47381651301682,-4.72222404422313,-3.592178688547015
1726940687598608000,2.27660791015625,2.852882708995044,-6.118999597644805,-3.3704911630988117
1726940687608593700,2.28659375,1.9906711283922194,-5.907296290594339,-3.189654703477025
1726940687618580000,2.296580078125,0.8709770708605646,-3.6520261312663553,-2.247923303696513
1726940687628565800,2.306565673828125,-0.4485235197007656,-1.6654370114907622,-1.2479454666525125
1726940687638551800,2.3165517578125,-1.2515598577573894,-0.23306992020606992,0.31177579265236854
1726940687648537900,2.326537841796875,-1.6715730300277472,1.2096402859166264,1.904119218620658
1726940687658524000,2.33652392578125,-1.9787007046133278,1.7580735018730163,2.6139935811161994
1726940687668508700,2.3465087890625,-2.2780665130257605,2.2841154378011823,2.894365935245156
1726940687678495000,2.356494873046875,-2.1154794113218784,2.6806203087121245,3.0091175190627575
1726940687688480800,2.366480712890625,-2.134607597900927,2.986532470028102,3.0185037715673446
1726940687698466800,2.376466796875,-2.0744199634417892,3.238165051884949,3.3484517652481793
1726940687708452600,2.38645263671875,-1.9811948595166204,3.0593434392169114,3.519435523897409
1726940687718438000,2.39643798828125,-1.9583347929328678,2.8395635009557005,3.3826316827476024
1726940687728424000,2.406423828125,-1.8245418240368365,2.6307243511646985,3.3649604169785974
1726940687738409700,2.41640966796875,-1.4595488204598426,1.7100979909941554,3.3161639451056715
1726940687748396000,2.42639599609375,-0.7943804456532001,0.4619181310638785,2.803489732533693
1726940687758381800,2.4363818359375,-0.10103285506665706,-0.47995501527488227,2.3732751919835806
1726940687768367900,2.446367919921875,0.23501111740171907,-1.0361559426233171,1.9280700030505655
1726940687778354000,2.45635400390625,0.562235823598504,-1.663245638926327,1.1150883173018693
1726940687788339000,2.4663388671875,0.8467550682738423,-2.1543720365568992,0.12655658790171145
1726940687798324500,2.476324462890625,1.4581711023658512,-2.090631093530357,-1.2451625579357146
1726940687808310500,2.486310546875,1.6906600078135727,-1.4667948460653424,-2.811529831126332
1726940687818296300,2.49629638671875,1.6428431946277617,-0.5200993941366672,-3.332174584186077
1726940687828282600,2.50628271484375,1.1396505116283893,-0.0015887304961681365,-2.8760382513940335
1726940687838268400,2.516268310546875,0.6380009664177895,-1.0460828778758644,-2.1219933232605457
1726940687848253400,2.52625341796875,1.0365899501264095,-2.933497629933059,-2.5738544629514215
1726940687858239500,2.536239501953125,1.4448475104123353,-4.2381478573650115,-3.735902099826932
1726940687868225500,2.5462255859375,1.249440089124441,-3.6900010571345683,-4.468668677610158
1726940687878211600,2.556211669921875,0.993553941476345,-1.4462591307759285,-4.334533178886771
1726940687888197400,2.566197265625,0.5175105466872454,1.0956234461143612,-3.1250182729154825
1726940687898183700,2.57618359375,-0.2932438184008002,2.8186329411298034,-1.1104127267062662
1726940687908168400,2.58616845703125,-0.9110410779625177,3.9544323302879927,1.0079881250202656
1726940687918154500,2.596154541015625,-1.0161880903497338,3.956266852238774,2.5382775381356475
1726940687928140300,2.606140380859375,-0.6670178020656109,3.187796800650656,3.2960908788919445
1726940687938126600,2.616126708984375,-0.2770107687413692,2.71118700415045,3.542534075412154
1726940687948112400,2.6261123046875,0.2631421101257205,2.3682947732225057,3.4482278982520103
1726940687958098400,2.636098388671875,0.4157353488206863,1.5526348081752657,3.0615356885641813
1726940687968083500,2.64608349609375,0.3590019464686513,0.28300357941538096,2.742016149917245
1726940687978069500,2.656069580078125,0.33169571413099763,-0.9201664875738322,2.1636785018235445
1726940687988055600,2.6660556640625,0.42311698350459337,-1.756785946280509,1.4954893178910016
1726940687998041300,2.676041259765625,0.4146726880252361,-1.9921696963869033,1.1527595840483904
1726940688008027600,2.686027587890625,0.216305247887969,-1.7009128140196204,1.0331097067952155
1726940688018013400,2.696013427734375,-0.17052023279070852,-1.2886945334091782,1.0311790309935807
1726940688027999500,2.70599951171875,-0.28099253185391426,-0.7409222655795514,0.5626420663118362
1726940688037984300,2.715984375,0.19759002602398396,-0.0046380350641906255,-0.6104384212315083
1726940688047970600,2.725970458984375,0.5334282467871904,0.868108968078345,-1.9748399375319479
1726940688057956400,2.735956298828125,0.3936246392995119,1.5544111701980232,-2.9960277358651157
1726940688067942400,2.7459423828125,-0.2920867573201656,1.5812652748540044,-3.2365012103259563
1726940688077928400,2.755928466796875,-0.9212082517117262,0.9916901934310793,-2.8062995292574167
1726940688087914500,2.76591455078125,-1.3102660214871167,0.22724282148778438,-1.9772376463234422
1726940688097899500,2.7758994140625,-1.438328337776661,-0.4448835557632148,-0.9183511087149381
1726940688107885600,2.785885498046875,-1.470226866340637,-0.7612782403878867,-0.217019533637166
1726940688117871600,2.79587158203125,-1.3047948965996503,-0.6162034144990146,-0.07306523621082306
1726940688127857400,2.805857421875,-1.1373556786894798,-0.11640300428643822,-0.47864451719820494
1726940688137843500,2.815843505859375,-0.9641630118191241,0.31931042594090103,-1.049600822868943
1726940688147829500,2.82582958984375,-0.7798293577313423,0.7599728568777442,-1.6426403655320405
1726940688157814500,2.835814453125,-0.748204969933629,1.013292953430116,-1.6852420744180678
1726940688167800300,2.84580029296875,-0.851660668233037,0.9502383852325379,-1.1160276439785957
1726940688177786600,2.85578662109375,-0.9406430200219154,0.7058953758619725,-0.03993862715661525
1726940688187772400,2.8657724609375,-0.8392021686762571,0.2612140646725893,1.1308026037842034
1726940688197758500,2.875758544921875,-0.5118099969580769,-0.12592194325998424,2.0954566139906645
1726940688207744500,2.88574462890625,-0.09055530019402504,-0.4224237405434251,2.6444822428822516
1726940688217729500,2.8957294921875,0.6680442225039005,-0.7725497221171855,2.5929478704780338
1726940688227715600,2.905715576171875,1.8202911808550357,-0.9227028741836547,2.047130682238936
1726940688237701400,2.915701416015625,2.76232507071346,-0.6411278662666678,1.2685329121291637
1726940688247687700,2.925687744140625,3.101577483834326,-0.11308511191010474,0.5794634372532368
1726940688257673500,2.935673583984375,2.975204143545031,-0.1159843404829502,0.45388066281974315
1726940688267659500,2.945659423828125,2.275780447915196,-0.6956988298878073,0.8863613947361707
1726940688277645600,2.9556455078125,1.549754576563835,-1.2330389894217253,1.1502671827107667
1726940688287630600,2.965630615234375,0.9988421110123396,-1.381945064036548,1.0375339529782532
1726940688297616400,2.975616455078125,0.5017614811524749,-1.0144386163339019,0.6585147621363401
1726940688307602400,2.9856025390625,0.28928075998872516,-0.3927358737662434,0.10941782157421111
1726940688317588500,2.99558837890625,-0.034222003075480456,0.10462240399122237,-0.2611789933592081
1726940688327574500,3.005574462890625,-0.41502661602944135,0.426560401956737,-0.13990765238404274
1726940688337560300,3.015560302734375,-0.5504582920432091,0.4410501150801778,0.07854045275151729
1726940688347545300,3.02554541015625,-0.41305999213159084,0.1505664090424776,0.318168124037981
1726940688357531600,3.03553173828125,0.029912323182821273,-0.1843362844362855,0.2008773771315813
1726940688367517400,3.045517333984375,0.5787707788139581,-0.5431693040788174,-0.31627661120295525
1726940688377503500,3.05550341796875,0.8406336627840996,-0.9393310606405139,-0.7548281874656677
1726940688387489500,3.065489501953125,0.9250643426179885,-1.3244883158460259,-1.3047925585120916
1726940688397475600,3.0754755859375,0.8081395064145326,-1.3143120820075274,-1.555062619844079
1726940688407460400,3.08546044921875,0.39077567960917947,-0.7789259791508316,-1.5213187556743621
1726940688417446400,3.0954462890625,-0.017973463585972786,-0.13484803090691566,-1.3199398587614297
1726940688427432400,3.105432373046875,-0.3711334060281515,0.30425416497588154,-0.7496475699573755
1726940688437418500,3.11541845703125,-0.616556027328968,0.3888490954607725,0.11188275038301944
1726940688447404300,3.125404296875,-0.8487818979263305,0.22122341506779192,0.5741740986734628
1726940688457390600,3.135390625,-0.8527630765169858,-0.04849515083879232,0.6040139411419629
1726940688467375600,3.145375732421875,-0.8462754680633544,-0.2513949737086892,0.1044213284611702
1726940688477361400,3.155361328125,-0.8494903384566307,-0.36069705994874235,-0.5962684415817261
1726940688487347700,3.16534765625,-0.894302124607563,-0.4549254956975579,-1.0731050325751303
1726940688497333500,3.17533349609375,-0.960772784858942,-0.5499567722618579,-1.5468226147651671
1726940688507319600,3.185319580078125,-0.9411731813758611,-0.6051090429022908,-1.8433985001981257
1726940688517305300,3.195305419921875,-1.0696510927289724,-0.4955334004178643,-1.5337860230594873
1726940688527291600,3.205291748046875,-1.144530100363493,-0.2031315857991576,-0.9858651405394077
1726940688537276400,3.2152763671875,-1.1009247673928737,0.3041512891232967,-0.5288672224819659
1726940688547262500,3.225262451171875,-1.0882558399558067,0.8679176832899451,0.052312955561280246
1726940688557248500,3.23524853515625,-1.148030217438936,1.2395049705654382,0.5156044208049774
1726940688567234600,3.245234619140625,-1.0788754326701164,1.2727613434791565,0.5756856722801923
1726940688577220400,3.255220458984375,-0.7985530551627278,0.979243676573038,0.5006488437354565
1726940688587206700,3.26520654296875,-0.513389667364955,0.5806082233741879,0.4319944097042083
1726940688597191700,3.275191650390625,-0.18255466171652077,0.3300114143058657,0.4223462913930416
1726940688607177500,3.285177490234375,0.07503449045717715,0.33024639210551976,0.37704759850800035
1726940688617163500,3.29516357421875,0.2867103249788284,0.22377485311627388,0.10292787503302096
1726940688627149600,3.305149658203125,0.582325840947032,-0.08329086214900017,-0.18023031042218207
1726940688637135600,3.315135498046875,1.0443775352627038,-0.5121501886978745,-0.4773790273070335
1726940688647121400,3.325121337890625,1.5893272930175064,-1.064558153504133,-0.4445253899753093
1726940688657106400,3.3351064453125,2.1717752990394827,-2.0194468487605453,-0.12434709515869617
1726940688667092500,3.345092529296875,2.4401766448676585,-2.269941951020062,0.3988467578619718
1726940688677078500,3.35507861328125,2.2524749756515026,-1.8663029904454946,0.6703069067388773
1726940688687064300,3.365064208984375,1.8913176047146318,-1.6160101327598093,0.8281085277318954
1726940688697050600,3.375050537109375,1.1749188088864086,-1.284120065100491,1.4328817628085613
1726940688707036400,3.385036376953125,0.6657417907804251,-1.3680699756801127,1.9310972419172525
1726940688717021400,3.395021484375,0.8392506839931011,-1.461466929040849,1.8536048369139433
1726940688727007500,3.405007568359375,1.5633078856199978,-0.9551151974886656,0.8154688263893127
1726940688736993500,3.41499365234375,2.053373960542679,-0.18920009108036756,-0.8401186989992856
1726940688746979600,3.4249794921875,2.1457874558240175,1.1002534440025686,-2.5403572670191523
1726940688756965400,3.43496533203125,1.4962129559904336,2.2746520284071563,-3.6380835306316612
1726940688766951700,3.44495166015625,0.24877193172872064,2.276411147034168,-3.639678690868616
1726940688776936400,3.4549365234375,-1.3121984508544207,1.4672183321744203,-3.108627694606781
1726940688786922500,3.464922607421875,-2.2095278143286703,0.5508966834604739,-3.007256401365995
1726940688796908300,3.474908203125,-2.4482015458911657,-0.13400836521238088,-2.626162742337584
1726940688806894300,3.484894287109375,-2.4722452693015335,-0.10300795453190803,-1.9693904399544
1726940688816880400,3.49488037109375,-2.3137422220408914,0.5032385679677128,-1.0876052670925855
1726940688826866400,3.504866455078125,-2.0098989759534596,1.050893493027985,-0.14124796107709406
1726940688836852200,3.514852294921875,-1.5049030429244041,1.1509104490503668,0.912959478804469
1726940688846837200,3.524837158203125,-0.6902335502192377,0.8318567743495107,2.089612564137578
1726940688856823600,3.534823486328125,0.04740560203641653,0.3355637877359986,2.9289959345996377
1726940688866809300,3.544809326171875,0.8176450013846158,-0.21144816324561833,3.06664791701138
1726940688876795400,3.55479541015625,1.6627093400925397,-0.7447630127862095,2.9505501792818305
1726940688886781400,3.564781494140625,2.2778896951541303,-0.9976777434080839,2.620589326119423
1726940688896767500,3.574767578125,2.546279642805457,-0.84543521784693,2.081715673407912
1726940688906752300,3.584752197265625,2.342828031271696,-0.3622138942524791,1.6064724890857933
1726940688916738300,3.59473828125,1.9293699797332287,0.17415157503038645,1.240699148786068
1726940688926724400,3.604724365234375,1.309232586786151,0.683550711454451,0.9394459191918373
1726940688936710400,3.61471044921875,0.7835515931248664,0.9546794364199042,0.6478653578281403
1726940688946696200,3.6246962890625,0.5739093102574349,0.978318670682609,0.26863106293082234
1726940688956682500,3.6346826171875,0.5405763649761677,0.7761445317387581,-0.07456161224842071
1726940688966667500,3.64466748046875,0.4871016721591353,0.489288076287508,-0.3214642429739237
1726940688976653300,3.6546533203125,0.44363428635448215,0.4054577004343271,-0.5543102912962437
1726940688986639400,3.664639404296875,0.2467921560883522,0.315980550865829,-0.6704770026087761
1726940688996625400,3.67462548828125,-0.09907003056108951,0.22268355074822901,-0.46545536527931686
1726940689006611500,3.684611572265625,-0.2539800217658281,0.304203019310534,-0.07675590742230415
1726940689016597200,3.69459716796875,-0.34844343531429767,0.566669129870832,0.39630058051049705
1726940689026582500,3.70458251953125,-0.22554595444202422,0.8382266016423702,0.7299263859212398
1726940689036568300,3.714568359375,0.17003887901455164,0.8785007443636655,0.7221446460038423
1726940689046554400,3.724554443359375,0.5173503876894712,0.6903858181715011,0.7621656907469033
1726940689056540200,3.7345400390625,1.0691031034573912,0.3726774205997586,0.48650633661448955
1726940689066526500,3.7445263671875,1.5260530907198786,-0.028358371739089488,0.13625497509539128
1726940689076512300,3.75451220703125,1.3682324727654456,-0.3706628659069538,0.6391606578469277
1726940689086497300,3.764497314453125,0.8597881528481841,-0.6533011191412806,1.9266309101581571
1726940689096483600,3.774483642578125,0.5830184993863106,-0.7562921225383877,2.952556258407235
1726940689106469400,3.784469482421875,0.5910299564063549,-0.7492781521230936,3.383322587621212
1726940689116455400,3.794455322265625,0.5609148041278124,-0.805109929460287,3.474024602809548
1726940689126441500,3.80444140625,0.5223538950651884,-0.9092989104703069,3.2083412837684153
1726940689136427500,3.814427490234375,0.8000666745960712,-1.309239893309772,2.463863809925318
1726940689146412300,3.824412353515625,1.082229127012193,-2.0387828328713775,1.4138672657370566
1726940689156398300,3.8343984375,1.364309746363759,-2.800957291446626,0.32882395808696746
1726940689166384400,3.84438427734375,1.4412643912285565,-3.133776748910546,-0.4447054227173328
1726940689176370400,3.854370361328125,1.3237000880777836,-2.9632191067188978,-0.4918956284373998
1726940689186356200,3.864356201171875,1.0140829347640274,-2.2368065741375087,-0.0931318726837635
1726940689196342500,3.874342529296875,0.8578755972251295,-0.9856889071896672,0.21861586291790008
1726940689206327600,3.88432763671875,0.7124187862813472,0.10231178896129131,0.35958442253172396
1726940689216313300,3.894313232421875,0.42483869273066516,0.7301790455080568,0.41292730566263197
1726940689226299400,3.90429931640625,0.3428308561295271,1.0470004311121999,-0.11224340038895607
1726940689236285400,3.914285400390625,0.7203337971895932,1.1200459397092462,-1.5474398698806762
1726940689246271500,3.924271484375,1.1892094923064112,1.083767880886793,-3.1887580468982457
1726940689256257300,3.93425732421875,0.8913608104586601,0.9561829728506505,-3.633578620427847
1726940689266243600,3.94424365234375,0.15322539911866187,0.9844847920969128,-2.976854248839617
1726940689276228400,3.954228271484375,-0.44585342370867725,1.4483970195874571,-2.211367889237404
1726940689286214400,3.96421435546875,-0.7972288208216428,1.833691491306573,-1.4564444247037172
1726940689296200200,3.9742001953125,-1.0295049603015183,2.0670263460591434,-0.8687181860178709
1726940689306186500,3.9841865234375,-1.2777443925887346,2.2215435385540125,-0.35639176397025585
1726940689316172300,3.99417236328125,-1.4884119268506764,2.054367647755146,0.3761404205352068
1726940689326158300,4.004158447265625,-1.3508394394159315,1.3934905404016376,0.7142611992776393
1726940689336143400,4.014143310546875,-0.881148044002056,0.2167467080451548,0.3353764484703541
1726940689346129400,4.02412939453125,-0.46254269270300863,-0.8671341316968202,-0.1817453911602497
1726940689356115500,4.034115478515625,-0.3523895425915718,-1.6312782829098402,-0.5916869590103626
1726940689366101200,4.044101318359375,-0.2123275764286518,-1.9511631477378308,-0.8100994083106517
1726940689376087600,4.054087646484375,0.013075170150399208,-1.9330086284965275,-0.8311088785916566
1726940689386073300,4.0640732421875,0.2023375128120184,-1.9765739217177032,-0.7820943800538778
1726940689396058400,4.074058349609375,0.4960048173218965,-2.019874864914268,-0.4755529809236526
1726940689406044200,4.084044189453125,0.3777636378228664,-2.2227273415111,-0.11855039157867431
1726940689416030500,4.094030517578125,0.9032330345600843,-2.438189270442724,0.07308920160830021
1726940689426016300,4.104016357421875,1.3757207826942204,-2.608577985808253,0.010412672942876814
1726940689436002300,4.114002197265625,1.4435124624162912,-2.8148393940657375,0.2251373736411333
1726940689445987600,4.123987548828125,1.3603005107223987,-2.758338339164853,0.5444423927545547
1726940689455973400,4.133973388671875,1.1801643083244562,-2.508663905638456,0.7098457209229468
1726940689465959400,4.14395947265625,1.1245195779919623,-1.9961561356745658,0.9730834003776311
1726940689475945500,4.153945556640625,1.3637111959487198,-1.1753681600891053,1.190923602747917
1726940689485931500,4.163931640625,2.0001047271698713,-0.16170242782384156,0.8329962997734546
1726940689495917300,4.173917236328125,2.1549726327985526,1.0739764816474169,-0.14396364977657794
1726940689505903400,4.1839033203125,2.587500710988045,2.070048031967878,-1.8363082496762275
1726940689515888400,4.193888427734375,3.095609807601571,2.454757835666835,-2.3895839372277257
1726940689525874400,4.20387451171875,2.8454654184758663,2.8285160372406244,-2.127994609501958
1726940689535860200,4.213860107421875,2.6852479685127735,3.047761722494662,-2.4794237826287744
1726940689545846500,4.223846435546875,1.9391133751124143,3.0387925263583657,-2.585008309650421
1726940689555832300,4.233832275390625,1.220844109237194,2.6496391872540115,-2.4891502268731593
1726940689565818400,4.243818359375,0.820235017877817,2.0378065351851284,-2.5818665044933558
1726940689575803400,4.253803466796875,0.5232710099101067,1.547642552845925,-2.2234932113170625
1726940689585789400,4.26378955078125,0.40205169138312336,1.2639341861620546,-0.9865414323657751
1726940689595775500,4.273775390625,-0.1350771634876728,1.1088002500083296,0.3836731541275978
1726940689605761300,4.28376123046875,-0.45837797423899174,1.2443600093811749,1.3779752836227417
1726940689615747300,4.293747314453125,-0.6823211696594953,1.2839780262812972,1.913352326390147
1726940689625733400,4.3037333984375,-1.1242875228017568,1.3333249716438351,2.2835008130341765
1726940689635718400,4.313718505859375,-1.5586352176338434,1.3613440284259617,2.6305203530251977
1726940689645704200,4.3237041015625,-1.4356471358686684,1.2806282774619757,3.384472926700115
1726940689655690500,4.3336904296875,-0.7452028655081987,1.4668185192018746,3.94745284666419
1726940689665676300,4.34367626953125,0.18912030384242534,1.6887961136378347,3.568564004203677
1726940689675662300,4.353662353515625,0.6585650310188531,2.257788718020171,2.66132582565546
1726940689685648400,4.3636484375,1.1956652443170548,2.6137527580976485,1.9298089556723832
1726940689695633400,4.37363330078125,1.8474407613262533,3.344140331789851,1.565780997735262
1726940689705619500,4.383619384765625,1.1769444694951177,3.4695272913902997,0.8592460087954997
1726940689715605200,4.393605224609375,0.7253577628314495,3.149550948886573,0.5790034185260534
1726940689725591300,4.40359130859375,-0.31872809600830077,2.4440568473018702,0.42856034360229966
1726940689735577300,4.413577392578125,-0.0961927215591073,1.3376368434935808,0.20458675304353235
1726940689745563400,4.4235634765625,0.39575142219513654,0.8515629069469869,0.05696633432507515
1726940689755548400,4.43354833984375,0.42009179046452044,0.5142769715934992,0.482176782977581
1726940689765534500,4.443534423828125,0.5407084669232368,0.3138023300439119,1.205571721303463
1726940689775520300,4.453520263671875,0.7954369689688086,0.1498386792898178,1.7983190030217169
1726940689785506300,4.46350634765625,0.43782735364139075,-0.05989128186106681,2.363584988096356
1726940689795492000,4.4734921875,0.18014584700912237,-0.5399190701112151,3.4886867498904466
1726940689805478100,4.48347802734375,-0.006828384715318679,-1.1406447833627462,4.904049222621321
1726940689815463200,4.493463134765625,-0.1798410188436508,-1.3115756427809595,5.973478197032213
1726940689825449000,4.503448974609375,0.5388534867063164,-2.217433180625737,5.742910030514001
1726940689835435300,4.513435302734375,2.1622844171166418,-3.0773201176732776,5.0663861489564175
1726940689845421000,4.523421142578125,3.6091640178784727,-3.821173029877245,4.034048011055589
1726940689855407000,4.533406982421875,4.846315703316033,-4.727765896259248,3.0660487820744513
1726940689865393200,4.54339306640625,4.277421006350219,-5.356089810532331,2.239693235489726
1726940689875378200,4.553378173828125,2.7413807746231553,-5.683384074833989,1.8170090904444456
1726940689885364000,4.563364013671875,1.3982324742317198,-5.469975717431306,1.7282593783676623
1726940689895350000,4.57335009765625,0.44377690969556566,-5.116241774493456,1.5165157393068074
1726940689905336000,4.583336181640625,0.4278030954942107,-4.658411789526045,1.165599191877246
1726940689915322000,4.593322021484375,0.47804538226127624,-4.2641506058886645,0.7537561743199824
1726940689925307100,4.60330712890625,0.5062035552531481,-4.0131145286202425,0.7657885574191808
1726940689935293000,4.61329296875,0.7314011346489191,-3.5016309871375557,0.6794739635348319
1726940689945279200,4.623279296875,-0.033445758005976677,-3.001808657354116,-0.4261410075008869
1726940689955265000,4.63326513671875,-0.798726073642075,-2.16077211285755,-1.0097948821812868
1726940689965251000,4.6432509765625,-0.9421423186689615,-0.8313970478832721,-0.23650398630797861
1726940689975237000,4.653237060546875,-0.6130456811204552,0.33019568483158945,-0.7651005751550197
1726940689985223200,4.66322314453125,-0.07702303392589092,1.290484193304926,-1.246032911029458
1726940689995208000,4.6732080078125,0.3592459843575954,1.9493151817835865,-2.2279262253284453
1726940690005194200,4.6831943359375,0.515886744877696,2.39131485267356,-3.411185577058792
1726940690015180000,4.693179931640625,-0.4063534802302718,2.453700727829337,-4.378383426529169
1726940690025166000,4.703166015625,-1.001793654294312,2.437693303619325,-4.467283360731601
1726940690035152000,4.71315185546875,-0.5356693037122487,2.320843432348221,-3.8187276825517413
1726940690045137200,4.72313720703125,-0.3141819770112633,2.267127770382166,-3.0017595575153826
1726940690055123200,4.733123291015625,-0.22129326543360947,2.3852631514191627,-1.9924457368493078
1726940690065109000,4.74310888671875,0.16626549795567988,2.741471667777002,-0.6258516789406537
1726940690075095300,4.75309521484375,0.23299860853552817,3.003874357712269,0.10412146873176097
1726940690085081000,4.7630810546875,0.4410305335968733,3.0097818281903863,0.0995762265175581
1726940690095067100,4.773067138671875,0.1295136841416359,2.792335301312804,-0.12732932583987713
1726940690105053200,4.78305322265625,-0.2601712776213884,2.2952245685756205,-0.048293198525905606
1726940690115038200,4.7930380859375,-0.49687224780619144,1.5610234279446302,0.09907704482376575
1726940690125024000,4.80302392578125,-0.5818523782163858,0.7292606154888868,-0.1376350312769413
1726940690135010000,4.813010009765625,-0.7340303141087293,-0.033238106604665515,-0.23231880957782267
1726940690144996000,4.82299609375,-0.8171487423002719,-0.6223533154308796,0.014111527460813521
1726940690154982100,4.832982177734375,-0.8632879776626825,-1.0605452646009623,0.3383417280167341
1726940690164967200,4.84296728515625,-1.1269266391336916,-1.2313014981046317,0.7218751814126968
1726940690174953000,4.852952880859375,-1.3989672182470558,-1.2595416502915322,1.168610648652911
1726940690184939300,4.862939208984375,-1.6833511461049318,-1.3325536950103938,1.2785071936547756
1726940690194925000,4.872925048828125,-0.6547247222036123,-1.4734886446155606,0.6080974110633135
1726940690204911000,4.8829111328125,-0.3200497000008821,-1.4563864109061657,-0.36124914087355137
1726940690214897200,4.892897216796875,0.1537859556108713,-1.4146293361507356,-1.085808446803689
1726940690224882200,4.902882080078125,0.4954477679610252,-1.2187639419622718,-2.0938246288746596
1726940690234868000,4.912867919921875,0.7399567815482616,-0.8007030728034674,-3.2404648532599207
1726940690244854000,4.92285400390625,0.6497200457841158,-0.14539733584150671,-2.7118507287561893
1726940690254840000,4.932840087890625,0.6009919629722833,0.5078232654094695,-1.2269289821088314
1726940690264826000,4.942826171875,0.6686135468244552,0.8221344217583537,-0.3490723808676004
1726940690274812000,4.95281201171875,0.8316741112589836,0.8294973517417907,0.12706044577062128
1726940690284797000,4.962796875,0.9706190560907125,0.35661622037589547,0.6505377919077873
1726940690294783200,4.972783203125,0.7398603354364633,-0.06166822840571403,1.1562509332954882
1726940690304769000,4.98276904296875,0.19981471633613107,-0.6259606922730803,0.9956611428886651
1726940690314755000,4.992755126953125,-0.44574528715908524,-1.1789277522668242,0.8336965569972992
1726940690324741000,5.0027412109375,-0.7439934897184372,-1.24298930554986,0.8838309994757175
1726940690334727200,5.01272705078125,-0.6997936979860067,-1.1741311656400562,0.47446343212127684
1726940690344713000,5.022712890625,-0.8158978654563427,-0.9853938697658479,0.3356184405326843
1726940690354698200,5.0326982421875,-1.0666045646399258,-0.6417284625083207,0.44749943735003467
1726940690364684000,5.04268408203125,-1.3338456345170735,-0.3269270384244621,0.5796171665102243
1726940690374670000,5.052670166015625,-1.5542542260706425,0.07209186113402247,1.118628766387701
1726940690384656000,5.06265576171875,-1.604759255427122,0.3278527749672532,1.3707856643795966
1726940690394642200,5.07264208984375,-1.0341706140249967,0.4656112864933908,0.9905430692225694
1726940690404627200,5.082627197265625,-0.5502192225903272,0.5988752630792558,-0.07924363258481025
1726940690414613000,5.092613037109375,-0.3021469635635614,0.8472317458748817,-0.8148971639811993
1726940690424599300,5.102599365234375,-0.4428104027509689,1.081901940884441,-0.8073129924625158
1726940690434585000,5.112585205078125,-0.7803910832673311,1.1849470125563442,-0.21780746914446353
1726940690444571100,5.122571044921875,-0.940231516611576,1.210269523730874,0.3131833213627338
1726940690454557200,5.13255712890625,-0.8433242170423269,1.1774530035391448,0.6473726058751345
1726940690464542200,5.142542236328125,-0.33930618913471694,0.9870281929694116,0.6117091718196869
1726940690474528000,5.152528076171875,0.3772334764689207,0.7270601828351616,0.2640589327096939
1726940690484514000,5.16251416015625,1.2411217581123113,0.3318203634239733,-0.10615735847353934
1726940690494500000,5.1725,1.7988924189954996,-0.14971008447408676,-0.31682255464792247
1726940690504486100,5.182486083984375,2.237132445091009,-0.24027575993165373,-0.24499767388701438
1726940690514472000,5.192471923828125,2.6166058094412086,-0.17840791730061173,-0.16902151866555212
1726940690524457000,5.20245703125,2.937281532385945,-0.19014979302063584,-0.005935235267877578
1726940690534443300,5.212443359375,2.8591876543581485,-0.25614275275766846,0.38539924726784225
1726940690544429000,5.222428955078125,2.501511695796251,-0.3802011671680957,1.0513403600126505
1726940690554415000,5.2324150390625,1.7668945217102765,-0.5084017959497868,1.746785215139389
1726940690564401200,5.242401123046875,0.9928414092928171,-0.5108905440256,2.118974852222204
1726940690574387200,5.25238720703125,0.30294542046487327,-0.29655886123292147,2.419187048330903
1726940690584373000,5.262373046875,-0.11380699644386767,-0.17630173880159855,2.468046064046025
1726940690594358000,5.27235791015625,-0.19545067590773105,-0.18375548887364565,2.184423768210411
1726940690604344000,5.282343994140625,-0.16582067679762838,-0.22979791279807685,1.8641320761471987
1726940690614330000,5.292330078125,-0.06706628805696964,-0.2533923580709845,1.4868021535664795
1726940690624316000,5.30231591796875,0.1757324144810438,-0.30033662620596585,0.887707548648119
1726940690634302200,5.31230224609375,0.4692068267673254,-0.42585057318694886,0.11035247207581997
1726940690644287200,5.322287353515625,0.7117237897545099,-0.5949174653641879,-0.5976145954936742
1726940690654273000,5.33227294921875,0.7671633529037236,-0.740014430019632,-0.9695569798171519
1726940690664259000,5.342259033203125,0.5080307706803083,-0.6325542453192174,-0.7308019997119903
1726940690674245000,5.3522451171875,0.27363457030653954,-0.408792032488808,-0.2932470332711935
1726940690684231200,5.362231201171875,0.45506081251502034,-0.24482757801711558,-0.09561141453981399
1726940690694217000,5.372217041015625,1.114796056357026,-0.27564481415040787,-0.706413992908597
1726940690704203000,5.382203125,1.9955133077263831,-0.30912907753586766,-1.4323106849223375
1726940690714188000,5.39218798828125,2.8791952541202304,-0.6042413932222873,-2.215204106399417
1726940690724174000,5.402174072265625,3.4739854398429393,-0.8222074869945645,-2.7285739000201223
1726940690734160100,5.41216015625,4.231248745501041,-0.9209625333223491,-2.29457282666862
1726940690744146200,5.422146240234375,4.558926456162333,-1.2112737323373555,-1.930014122855663
1726940690754132000,5.432132080078125,3.545950021335482,-1.3655617922514676,-2.0225345856428145
1726940690764118000,5.442117919921875,1.540750601375103,-1.1260483949944375,-1.340441379520297
1726940690774103000,5.45210302734375,0.2043769096851349,-0.956712695813179,-0.6954770038306712
1726940690784089000,5.462089111328125,-0.5008019884705543,-0.847209680173546,-0.160008191126585
1726940690794075400,5.472075439453125,-1.091366080930829,-0.6924484497897326,0.29577509044408795
1726940690804061400,5.4820615234375,-1.6144365998327732,-0.6389883700199425,0.8682435542434453
1726940690814047500,5.492047607421875,-2.207564405301213,-0.5878349962899461,1.3499427828371524
1726940690824033500,5.502033447265625,-2.7017402536302804,-0.37664384001269935,1.660578757804632
1726940690834018600,5.5120185546875,-2.9718063178002834,-0.37801286334358153,1.9945383252143858
1726940690844004400,5.52200439453125,-3.1936820592969655,-0.38022940688189116,2.2795050213962793
1726940690853990700,5.53199072265625,-3.3036855718046425,-0.27910187753541393,2.4537702859342096
1726940690863976400,5.5419765625,-3.251225316727161,-0.16703955106809734,2.568189861318469
1726940690873962500,5.55196240234375,-3.096928488984704,-0.14332308685071765,2.510010644072294
1726940690883948500,5.561948486328125,-2.897376222977042,-0.2369754214783199,2.275734855207801
1726940690893933600,5.57193359375,-2.409814824351668,-0.3667227134464308,1.8039146310716867
1726940690903919400,5.58191943359375,-1.559478682720661,-0.4488714198229834,1.1298667842388153
1726940690913905400,5.591905517578125,-0.4307803577393293,-0.5643382027052343,0.3019616701245308
1726940690923891500,5.601891357421875,0.6836094559043645,-0.6612615035612136,-0.6085463238745927
1726940690933877500,5.61187744140625,1.3180197043538093,-0.7506319778848439,-1.4993302112281321
1726940690943863300,5.62186328125,1.3294944535702466,-0.6472961796380579,-1.947627520957589
1726940690953849600,5.631849609375,1.0641384667873381,-0.3501394255772233,-2.118760332688689
1726940690963834600,5.641834716796875,1.0488649098098277,0.09645561027899384,-2.1671564070671794
1726940690973820400,5.6518203125,1.2440087117254732,0.3025526217550039,-2.2099995234936474
1726940690983806500,5.661806396484375,1.5505308216333389,0.5194391766622662,-2.028822872132063
1726940690993792500,5.67179248046875,1.8425468518048524,0.9736480485230684,-1.434379892411828
1726940691003778600,5.681778564453125,2.4634873778283595,1.3449310921549795,-0.781670601683855
1726940691013764400,5.691764404296875,2.6387434069693088,1.4234621925562618,-0.34393794058859345
1726940691023749600,5.70174951171875,1.867891136419773,1.2136103585913776,-0.20157500400692224
1726940691033735400,5.7117353515625,0.5740367360293865,0.9554907528027892,0.015734452487528323
1726940691043721500,5.721721435546875,-0.8969991086065768,0.711272246594727,0.28590163894444703
1726940691053707500,5.73170751953125,-2.2114240033388137,0.5610203103289008,0.4538710182085633
1726940691063693600,5.741693603515625,-2.8749428573727607,0.7782271832317114,0.8332897297620773
1726940691073679400,5.751679443359375,-3.114371791216731,1.051743680116534,1.6732406709790228
1726940691083665400,5.76166552734375,-2.83760710619092,1.2932593571066855,2.4723870158597827
1726940691093650700,5.771650634765625,-1.8886264659345149,1.3329524850696324,2.681428702485561
1726940691103636500,5.781636474609375,-1.1265116285920143,0.554453206898272,2.1800547593459485
1726940691113622500,5.79162255859375,-0.4389543118447065,-1.0645631219401954,1.2060600893422961
1726940691123608600,5.801608642578125,0.043702363604307175,-1.2061311087518929,1.4922978283733128
1726940691133594600,5.8115947265625,-0.3183738757431507,-1.4935554272189735,1.727652060124278
1726940691143580400,5.821580322265625,-0.9811422036707401,-1.7820847843185066,1.5023410834819078
1726940691153565400,5.8315654296875,-1.0084317771345377,-1.3063839193567632,1.3909595606192946
1726940691163551500,5.841551513671875,0.007741992428898811,-0.14952157616466283,1.7981813481166957
1726940691173537500,5.85153759765625,1.1541314569234848,0.46072599866986275,2.4191265503153203
1726940691183523300,5.8615234375,1.8376701856791973,0.8896542988017201,2.37418090865165
1726940691193509600,5.871509521484375,2.0473089614152906,0.8034437498137355,1.5385338021084665
1726940691203495400,5.881495361328125,1.3704478107273579,0.08254208960831165,0.35056320394724605
1726940691213481500,5.8914814453125,0.6744687025934457,-0.3230275467678904,-0.21356004083305596
1726940691223466500,5.901466552734375,0.5215864178240299,-0.050398061850666996,0.24180326175987718
1726940691233452500,5.91145263671875,0.22322189540863036,0.496643699747324,0.9824375041782856
1726940691243438600,5.9214384765625,0.21960487395524977,0.8894888791069387,1.5108312639296053
1726940691253424400,5.93142431640625,0.4588794940203428,1.1429200348183512,1.9003744791343806
1726940691263410700,5.94141064453125,1.0026064319819212,1.234635903224349,2.081768864899874
1726940691273396500,5.951396484375,1.4903303276926279,1.2071014150887727,2.055318664869666
1726940691283382500,5.961382568359375,1.8569541473418474,1.1595479290142654,1.957156104542315
1726940691293367300,5.9713671875,1.572173913642764,1.2150982590615749,1.8409215886905788
1726940691303353600,5.981353515625,0.45411447157561774,1.1743316566482185,1.8809136996001004
1726940691313339400,5.99133935546875,-0.23588906928002834,1.006276644927263,1.6068956829339265
1726940691323325400,6.001325439453125,-0.34492344449460505,1.1275986931763589,1.2961618005499242
1726940691333311500,6.0113115234375,-0.3402764954715967,1.2753314862281084,1.1074492007255554
1726940691343297500,6.021297607421875,-0.20755846233069897,1.1103767786100507,1.2123176884323357
1726940691353282600,6.031282470703125,0.3003916443288326,0.556525336997211,0.9720978964716196
1726940691363268400,6.041268310546875,0.3864864579826593,0.12425401004776358,0.6302510829433798
1726940691373254700,6.051254638671875,0.6975695921957492,0.07135127189978957,-0.10724018527418375
1726940691383240400,6.061240478515625,0.396112364462018,0.2413752456061542,-0.6332286374494434
1726940691393226500,6.0712265625,0.06013327392339706,0.5577352973088622,-0.8895841561749577
1726940691403212500,6.081212646484375,0.11408113721013069,0.8790876043409108,-1.096243039317429
1726940691413197600,6.091197509765625,0.3309083631455898,1.0313475194282828,-1.1894491462811827
1726940691423183400,6.101183349609375,0.24557635055780408,1.0584118327688425,-1.1491986766964197
1726940691433169700,6.111169677734375,0.35268238805830476,1.0159417143732308,-1.2283531696930527
1726940691443155500,6.121155517578125,0.43943303527235983,1.0184566928688437,-1.3652367980808018
1726940691453141500,6.1311416015625,0.7816793695122003,1.0323510704476386,-1.7160919707119464
1726940691463127300,6.141127197265625,1.7570418207377194,1.1282163866832853,-2.5336650759041306
1726940691473113600,6.151113525390625,2.389436637711525,1.1323333935480564,-3.2279917406558987
1726940691483098600,6.1610986328125,1.8834744899988174,0.9636996320910751,-2.7893936949029565
1726940691493084400,6.17108447265625,0.4400912069201469,0.28572310403976586,-1.6464318667694926
1726940691503070700,6.18107080078125,-0.945209305024147,-0.13712832386381923,-0.7434867092400789
1726940691513056500,6.191056396484375,-1.6460463745832443,-0.304318425851129,-0.3733624802544713
1726940691523042600,6.20104248046875,-1.8188760533601045,-0.34727621816582976,-0.3452490231871605
1726940691533028600,6.211028564453125,-2.0182617306292054,-0.425713721999526,-0.1369336050093174
1726940691543014400,6.221014404296875,-2.2677134613156316,-0.5754270578766242,0.20168664768785238
1726940691552999400,6.23099951171875,-2.4254917014330624,-0.6298628873433917,0.4312421300321817
1726940691562985500,6.2409853515625,-2.501130003002286,-0.7265561788357794,0.8371481587558984
1726940691572971500,6.250971435546875,-2.7996657903313635,-0.6072777652435004,1.1977581249430775
1726940691582957600,6.26095751953125,-3.2772716121315955,-0.5747120780076831,1.5926222429096697
1726940691592943400,6.270943359375,-3.678828797996044,-0.5979122267333791,2.0320351121768354
1726940691602929700,6.2809296875,-4.026881772688031,-0.7588983595140278,2.552732764467597
1726940691612914700,6.290914794921875,-4.029686308714747,-0.8954359509430825,3.0041864924013613
1726940691622900500,6.300900390625,-3.014209873765707,-1.0278417032644152,2.763429232563078
1726940691632886500,6.310886474609375,-0.8719494230240583,-1.255083647969365,2.158746013857424
1726940691642872600,6.32087255859375,1.8518214606285095,-1.2340784154720603,1.3372612881794572
1726940691652858400,6.3308583984375,5.2571553890496485,-0.9831146727874874,-0.029182255342602728
1726940691662844400,6.340844482421875,6.997834104007482,-0.6364955302909017,-1.045712875519693
1726940691672830500,6.35083056640625,6.33964024438858,-0.662206748522073,-1.3373653330758213
1726940691682815500,6.3608154296875,5.652397400417923,-1.225216771363467,-1.422395147846639
1726940691692801500,6.370801513671875,5.212738739696145,-0.6305225933611392,-2.2725477496042847
1726940691702787300,6.380787353515625,4.433970873716473,1.0473813932538032,-2.7751427589714526
1726940691712773600,6.390773681640625,3.1618852375417945,2.139082551357895,-2.2090666265577075
1726940691722759400,6.400759521484375,2.221474272710085,2.749232072645426,-1.8657219756871462
1726940691732745500,6.410745361328125,1.0494318960428237,3.0899688791051507,-1.8689035283327102
1726940691742730500,6.42073046875,0.6585404810994863,3.5145264168068766,-1.4666288418486713
1726940691752716500,6.430716552734375,-0.23041619082689285,4.2976562773883344,-0.6934963514074682
1726940691762702600,6.44070263671875,-1.7898340832710264,4.423489227190614,-0.12259645209908485
1726940691772688400,6.4506884765625,-2.743009837129712,3.473110995095968,0.34714608898013827
1726940691782674400,6.46067431640625,-2.612125449156761,2.3569024415925144,1.0778162790060042
1726940691792661000,6.470660888671875,-2.146872912973165,1.2638228347420692,2.3485548844859
1726940691802647000,6.48064697265625,-2.6598113294392824,0.6958625690821558,2.671366742676496
1726940691812632000,6.490632080078125,-3.410142790007591,0.44311654609069223,2.46388748306185
1726940691822618000,6.5006181640625,-3.944466524329781,0.21077283953363074,2.337819847720861
1726940691832604200,6.510604248046875,-4.204138620257377,-0.16724680061060934,2.059005536688864
1726940691842590200,6.520590087890625,-3.6033915719568728,-0.8534542736515403,1.6899708565056324
1726940691852576000,6.530575927734375,-2.105474734658003,-1.5195356716498731,1.256890989652276
1726940691862562300,6.540562255859375,-1.1994997079133987,-2.0651196356549857,0.8222855206668377
1726940691872547000,6.550547119140625,0.0019371055424213409,-2.69507290469557,0.1487605286642909
1726940691882533000,6.560533203125,1.3609762180268763,-3.121578069333732,-0.6739671828120947
1726940691892519000,6.570518798828125,2.413237200015783,-3.2250527645945546,-1.6327274588048457
1726940691902505200,6.580505126953125,3.1438673502922057,-3.2031919381812215,-2.8033567538037896
1726940691912491000,6.590490966796875,2.80345816835165,-2.8214441991582513,-2.8316990511909124
1726940691922477000,6.60047705078125,1.9254741413384675,-2.0694943436078725,-2.3217057482659818
1726940691932463000,6.610463134765625,1.3612743241906164,-1.2350446301557123,-1.908563046287
1726940691942448000,6.6204482421875,1.423711783403158,-0.7899773883886635,-1.1687886355683206
1726940691952434200,6.63043408203125,1.5846949570417403,-1.0081683769579977,-0.095988138897717
1726940691962420000,6.640419921875,2.0215175175547597,-1.476629719120264,0.6130027187615633
1726940691972406300,6.65040625,2.6778514285206794,-1.6909527071498334,0.6765463856503368
1726940691982392000,6.66039208984375,3.3184020794212814,-1.4921458526819944,0.645844081133604
1726940691992378000,6.670378173828125,3.369310428881645,-1.2300947526633739,0.31620237692296504
1726940692002363000,6.68036279296875,2.823497916817665,-1.0299268389753997,-0.4902463999256491
1726940692012349200,6.69034912109375,1.8130360951602458,-0.8807349331565201,-0.7475862535133957
1726940692022335000,6.7003349609375,0.9698533324152231,-0.8433586307685822,-0.8519698803126812
1726940692032321000,6.710321044921875,0.4079027554988861,-0.8667270122006535,-0.8824228862434625
1726940692042307000,6.72030712890625,-0.20238135195374488,-0.6601448475562036,-0.8595055365145206
1726940692052293000,6.730293212890625,-0.9728618665814399,-0.37797245826795695,-0.5958475858211517
1726940692062279000,6.74027880859375,-1.7628209886610506,-0.24746472158767283,-0.2620364869713783
1726940692072264000,6.750263916015625,-2.693135506892204,-0.13684757069367914,0.21532792728841305
1726940692082250200,6.760250244140625,-3.5521868698984385,-0.10941888102013617,0.6348357803851365
1726940692092236000,6.770236083984375,-4.234126931285858,-0.13028916202615945,1.052379932193458
1726940692102222000,6.78022216796875,-4.762607200276851,-0.26694215999580917,1.3321350312069058
1726940692112208100,6.7902080078125,-5.203358916932344,-0.17916414249539375,1.7105577174603939
1726940692122194200,6.800194091796875,-5.627125596517324,-0.03847556886672973,2.126886648260057
1726940692132179000,6.810178955078125,-5.989581775093078,0.19410744460523127,2.4838331235036253
1726940692142165200,6.820165283203125,-6.33495939309597,0.3916975436944514,2.8936230079233645
1726940692152151000,6.830151123046875,-6.395242889145016,0.47493861188497394,3.164353673481941
1726940692162137000,6.84013720703125,-5.948602114450932,0.5854832455320284,3.217669960866868
1726940692172123000,6.850122802734375,-4.701118420091271,0.6215146726496518,2.8702167056336996
1726940692182109200,6.860109130859375,-2.1865280470132826,0.6549718288324773,1.6937506673052907
1726940692192095000,6.870094970703125,3.2926334319144486,0.8544436500150709,-0.2537444594442844
1726940692202080000,6.880080078125,8.211102809554339,0.6122403560869395,-2.175503379651904
1726940692212066000,6.890066162109375,11.62821660761833,0.057079000919312235,-2.7751822141990066
1726940692222052000,6.900052001953125,15.83084482331276,-1.0275676355633885,-2.854824490712583
1726940692232038100,6.9100380859375,14.761735582375525,-2.344435758729279,-2.9590009045019743
1726940692242024200,6.920024169921875,10.77880225700736,-2.325613569359481,-2.636665431651473
1726940692252010000,6.930010009765625,7.860386168611049,-1.8510646509118378,-2.822568819274008
1726940692261995000,6.9399951171875,4.543465267658234,-1.6270447369933128,-2.3946873978465795
1726940692271981000,6.94998095703125,1.7322908258408307,-1.8113167240217327,-1.4831222960099577
1726940692281967000,6.959967041015625,-0.492615174883604,-1.8532212444238363,-0.8278393554016947
1726940692291953200,6.969953125,-1.9718167903184889,-1.7609347365230321,-0.3437304353177547
1726940692301939000,6.97993896484375,-2.8053543573617934,-1.5518427810147404,-0.27491204289644955
1726940692311925200,6.98992529296875,-2.893778490746021,-1.1938009117498993,-0.524391246111691
1726940692321911000,6.9999111328125,-2.904771009403467,-1.0225874359980225,-0.2591553785771131
1726940692331896000,7.00989599609375,-3.4678502980887886,-0.73385656497702,0.22924890061318873
1726940692341882000,7.019882080078125,-3.810063899102807,-0.5616153536126017,0.5824401149764656
1726940692351868200,7.0298681640625,-4.099861668702959,-0.3228901841238141,0.7641495580404997
1726940692361854000,7.03985400390625,-4.190943623119592,-0.014706570744514464,0.626959055660665
1726940692371840000,7.049840087890625,-3.7744706076741217,0.2125347894385457,0.07052490407824516
1726940692381826000,7.059825927734375,-3.037018502423167,0.23416882135868072,-0.3709080728396773
1726940692391811000,7.06981103515625,-2.3110119202941655,0.22946926536560058,-0.7081658050119877
1726940692401797000,7.079797119140625,-1.5726128895819187,0.1983943281441927,-0.9585299743682145
1726940692411783000,7.089782958984375,-1.1333663167923689,0.21370909391492604,-0.8996792876012623
1726940692421769200,7.099769287109375,-0.735722504979372,0.3914169001221657,-0.5778465035758912
1726940692431755000,7.109755126953125,-0.38847617049515243,0.54621378634125,-0.06029708618298173
1726940692441741000,7.119740966796875,0.12269640534222126,0.7458850025534629,0.2734533685207367
1726940692451726000,7.12972607421875,0.8037070769250393,1.1458961280196904,0.30898440836817026
1726940692461712100,7.139712158203125,0.6494236931860446,1.317412386110425,0.15680077338740228
1726940692471698000,7.149697998046875,0.1046644895672798,1.0389651548251508,-0.009785042563825844
1726940692481684000,7.15968408203125,-0.28930910930037496,0.8373553717657923,0.4203643237955868
1726940692491670000,7.169669921875,0.07521276963353156,0.8067492210999131,0.6471259376376867
1726940692501656000,7.179656005859375,0.7849427552223205,0.6073170743405819,0.3536493333943188
1726940692511641900,7.189641845703125,1.2906155645996331,-0.2766249842941761,-0.05133095878660678
1726940692521627100,7.199627197265625,0.7408551916927099,-1.3866133481085299,-0.3666241119101643
1726940692531613200,7.20961328125,-0.6219909118592739,-1.7314532059729097,-0.341879839015007
1726940692541599000,7.219598876953125,-1.8204910873413085,-1.361665077073872,-0.025144378128647803
1726940692551585000,7.2295849609375,-2.3239865526795387,-0.8185635775342583,0.2983136690109968
1726940692561571000,7.239571044921875,-1.883292703691125,-0.2580062085419893,0.702164372640103
1726940692571557000,7.24955712890625,-1.1557400611639022,0.040407998234033585,0.780169257210195
1726940692581542000,7.2595419921875,-0.4987573309004307,0.2556888715103268,0.5430414399154484
1726940692591528200,7.269528076171875,-0.22551672834753989,0.257825883539021,0.39383214457035065
1726940692601514000,7.279513916015625,-0.6261047769188881,0.3568903611421585,0.552646157476306
1726940692611500000,7.2895,-1.585197061344981,0.3688078856900334,0.7382736507669091
1726940692621486000,7.299486083984375,-2.244986081200838,0.4737161208853125,0.8490075233757496
1726940692631472000,7.30947216796875,-1.911972270208597,0.6976242449924349,0.9114686557248234
1726940692641458000,7.3194580078125,-0.9484177456766366,0.773560506594926,1.0200251842945813
1726940692651443000,7.32944287109375,0.2613923438489437,0.6519844835847616,0.8055658565342426
1726940692661429200,7.33942919921875,1.0602817913591862,0.3322257293544709,0.6629670653700828
1726940692671415000,7.3494150390625,1.0489151786923407,0.009522446104884147,0.7866895988896488
1726940692681401000,7.359401123046875,0.7807721915394067,-0.2253426869548857,0.9044622840940951
1726940692691387100,7.36938720703125,0.7898059773445129,-0.4189909896157682,0.8747221026077866
1726940692701373200,7.379373291015625,0.9991220969974994,-0.7157866552792489,0.6404544970497489
1726940692711358000,7.38935791015625,1.8721616533458232,-0.6358395506002008,0.13206658349484204
1726940692721344000,7.399343994140625,2.0725445249587295,-0.25966318196877836,-0.3331494200706482
1726940692731330000,7.409330078125,1.8090449796974657,-0.032220892386138435,-0.35059681395590303
1726940692741316000,7.419316162109375,1.1984341245085,0.07054156295210123,-0.3198611916914582
1726940692751302000,7.429302001953125,0.7655161702185869,-0.14862112019360066,-0.09710311440229415
1726940692761288200,7.4392880859375,0.6202408533215522,-0.12734043175578116,0.004883095866441726
1726940692771273200,7.449273193359375,1.0191595073759556,-0.12498700049743056,-0.13483166429400442
1726940692781259000,7.459259033203125,1.4503168817341328,0.03242342922091484,-0.39239772785305976
1726940692791245000,7.4692451171875,1.13603115208745,0.12421733129918575,-0.14804478161036969
1726940692801230600,7.479230712890625,0.48366906736195087,-0.07400909293219447,0.48672202519178387
1726940692811216600,7.489216552734375,-0.09053542644977569,-0.2736203956507146,0.7750587823286652
1726940692821202400,7.499202392578125,-0.25245734224319455,-0.2960715891726315,0.7684127684429287
1726940692831188700,7.509188720703125,-0.12135843473672867,-0.17581950824260711,0.5854553711444139
1726940692841173800,7.519173828125,0.33658582426011563,-0.112666886498034,0.261235107460618
1726940692851159600,7.52915966796875,0.5988134498894214,-0.047897915598005054,0.18364391825795173
1726940692861145600,7.5391455078125,0.8152396938085555,0.036155163095146416,0.3234165460854769
1726940692871131600,7.549131591796875,0.5277829343765974,-0.15455796289667487,0.4845166241019964
1726940692881117700,7.55911767578125,0.7454571325302124,-0.2233389459170401,0.8515317811563611
1726940692891103500,7.569103515625,0.9696785603702067,0.07765022591352462,0.4142418953925371
1726940692901088800,7.5790888671875,1.1825789682507515,0.43552594483122226,-0.026980069123208522
1726940692911074600,7.589074462890625,0.9799158767461776,0.6497350972227752,-0.26277269229143857
1726940692921060600,7.599060546875,0.7334767718791961,0.7064571013979614,-0.2856011946931481
1726940692931046700,7.609046630859375,0.5733879167318344,0.7144732345931232,-0.2518134913817048
1726940692941032700,7.61903271484375,0.18940379695892332,0.6502383705697953,-0.09712152684181928
1726940692951018500,7.6290185546875,0.21273089653253555,0.7309853934548795,-0.10516162543445826
1726940692961003500,7.63900341796875,0.46480128528475756,0.9154813984975219,0.199587337321043
1726940692970989800,7.64898974609375,0.45049218942523,1.1464635526441036,-0.5062964942336082
1726940692980975600,7.6589755859375,0.17169161465764043,1.6869037240199745,-1.4160624376937747
1726940692990961700,7.668961669921875,-0.5496838005393743,1.6701377365276215,-0.7535033686026931
1726940693000947700,7.67894775390625,-0.8747931220173836,1.4965186609387398,-0.5275909189358353
1726940693010933800,7.688933837890625,-0.895191766923666,1.4990487639382482,-0.5220969976946711
1726940693020919600,7.69891943359375,-0.9855085821866989,1.36027946793437,-0.6664145754754542
1726940693030904600,7.708904541015625,-1.0033271474719048,1.241845980733633,-0.8609498901039362
1726940693040890600,7.718890625,-1.4567144738167523,0.9527196806542575,-0.6609887510344385
1726940693050876700,7.728876708984375,-2.102324161672592,0.6012313977513462,-0.5794938323915004
1726940693060862500,7.738862548828125,-2.552640994530916,0.14037205502539873,-0.2533767951756716
1726940693070848800,7.748848876953125,-2.507767249059677,-0.4911424719825387,-0.02376286064237356
1726940693080834600,7.75883447265625,-1.9976298614889383,-0.9082865185573696,0.025292846688628197
1726940693090819600,7.768819580078125,-1.3642214835584163,-1.1052985254976897,-0.12353022581785916
1726940693100805600,7.7788056640625,-0.8384662556171417,-1.3312234693199396,-0.3718988374426961
1726940693110791700,7.788791748046875,-0.20358429800271988,-1.5628959438182413,-1.0054811106353998
1726940693120777700,7.79877783203125,0.07075286761522293,-1.7064958748489618,-1.323816407933831
1726940693130763500,7.808763427734375,-0.1521428645789623,-1.9265280343055724,-1.1232757154107094
1726940693140749600,7.81874951171875,-0.7201566870570182,-2.0593821149162945,-0.8199196683183312
1726940693150734600,7.828734619140625,-1.0009341148555277,-2.04178932121098,-0.7780813450202345
1726940693160720600,7.838720703125,-0.654881958591938,-1.7378871845431625,-0.7253776365756988
1726940693170706400,7.84870654296875,-0.10235329001545905,-1.3569684436902403,-0.6395151703730225
1726940693180692700,7.858692626953125,0.1455997265458107,-1.0300352677859366,-0.35617139921784396
1726940693190678500,7.868678466796875,0.10147066196203232,-0.7198195640571415,0.19307517894804477
1726940693200664600,7.87866455078125,-0.14003800076544284,-0.46258258632197974,0.5092223185524344
1726940693210650600,7.888650634765625,-0.01961246296465397,-0.22248671300187706,0.6577537146359682
1726940693220635600,7.8986357421875,0.295493350893259,-0.0036559652242809534,0.6970753789380192
1726940693230621700,7.90862158203125,0.9425912314802408,0.12194039934314786,0.6877376417502761
1726940693240607500,7.918607421875,1.4540999074041843,0.17572868815399706,0.5047334827005863
1726940693250593500,7.928593505859375,1.3688053042173385,0.2614127290498465,0.605276508423686
1726940693260579600,7.93857958984375,0.8717483474940061,0.3171128428313881,0.8614239373564719
1726940693270565600,7.948565673828125,0.4715513440668583,0.33419512973129745,0.8341600828558207
1726940693280550700,7.958550537109375,0.34827100135684014,0.40150004884973167,0.4927358786538243
1726940693290536700,7.96853662109375,0.20758476581573485,0.30611214086748656,0.2128992388367653
1726940693300522500,7.9785224609375,0.07644786438643932,0.0700363899089396,0.2375853518038988
1726940693310508800,7.9885087890625,0.08826514343023299,-0.08795169356688856,0.5295765397951007
1726940693320494600,7.99849462890625,0.26845570636391636,-0.08697904914245008,0.7201675007119774
1726940693330480600,8.008480712890625,0.4909253221005201,-0.03722987965457141,0.8031099878147244
1726940693340465700,8.018465576171875,0.8069938435107469,-0.07912117524892091,0.5850447445169091
1726940693350451700,8.02845166015625,1.2075719552099704,-0.11187982777357101,0.10502923122644424
1726940693360437500,8.0384375,1.3206570671200752,-0.44025472691878675,-0.1278361063182354
1726940693370423600,8.048423583984375,1.3913105660140515,-0.6153438750602305,0.16437807677388191
1726940693380409600,8.05840966796875,1.1443296093553303,-0.8127097369395196,0.22006869207471608
1726940693390395600,8.068395751953124,0.849247177350521,-0.9143561938598751,0.32491379890590905
1726940693400381400,8.07838134765625,0.6698118166983127,-0.9737897950813174,0.1687093839764595
1726940693410366500,8.088366455078125,0.7966320239722728,-1.0813748482704162,-0.39144320360720153
1726940693420352800,8.098352783203126,1.1271522645831107,-1.046620638014376,-0.6312845176443457
1726940693430338600,8.108338623046874,1.272239949953556,-0.882561710192263,-0.6543781007230282
1726940693440324600,8.11832470703125,1.1716893254458904,-0.7385280639193952,-0.4474785406924784
1726940693450310700,8.128310546875,1.2107622756838798,-0.6255671629108488,-0.46914106805473565
1726940693460296700,8.138296630859376,1.3257248719036578,-0.6762571934454142,-0.7274616032429039
1726940693470281700,8.14828173828125,1.4176988067239522,-0.7513795083165168,-0.890035845465213
1726940693480267500,8.158267578125,1.335415075790882,-0.8971398322515189,-1.1714505482539534
1726940693490253600,8.168253662109375,0.8074351575374603,-0.9884186244145036,-1.1984800094768404
1726940693500239600,8.178239501953126,0.1375695648252964,-0.9012804391875863,-0.9374753497712314
1726940693510225400,8.188225341796874,-0.500908955976367,-0.8990618863552808,-0.85812182707116
1726940693520211700,8.198211669921875,-0.8629518775761127,-0.9045470397680997,-0.7467049406342208
1726940693530196700,8.20819677734375,-0.8314695285975933,-0.8744485463634133,-0.7461448225334286
1726940693540182500,8.2181826171875,-0.8703338045209645,-0.8212091236069798,-0.710747199807316
1726940693550168600,8.22816845703125,-0.9937491717875003,-0.7666781997352838,-0.7292884533438831
1726940693560154600,8.238154541015625,-1.04744335257411,-0.45791152577102184,-0.6624742403518408
1726940693570140700,8.248140625,-1.0151111087679863,-0.20164982280880211,-0.6894238412715494
1726940693580126500,8.25812646484375,-1.0534943231761456,-0.3287216667562723,-0.9713198978364467
1726940693590112800,8.26811279296875,-1.0213795215129853,-0.5208019894480705,-1.448910960458964
1726940693600097500,8.27809765625,-0.735528443711996,-0.5204296490043402,-1.7928110532552002
1726940693610083600,8.28808349609375,-0.5485597649455071,-0.3735460201278329,-1.9247071024887263
1726940693620069400,8.2980693359375,-0.8198632619559765,-0.30224019480496644,-1.9584025974720716
1726940693630055700,8.3080556640625,-1.7638088306546211,-0.4956771928027272,-1.6605701361067593
1726940693640041500,8.31804150390625,-2.8759552492856977,-0.6773635472521186,-1.1566731042303144
1726940693650027500,8.328027587890626,-3.6495191168814896,-0.4206058774664998,-0.5974032177653164
1726940693660012800,8.3380126953125,-3.5747231113553046,0.2726554961413145,0.758166465042904
1726940693669998600,8.34799853515625,-2.6176152787446973,0.8325394959166645,2.382124707262963
1726940693679984600,8.357984619140625,-1.0521727191835641,1.1982131752341985,2.9205776503443714
1726940693689970400,8.367970458984376,0.330542452442646,1.330181851312518,2.5785809069514274
1726940693699956700,8.377956787109374,0.7354588856071234,0.872817145769298,1.663001893298328
1726940693709942500,8.387942626953125,0.5139058001935481,-0.036412498857080935,0.8062146027665584
1726940693719927600,8.397927490234375,0.28512217900454995,-0.1738616521731019,0.7029488740812987
1726940693729913600,8.40791357421875,0.13623334778547286,0.09460165297538041,0.7188000117510557
1726940693739899600,8.417899658203124,-0.22239538145661353,0.2503282212600112,0.5155475029859692
1726940693749885400,8.427885498046875,-0.5477823508322238,0.4357710056334734,-0.003503624206781387
1726940693759871700,8.437871826171875,-0.7475012055784463,0.6967366485029458,-0.4419740249920636
1726940693769857500,8.447857421875,-0.9867185424983501,0.9885887202844024,-0.5703565496793016
1726940693779843600,8.457843505859374,-1.18409229542315,1.053729885497689,-0.6862953339874744
1726940693789828600,8.46782861328125,-1.1535457659900188,1.342513509619236,-0.4026991224411875
1726940693799814100,8.477814208984375,-0.8014689426094294,1.4984955139696596,-0.17295191691704093
1726940693809800200,8.48780029296875,-0.17913725448846815,1.332031863093376,-0.008541399178281426
1726940693819786200,8.4977861328125,-0.1889122140496969,0.9001718934237957,0.49802426738552746
1726940693829772300,8.507772216796875,-0.4057563911199569,0.6399436249181628,0.9914604763284325
1726940693839758000,8.517758056640625,-0.1116314059704542,0.38086598775237795,1.1900107256866992
1726940693849743000,8.5277431640625,0.35554011557698245,0.1543555721923709,1.0537811772935093
1726940693859729400,8.5377294921875,1.1257447358727455,0.003453647585213184,0.5386958119265735
1726940693869715200,8.547715087890625,1.3014783193975685,-0.05956657995134592,0.01909866822361946
1726940693879701200,8.557701171875,0.9433493563711642,-0.1593763229638338,-0.2729622240029275
1726940693889687300,8.567687255859376,0.18176409586071968,-0.21996815430969,-0.3859969209000468
1726940693899673300,8.57767333984375,-0.2437806993126869,-0.08393412848860025,-0.5019203249759971
1726940693909658000,8.587658203125,-0.15688567519187926,0.31064722701385616,-0.5973479073815048
1726940693919644200,8.59764404296875,0.4182639905154705,0.35258974133878945,-0.6399295963928103
1726940693929630200,8.607630126953126,1.3799988984048366,0.4222847704641521,-0.7720766977779567
1726940693939616300,8.6176162109375,1.8694494717776775,0.5166038071058691,-0.8077030146934091
1726940693949602000,8.62760205078125,1.53146839376688,0.406511593401432,-0.7171791325509548
1726940693959588400,8.63758837890625,0.9981354240477085,0.150114281360805,-0.6630030134662985
1726940693969573400,8.647573486328126,0.5162438877522945,-0.24258535204827783,-0.544990089765191
1726940693979559200,8.65755908203125,0.3505243332415819,-0.5840152553386986,-0.4537036988176405
1726940693989545500,8.66754541015625,0.22511457728743553,-0.9034759034052491,-0.2691412044100463
1726940693999531300,8.67753125,0.03140051591396332,-1.102555437334627,0.03416983449682593
1726940694009517300,8.687517333984376,-0.12020108139514922,-1.2281674378626048,0.4163210397541523
1726940694019503400,8.69750341796875,-0.3036684740424156,-1.2742993667013942,0.7512776553772389
1726940694029489200,8.7074892578125,-0.22424597775936125,-1.2625997226879,1.0016358333840967
1726940694039474200,8.71747412109375,0.28711422960460187,-1.0006287021681666,0.9552246492125094
1726940694049460200,8.727460205078126,0.688181586125493,-0.629494565487653,0.7636458463020622
1726940694059446300,8.7374462890625,0.7468716755032538,-0.33199557386040685,0.7642468809351325
1726940694069432300,8.747432373046875,0.8590928640604019,-0.2029411777935922,0.6743496062584221
1726940694079418000,8.757418212890625,0.6631786622941493,-0.15801351017802953,0.47216216944158074
1726940694089404400,8.767404296875,0.22873218326270578,-0.14036401784941555,0.4086076888978481
1726940694099389400,8.777389404296875,0.08909048833847046,-0.18203429110422728,0.21954583724439142
1726940694109375200,8.787375244140625,-0.10548340473473071,-0.10582520390972494,-0.13879925275072455
1726940694119361300,8.797361328125,-0.1628741019517183,0.10002353189364076,-0.5468776570774615
1726940694129347300,8.807347412109374,-0.11556114663481712,0.42563729576244946,-0.9353286931313574
1726940694139333400,8.81733349609375,-0.45120530613064763,0.7173597498148679,-1.2774192522875965
1726940694149319200,8.827319091796875,-0.5250900420308113,0.8647096810288727,-1.1558525816276668
1726940694159304200,8.83730419921875,0.013866028267145156,1.3993050718992948,-1.0365969643890858
1726940694169290200,8.847290283203124,0.05454290657043457,1.832119419684261,-0.9305793066471815
1726940694179276300,8.8572763671875,-0.18229717982411384,1.6005686718694865,-0.6174469848193228
1726940694189262000,8.867261962890625,-0.6967360639810561,1.4063396467112004,-0.4711484623543918
1726940694199248400,8.877248291015626,-1.5763818867266177,1.179643060929328,-0.36904052540212867
1726940694209234200,8.887234130859374,-1.7100281406283377,0.880078515074402,-0.17731866075918076
1726940694219220200,8.89722021484375,-1.0506424408763646,0.6953488474063575,-0.21242723741084335
1726940694229205200,8.907205322265625,-0.7227928807795048,0.38969723672270773,-0.33922786320149895
1726940694239191300,8.91719140625,-0.899967895284295,-0.18300620487630367,-0.36604762719646095
1726940694249177300,8.92717724609375,-1.460370658236742,-0.7241811202675104,-0.4543070715382695
1726940694259163100,8.9371630859375,-1.9627952794730663,-1.0633573994122445,-0.5057426597431302
1726940694269149200,8.947149169921875,-1.8939818554878234,-1.206316548321396,-0.44653146910071373
1726940694279135200,8.95713525390625,-1.2663561526119709,-1.242003363252431,-0.369190016875416
1726940694289120300,8.967120361328124,-0.6828688666701317,-1.1333663167923689,-0.5674184869334101
1726940694299106000,8.97710595703125,-0.6632955666720867,-0.8492362175650894,-0.9903203663825988
1726940694309092400,8.98709228515625,-0.8138286579668521,-0.4851609133549034,-0.8652258138574659
1726940694319078100,8.997078125,-0.7784089695394039,-0.48965983220934867,-0.47295317368879913
1726940694329064200,9.007064208984374,-0.4914356097102165,-0.4677816162697971,-0.13116598139330743
1726940694339050200,9.01705029296875,0.10397533825933933,-0.4601021676830947,0.13504282282665372
1726940694349035300,9.02703515625,0.9364578432917594,-0.5219571508325636,-0.03895093129351735
1726940694359021300,9.037021240234376,1.3364941031992434,-0.4940998604834079,-0.15931246394738555
1726940694369007400,9.04700732421875,1.172393089801073,-0.4837167058959603,-0.0038151743739843367
1726940694378993200,9.0569931640625,0.9069605306506157,-0.4232981852903962,0.0918302885659039
1726940694388979200,9.066979248046875,0.6790957778722048,-0.26490049810037014,0.12542217704430222
1726940694398965200,9.07696533203125,0.4914063836157322,-0.11829480938240886,0.15711860716491938
1726940694408950300,9.0869501953125,0.37104806583225725,0.05315729743093252,0.09085150666162371
1726940694418936300,9.096936279296875,0.477413514098525,0.18204554315060376,0.06119666537120938
1726940694428922000,9.106922119140625,0.6961117946028709,0.2791384284198284,0.11917217673882842
1726940694438908400,9.116908447265626,0.9020283349454402,0.3451936397381127,0.18097353000491856
1726940694448894200,9.126894287109375,1.0986503927201032,0.26690760013908144,0.28530177335515616
1726940694458880300,9.13688037109375,0.9715548756361007,0.16754633154645562,0.3832682265885174
1726940694468866300,9.1468662109375,0.6800304283738136,-0.008565876032412052,0.27173370512127876
1726940694478851300,9.156851318359376,0.2759001771509647,-0.2009934047266841,0.44366395084038374
1726940694488837000,9.166837158203125,-0.07374854229986667,-0.4040877272553742,0.7436722949400544
1726940694498823200,9.1768232421875,-0.19963117646276948,-0.4398144358053803,0.8687943199940026
1726940694508809200,9.186809326171876,-0.16018880839049815,-0.545161939200759,0.8906362955763936
1726940694518795300,9.196795166015624,-0.04190203618407249,-0.6367514047481119,0.5097326061621308
1726940694528781000,9.206781005859375,0.011815525478124618,-0.8603121767222881,0.27016163349896666
1726940694538766000,9.21676611328125,0.009000468057394026,-1.0440430426113307,0.10336246705800295
1726940694548752400,9.22675244140625,-0.05656827491819858,-0.9983369379691779,0.09699965402781963
1726940694558738200,9.23673828125,0.3557563886761665,-0.8961601735644042,0.21466800207495687
1726940694568724200,9.24672412109375,1.0074094483494758,-0.7738958760291338,0.307690569165349
1726940694578710300,9.256710205078125,1.9521388609021901,-0.6318962198019027,-0.008313874032720922
1726940694588696300,9.2666962890625,2.453333063560724,-0.6077540044531226,-0.5997275690596551
1726940694598681000,9.27668115234375,2.188543478488922,-0.6963879811957479,-1.1122212374329565
1726940694608667100,9.286667236328125,1.4670692790925501,-0.8394009061187505,-1.2891782252728938
1726940694618653200,9.296653076171875,0.5839192476183176,-0.9280804755687713,-1.007469069582224
1726940694628639200,9.30663916015625,0.15614976213276385,-0.7293398182049393,-0.5766537135947495
1726940694638625000,9.316625,-0.3843956231832504,-0.7810422406524419,-0.46179497960824517
1726940694648611300,9.326611328125,0.625312165236473,-0.7054194289132952,-0.8418737259730696
1726940694658596400,9.336596435546875,1.4260545471370218,-0.5267138438403606,-1.1752150153540075
1726940694668582100,9.34658203125,1.4584300455629824,-0.28829116442948577,-1.2007703123711049
1726940694678568200,9.356568115234374,1.2537924391150475,-0.00959814168959856,-0.7796643033627421
1726940694688554200,9.36655419921875,1.177462063628435,0.05472703096568584,-0.7894838327180593
1726940694698540300,9.376540283203125,0.9599421792536973,-0.4807368133023381,-1.740178948742151
1726940694708526000,9.386526123046876,-0.04965630357265472,-0.5395414689704775,-2.06041189635545
1726940694718512400,9.396512451171875,-1.2618927434623242,-0.5046048878848552,-1.5980315546073018
1726940694728497200,9.4064970703125,-2.1522785714089867,-0.516511598777771,-1.2189471895746886
1726940694738483200,9.416483154296875,-2.4528829817056654,-0.24853081644922492,-0.5604115307807922
1726940694748469200,9.42646923828125,-2.668751007220149,-0.01614683268070221,0.2607058228895068
1726940694758455300,9.436455322265624,-2.8022365176022053,0.003841477859020233,0.7575485523402691
1726940694768441000,9.446441162109375,-3.162535225883126,-0.052473406819999215,0.9193404120132327
1726940694778427100,9.45642724609375,-3.0232459976583717,0.2641711609125137,1.2020064300373197
1726940694788412400,9.466412353515626,-1.632960098516941,0.9516665183395147,1.874382398135215
1726940694798398200,9.476398193359374,-0.4675988070487976,0.9141860979899763,1.6563986956410108
1726940694808384500,9.486384521484375,-0.1718026738166809,-0.25786066259145735,0.2592326815970242
1726940694818370300,9.496370361328125,-0.2848188121438026,-1.8230290813863277,-1.0675364386625588
1726940694828356400,9.5063564453125,-0.7567658775299787,-2.068083161635697,-1.566841904965043
1726940694838342400,9.51634228515625,-1.379729433813691,-1.1223720445692538,-1.1889707151144742
1726940694848327400,9.526327392578125,-1.5843530117362736,-0.0033037177205085754,-0.5344341358941048
1726940694858313200,9.536313232421875,-1.3713269316494463,0.6307336057633162,-0.25029329607710243
1726940694868299300,9.54629931640625,-0.7579951270639896,1.0504501331746579,-0.11342113893143832
1726940694878285300,9.556285400390625,-0.18060674251914025,1.0289753834694624,-0.11567585905566811
1726940694888271400,9.566271240234375,0.31381869665682316,0.7528872825309634,0.013782295506447552
1726940694898257200,9.576257080078125,0.6551333030045032,0.6991302656412124,0.2322623301502317
1726940694908243500,9.586243408203124,0.6760930889248847,0.8447881521150469,0.29949601066336035
1726940694918228500,9.596228515625,0.5339630843162536,0.9402221642613411,0.29828440638389436
1726940694928214300,9.60621435546875,0.3296820362210274,0.9036617813661694,0.13539353596046566
1726940694938200300,9.616200439453126,0.19166823475956915,0.7998495247140527,-0.3210025072136894
1726940694948186400,9.626186279296874,-0.3310872268438339,0.7737476997300982,-0.6600659371010958
1726940694958172400,9.63617236328125,-0.9365338311374187,0.6270780058652162,-0.6428441686652601
1726940694968158200,9.646158203125,-0.9405617714792489,0.5774830770909786,-0.48022206871323286
1726940694978143200,9.656143310546875,-0.5137397959768771,0.5800666638433933,-0.3092022158373147
1726940694988129300,9.66612939453125,0.09414075746536255,0.5005100197866559,-0.3665964201856404
1726940694998115300,9.676115234375,0.3705091366499662,0.3679682199954986,-0.441481346104294
1726940695008101000,9.68610107421875,0.22208207772374153,0.18426321920007466,-0.4782936944665387
1726940695018087400,9.69608740234375,0.20816110439896582,-0.19669541527181864,-0.22258381670080124
1726940695028073200,9.7060732421875,0.457506452101469,-0.5491922176301479,0.03170746297128498
1726940695038058200,9.716058349609375,0.707130032223463,-0.6763751207366585,0.11007000187262891
1726940695048044300,9.726044189453125,0.9017372430443763,-0.5469520374879241,-0.04710238130614161
1726940695058030300,9.7360302734375,0.4602992976903915,-0.5172901819348334,-0.07682685376666486
1726940695068016400,9.746016357421874,0.0074526540935039515,-0.7343117613986134,0.1308687885450199
1726940695078002200,9.756002197265625,0.19165537527799606,-1.0552177859678864,0.4288821229025721
1726940695087988500,9.765988525390625,0.8411994799733161,-1.2043474402055143,0.8457773823481053
1726940695097973200,9.77597314453125,1.8991367540329693,-1.0402721457704902,0.8386350363127887
1726940695107959300,9.785959228515624,2.5544880837023256,-0.6135965930014848,0.5798869233623146
1726940695117945300,9.7959453125,1.9318799167275427,-0.3474409802734852,0.5306554210729897
1726940695127931400,9.805931396484375,1.1433335840553045,-0.316905556756258,0.5261217231661081
1726940695137917200,9.815917236328126,0.7900245885312557,-0.3961705243900418,0.5373863367632031
1726940695147903200,9.8259033203125,0.8709329394578933,-0.42638709121644497,0.7587345472544431
1726940695157889300,9.83588916015625,0.9679086280882357,-0.11475742903649806,0.6352334744658321
1726940695167874300,9.845874267578125,0.7037117482125759,0.2948079989776015,0.2934503738235682
1726940695177860400,9.8558603515625,0.08814005574584007,0.5525768916323781,0.011277801872231066
1726940695187846400,9.865846435546874,-0.21184476134777067,0.6104150403559208,-0.3517866813275963
1726940695197832400,9.87583251953125,-0.27111995713710785,0.5238999554634094,-0.6554632656112312
1726940695207818200,9.885818359375,-0.21773440390825272,0.40471886476576324,-0.7680303449966013
1726940695217804500,9.895804443359374,-0.20899287904798983,0.34481676924973725,-0.9375773488409817
1726940695227789300,9.905789306640624,-0.3090817312628031,0.43227585699409243,-1.3778287147589028
1726940695237775400,9.915775390625,-0.6849976953923702,0.6326672041743994,-1.791334843222797
1726940695247761200,9.92576123046875,-1.4106617476940153,0.6154147483393549,-1.906011169847101
1726940695257747500,9.93574755859375,-1.9574948349773882,0.5023886731401086,-1.7686384427681565
1726940695267733200,9.945733154296875,-1.8079425714135169,0.4188667787142098,-1.615309875535965
1726940695277719300,9.95571923828125,-1.0916782156199216,0.4086271242506802,-1.3603608626075088
1726940695287704300,9.965704345703125,-0.2877922749966383,0.3843396552123129,-0.8014438081681728
1726940695297690400,9.9756904296875,-0.06719663643836975,0.01395955176949501,-0.06756999979540705
1726940695307676400,9.985676513671875,-0.29160628032684327,-0.1656309994444251,0.1513090441033244
1726940695317662200,9.995662109375,-0.6553238571405411,-0.29358503305390476,0.1537103330913931
1726940695327648500,10.0056484375,-1.08856680560112,-0.4257229282192886,0.08370952595248818
1726940695337634300,10.01563427734375,-1.3091349716305731,-0.44445378604382274,-0.11212795731574296
1726940695347620400,10.025620361328125,-0.22997604584395884,-0.4995236390978098,-0.15287885070331395
1726940695357605000,10.035605224609375,0.5305038837730884,-0.5276217524655163,-0.30474428658038377
1726940695367591400,10.04559130859375,0.665163698631525,-0.27862258785217997,-0.6004224925212561
1726940695377577200,10.0555771484375,0.4439408680856228,-0.08391162439584732,-0.7054005050171166
1726940695387563300,10.065563232421875,-0.3219850519776344,-0.15309519686773418,-0.7639607574701309
1726940695397549300,10.07554931640625,-0.7922469407558441,-0.3015871377237141,-0.8830643990173935
1726940695407535400,10.085535400390626,-0.895141498041153,-0.26511969380900263,-0.938774522736296
1726940695417520400,10.095520263671874,-0.9624936173021793,-0.22193054042384028,-0.4144730007346719
1726940695427506200,10.105506103515625,-0.9850982478201389,-0.3304610577695071,0.3558333263698965
1726940695437492500,10.115492431640625,-0.7389666014671326,-0.42269715065732594,0.8619684925619512
1726940695447478300,10.125478271484376,-0.49986090822815893,-0.3470955278366804,0.8668903130035847
1726940695457464300,10.13546435546875,-0.19287585698366164,-0.15571896950006484,0.46981757907681165
1726940695467450400,10.145450439453125,0.3129612030446529,0.027495909690856933,-0.0480244645871222
1726940695477435400,10.155435302734375,0.580830049431324,-0.053179217001795766,-0.15952661815471947
1726940695487421200,10.165421142578126,0.4476414761692285,-0.10802198330163955,0.06971585271768271
1726940695497407500,10.175407470703124,0.2008382141649723,-0.15729747086316345,0.29095548826791345
1726940695507393300,10.185393310546875,-0.01473462779521942,-0.16837416067272423,0.40630971415378153
1726940695517379300,10.19537939453125,-0.1683902350246906,-0.1177577798962593,0.5197752036835998
1726940695527365000,10.205365234375,0.2077659676015377,0.01751841329485178,0.452069083353132
1726940695537350400,10.215350341796874,1.147247542628646,0.09943272639364004,0.3845920956034213
1726940695547336400,10.22533642578125,2.297114912366867,0.10209025516510009,0.6850603122998029
1726940695557322200,10.235322265625,3.075374244302511,0.12659633539021015,0.925725436875224
1726940695567308500,10.24530859375,3.387370986229181,0.12191928348988294,0.7906084528338163
1726940695577294300,10.25529443359375,3.0489515168011185,-0.030837913595139977,0.560048250426352
1726940695587280400,10.2652802734375,2.192081004965305,-0.3844111130133271,0.25657719865217804
1726940695597266400,10.275266357421875,1.3454536547243594,-0.8566179983794688,-0.1478330020232126
1726940695607251500,10.28525146484375,0.663666153550148,-1.1448527564465998,-0.6158719905875623
1726940695617237200,10.2952373046875,0.6711667384386062,-1.082171551606059,-0.9735109050747006
1726940695627223300,10.305223388671875,0.5816022028476,-1.0382459006398916,-0.8623599030323326
1726940695637209300,10.315209228515625,0.300765738338232,-1.0791600948303937,-0.6073859017930925
1726940695647195400,10.3251953125,0.273717572414875,-1.0822764732852577,-0.5638350754886865
1726940695657181200,10.33518115234375,0.05553951639235019,-1.113606262050569,-0.6142613405205309
1726940695667166200,10.345166259765625,-0.37253918117284773,-1.0284545744657516,-0.9029107438031584
1726940695677152500,10.355152587890625,-0.7856208006143569,-1.0009639254719018,-0.9322229822009801
1726940695687138300,10.36513818359375,-0.4866600658714771,-0.757682992374897,-0.8086547624602913
1726940695697124400,10.375124267578125,-0.11446925974488258,-0.6424030007690191,-0.6122080612525344
1726940695707110400,10.3851103515625,0.0591296498388052,-0.6044450260356068,-0.7036569492854178
1726940695717096400,10.395096435546876,0.34011341386437416,-0.6194985105216503,-1.3973919317543506
1726940695727081200,10.405081298828126,0.4841594812273979,-0.9028852440357208,-2.004885239444673
1726940695737067300,10.4150673828125,0.27550270226597784,-0.8563412272647023,-2.161517524397373
1726940695747053300,10.42505322265625,0.6874959419488906,0.0176177820160985,-1.4926689997732638
1726940695757039400,10.435039306640626,1.1221873356521128,0.5732175286009907,-0.4284281685899943
1726940695767025200,10.445025146484374,1.0201789135515689,0.31110534604489803,-0.36978023785352704
1726940695777011500,10.455011474609375,0.08271160095632075,-0.5210661933422088,-0.7237126259729266
1726940695786996500,10.46499658203125,-0.9859376212537289,-1.204980477412045,-1.0786593057014047
1726940695796982300,10.474982177734375,-1.9582278254270553,-0.5797197501018643,-0.8934485765181481
1726940695806967800,10.4849677734375,-2.383330137529969,0.3659522039979696,-0.08429214814603328
1726940695816953900,10.494953857421875,-2.3342858283758163,0.4683195225387811,0.15138751616701482
1726940695826940000,10.50493994140625,-3.166234080401063,-0.14303893614709376,-0.16706877716258167
1726940695836925700,10.51492578125,-3.6699469878822564,-0.4104325662374496,-0.6032524552501738
1726940695846912000,10.524912109375,-3.3107278915315863,0.32563743700534103,-0.14815627916082738
1726940695856896800,10.534896728515625,-2.580754743859172,1.0053405331209302,1.0786138591244816
1726940695866882800,10.5448828125,-1.8410428769826888,1.2924889572560787,1.6331234723851085
1726940695876868600,10.55486865234375,-1.16592710865736,1.333725223007798,1.317056850671023
1726940695886855000,10.56485498046875,-0.9937006564706563,0.458127506609261,0.78490169255957
1726940695896840700,10.5748408203125,-1.3605027552962303,-0.6846466899976134,0.48409576834142204
1726940695906826800,10.58482666015625,-1.7082722368717194,-1.0368661367192864,0.2664971196420491
1726940695916811800,10.594811767578125,-1.7299895631611346,-0.8471841073408722,0.011654635827988386
1726940695926797800,10.6047978515625,-1.6545581823408602,-0.5889458436086773,0.004656812829896807
1726940695936784000,10.614783935546875,-1.3616495872437953,-0.5294724948987365,0.1087534393813461
1726940695946769700,10.624769775390625,-0.7172726560533046,-0.40017888324856754,0.022883447459340095
1726940695956756000,10.634755859375,0.02805237452983856,0.05248655856251716,0.03258862971998751
1726940695966741800,10.64474169921875,0.7410778945326805,0.5444803866773843,0.12044979545921086
1726940695976727800,10.654727783203125,1.7119862889587878,0.9788865336984396,0.11227142090704291
1726940695986712800,10.664712890625,2.3130267672479152,1.059494732634723,-0.17871913867425174
1726940695996699000,10.674698974609376,2.115839476805925,1.0392398801133036,-0.42497013709060844
1726940696006684700,10.6846845703125,1.6748492752194404,1.2446478864118455,-0.6807061356782913
1726940696016670700,10.694670654296875,1.2982190253406762,1.3851815617397427,-0.8079460296690464
1726940696026656800,10.70465673828125,0.8260954343438148,1.1542705731332301,-1.0656434645228088
1726940696036642800,10.714642822265626,0.695988460484147,0.7917039199203252,-1.207299714139849
1726940696046627800,10.7246279296875,0.5435165100812912,0.36899317912906404,-1.1104689869381488
1726940696056614000,10.73461376953125,0.9378700481772422,-0.02459463529139757,-0.8516746236931532
1726940696066600000,10.744599853515625,0.9582242694199085,-0.25987638632804155,-0.6072332685146481
1726940696076585700,10.754585693359376,0.21736323250830172,-0.6082324356198311,-0.25222093967143444
1726940696086572000,10.764572021484375,-0.21004677201509475,-0.9674670218005775,-0.377690024597384
1726940696096557800,10.774557861328125,-0.7748767037600278,-1.1309525336489081,-0.5015243844609707
1726940696106542800,10.78454296875,-1.6630512853980064,-1.5318717138707636,-0.11840705585153773
1726940696116528600,10.794528564453126,-1.8610586600512264,-1.7734598715752363,0.36421675850749013
1726940696126515000,10.804514892578124,-0.9982827235639095,-1.8274290699109434,0.9273919818479567
1726940696136500700,10.814500732421875,-0.10872574765682219,-1.7578233265042305,1.2541294159844516
1726940696146486800,10.82448681640625,0.41854514554440975,-1.376881643167138,1.3514305371768771
1726940696156472800,10.834472900390624,0.7720973021745682,-1.0375596719413995,1.2554615413710475
1726940696166457900,10.844457763671874,1.3641162696182727,-0.7027502097040415,0.832356321369484
1726940696176444000,10.85444384765625,1.9943278973340988,-0.385287895847857,0.4577877167282626
1726940696186429700,10.8644296875,2.3420710754245517,-0.11209800056889653,0.1921796183478087
1726940696196416000,10.874416015625,2.2218577190697193,0.04451455677002668,0.21160412099231032
1726940696206401800,10.88440185546875,1.7750170378893613,0.3004417670808732,0.15166017736224457
1726940696216387800,10.894387939453125,1.2674480395019054,0.5962399461396038,-0.09480484739728272
1726940696226372600,10.90437255859375,0.996429789173603,0.8086829656414687,-0.45593986037187273
1726940696236359000,10.91435888671875,1.0764040741205214,1.0024569405086339,-0.7069946423407644
1726940696246344700,10.9243447265625,1.3285446054995058,1.1784938908942042,-1.0211442514523863
1726940696256330800,10.934330810546875,0.9591577508777379,1.2427581271424888,-0.9722128280881792
1726940696266316800,10.94431689453125,-0.09633505263924598,1.0004073145024477,-0.642540217282623
1726940696276302800,10.954302734375,-0.9629378539383411,0.6860410669654607,-0.7524274829994887
1726940696286288600,10.96428857421875,-1.5749720199286936,0.6064015669308602,-1.144860428296402
1726940696296273700,10.974273681640625,-1.4496937813997268,0.9138841924339532,-1.6056550352230667
1726940696306260000,10.984260009765626,-0.530217468047142,1.4416910922080277,-2.0233583231158554
1726940696316245800,10.994245849609374,-0.1492155789554119,1.3689046729385852,-1.5734725751511751
1726940696326231800,11.004231689453125,-1.058802950978279,0.8782460389502346,-0.6728586370483041
1726940696336217900,11.0142177734375,-2.04081959939599,0.5350293983735144,-0.3403419619232416
1726940696346204000,11.024203857421876,-3.06580912809968,0.30363588694706556,-0.6926841582417488
1726940696356188700,11.034188720703124,-3.244213392138481,0.16779241526201366,-0.8840710918419062
1726940696366175000,11.044175048828125,-1.4550433257341384,-0.6632286389157176,0.21759006353411822
1726940696376160800,11.054160888671875,-0.2398246551632881,-1.365742117254436,0.9212136585392058
1726940696386146800,11.064146728515626,0.18532149608135223,-1.57668554584831,0.6314887349795549
1726940696396132600,11.074132568359374,0.875856951856613,-1.4373758593574166,0.23261720800250768
1726940696406119000,11.084118896484375,0.1352384915292263,-1.1149607453994452,-0.030371684322878716
1726940696416104000,11.09410400390625,-1.094249527412653,-0.7762395165458321,-0.17733488124161959
1726940696426089700,11.10408984375,-1.5903887847691773,-0.6089088735766709,-0.3189012240855023
1726940696436076000,11.114075927734374,-1.2208978852510453,-0.26555720844343306,-0.27113621415216477
1726940696446061800,11.124061767578125,-0.38826398904919623,-0.01645940576121211,-0.317464578878507
1726940696456047900,11.1340478515625,0.28353520207405086,-0.009540274022519588,-0.23455654203463344
1726940696466034000,11.144033935546876,0.29992811847031114,-0.043101767362654204,0.0068105202650651335
1726940696476020000,11.15402001953125,-0.2876385457396507,0.08560644561499357,0.17642609583362936
1726940696486004700,11.164004638671875,-0.8263982166826724,0.34046047373637556,0.2007241958638653
1726940696495990800,11.17399072265625,-0.7238648939251899,0.7249335460700095,0.30644199387636034
1726940696505976800,11.183976806640626,0.3870698108285665,1.0785660744599996,0.5161626757422462
1726940696515963000,11.193962890625,1.9714836128413675,1.2979304176576434,0.6314518370352685
1726940696525948700,11.20394873046875,2.845972783476114,1.4620391759708522,0.6704375473812222
1726940696535935000,11.21393505859375,2.2178028907209635,1.3957102622777222,0.6100029524236917
1726940696545920000,11.223919921875,0.8874380840569734,1.0339771372795103,0.34568142325505613
1726940696555905800,11.23390576171875,-0.043593642532825466,0.8206215329773724,0.16040274340212343
1726940696565891800,11.243891845703125,-0.5779717373907566,0.6649662763632833,0.27997919009290634
1726940696575878000,11.2538779296875,-0.6325070451766253,0.358459802415967,0.7901445616491138
1726940696585864000,11.263864013671874,-0.06354921984672546,-0.020817600970715285,1.3649804852321743
1726940696595849700,11.273849609375,0.7479203077733516,-0.2931428422443568,1.8355661991372703
1726940696605834800,11.283834716796875,0.9831149650484323,-0.2981241377882659,1.684835977835208
1726940696615820800,11.29382080078125,0.6000239947229623,-0.5152005161792039,1.2607682694770395
1726940696625806800,11.303806884765624,0.49634676262736316,-0.5142915846407413,0.7357547267485409
1726940696635792600,11.313792724609375,0.7137725389778614,-0.6643427376374602,0.3800939804665744
1726940696645779000,11.323779052734375,0.8282166642814874,-0.7577114878170191,0.252718806190975
1726940696655764700,11.3337646484375,1.018923360532522,-0.6566141892120242,0.251911983320117
1726940696665750800,11.343750732421874,1.5041536858618259,-0.6437846643857658,-0.00341689577139914
1726940696675735800,11.35373583984375,1.8423159656584263,-0.6126499598011375,-0.5026192670255899
1726940696685721900,11.363721923828125,1.90730427839756,-0.42809594096094367,-0.9525197741679847
1726940696695708000,11.3737080078125,2.6724539533913134,-0.2441466100156307,-1.3250063483707606
1726940696705693700,11.383693603515624,3.1616964369714258,-0.12519260607212782,-1.652287314799428
1726940696715680000,11.393679931640625,2.7956501249492165,-0.33327100062370296,-2.0380096565417944
1726940696725665800,11.403665771484375,1.4550035782456396,-0.7367758134245872,-2.268100268676132
1726940696735650800,11.41365087890625,-0.009312602746486664,-1.2338657956346868,-2.7476836741596458
1726940696745636600,11.42363671875,-0.7248153265178203,-1.1738415350437164,-2.5419588569968936
1726940696755623000,11.433622802734375,0.017141688936948774,-0.4002960798874497,-1.7100845469906925
1726940696765608700,11.443608642578125,1.5389035122036934,0.33459435818195343,-1.0582557654242961
1726940696775594800,11.4535947265625,1.7192250080406666,0.6445540413230657,-0.8389393530216067
1726940696785580800,11.463580810546874,0.922279095813632,0.3308238997325301,-1.1015114812396467
1726940696795565800,11.47356591796875,-0.6953261971831322,-0.5385352145373821,-1.5150613027147948
1726940696805552000,11.48355224609375,-2.3963725744545457,-1.1136576999768615,-1.8951048681683837
1726940696815538200,11.4935380859375,-3.6472529255151747,-1.1583926214993,-1.5943457057014108
1726940696825524200,11.503524169921874,-4.686164596587419,-1.0670587381482124,-0.613373451770097
1726940696835510300,11.51351025390625,-5.827112746810913,-1.0093521068498492,0.21057824854329227
1726940696845496000,11.52349609375,-6.5186968348562715,-1.182620761565864,0.1932886755682528
1726940696855482400,11.533482421875,-6.861701293987036,-1.1262608687013387,0.55551995934695
1726940696865467400,11.54346728515625,-6.617547085186839,-0.24131167885065077,1.3056176111593842
1726940696875453200,11.553453125,-4.554112918400764,0.8208163248971104,2.3114022347860037
1726940696885439200,11.563439208984375,-2.7205501680403947,1.3123410741955042,3.085691640177369
1726940696895425300,11.57342529296875,-1.3306710961341857,1.3420382933229207,2.9843045648455617
1726940696905411300,11.583411376953125,-0.560454785400629,0.2676028889268637,2.165236252659559
1726940696915397000,11.593397216796875,-0.4259434391021728,-1.004648751464486,1.4658938055723905
1726940696925382100,11.603382080078125,-0.39381227082610126,-0.7801940993905067,1.0468699366003273
1726940696935368200,11.6133681640625,0.0958896469593048,0.10919511873424052,0.6248207284577191
1726940696945354200,11.623354248046875,1.0761620820581912,0.7061515425801277,0.268273627795279
1726940696955340000,11.633340087890625,1.3433674961000681,0.9670537648245692,-0.11844335100762546
1726940696965326300,11.643326416015626,0.8911199874401092,1.2508140078261494,-0.166089483801648
1726940696975312100,11.65331201171875,0.7173533200740814,1.9035376193404197,-0.21181553525328634
1726940696985297200,11.663297119140625,1.3797656741708517,2.5637279134735462,-0.4235273909363895
1726940696995283200,11.673283203125,2.062948429095745,3.0182109261006116,-0.2085606251105666
1726940697005269200,11.683269287109376,2.0080045405089852,2.9698537224277852,0.09733217391781508
1726940697015255300,11.69325537109375,1.2886416341781615,2.5471628553807735,0.17357976649180054
1726940697025241000,11.703240966796875,0.6592869155526161,2.0953952391922472,-0.017944054828397928
1726940697035227400,11.713227294921875,0.4378074798971414,1.6582339482441544,-0.24767752408813684
1726940697045212200,11.723212158203125,0.24761633195281027,1.1595812467619777,-0.33407395103704185
1726940697055198200,11.7331982421875,0.013204934009909628,0.7175108487233519,-0.3599772212415933
1726940697065184300,11.743184326171875,0.06005494799017906,0.5203204895414412,-0.39872517730891704
1726940697075170300,11.75317041015625,0.41710722169578074,0.5139231897197664,-0.513059412497282
1726940697085156000,11.763156005859376,1.0200514877796172,0.4205898031145334,-0.7969839792151003
1726940697095142100,11.77314208984375,0.7931973733484745,0.26637144743576646,-1.0754591214206068
1726940697105128200,11.783128173828125,-0.11610884364545344,-0.13892024878188966,-1.0129153522893786
1726940697115113200,11.79311328125,-0.6906792481601238,-0.6763802353031932,-1.037475646919757
1726940697125099300,11.803099365234376,-1.019372857865691,-1.0625440372027457,-0.7750229803629219
1726940697135085300,11.813085205078124,-1.1478221276462077,-1.3225931497491896,-0.41240733690913767
1726940697145071400,11.8230712890625,-0.8270587264180183,-1.421998257483542,-0.04687285599973984
1726940697155057200,11.83305712890625,-0.2822095064282417,-1.437717366271466,0.4100049884751439
1726940697165043500,11.84304345703125,0.15825754806697367,-1.403448747575283,0.8460577336594461
1726940697175028200,11.8530283203125,0.8557061442315578,-1.2980194111153482,1.1201567066073417
1726940697185014300,11.86301416015625,1.6122832211911677,-1.066199783231318,1.0093931695125997
1726940697195000000,11.873,1.7024620892882345,-0.7561128204487264,0.47222884146962313
1726940697204986400,11.882986328125,0.8647750013500451,-0.5817036173954606,0.24031059378301722
1726940697214972200,11.89297216796875,-0.21476970888376234,-0.5391935323156416,0.3845831451119855
1726940697224958200,11.902958251953125,-1.0008581270098686,-0.27261954804509875,0.7466907659783959
1726940697234943200,11.912943115234375,-1.6781237668454647,-0.17848112866729496,1.04483229329288
1726940697244929300,11.92292919921875,-1.8807178847670554,-0.09898746684417128,1.2500332327120005
1726940697254915300,11.932915283203124,-1.3238368661999702,0.053609717373549935,1.0666413895189761
1726940697264901000,11.942901123046875,-0.4039993183195591,0.23200521358400583,0.5952232068451121
1726940697274887400,11.952887451171875,0.33984687188267704,0.5338317130215465,0.1485846789070405
1726940697284873200,11.962873291015624,0.32951720104813575,0.8667557999037205,-0.17661219299025832
1726940697294858200,11.972858154296874,-0.048068742120265955,0.9410853569619357,-0.5247117102377117
1726940697304844000,11.982843994140625,-0.2817921577990055,0.9308446795850992,-1.0273361648950725
1726940697314830300,11.992830322265625,-0.14295301142930983,1.1819637589618563,-1.6122000729523598
1726940697324816100,12.002816162109376,0.35890988427102566,1.3990027279518544,-1.7454799777597187
1726940697334802200,12.01280224609375,0.4130833730071783,1.4381019816748797,-1.29071917110458
1726940697344788200,12.022788330078125,0.12524550530314446,1.2499576832577586,-0.9101271049227565
1726940697354774300,12.032774169921876,-0.27597733404040337,0.9296306276202201,-0.6629935149855911
1726940697364759300,12.04275927734375,-0.05638415052294731,0.6007067162901163,-0.35612065541129556
1726940697374745000,12.0527451171875,0.9536381106734275,0.5913144724361599,-0.017152950116479767
1726940697384731400,12.0627314453125,1.5155553698420523,0.8572634566761553,-0.030759331933595237
1726940697394717200,12.07271728515625,1.20507370865345,0.814306504611671,-0.12215133868008851
1726940697404703200,12.082703125,0.60691024710536,0.2809482543207705,-0.04931975596151315
1726940697414689300,12.092689208984375,0.31153146250247954,-0.11323007333874702,-0.3231520864630118
1726940697424674300,12.10267431640625,-0.18270751419067383,-0.0019400281518697738,-0.47117133177332576
1726940697434660000,12.11266015625,-0.15370236898064613,0.2534035370521247,-0.46526419008877123
1726940697444646100,12.122646240234374,0.4569178385585546,0.5143386386528611,-0.37698805034048855
1726940697454632200,12.132632080078125,1.235700902107358,0.7649108978018164,-0.22482394204409792
1726940697464618200,12.1426181640625,1.132491287523508,0.6093325058162212,0.08339819498099386
1726940697474604000,12.15260400390625,-0.02245148578286171,0.17014204712808131,0.12749073607982137
1726940697484589300,12.16258935546875,-1.6276397802770137,-0.22666005316376686,-0.022232235275302083
1726940697494575400,12.172575439453125,-3.0455244649618862,-0.4303315910585224,-0.08953245995230973
1726940697504561200,12.18256103515625,-3.98643110435605,-0.6539245117366314,-0.04738769648696761
1726940697514547500,12.19254736328125,-4.55990260771811,-0.7509770649954676,0.17582544479304923
1726940697524533200,12.202533203125,-4.507660963827371,-0.767654205160588,0.5727118806337937
1726940697534519300,12.212519287109375,-3.5448107881724833,-0.8100456322968006,0.9484722523428499
1726940697544505000,12.222505126953125,-1.7965233517765997,-0.6531704784989356,1.1211718019340187
1726940697554490400,12.232490478515626,-0.008371522504091263,-0.27710151576474307,1.1984303251162172
1726940697564476200,12.24247607421875,1.225847616612911,0.22837810912802814,1.275894234677404
1726940697574462200,12.252462158203125,1.8367074781268835,0.7110504205375909,1.1415415130067617
1726940697584448300,12.2624482421875,2.065197669327259,1.049556399205327,0.7315506991874426
1726940697594434300,12.272434326171876,1.9645453380107878,1.011067240204662,0.4764950110141188
1726940697604420000,12.282420166015624,1.5608639995992182,0.9227627876773477,0.7997697374761105
1726940697614405000,12.292405029296875,2.350687512600422,1.0244137746423483,0.7966087892271578
1726940697624391400,12.302391357421875,3.8186639696657654,1.0943703773133455,0.8646298207256943
1726940697634377200,12.312377197265626,4.672184002029896,0.9552873391851783,0.968798708795756
1726940697644363300,12.32236328125,4.646866020900011,0.12419818820729851,0.95583898171857
1726940697654349300,12.332349365234375,3.4966204654991624,-0.564121491214633,0.3455078202538192
1726940697664335400,12.34233544921875,1.9729706365287303,-0.5997445932596922,-0.3280208615431562
1726940697674320100,12.352320068359376,1.0907248604178428,-0.3964420348078012,-0.9668827921718358
1726940697684306200,12.36230615234375,0.8479226507484913,-0.29450317081212996,-1.2128414931107312
1726940697694292200,12.372292236328125,0.9412252038240432,-0.2852285619884729,-1.4347963642582295
1726940697704278300,12.3822783203125,0.3971241718530655,-0.6012371699050069,-1.6244196491867302
1726940697714264000,12.39226416015625,-0.13385551273822785,-0.9508677691772579,-1.8826630274854599
1726940697724250400,12.40225048828125,-0.5955798747956752,-0.928877471165359,-1.7463485772877931
1726940697734236200,12.412236083984375,-0.8047814281582832,-0.7702809004023671,-1.4711328752696513
1726940697744221200,12.42222119140625,-0.051019408619403836,-0.3650353814139962,-0.9036124623317271
1726940697754207200,12.432207275390626,2.08610251019001,0.3773424898013472,-0.6500760196149349
1726940697764193300,12.442193359375,2.3488906923115254,0.4167182223781943,-0.7135061431266367
1726940697774179300,12.452179443359375,1.5973638844788074,-0.19399024796634912,-0.9104162240624427
1726940697784165000,12.4621650390625,0.42421208526492116,-1.028250576326251,-1.1977733225122094
1726940697794151400,12.4721513671875,-0.3474912491559982,-1.3643781354248523,-1.4469595341302455
1726940697804137000,12.482136962890625,-0.6332885509431362,-1.0568217140331864,-1.0983327050730585
1726940697814122000,12.4921220703125,-1.647867160269618,-0.6119456109240651,-0.7467518485158682
1726940697824108000,12.50210791015625,-3.148771488946676,-0.46866789758503435,-0.4273654347293079
1726940697834094000,12.512093994140624,-3.533898349013924,-0.2837789477020502,-0.4002002182975411
