time,seconds_elapsed,z,y,x
1726995913097911800,0.009911865234375,-0.8779449462890625,-0.346405029296875,-0.2676544189453125
1726995913107899000,0.01989892578125,-0.891845703125,-0.34710693359375,-0.2727508544921875
1726995913117885000,0.029885009765625,-0.9302825927734375,-0.3335723876953125,-0.2849273681640625
1726995913127872000,0.0398720703125,-0.9961395263671875,-0.3090667724609375,-0.3057861328125
1726995913137858800,0.04985888671875,-1.0385894775390625,-0.3002471923828125,-0.3316650390625
1726995913147844900,0.059844970703125,-1.080841064453125,-0.3035736083984375,-0.37841796875
1726995913157831700,0.069831787109375,-1.0945892333984375,-0.3303375244140625,-0.419708251953125
1726995913167817700,0.079817626953125,-1.067138671875,-0.3515472412109375,-0.4137115478515625
1726995913177804800,0.0898046875,-1.0287322998046875,-0.3502044677734375,-0.3878173828125
1726995913187792000,0.0997919921875,-0.9697113037109375,-0.340301513671875,-0.3548431396484375
1726995913197777700,0.109777587890625,-0.9151153564453125,-0.3094329833984375,-0.33709716796875
1726995913207764700,0.1197646484375,-0.8736114501953125,-0.2689971923828125,-0.34075927734375
1726995913217750800,0.129750732421875,-0.818084716796875,-0.2416229248046875,-0.348907470703125
1726995913227737600,0.139737548828125,-0.7245330810546875,-0.2062835693359375,-0.3921356201171875
1726995913237724700,0.149724609375,-0.5998687744140625,-0.17327880859375,-0.4150543212890625
1726995913247710700,0.159710693359375,-0.48333740234375,-0.15093994140625,-0.42236328125
1726995913257697800,0.16969775390625,-0.4959564208984375,-0.1962890625,-0.4051361083984375
1726995913267683800,0.179683837890625,-0.5764617919921875,-0.257720947265625,-0.1949005126953125
1726995913277671000,0.1896708984375,-0.42486572265625,-0.1963958740234375,-0.1445770263671875
1726995913287657700,0.19965771484375,-0.3133392333984375,-0.1416778564453125,-0.175750732421875
1726995913297643800,0.209643798828125,-0.199798583984375,-0.119415283203125,-0.22003173828125
1726995913307630800,0.219630859375,-0.057525634765625,-0.1029205322265625,-0.2957763671875
1726995913317616600,0.22961669921875,0.0194549560546875,-0.200592041015625,-0.403472900390625
1726995913327603700,0.239603759765625,0.201995849609375,-0.1805877685546875,-0.5535430908203125
1726995913337590800,0.2495908203125,0.3612060546875,-0.1828460693359375,-0.7066650390625
1726995913347576800,0.259576904296875,0.451080322265625,-0.1225738525390625,-0.810455322265625
1726995913357563600,0.269563720703125,0.373382568359375,-0.138519287109375,-0.823699951171875
1726995913367549700,0.2795498046875,0.4408721923828125,0.0071258544921875,-0.90350341796875
1726995913377536800,0.289536865234375,0.4920501708984375,0.0193634033203125,-0.9701385498046875
1726995913387523800,0.29952392578125,0.4406890869140625,-0.2598114013671875,-0.9454345703125
1726995913397510000,0.309510009765625,0.4122772216796875,-0.222991943359375,-0.9861297607421875
1726995913407496700,0.31949658203125,0.4202423095703125,-0.327850341796875,-1.367889404296875
1726995913417482800,0.329482666015625,0.5038909912109375,-0.4922637939453125,-1.6872406005859375
1726995913427469800,0.3394697265625,0.793365478515625,-0.3744354248046875,-1.6893310546875
1726995913437457000,0.349456787109375,0.9986114501953125,-0.2176513671875,-1.4337158203125
1726995913447442700,0.359442626953125,1.0466461181640625,-0.1222686767578125,-0.998443603515625
1726995913457429800,0.3694296875,1.0414886474609375,-0.082763671875,-0.7181549072265625
1726995913467415800,0.379415771484375,0.87127685546875,0.090057373046875,-0.6175537109375
1726995913477402600,0.389402587890625,0.5428619384765625,0.140167236328125,-0.783416748046875
1726995913487389700,0.3993896484375,0.2736053466796875,0.0975341796875,-1.042724609375
1726995913497375700,0.409375732421875,0.1129150390625,-0.00665283203125,-1.2177886962890625
1726995913507362800,0.41936279296875,0.039520263671875,-0.0684356689453125,-1.2926177978515625
1726995913517348900,0.429348876953125,0.2515716552734375,-0.2024078369140625,-1.2396087646484375
1726995913527336000,0.4393359375,0.5646820068359375,-0.4344024658203125,-1.0588226318359375
1726995913537322800,0.44932275390625,0.751800537109375,-0.487762451171875,-0.9166717529296875
1726995913547308800,0.459308837890625,0.80401611328125,-0.462677001953125,-0.810272216796875
1726995913557295900,0.4692958984375,0.8178558349609375,-0.335662841796875,-0.63067626953125
1726995913567281700,0.47928173828125,0.84613037109375,-0.112518310546875,-0.434234619140625
1726995913577268700,0.489268798828125,0.7101287841796875,0.0379791259765625,-0.3262176513671875
1726995913587255800,0.499255859375,0.5598907470703125,0.0670623779296875,-0.3054351806640625
1726995913597241900,0.509241943359375,0.38018798828125,0.105072021484375,-0.4661102294921875
1726995913607228700,0.519228759765625,0.20123291015625,0.1258544921875,-0.594818115234375
1726995913617214700,0.529214599609375,0.31414794921875,0.5459442138671875,-0.8657073974609375
1726995913627201800,0.539201904296875,0.221923828125,0.63897705078125,-0.9109039306640625
1726995913637188600,0.549188720703125,0.6405487060546875,0.6045379638671875,-1.1213836669921875
1726995913647175000,0.5591748046875,0.873291015625,0.60943603515625,-1.117645263671875
1726995913657161700,0.56916162109375,1.0030364990234375,0.5435943603515625,-1.12725830078125
1726995913667147800,0.579147705078125,1.26104736328125,0.51324462890625,-1.3787841796875
1726995913677134800,0.589134765625,1.016204833984375,0.3650665283203125,-1.2965545654296875
1726995913687122000,0.599121826171875,0.720550537109375,0.19891357421875,-1.062469482421875
1726995913697107700,0.609107666015625,0.6202392578125,0.0493316650390625,-1.0243377685546875
1726995913707094800,0.6190947265625,0.586944580078125,0.0249481201171875,-0.9925994873046875
1726995913717080800,0.629080810546875,0.562225341796875,-0.0247802734375,-1.0804443359375
1726995913727067600,0.639067626953125,0.5686187744140625,-0.0418701171875,-1.002410888671875
1726995913737054700,0.6490546875,0.6230926513671875,-0.0713043212890625,-0.8373260498046875
1726995913747040800,0.659040771484375,0.678375244140625,-0.1365814208984375,-0.773834228515625
1726995913757027800,0.66902783203125,0.7582855224609375,-0.1689300537109375,-0.727691650390625
1726995913767014000,0.679013916015625,0.775177001953125,-0.1351318359375,-0.7002410888671875
1726995913777000700,0.689000732421875,0.8119964599609375,-0.1072998046875,-0.620330810546875
1726995913786987800,0.69898779296875,0.8026275634765625,-0.061431884765625,-0.512420654296875
1726995913796973800,0.708973876953125,0.7149658203125,-0.0234375,-0.34991455078125
1726995913806961000,0.7189609375,0.6186370849609375,-0.011810302734375,-0.2386932373046875
1726995913816946700,0.72894677734375,0.465301513671875,0.0360260009765625,-0.23046875
1726995913826933800,0.738933837890625,0.3725128173828125,0.2305145263671875,-0.286895751953125
1726995913836920800,0.7489208984375,0.412506103515625,0.2413787841796875,-0.589385986328125
1726995913846906600,0.75890673828125,0.421783447265625,0.1375579833984375,-0.72650146484375
1726995913856893700,0.768893798828125,0.621185302734375,0.1009674072265625,-0.5967254638671875
1726995913866879700,0.778879638671875,0.771270751953125,0.0106353759765625,-0.5540618896484375
1726995913876866800,0.78886669921875,0.866302490234375,-0.06060791015625,-0.5518646240234375
1726995913886853600,0.798853515625,1.0206756591796875,-0.029510498046875,-0.6503448486328125
1726995913896840000,0.80883984375,1.136016845703125,-0.0105133056640625,-0.759429931640625
1726995913906826800,0.81882666015625,1.254302978515625,-0.1301422119140625,-0.7788848876953125
1726995913916812500,0.8288125,1.421905517578125,-0.220184326171875,-0.672088623046875
1726995913926800000,0.8387998046875,1.4450225830078125,-0.2544708251953125,-0.4863739013671875
1726995913936787000,0.848786865234375,1.287811279296875,-0.253143310546875,-0.4269256591796875
1726995913946772700,0.858772705078125,1.051971435546875,-0.2074737548828125,-0.4038543701171875
1726995913956759800,0.868759765625,0.895172119140625,-0.1563262939453125,-0.39263916015625
1726995913966745900,0.878745849609375,0.776885986328125,-0.0832977294921875,-0.41851806640625
1726995913976732700,0.888732666015625,0.6644134521484375,-0.0160369873046875,-0.4819793701171875
1726995913986719700,0.8987197265625,0.6396942138671875,0.01824951171875,-0.573272705078125
1726995913996705800,0.908705810546875,0.6407012939453125,0.0375213623046875,-0.6599578857421875
1726995914006692900,0.91869287109375,0.6223297119140625,0.035888671875,-0.7142486572265625
1726995914016679000,0.928678955078125,0.608795166015625,0.026763916015625,-0.7363128662109375
1726995914026665700,0.938665771484375,0.6024932861328125,0.014892578125,-0.7506561279296875
1726995914036652800,0.94865283203125,0.6124725341796875,0.00048828125,-0.7546539306640625
1726995914046638800,0.958638916015625,0.638214111328125,-0.0130767822265625,-0.745819091796875
1726995914056626000,0.9686259765625,0.679473876953125,-0.0333404541015625,-0.731536865234375
1726995914066611700,0.97861181640625,0.72320556640625,-0.0590057373046875,-0.714508056640625
1726995914076598800,0.988598876953125,0.772918701171875,-0.0884857177734375,-0.7013702392578125
1726995914086585900,0.9985859375,0.8765106201171875,-0.094757080078125,-0.62103271484375
1726995914096571600,1.008571533203125,0.8471832275390625,-0.1229400634765625,-0.6942138671875
1726995914106558700,1.018558837890625,0.826202392578125,-0.1248931884765625,-0.6738739013671875
1726995914116544800,1.028544677734375,0.79498291015625,-0.1462249755859375,-0.63446044921875
1726995914126531800,1.03853173828125,0.7510223388671875,-0.1337738037109375,-0.587860107421875
1726995914136518700,1.0485185546875,0.72601318359375,-0.125762939453125,-0.5772552490234375
1726995914146505000,1.0585048828125,0.7115936279296875,-0.1150054931640625,-0.591064453125
1726995914156491500,1.068491455078125,0.700958251953125,-0.1151123046875,-0.652130126953125
1726995914166477600,1.0784775390625,0.673614501953125,-0.106781005859375,-0.6873321533203125
1726995914176464600,1.088464599609375,0.6807708740234375,-0.1047210693359375,-0.7343597412109375
1726995914186451700,1.09845166015625,0.6728057861328125,-0.102203369140625,-0.784698486328125
1726995914196437500,1.1084375,0.6476593017578125,-0.08770751953125,-0.8000030517578125
1726995914206424800,1.1184248046875,0.640838623046875,-0.067413330078125,-0.74835205078125
1726995914216410600,1.12841064453125,0.635894775390625,-0.07177734375,-0.7529449462890625
1726995914226397400,1.1383974609375,0.630340576171875,-0.060333251953125,-0.7649688720703125
1726995914236384500,1.148384521484375,0.64056396484375,-0.0547943115234375,-0.7682647705078125
1726995914246370600,1.15837060546875,0.66009521484375,-0.0430755615234375,-0.7540130615234375
1726995914256357600,1.168357666015625,0.6962738037109375,-0.0259246826171875,-0.781585693359375
1726995914266343700,1.17834375,0.7151336669921875,-0.0261383056640625,-0.8531494140625
1726995914276330800,1.188330810546875,0.732879638671875,-0.0125885009765625,-0.880340576171875
1726995914286317600,1.198317626953125,0.741424560546875,0.0081787109375,-0.8573150634765625
1726995914296303600,1.2083037109375,0.73602294921875,0.021514892578125,-0.8321990966796875
1726995914306290700,1.218290771484375,0.7117462158203125,0.03082275390625,-0.7919158935546875
1726995914316276500,1.2282763671875,0.6765899658203125,0.0500640869140625,-0.7340545654296875
1726995914326263600,1.238263671875,0.6470184326171875,0.0670013427734375,-0.6798248291015625
1726995914336250600,1.248250732421875,0.629669189453125,0.0810089111328125,-0.6365814208984375
1726995914346236700,1.258236572265625,0.6194000244140625,0.0951690673828125,-0.6191253662109375
1726995914356223500,1.268223388671875,0.6258544921875,0.11090087890625,-0.611083984375
1726995914366209500,1.27820947265625,0.65386962890625,0.126739501953125,-0.63616943359375
1726995914376196600,1.288196533203125,0.696563720703125,0.1352386474609375,-0.676483154296875
1726995914386183400,1.298183349609375,0.7678070068359375,0.1337738037109375,-0.7362213134765625
1726995914396169700,1.308169677734375,0.824432373046875,0.12579345703125,-0.8033905029296875
1726995914406156500,1.318156494140625,0.85064697265625,0.111480712890625,-0.825042724609375
1726995914416142600,1.328142578125,0.8359375,0.07818603515625,-0.8253173828125
1726995914426129700,1.338129638671875,0.822662353515625,0.0398101806640625,-0.8143768310546875
1726995914436116700,1.34811669921875,0.7843017578125,0.0034637451171875,-0.820526123046875
1726995914446102500,1.3581025390625,0.753692626953125,-0.0209197998046875,-0.8352508544921875
1726995914456089600,1.368089599609375,0.7146759033203125,-0.03424072265625,-0.8162841796875
1726995914466075600,1.37807568359375,0.6763458251953125,-0.04168701171875,-0.761199951171875
1726995914476062500,1.3880625,0.6628265380859375,-0.0548858642578125,-0.7247772216796875
1726995914486048800,1.398048828125,0.6502685546875,-0.07403564453125,-0.7276611328125
1726995914496035600,1.40803564453125,0.6767730712890625,-0.103302001953125,-0.719818115234375
1726995914506022700,1.418022705078125,0.7001190185546875,-0.1248016357421875,-0.696319580078125
1726995914516008700,1.4280087890625,0.7021331787109375,-0.14801025390625,-0.6791839599609375
1726995914525995500,1.43799560546875,0.6901397705078125,-0.1638946533203125,-0.684478759765625
1726995914535981600,1.447981689453125,0.671844482421875,-0.1600189208984375,-0.68865966796875
1726995914545968600,1.45796875,0.616455078125,-0.1578826904296875,-0.7019195556640625
1726995914555955700,1.467955810546875,0.5863494873046875,-0.1706085205078125,-0.763153076171875
1726995914565941500,1.47794140625,0.5225830078125,-0.1714630126953125,-0.8104400634765625
1726995914575928600,1.487928466796875,0.4477081298828125,-0.1488800048828125,-0.8350982666015625
1726995914585914600,1.49791455078125,0.3934326171875,-0.1097412109375,-0.8458404541015625
1726995914595901400,1.5079013671875,0.3387603759765625,-0.0526275634765625,-0.8714752197265625
1726995914605888500,1.517888427734375,0.26318359375,0.010498046875,-0.85101318359375
1726995914615874600,1.52787451171875,0.2444610595703125,0.09893798828125,-0.8918609619140625
1726995914625861600,1.537861572265625,0.221282958984375,0.186981201171875,-0.9455718994140625
1726995914635847700,1.54784765625,0.214752197265625,0.2310943603515625,-1.0091094970703125
1726995914645834800,1.557834716796875,0.2584991455078125,0.289947509765625,-1.053985595703125
1726995914655821600,1.567821533203125,0.3256378173828125,0.3376007080078125,-1.0662078857421875
1726995914665807600,1.5778076171875,0.4158477783203125,0.38043212890625,-1.0010528564453125
1726995914675794700,1.587794677734375,0.484954833984375,0.414093017578125,-0.9630126953125
1726995914685780500,1.597780517578125,0.51568603515625,0.447967529296875,-0.94781494140625
1726995914695767600,1.607767578125,0.5506744384765625,0.4765625,-0.9237213134765625
1726995914705754600,1.617754638671875,0.608917236328125,0.47998046875,-0.8970947265625
1726995914715740700,1.62774072265625,0.6414337158203125,0.455810546875,-0.826904296875
1726995914725727500,1.6377275390625,0.6831512451171875,0.4315948486328125,-0.768585205078125
1726995914735713800,1.6477138671875,0.7335052490234375,0.3873138427734375,-0.7105560302734375
1726995914745700600,1.65770068359375,0.766387939453125,0.3280181884765625,-0.6436614990234375
1726995914755687700,1.667687744140625,0.76739501953125,0.2965240478515625,-0.5849761962890625
1726995914765673700,1.677673828125,0.7517547607421875,0.2787017822265625,-0.537017822265625
1726995914775660500,1.68766064453125,0.7372283935546875,0.26373291015625,-0.5187225341796875
1726995914785646600,1.697646484375,0.7133331298828125,0.2481536865234375,-0.532745361328125
1726995914795633700,1.707633544921875,0.6882781982421875,0.2297210693359375,-0.5734100341796875
1726995914805620700,1.717620849609375,0.6930389404296875,0.2095184326171875,-0.615386962890625
1726995914815606500,1.7276064453125,0.69268798828125,0.1865692138671875,-0.6607818603515625
1726995914825593600,1.737593505859375,0.691650390625,0.1725921630859375,-0.7201690673828125
1726995914835579600,1.74757958984375,0.68695068359375,0.1630706787109375,-0.7902374267578125
1726995914845566500,1.75756640625,0.673248291015625,0.1691131591796875,-0.8597564697265625
1726995914855552800,1.767552734375,0.6552276611328125,0.164703369140625,-0.9168548583984375
1726995914865539600,1.77753955078125,0.6243438720703125,0.1475830078125,-0.93408203125
1726995914875526700,1.787526611328125,0.5827789306640625,0.118682861328125,-0.915008544921875
1726995914885512700,1.7975126953125,0.5570220947265625,0.097381591796875,-0.89117431640625
1726995914895499800,1.807499755859375,0.552764892578125,0.0847320556640625,-0.9051971435546875
1726995914905485600,1.817485595703125,0.5766448974609375,0.077850341796875,-0.943115234375
1726995914915472400,1.827472412109375,0.5988922119140625,0.0550537109375,-0.9389495849609375
1726995914925459700,1.837459716796875,0.5987701416015625,0.0151214599609375,-0.89910888671875
1726995914935445500,1.847445556640625,0.581085205078125,0.000762939453125,-0.8480682373046875
1726995914945432600,1.8574326171875,0.5743255615234375,-0.005584716796875,-0.83160400390625
1726995914955418600,1.867418701171875,0.590087890625,-0.017120361328125,-0.8209991455078125
1726995914965405700,1.87740576171875,0.597198486328125,-0.028350830078125,-0.7905120849609375
1726995914975392500,1.887392578125,0.6175994873046875,-0.014312744140625,-0.68817138671875
1726995914985378600,1.897378662109375,0.59027099609375,-0.031829833984375,-0.661895751953125
1726995914995365600,1.90736572265625,0.525848388671875,-0.049407958984375,-0.6529541015625
1726995915005351400,1.917351318359375,0.4922332763671875,-0.0759735107421875,-0.6498870849609375
1726995915015338800,1.9273388671875,0.475555419921875,-0.0980072021484375,-0.6406097412109375
1726995915025324500,1.937324462890625,0.4903717041015625,-0.1080322265625,-0.64801025390625
1726995915035311600,1.9473115234375,0.50567626953125,-0.1148223876953125,-0.696197509765625
1726995915045298700,1.957298583984375,0.5255584716796875,-0.1230926513671875,-0.740936279296875
1726995915055284500,1.967284423828125,0.5528411865234375,-0.13092041015625,-0.7902984619140625
1726995915065271600,1.977271484375,0.56500244140625,-0.1270599365234375,-0.8428955078125
1726995915075257600,1.987257568359375,0.5819244384765625,-0.1202392578125,-0.8919677734375
1726995915085244700,1.99724462890625,0.5812225341796875,-0.1150665283203125,-0.8951873779296875
1726995915095231500,2.0072314453125,0.5672149658203125,-0.1231231689453125,-0.87066650390625
1726995915105217800,2.0172177734375,0.54876708984375,-0.121612548828125,-0.85784912109375
1726995915115204600,2.02720458984375,0.5284881591796875,-0.105072021484375,-0.8498077392578125
1726995915125190400,2.0371904296875,0.515899658203125,-0.0715789794921875,-0.8349456787109375
1726995915135177700,2.047177734375,0.5080718994140625,-0.026214599609375,-0.8395843505859375
1726995915145164500,2.05716455078125,0.5059661865234375,0.018890380859375,-0.854888916015625
1726995915155150800,2.06715087890625,0.501556396484375,0.063385009765625,-0.8884124755859375
1726995915165138000,2.077137939453125,0.5041961669921875,0.1002044677734375,-0.920989990234375
1726995915175124000,2.0871240234375,0.5039825439453125,0.1191558837890625,-0.900665283203125
1726995915185111000,2.097111083984375,0.5088653564453125,0.1163330078125,-0.8413238525390625
1726995915195097900,2.107097900390625,0.5300750732421875,0.09454345703125,-0.7826995849609375
1726995915205084200,2.117084228515625,0.5679168701171875,0.063079833984375,-0.7474822998046875
1726995915215071000,2.127071044921875,0.6263275146484375,0.0317840576171875,-0.7415008544921875
1726995915225056800,2.137056884765625,0.680206298828125,0.016326904296875,-0.767913818359375
1726995915235044000,2.147044189453125,0.7272491455078125,0.001495361328125,-0.809783935546875
1726995915245031000,2.157031005859375,0.759307861328125,-0.0214385986328125,-0.8638763427734375
1726995915255017000,2.167016845703125,0.7553863525390625,-0.0461578369140625,-0.91302490234375
1726995915265004000,2.177004150390625,0.725494384765625,-0.074432373046875,-0.9327850341796875
1726995915274990000,2.186989990234375,0.6920623779296875,-0.1211395263671875,-0.92828369140625
1726995915284977000,2.196976806640625,0.6353607177734375,-0.1514892578125,-0.901214599609375
1726995915294963000,2.206962890625,0.5911865234375,-0.1692657470703125,-0.8423919677734375
1726995915304950000,2.216949951171875,0.551605224609375,-0.1834869384765625,-0.7918243408203125
1726995915314936800,2.226936767578125,0.53668212890625,-0.212249755859375,-0.7423858642578125
1726995915324923100,2.236923095703125,0.5353240966796875,-0.2313995361328125,-0.7130889892578125
1726995915334910000,2.246909912109375,0.53448486328125,-0.2328338623046875,-0.7113037109375
1726995915344896000,2.25689599609375,0.562042236328125,-0.2131195068359375,-0.7259368896484375
1726995915354883000,2.266883056640625,0.5854949951171875,-0.180023193359375,-0.78900146484375
1726995915364870100,2.2768701171875,0.61907958984375,-0.1519317626953125,-0.8528594970703125
1726995915374856000,2.28685595703125,0.622406005859375,-0.1211090087890625,-0.880706787109375
1726995915384842800,2.2968427734375,0.5784912109375,-0.079681396484375,-0.8617095947265625
1726995915394829000,2.3068291015625,0.535736083984375,-0.03802490234375,-0.8259735107421875
1726995915404816000,2.31681591796875,0.4956512451171875,-0.0020751953125,-0.805694580078125
1726995915414803000,2.326802978515625,0.490997314453125,0.048919677734375,-0.809967041015625
1726995915424789000,2.3367890625,0.483489990234375,0.0896759033203125,-0.82086181640625
1726995915434776000,2.346776123046875,0.4628448486328125,0.1204986572265625,-0.8648681640625
1726995915444762000,2.35676220703125,0.5004119873046875,0.15057373046875,-0.9126434326171875
1726995915454749000,2.3667490234375,0.5361480712890625,0.1819915771484375,-0.9250640869140625
1726995915464735000,2.37673486328125,0.5647125244140625,0.1837921142578125,-0.927490234375
1726995915474721800,2.3867216796875,0.62451171875,0.1760711669921875,-0.9109344482421875
1726995915484709000,2.396709228515625,0.6599578857421875,0.16650390625,-0.8711395263671875
1726995915494695000,2.40669482421875,0.7049560546875,0.1381072998046875,-0.8521575927734375
1726995915504682000,2.416681884765625,0.73394775390625,0.10748291015625,-0.8530426025390625
1726995915514668000,2.42666796875,0.7168426513671875,0.0802459716796875,-0.8663787841796875
1726995915524654800,2.43665478515625,0.6797943115234375,0.046356201171875,-0.8762664794921875
1726995915534642000,2.446641845703125,0.6503448486328125,0.044464111328125,-0.9197998046875
1726995915544628000,2.4566279296875,0.6173095703125,0.0645904541015625,-0.9293060302734375
1726995915554615000,2.466614990234375,0.5820465087890625,0.066375732421875,-0.8953704833984375
1726995915564600800,2.476600830078125,0.51507568359375,0.0712432861328125,-0.838958740234375
1726995915574588200,2.486588134765625,0.4196929931640625,0.0893707275390625,-0.782379150390625
1726995915584575000,2.496574951171875,0.3740386962890625,0.095947265625,-0.743133544921875
1726995915594560800,2.506560791015625,0.376373291015625,0.06365966796875,-0.725982666015625
1726995915604548000,2.516548095703125,0.34375,0.005645751953125,-0.7218475341796875
1726995915614534000,2.526533935546875,0.336456298828125,-0.0408782958984375,-0.7607269287109375
1726995915624521000,2.53652099609375,0.341278076171875,-0.080780029296875,-0.8250885009765625
1726995915634507000,2.546507080078125,0.36260986328125,-0.122344970703125,-0.8409423828125
1726995915644494000,2.556494140625,0.3917083740234375,-0.159820556640625,-0.8748931884765625
1726995915654481000,2.56648095703125,0.3986968994140625,-0.1962127685546875,-0.88525390625
1726995915664467200,2.57646728515625,0.4005126953125,-0.2186431884765625,-0.799713134765625
1726995915674454000,2.5864541015625,0.4402313232421875,-0.2304229736328125,-0.707183837890625
1726995915684439800,2.596439697265625,0.4759368896484375,-0.243194580078125,-0.70880126953125
1726995915694427100,2.60642724609375,0.4844818115234375,-0.2239990234375,-0.763580322265625
1726995915704414000,2.6164140625,0.60345458984375,-0.2092437744140625,-0.8212127685546875
1726995915714400000,2.62639990234375,0.706085205078125,-0.1863555908203125,-0.8852081298828125
1726995915724386800,2.63638671875,0.7454986572265625,-0.15020751953125,-0.9248809814453125
1726995915734373000,2.646373046875,0.7527313232421875,-0.08258056640625,-0.9130706787109375
1726995915744360000,2.65635986328125,0.7445831298828125,0.0042266845703125,-0.84466552734375
1726995915754347000,2.666346923828125,0.7647552490234375,0.085968017578125,-0.7770538330078125
1726995915764333000,2.6763330078125,0.7787933349609375,0.1540985107421875,-0.735443115234375
1726995915774319900,2.68631982421875,0.768035888671875,0.2003021240234375,-0.7225494384765625
1726995915784306200,2.69630615234375,0.75262451171875,0.228759765625,-0.7128143310546875
1726995915794293000,2.70629296875,0.6992340087890625,0.2247161865234375,-0.714935302734375
1726995915804280000,2.716280029296875,0.627838134765625,0.1880035400390625,-0.7061004638671875
1726995915814265900,2.726265869140625,0.580657958984375,0.142120361328125,-0.6738433837890625
1726995915824253200,2.736253173828125,0.5868988037109375,0.1024627685546875,-0.6720123291015625
1726995915834239000,2.746239013671875,0.603912353515625,0.0608978271484375,-0.7144927978515625
1726995915844225800,2.756225830078125,0.60626220703125,0.011077880859375,-0.76910400390625
1726995915854213000,2.766213134765625,0.57440185546875,-0.0473175048828125,-0.8189544677734375
1726995915864199000,2.776198974609375,0.52362060546875,-0.108489990234375,-0.842315673828125
1726995915874186000,2.78618603515625,0.5233306884765625,-0.1569366455078125,-0.8390655517578125
1726995915884172000,2.796172119140625,0.53070068359375,-0.194671630859375,-0.8288726806640625
1726995915894159000,2.8061591796875,0.53369140625,-0.2295989990234375,-0.8088226318359375
1726995915904145000,2.816144775390625,0.58038330078125,-0.2499542236328125,-0.7828216552734375
1726995915914132000,2.826132080078125,0.6412353515625,-0.2501220703125,-0.81158447265625
1726995915924119000,2.836119140625,0.6621856689453125,-0.2252197265625,-0.838897705078125
1726995915934104800,2.846104736328125,0.6384124755859375,-0.1683807373046875,-0.8543853759765625
1726995915944092200,2.856092041015625,0.6188201904296875,-0.0857696533203125,-0.839385986328125
1726995915954078000,2.866077880859375,0.5926055908203125,-0.023773193359375,-0.841796875
1726995915964065000,2.87606494140625,0.546234130859375,0.0168609619140625,-0.8474578857421875
1726995915974051800,2.8860517578125,0.5844879150390625,0.0486907958984375,-0.83319091796875
1726995915984038000,2.896037841796875,0.641876220703125,0.033477783203125,-0.8190155029296875
1726995915994025000,2.90602490234375,0.73345947265625,0.023712158203125,-0.80096435546875
1726995916004011000,2.916010986328125,0.769378662109375,0.0438690185546875,-0.8646697998046875
1726995916013998000,2.925998046875,0.7726898193359375,0.06365966796875,-0.883056640625
1726995916023985000,2.93598486328125,0.7508544921875,0.0858001708984375,-0.8626708984375
1726995916033971000,2.945970947265625,0.7320556640625,0.0921478271484375,-0.8312530517578125
1726995916043958000,2.9559580078125,0.73455810546875,0.068817138671875,-0.795135498046875
1726995916053943800,2.96594384765625,0.694305419921875,0.0138702392578125,-0.741851806640625
1726995916063931000,2.975930908203125,0.654693603515625,-0.0507659912109375,-0.6977691650390625
1726995916073918000,2.98591796875,0.628204345703125,-0.1182098388671875,-0.67803955078125
1726995916083904000,2.995904052734375,0.60845947265625,-0.177703857421875,-0.6721343994140625
1726995916093890800,3.005890869140625,0.598114013671875,-0.2187347412109375,-0.6663665771484375
1726995916103877000,3.015877197265625,0.5847930908203125,-0.23529052734375,-0.6839447021484375
1726995916113864000,3.025864013671875,0.5837249755859375,-0.2178192138671875,-0.7197418212890625
1726995916123850000,3.03585009765625,0.5781097412109375,-0.1758880615234375,-0.7553863525390625
1726995916133837000,3.045837158203125,0.5615997314453125,-0.1275787353515625,-0.7670135498046875
1726995916143824000,3.055823974609375,0.54742431640625,-0.0844268798828125,-0.7606964111328125
1726995916153810000,3.065809814453125,0.5604248046875,-0.0410614013671875,-0.7472381591796875
1726995916163797000,3.075796875,0.5811309814453125,-0.0024566650390625,-0.7522125244140625
1726995916173783000,3.085782958984375,0.603515625,0.03265380859375,-0.7532196044921875
1726995916183769900,3.095769775390625,0.6229400634765625,0.064697265625,-0.7510833740234375
1726995916193757200,3.105757080078125,0.6551666259765625,0.0945892333984375,-0.742034912109375
1726995916203743000,3.115742919921875,0.695220947265625,0.1119232177734375,-0.7525634765625
1726995916213730000,3.12572998046875,0.7417449951171875,0.1256561279296875,-0.7677154541015625
1726995916223716000,3.135716064453125,0.7919464111328125,0.1308441162109375,-0.765289306640625
1726995916233703000,3.145702880859375,0.832794189453125,0.1269378662109375,-0.729949951171875
1726995916243690000,3.15568994140625,0.8644866943359375,0.1111297607421875,-0.6988372802734375
1726995916253676000,3.165676025390625,0.89996337890625,0.0869140625,-0.688232421875
1726995916263663000,3.1756630859375,0.935272216796875,0.040435791015625,-0.6782073974609375
1726995916273649000,3.18564892578125,0.915435791015625,-0.020263671875,-0.666259765625
1726995916283636000,3.195635986328125,0.85101318359375,-0.0703125,-0.6739501953125
1726995916293623000,3.205623046875,0.766815185546875,-0.1136474609375,-0.672149658203125
1726995916303608800,3.21560888671875,0.6877899169921875,-0.1468048095703125,-0.6817474365234375
1726995916313596000,3.225595947265625,0.6384124755859375,-0.17083740234375,-0.6933135986328125
1726995916323582000,3.23558203125,0.61669921875,-0.186492919921875,-0.6866455078125
1726995916333569000,3.245569091796875,0.6143951416015625,-0.2130584716796875,-0.6942291259765625
1726995916343555000,3.25555517578125,0.614959716796875,-0.2429046630859375,-0.7010650634765625
1726995916353542100,3.265542236328125,0.634063720703125,-0.2770843505859375,-0.688140869140625
1726995916363529000,3.275529052734375,0.668060302734375,-0.2993621826171875,-0.67620849609375
1726995916373515000,3.285514892578125,0.6752777099609375,-0.3069000244140625,-0.671478271484375
1726995916383502000,3.295502197265625,0.681060791015625,-0.300384521484375,-0.68060302734375
1726995916393488000,3.30548779296875,0.6747283935546875,-0.2617034912109375,-0.70635986328125
1726995916403475000,3.315474853515625,0.6680450439453125,-0.2094268798828125,-0.727325439453125
1726995916413462000,3.3254619140625,0.6627044677734375,-0.1726226806640625,-0.7417449951171875
1726995916423448000,3.335447998046875,0.67291259765625,-0.145263671875,-0.7501068115234375
1726995916433435000,3.345434814453125,0.6922760009765625,-0.11968994140625,-0.7499542236328125
1726995916443421000,3.3554208984375,0.71685791015625,-0.0951690673828125,-0.746124267578125
1726995916453408000,3.365407958984375,0.738616943359375,-0.067718505859375,-0.7346954345703125
1726995916463394800,3.375394775390625,0.7505340576171875,-0.038360595703125,-0.7118988037109375
1726995916473381000,3.385381103515625,0.7579193115234375,-0.0129241943359375,-0.6901702880859375
1726995916483368000,3.395367919921875,0.7668609619140625,0.00994873046875,-0.679473876953125
1726995916493354000,3.40535400390625,0.7791748046875,0.02655029296875,-0.69061279296875
1726995916503341000,3.415341064453125,0.7904510498046875,0.0461273193359375,-0.719146728515625
1726995916513328000,3.425328125,0.8119354248046875,0.0675201416015625,-0.7462158203125
1726995916523314000,3.43531396484375,0.82366943359375,0.082244873046875,-0.76519775390625
1726995916533301000,3.445301025390625,0.827484130859375,0.0810546875,-0.7732696533203125
1726995916543287000,3.455287109375,0.809295654296875,0.06219482421875,-0.7429962158203125
1726995916553273900,3.46527392578125,0.7820281982421875,0.035003662109375,-0.679351806640625
1726995916563261000,3.475260986328125,0.754974365234375,-0.0082855224609375,-0.6266326904296875
1726995916573247000,3.4852470703125,0.7371826171875,-0.0430450439453125,-0.60418701171875
1726995916583234000,3.495234130859375,0.741912841796875,-0.069000244140625,-0.60211181640625
1726995916593220000,3.50522021484375,0.73345947265625,-0.0877838134765625,-0.6390380859375
1726995916603207000,3.51520703125,0.7274932861328125,-0.107177734375,-0.6733551025390625
1726995916613193000,3.52519287109375,0.72686767578125,-0.1280364990234375,-0.715362548828125
1726995916623180000,3.535179931640625,0.7145538330078125,-0.14617919921875,-0.7464447021484375
1726995916633167000,3.5451669921875,0.698822021484375,-0.1530914306640625,-0.7349700927734375
1726995916643153000,3.55515283203125,0.6688232421875,-0.14715576171875,-0.7093963623046875
1726995916653140000,3.565139892578125,0.6495819091796875,-0.1427001953125,-0.693084716796875
1726995916663126000,3.5751259765625,0.6543731689453125,-0.1402587890625,-0.6870574951171875
1726995916673112800,3.58511279296875,0.66558837890625,-0.1310882568359375,-0.69158935546875
1726995916683100000,3.595099853515625,0.6728515625,-0.119293212890625,-0.7103118896484375
1726995916693086000,3.6050859375,0.6883544921875,-0.109100341796875,-0.728607177734375
1726995916703073000,3.615072998046875,0.6969146728515625,-0.1055755615234375,-0.741424560546875
1726995916713059000,3.62505908203125,0.7061004638671875,-0.1067047119140625,-0.7404937744140625
1726995916723046100,3.635046142578125,0.7003326416015625,-0.10797119140625,-0.7397308349609375
1726995916733033000,3.645032958984375,0.6987762451171875,-0.1106414794921875,-0.744232177734375
1726995916743018800,3.655018798828125,0.703582763671875,-0.1043853759765625,-0.754058837890625
1726995916753006000,3.665006103515625,0.7023162841796875,-0.095794677734375,-0.743560791015625
1726995916762991900,3.674991943359375,0.711090087890625,-0.0959320068359375,-0.7221527099609375
1726995916772979000,3.68497900390625,0.7086029052734375,-0.099761962890625,-0.6948699951171875
1726995916782965000,3.694965087890625,0.6942291259765625,-0.111236572265625,-0.6824951171875
1726995916792952000,3.7049521484375,0.660247802734375,-0.1031646728515625,-0.6844482421875
1726995916802939000,3.71493896484375,0.6052093505859375,-0.06927490234375,-0.6845703125
1726995916812925000,3.724925048828125,0.5504150390625,-0.0350341796875,-0.70599365234375
1726995916822912000,3.734912109375,0.52593994140625,-0.0033111572265625,-0.720123291015625
1726995916832897800,3.744897705078125,0.51214599609375,0.0005035400390625,-0.7030487060546875
1726995916842885000,3.754885009765625,0.5118560791015625,0.00244140625,-0.72894287109375
1726995916852872000,3.764871826171875,0.50042724609375,0.0293426513671875,-0.75933837890625
1726995916862858000,3.77485791015625,0.5077972412109375,0.05291748046875,-0.775634765625
1726995916872845000,3.784844970703125,0.51702880859375,0.0722503662109375,-0.76470947265625
1726995916882831000,3.7948310546875,0.54351806640625,0.0831451416015625,-0.758941650390625
1726995916892818000,3.80481787109375,0.583587646484375,0.0827178955078125,-0.7628936767578125
1726995916902805000,3.814804931640625,0.619842529296875,0.0809173583984375,-0.7784881591796875
1726995916912791000,3.824791015625,0.6463623046875,0.07940673828125,-0.7921142578125
1726995916922777900,3.83477783203125,0.6584625244140625,0.0838623046875,-0.785400390625
1726995916932764200,3.84476416015625,0.6623992919921875,0.1003570556640625,-0.771514892578125
1726995916942751000,3.8547509765625,0.66534423828125,0.1156158447265625,-0.7554168701171875
1726995916952738000,3.864738037109375,0.6513671875,0.1328125,-0.7286834716796875
1726995916962724000,3.87472412109375,0.63983154296875,0.159942626953125,-0.6902008056640625
1726995916972711200,3.884711181640625,0.63238525390625,0.19183349609375,-0.6537933349609375
1726995916982697000,3.894697021484375,0.6356353759765625,0.219879150390625,-0.6289825439453125
1726995916992683800,3.904683837890625,0.6491851806640625,0.245025634765625,-0.615325927734375
1726995917002671000,3.914671142578125,0.6785125732421875,0.261810302734375,-0.61505126953125
1726995917012657000,3.924656982421875,0.7170867919921875,0.2708587646484375,-0.6211090087890625
1726995917022644000,3.93464404296875,0.774383544921875,0.259429931640625,-0.6246337890625
1726995917032630000,3.944630126953125,0.825897216796875,0.25,-0.634002685546875
1726995917042617000,3.9546171875,0.86163330078125,0.25030517578125,-0.6522064208984375
1726995917052603000,3.964602783203125,0.851318359375,0.248291015625,-0.6737213134765625
1726995917062590000,3.97458984375,0.7942962646484375,0.237762451171875,-0.6924285888671875
1726995917072577000,3.984576904296875,0.7360687255859375,0.226226806640625,-0.705963134765625
1726995917082562800,3.994562744140625,0.6895294189453125,0.221160888671875,-0.7255859375
1726995917092550100,4.004550048828125,0.6469573974609375,0.219207763671875,-0.7195587158203125
1726995917102536000,4.014535888671875,0.6218414306640625,0.213470458984375,-0.7071990966796875
1726995917112523000,4.02452294921875,0.617523193359375,0.2068634033203125,-0.7041473388671875
1726995917122510000,4.034510009765625,0.6153106689453125,0.1931610107421875,-0.702423095703125
1726995917132496000,4.044495849609375,0.62738037109375,0.1738128662109375,-0.686737060546875
1726995917142483000,4.05448291015625,0.6456298828125,0.1435089111328125,-0.67327880859375
1726995917152468700,4.06446875,0.6790313720703125,0.111358642578125,-0.6602935791015625
1726995917162455600,4.07445556640625,0.7057952880859375,0.07568359375,-0.6542205810546875
1726995917172442600,4.084442626953125,0.741668701171875,0.0503082275390625,-0.643646240234375
1726995917182428700,4.0944287109375,0.780029296875,0.037261962890625,-0.637664794921875
1726995917192415700,4.104415771484375,0.7895660400390625,0.0447540283203125,-0.6328887939453125
1726995917202401500,4.114401611328125,0.785675048828125,0.0678863525390625,-0.636993408203125
1726995917212388600,4.124388671875,0.77069091796875,0.092498779296875,-0.6493988037109375
1726995917222375700,4.134375732421875,0.7613067626953125,0.1197967529296875,-0.6685028076171875
1726995917232361500,4.144361572265625,0.7529449462890625,0.1313629150390625,-0.6873016357421875
1726995917242348500,4.1543486328125,0.7471466064453125,0.130767822265625,-0.7063140869140625
1726995917252334600,4.16433447265625,0.747222900390625,0.1146697998046875,-0.716705322265625
1726995917262321700,4.17432177734375,0.742340087890625,0.100067138671875,-0.7069854736328125
1726995917272307700,4.1843076171875,0.730010986328125,0.0871429443359375,-0.7035064697265625
1726995917282294500,4.19429443359375,0.72216796875,0.0788421630859375,-0.709686279296875
1726995917292281600,4.204281494140625,0.707672119140625,0.08123779296875,-0.7073516845703125
1726995917302267600,4.214267578125,0.6995697021484375,0.0824127197265625,-0.7074737548828125
1726995917312254700,4.224254638671875,0.697418212890625,0.0815582275390625,-0.70458984375
1726995917322240500,4.234240478515625,0.6934661865234375,0.0795440673828125,-0.6970062255859375
1726995917332227600,4.2442275390625,0.6979217529296875,0.07391357421875,-0.697662353515625
1726995917342214700,4.254214599609375,0.72747802734375,0.080963134765625,-0.71917724609375
1726995917352200400,4.264200439453125,0.7313385009765625,0.0933990478515625,-0.77508544921875
1726995917362187500,4.2741875,0.71990966796875,0.1044921875,-0.81787109375
1726995917372173600,4.284173583984375,0.70770263671875,0.1049041748046875,-0.8265380859375
1726995917382160600,4.29416064453125,0.6845855712890625,0.101959228515625,-0.81768798828125
1726995917392147500,4.3041474609375,0.667816162109375,0.1012115478515625,-0.8074188232421875
1726995917402133800,4.3141337890625,0.661834716796875,0.0994415283203125,-0.7805633544921875
1726995917412120600,4.32412060546875,0.6454315185546875,0.1022186279296875,-0.75079345703125
1726995917422106600,4.334106689453125,0.62542724609375,0.1085662841796875,-0.73736572265625
1726995917432093700,4.34409375,0.612213134765625,0.1172027587890625,-0.7162322998046875
1726995917442080500,4.35408056640625,0.6191253662109375,0.1237335205078125,-0.699554443359375
1726995917452066600,4.364066650390625,0.636627197265625,0.128082275390625,-0.687225341796875
1726995917462053600,4.3740537109375,0.6715545654296875,0.1298828125,-0.6853179931640625
1726995917472039700,4.384039794921875,0.7275390625,0.1226654052734375,-0.690948486328125
1726995917482026500,4.394026611328125,0.7875518798828125,0.1133270263671875,-0.705902099609375
1726995917492012500,4.404012451171875,0.823944091796875,0.1048583984375,-0.703765869140625
1726995917501999600,4.41399951171875,0.83026123046875,0.0876312255859375,-0.6941375732421875
1726995917511986400,4.423986328125,0.813751220703125,0.069427490234375,-0.6774139404296875
1726995917521972700,4.43397265625,0.7943267822265625,0.0500030517578125,-0.6653900146484375
1726995917531959600,4.44395947265625,0.761505126953125,0.0342559814453125,-0.684478759765625
1726995917541945600,4.453945556640625,0.7213897705078125,0.0301055908203125,-0.7317657470703125
1726995917551932700,4.4639326171875,0.689422607421875,0.0418853759765625,-0.7898712158203125
1726995917561919700,4.473919677734375,0.674346923828125,0.0581512451171875,-0.8238372802734375
1726995917571905500,4.483905517578125,0.665252685546875,0.0660552978515625,-0.8403472900390625
1726995917581892600,4.493892578125,0.658843994140625,0.0670013427734375,-0.83587646484375
1726995917591878700,4.503878662109375,0.6384429931640625,0.0615692138671875,-0.8307952880859375
1726995917601865500,4.513865478515625,0.6271820068359375,0.066253662109375,-0.820892333984375
1726995917611852500,4.5238525390625,0.6240386962890625,0.0637359619140625,-0.8052215576171875
1726995917621838600,4.533838623046875,0.61737060546875,0.0592498779296875,-0.7888641357421875
1726995917631825700,4.54382568359375,0.61968994140625,0.0562591552734375,-0.760711669921875
1726995917641811700,4.553811767578125,0.6163177490234375,0.045196533203125,-0.746429443359375
1726995917651798500,4.563798583984375,0.59466552734375,0.0428314208984375,-0.7350921630859375
1726995917661785600,4.57378564453125,0.563018798828125,0.0492095947265625,-0.732391357421875
1726995917671771600,4.583771728515625,0.574554443359375,0.0560302734375,-0.73992919921875
1726995917681758700,4.5937587890625,0.58392333984375,0.0610809326171875,-0.7415924072265625
1726995917691744500,4.60374462890625,0.59149169921875,0.06414794921875,-0.7429962158203125
1726995917701731600,4.613731689453125,0.58868408203125,0.0643157958984375,-0.7316741943359375
1726995917711718700,4.62371875,0.5662841796875,0.0652313232421875,-0.7353515625
1726995917721704700,4.63370458984375,0.5716705322265625,0.0789947509765625,-0.7407073974609375
1726995917731691500,4.64369140625,0.589569091796875,0.101043701171875,-0.7504119873046875
1726995917741677600,4.653677490234375,0.5508880615234375,0.1162872314453125,-0.7611846923828125
1726995917751664600,4.66366455078125,0.528564453125,0.120452880859375,-0.740142822265625
1726995917761651500,4.6736513671875,0.5150299072265625,0.13031005859375,-0.7535858154296875
1726995917771637800,4.6836376953125,0.499481201171875,0.1239166259765625,-0.7254180908203125
1726995917781624600,4.69362451171875,0.4991912841796875,0.1164398193359375,-0.710479736328125
1726995917791610600,4.703610595703125,0.513336181640625,0.111846923828125,-0.7289886474609375
1726995917801597700,4.71359765625,0.576568603515625,0.1190185546875,-0.73626708984375
1726995917811584800,4.723584716796875,0.635589599609375,0.1428680419921875,-0.75537109375
1726995917821570600,4.733570556640625,0.6820526123046875,0.157684326171875,-0.7791595458984375
1726995917831557600,4.7435576171875,0.7150726318359375,0.1491241455078125,-0.8070831298828125
1726995917841543700,4.753543701171875,0.742095947265625,0.1351165771484375,-0.8262481689453125
1726995917851530500,4.763530517578125,0.7728118896484375,0.11358642578125,-0.82183837890625
1726995917861517600,4.773517578125,0.7989349365234375,0.0906524658203125,-0.812286376953125
1726995917871503600,4.783503662109375,0.8407135009765625,0.0765228271484375,-0.8045806884765625
1726995917881490700,4.79349072265625,0.881744384765625,0.0602874755859375,-0.7848968505859375
1726995917891476700,4.803476806640625,0.90283203125,0.034912109375,-0.7623138427734375
1726995917901463600,4.813463623046875,0.9063568115234375,0.018096923828125,-0.7368316650390625
1726995917911450600,4.82345068359375,0.8756561279296875,-0.007568359375,-0.710479736328125
1726995917921436700,4.833436767578125,0.833526611328125,-0.0343780517578125,-0.676788330078125
1726995917931423700,4.843423828125,0.7876739501953125,-0.054443359375,-0.6536102294921875
1726995917941409500,4.853409423828125,0.7589569091796875,-0.0686492919921875,-0.6390228271484375
1726995917951396600,4.863396728515625,0.7293853759765625,-0.07244873046875,-0.6460113525390625
1726995917961383700,4.8733837890625,0.7083892822265625,-0.0789642333984375,-0.6673126220703125
1726995917971369500,4.883369384765625,0.6939239501953125,-0.0858612060546875,-0.6879730224609375
1726995917981356500,4.8933564453125,0.692596435546875,-0.08184814453125,-0.7178497314453125
1726995917991342600,4.903342529296875,0.6880340576171875,-0.0796661376953125,-0.754852294921875
1726995918001329700,4.91332958984375,0.704376220703125,-0.094940185546875,-0.7871856689453125
1726995918011316500,4.92331640625,0.7127532958984375,-0.09765625,-0.7906494140625
1726995918021302800,4.933302734375,0.7038421630859375,-0.1089019775390625,-0.8009033203125
1726995918031289600,4.94328955078125,0.6702117919921875,-0.12982177734375,-0.7844085693359375
1726995918041275400,4.953275390625,0.6388397216796875,-0.1569976806640625,-0.7584075927734375
1726995918051262700,4.9632626953125,0.644287109375,-0.1585540771484375,-0.726959228515625
1726995918061249500,4.97324951171875,0.661468505859375,-0.160797119140625,-0.7234649658203125
1726995918071235600,4.983235595703125,0.7015380859375,-0.15252685546875,-0.760894775390625
1726995918081222700,4.99322265625,0.741058349609375,-0.1374969482421875,-0.8151397705078125
1726995918091208700,5.003208740234375,0.7588043212890625,-0.113037109375,-0.8536376953125
1726995918101195500,5.013195556640625,0.7629547119140625,-0.1028289794921875,-0.855194091796875
1726995918111182600,5.0231826171875,0.73809814453125,-0.09124755859375,-0.8387603759765625
1726995918121168600,5.033168701171875,0.719451904296875,-0.071319580078125,-0.838714599609375
1726995918131155500,5.043155517578125,0.686370849609375,-0.0429840087890625,-0.8501739501953125
1726995918141141800,5.053141845703125,0.628326416015625,-0.0125732421875,-0.850341796875
1726995918151128600,5.063128662109375,0.5677642822265625,0.033172607421875,-0.856842041015625
1726995918161116200,5.0731162109375,0.518798828125,0.06097412109375,-0.876190185546875
1726995918171102200,5.083102294921875,0.4993133544921875,0.07208251953125,-0.90264892578125
1726995918181089300,5.09308935546875,0.4815216064453125,0.109588623046875,-0.9442138671875
1726995918191075300,5.103075439453125,0.472442626953125,0.1499786376953125,-0.9517822265625
1726995918201062100,5.113062255859375,0.4975433349609375,0.1759033203125,-0.960784912109375
1726995918211049200,5.12304931640625,0.515045166015625,0.17474365234375,-0.949615478515625
1726995918221035300,5.13303515625,0.5276947021484375,0.1628570556640625,-0.9580535888671875
1726995918231022000,5.14302197265625,0.5129852294921875,0.136138916015625,-0.9631500244140625
1726995918241008400,5.15300830078125,0.4712066650390625,0.135589599609375,-0.940826416015625
1726995918250995200,5.1629951171875,0.4455413818359375,0.12542724609375,-0.90887451171875
1726995918260982300,5.172982177734375,0.3810577392578125,0.132843017578125,-0.8498687744140625
1726995918270968300,5.18296826171875,0.3554534912109375,0.125518798828125,-0.8043212890625
1726995918280955400,5.192955322265625,0.3676910400390625,0.1250152587890625,-0.75146484375
1726995918290941200,5.202941162109375,0.3912353515625,0.1264190673828125,-0.70257568359375
1726995918300928000,5.212927978515625,0.436309814453125,0.1300506591796875,-0.6443023681640625
1726995918310915300,5.222915283203125,0.4727630615234375,0.1338653564453125,-0.608306884765625
1726995918320901000,5.232901123046875,0.510162353515625,0.12896728515625,-0.5731201171875
1726995918330888200,5.24288818359375,0.5447845458984375,0.1219329833984375,-0.531707763671875
1726995918340874200,5.252874267578125,0.5821990966796875,0.12255859375,-0.49713134765625
1726995918350861300,5.262861328125,0.6326904296875,0.1222991943359375,-0.47821044921875
1726995918360848100,5.27284814453125,0.6781158447265625,0.1235198974609375,-0.4765777587890625
1726995918370834200,5.282834228515625,0.6912994384765625,0.122802734375,-0.4768218994140625
1726995918380821200,5.2928212890625,0.67803955078125,0.1191558837890625,-0.4845123291015625
1726995918390807000,5.30280712890625,0.6443328857421875,0.119720458984375,-0.493560791015625
1726995918400794400,5.31279443359375,0.622711181640625,0.125823974609375,-0.5054931640625
1726995918410781200,5.32278125,0.62152099609375,0.1279296875,-0.523406982421875
1726995918420767200,5.332767333984375,0.6329193115234375,0.12518310546875,-0.53558349609375
1726995918430754300,5.34275439453125,0.639373779296875,0.1169281005859375,-0.545562744140625
1726995918440740400,5.352740234375,0.635650634765625,0.1102752685546875,-0.5632476806640625
1726995918450727200,5.36272705078125,0.6420440673828125,0.11016845703125,-0.5883636474609375
1726995918460714200,5.37271435546875,0.6499786376953125,0.115631103515625,-0.6295013427734375
1726995918470700300,5.3827001953125,0.656219482421875,0.1384429931640625,-0.6811676025390625
1726995918480687000,5.39268701171875,0.6747894287109375,0.1875762939453125,-0.7566680908203125
1726995918490673400,5.40267333984375,0.6770477294921875,0.2468719482421875,-0.8519744873046875
1726995918500660200,5.41266015625,0.6749725341796875,0.3085174560546875,-0.9353179931640625
1726995918510647300,5.422647216796875,0.6604156494140625,0.35662841796875,-1.02069091796875
1726995918520633300,5.43263330078125,0.66278076171875,0.3953857421875,-1.0807952880859375
1726995918530620400,5.442620361328125,0.6617279052734375,0.3879547119140625,-1.123748779296875
1726995918540606200,5.452606201171875,0.6556854248046875,0.337493896484375,-1.1257781982421875
1726995918550593000,5.462593017578125,0.66461181640625,0.2375946044921875,-1.092864990234375
1726995918560580400,5.472580322265625,0.6788482666015625,0.146240234375,-1.0045928955078125
1726995918570566100,5.482566162109375,0.688262939453125,0.055908203125,-0.9143524169921875
1726995918580553200,5.49255322265625,0.7291259765625,0.001190185546875,-0.8419952392578125
1726995918590539300,5.502539306640625,0.76904296875,-0.0298309326171875,-0.80615234375
1726995918600526300,5.5125263671875,0.7798309326171875,-0.0573577880859375,-0.78070068359375
1726995918610513200,5.52251318359375,0.7717437744140625,-0.07672119140625,-0.75390625
1726995918620499200,5.532499267578125,0.752227783203125,-0.096405029296875,-0.7277984619140625
1726995918630486300,5.542486328125,0.73834228515625,-0.112274169921875,-0.720458984375
1726995918640472000,5.55247216796875,0.720733642578125,-0.1212921142578125,-0.71942138671875
1726995918650459400,5.56245947265625,0.700927734375,-0.1218719482421875,-0.7292327880859375
1726995918660446200,5.5724462890625,0.682098388671875,-0.119384765625,-0.7552642822265625
1726995918670432300,5.582432373046875,0.663055419921875,-0.1215972900390625,-0.8009490966796875
1726995918680419300,5.59241943359375,0.6477813720703125,-0.1148834228515625,-0.8210601806640625
1726995918690405000,5.602405029296875,0.63140869140625,-0.1100616455078125,-0.8054656982421875
1726995918700392200,5.61239208984375,0.614532470703125,-0.119842529296875,-0.809600830078125
1726995918710379000,5.62237890625,0.5738677978515625,-0.1248931884765625,-0.829254150390625
1726995918720365300,5.632365234375,0.5388336181640625,-0.1318206787109375,-0.84625244140625
1726995918730352000,5.64235205078125,0.518951416015625,-0.1351165771484375,-0.855743408203125
1726995918740338400,5.65233837890625,0.4956512451171875,-0.1358642578125,-0.8609466552734375
1726995918750325200,5.6623251953125,0.4963226318359375,-0.125823974609375,-0.865875244140625
1726995918760312300,5.672312255859375,0.4956207275390625,-0.118408203125,-0.8647308349609375
1726995918770298400,5.68229833984375,0.5149383544921875,-0.1191253662109375,-0.845916748046875
1726995918780285200,5.69228515625,0.5436553955078125,-0.1205596923828125,-0.8227691650390625
1726995918790271200,5.702271240234375,0.553009033203125,-0.115997314453125,-0.806640625
1726995918800258000,5.712258056640625,0.5581512451171875,-0.097442626953125,-0.8040924072265625
1726995918810245400,5.722245361328125,0.558074951171875,-0.0657806396484375,-0.8083648681640625
1726995918820231200,5.732231201171875,0.577972412109375,-0.0309906005859375,-0.8245697021484375
1726995918830218200,5.74221826171875,0.596099853515625,0.0158233642578125,-0.8411102294921875
1726995918840204300,5.752204345703125,0.6048583984375,0.046295166015625,-0.8441619873046875
1726995918850191000,5.762191162109375,0.590972900390625,0.07049560546875,-0.8308563232421875
1726995918860178200,5.77217822265625,0.591278076171875,0.0771026611328125,-0.808135986328125
1726995918870164200,5.782164306640625,0.5806732177734375,0.0771484375,-0.7935791015625
1726995918880151300,5.7921513671875,0.564605712890625,0.055084228515625,-0.7895050048828125
1726995918890137000,5.80213720703125,0.575836181640625,0.0241546630859375,-0.75128173828125
1726995918900124400,5.81212451171875,0.5706787109375,0.002777099609375,-0.725067138671875
1726995918910111200,5.822111328125,0.5349578857421875,-0.0211944580078125,-0.7041015625
1726995918920097000,5.832096923828125,0.4950408935546875,-0.0416717529296875,-0.7086944580078125
1726995918930084400,5.84208447265625,0.4759521484375,-0.0668487548828125,-0.735137939453125
1726995918940070100,5.852070068359375,0.4795684814453125,-0.0938720703125,-0.76123046875
1726995918950057200,5.86205712890625,0.513519287109375,-0.1138153076171875,-0.75616455078125
1726995918960044000,5.8720439453125,0.5476226806640625,-0.105743408203125,-0.7585296630859375
1726995918970030300,5.8820302734375,0.5733642578125,-0.097686767578125,-0.7540435791015625
1726995918980017200,5.89201708984375,0.595306396484375,-0.0932159423828125,-0.7556304931640625
1726995918990003500,5.90200341796875,0.609527587890625,-0.07806396484375,-0.7640533447265625
1726995918999990300,5.911990234375,0.63385009765625,-0.061309814453125,-0.7697296142578125
1726995919009977300,5.921977294921875,0.656219482421875,-0.0370941162109375,-0.77691650390625
1726995919019963400,5.93196337890625,0.676513671875,-0.016082763671875,-0.797210693359375
1726995919029950200,5.9419501953125,0.694915771484375,-0.0063018798828125,-0.81536865234375
1726995919039936300,5.951936279296875,0.710723876953125,-0.0058441162109375,-0.8155059814453125
1726995919049923000,5.961923095703125,0.7286224365234375,-0.0088348388671875,-0.8057708740234375
1726995919059909400,5.971909423828125,0.7432708740234375,-0.0197296142578125,-0.7903594970703125
1726995919069896200,5.981896240234375,0.7565460205078125,-0.0347900390625,-0.7688446044921875
1726995919079883300,5.99188330078125,0.748077392578125,-0.0569915771484375,-0.748931884765625
1726995919089869300,6.001869384765625,0.7581329345703125,-0.0796661376953125,-0.7259368896484375
1726995919099856100,6.011856201171875,0.7589569091796875,-0.1038665771484375,-0.708404541015625
1726995919109842200,6.02184228515625,0.7604827880859375,-0.1309967041015625,-0.70123291015625
1726995919119829200,6.031829345703125,0.7719573974609375,-0.155792236328125,-0.7079620361328125
1726995919129816300,6.04181640625,0.76959228515625,-0.170867919921875,-0.72802734375
1726995919139802000,6.051802001953125,0.77783203125,-0.1814727783203125,-0.747039794921875
1726995919149789400,6.06178955078125,0.773895263671875,-0.1897125244140625,-0.7535858154296875
1726995919159775500,6.071775390625,0.7509765625,-0.1911773681640625,-0.75579833984375
1726995919169762300,6.08176220703125,0.7006072998046875,-0.167755126953125,-0.759796142578125
1726995919179749400,6.091749267578125,0.662078857421875,-0.1602935791015625,-0.7658538818359375
1726995919189735400,6.1017353515625,0.657989501953125,-0.147857666015625,-0.76904296875
1726995919199722500,6.111722412109375,0.6419219970703125,-0.125457763671875,-0.8015289306640625
1726995919209708500,6.12170849609375,0.6604461669921875,-0.1141815185546875,-0.8367919921875
1726995919219695600,6.131695556640625,0.6753387451171875,-0.0941314697265625,-0.8593597412109375
1726995919229682400,6.141682373046875,0.6727294921875,-0.0854644775390625,-0.8781585693359375
1726995919239668500,6.15166845703125,0.66162109375,-0.072540283203125,-0.8623809814453125
1726995919249655600,6.161655517578125,0.6561431884765625,-0.069091796875,-0.8390655517578125
1726995919259641300,6.171641357421875,0.65765380859375,-0.06304931640625,-0.8339691162109375
1726995919269628400,6.18162841796875,0.650970458984375,-0.055023193359375,-0.85723876953125
1726995919279615500,6.191615478515625,0.6240234375,-0.0337371826171875,-0.8897705078125
1726995919289601500,6.2016015625,0.6043701171875,-0.0225067138671875,-0.918670654296875
1726995919299588400,6.21158837890625,0.568878173828125,0.0083160400390625,-0.9560089111328125
1726995919309574400,6.221574462890625,0.5189971923828125,0.0032196044921875,-0.9470672607421875
1726995919319561500,6.2315615234375,0.467193603515625,0.0023956298828125,-0.9456939697265625
1726995919329548500,6.241548583984375,0.4283905029296875,0.0324859619140625,-0.9372711181640625
1726995919339534600,6.25153466796875,0.3425750732421875,0.0561676025390625,-0.9291229248046875
1726995919349521400,6.261521484375,0.316131591796875,0.0839996337890625,-0.8961944580078125
1726995919359507500,6.271507568359375,0.27325439453125,0.090118408203125,-0.8536529541015625
1726995919369494500,6.28149462890625,0.2247467041015625,0.11724853515625,-0.804443359375
1726995919379481600,6.291481689453125,0.2101287841796875,0.1437835693359375,-0.773712158203125
1726995919389467400,6.30146728515625,0.27069091796875,0.152252197265625,-0.7650299072265625
1726995919399454700,6.311454833984375,0.38397216796875,0.1632080078125,-0.7211151123046875
1726995919409440500,6.3214404296875,0.44671630859375,0.169708251953125,-0.6839141845703125
1726995919419427300,6.33142724609375,0.523773193359375,0.171844482421875,-0.616180419921875
1726995919429414400,6.341414306640625,0.569915771484375,0.1601409912109375,-0.5430908203125
1726995919439400400,6.351400390625,0.619781494140625,0.1339569091796875,-0.4932861328125
1726995919449387500,6.361387451171875,0.644287109375,0.1123504638671875,-0.4726104736328125
1726995919459373600,6.37137353515625,0.641632080078125,0.1086883544921875,-0.4675140380859375
1726995919469360600,6.381360595703125,0.6199798583984375,0.119384765625,-0.482757568359375
1726995919479347500,6.391347412109375,0.58709716796875,0.1370086669921875,-0.5087890625
1726995919489333500,6.40133349609375,0.5769500732421875,0.147430419921875,-0.5193939208984375
1726995919499320600,6.411320556640625,0.5805511474609375,0.172210693359375,-0.5472869873046875
1726995919509306400,6.421306396484375,0.60833740234375,0.1937713623046875,-0.590850830078125
1726995919519293400,6.43129345703125,0.638671875,0.219970703125,-0.6348114013671875
1726995919529280500,6.441280517578125,0.654937744140625,0.2492828369140625,-0.6947174072265625
1726995919539266600,6.4512666015625,0.6868896484375,0.281158447265625,-0.76605224609375
1726995919549253400,6.46125341796875,0.718017578125,0.3071136474609375,-0.846466064453125
1726995919559239400,6.471239501953125,0.755279541015625,0.330535888671875,-0.951934814453125
1726995919569226500,6.4812265625,0.776275634765625,0.3319244384765625,-1.02911376953125
1726995919579213300,6.49121337890625,0.7846527099609375,0.306365966796875,-1.051971435546875
1726995919589199600,6.50119970703125,0.7725372314453125,0.2449798583984375,-1.01959228515625
1726995919599186400,6.5111865234375,0.778778076171875,0.1579437255859375,-0.9601287841796875
1726995919609172500,6.52117236328125,0.7643585205078125,0.093536376953125,-0.8784942626953125
1726995919619159600,6.53115966796875,0.763427734375,0.0235443115234375,-0.8250274658203125
1726995919629146600,6.541146728515625,0.79132080078125,-0.034271240234375,-0.7957611083984375
1726995919639132400,6.55113232421875,0.7820281982421875,-0.077880859375,-0.763458251953125
1726995919649119500,6.561119384765625,0.7608642578125,-0.1125030517578125,-0.7341156005859375
1726995919659105500,6.57110546875,0.7488555908203125,-0.1322479248046875,-0.7147979736328125
1726995919669092400,6.58109228515625,0.72705078125,-0.1431121826171875,-0.7108001708984375
1726995919679079400,6.591079345703125,0.6964569091796875,-0.1443328857421875,-0.7211151123046875
1726995919689065500,6.6010654296875,0.6748199462890625,-0.1347808837890625,-0.7503662109375
1726995919699052500,6.611052490234375,0.65582275390625,-0.1291046142578125,-0.7736968994140625
1726995919709038600,6.62103857421875,0.6345672607421875,-0.120758056640625,-0.8022918701171875
1726995919719025400,6.631025390625,0.620025634765625,-0.1112213134765625,-0.8285064697265625
1726995919729012500,6.641012451171875,0.6204986572265625,-0.106292724609375,-0.8438720703125
1726995919738998500,6.65099853515625,0.6280364990234375,-0.104888916015625,-0.8658905029296875
1726995919748985600,6.660985595703125,0.6141357421875,-0.0971832275390625,-0.87738037109375
1726995919758971400,6.670971435546875,0.581817626953125,-0.1005401611328125,-0.8608856201171875
1726995919768958500,6.68095849609375,0.5390777587890625,-0.1059417724609375,-0.844024658203125
1726995919778945500,6.690945556640625,0.5282135009765625,-0.101165771484375,-0.8325042724609375
1726995919788931300,6.700931396484375,0.52691650390625,-0.086822509765625,-0.832366943359375
1726995919798918400,6.71091845703125,0.5219573974609375,-0.076568603515625,-0.844512939453125
1726995919808904400,6.720904541015625,0.52947998046875,-0.070587158203125,-0.84368896484375
1726995919818891500,6.7308916015625,0.5372772216796875,-0.06182861328125,-0.845001220703125
1726995919828877600,6.740877685546875,0.536376953125,-0.05218505859375,-0.8460235595703125
1726995919838864600,6.75086474609375,0.542755126953125,-0.049774169921875,-0.834869384765625
1726995919848851500,6.7608515625,0.5432891845703125,-0.0509033203125,-0.832122802734375
1726995919858837200,6.770837158203125,0.5447845458984375,-0.0345611572265625,-0.8177490234375
1726995919868824600,6.780824462890625,0.5485382080078125,-0.0225372314453125,-0.781707763671875
1726995919878810400,6.790810302734375,0.5765228271484375,-0.0045013427734375,-0.7503509521484375
1726995919888797400,6.80079736328125,0.5966949462890625,0.006866455078125,-0.7574462890625
1726995919898784500,6.810784423828125,0.6224517822265625,-0.0004119873046875,-0.7558135986328125
1726995919908770600,6.8207705078125,0.6302490234375,-0.0170135498046875,-0.731842041015625
1726995919918757400,6.83075732421875,0.608856201171875,-0.0259552001953125,-0.7271881103515625
1726995919928743400,6.840743408203125,0.5927581787109375,-0.0458831787109375,-0.73101806640625
1726995919938730500,6.85073046875,0.587615966796875,-0.0616607666015625,-0.7493438720703125
1726995919948717600,6.860717529296875,0.572052001953125,-0.0699615478515625,-0.7620849609375
1726995919958703600,6.87070361328125,0.546234130859375,-0.07879638671875,-0.7679443359375
1726995919968690400,6.8806904296875,0.515380859375,-0.0932159423828125,-0.7776031494140625
1726995919978676500,6.890676513671875,0.47906494140625,-0.0970916748046875,-0.7839508056640625
1726995919988663600,6.90066357421875,0.4662017822265625,-0.0892486572265625,-0.791595458984375
1726995919998650600,6.910650634765625,0.4815673828125,-0.0760650634765625,-0.8099517822265625
1726995920008636400,6.920636474609375,0.519775390625,-0.06719970703125,-0.8339385986328125
1726995920018623500,6.93062353515625,0.559051513671875,-0.060577392578125,-0.8354644775390625
1726995920028609500,6.940609619140625,0.5892333984375,-0.054779052734375,-0.8088836669921875
1726995920038596400,6.950596435546875,0.612518310546875,-0.043609619140625,-0.77850341796875
1726995920048583400,6.96058349609375,0.63043212890625,-0.0328369140625,-0.7612152099609375
1726995920058569500,6.970569580078125,0.649078369140625,-0.02117919921875,-0.7641754150390625
1726995920068556500,6.980556640625,0.6783905029296875,-0.009796142578125,-0.770751953125
1726995920078542600,6.99054248046875,0.7142486572265625,-0.000274658203125,-0.7721710205078125
1726995920088529700,7.00052978515625,0.7454986572265625,0.014190673828125,-0.7637176513671875
1726995920098516500,7.0105166015625,0.7689056396484375,0.02630615234375,-0.754241943359375
1726995920108502300,7.020502197265625,0.7897796630859375,0.032257080078125,-0.7526397705078125
1726995920118489600,7.030489501953125,0.791656494140625,0.0350341796875,-0.7545318603515625
1726995920128475400,7.040475341796875,0.78662109375,0.03326416015625,-0.7487335205078125
1726995920138462500,7.05046240234375,0.7806396484375,0.033447265625,-0.7265472412109375
1726995920148449500,7.060449462890625,0.785186767578125,0.0296478271484375,-0.69989013671875
1726995920158434800,7.070434814453125,0.78704833984375,0.02105712890625,-0.6845245361328125
1726995920168421600,7.080421630859375,0.786224365234375,0.0126190185546875,-0.67626953125
1726995920178407700,7.09040771484375,0.7898712158203125,0.0013275146484375,-0.6767425537109375
1726995920188394800,7.100394775390625,0.7840118408203125,-0.01275634765625,-0.6783447265625
1726995920198381600,7.110381591796875,0.777099609375,-0.0210113525390625,-0.681365966796875
1726995920208367900,7.120367919921875,0.772308349609375,-0.0328826904296875,-0.707794189453125
1726995920218354700,7.130354736328125,0.77813720703125,-0.0404205322265625,-0.7398529052734375
1726995920228341000,7.140341064453125,0.7739105224609375,-0.06121826171875,-0.764434814453125
1726995920238327800,7.150327880859375,0.790618896484375,-0.0765380859375,-0.8047332763671875
1726995920248315000,7.16031494140625,0.784210205078125,-0.0820465087890625,-0.8618927001953125
1726995920258300700,7.17030078125,0.7617645263671875,-0.0833282470703125,-0.8704833984375
1726995920268287700,7.180287841796875,0.737213134765625,-0.0894927978515625,-0.918426513671875
1726995920278273800,7.190273681640625,0.7290191650390625,-0.0886993408203125,-0.9821014404296875
1726995920288260600,7.200260498046875,0.684173583984375,-0.085052490234375,-1.012939453125
1726995920298247000,7.210246826171875,0.609771728515625,-0.0998687744140625,-1.052215576171875
1726995920308233700,7.220233642578125,0.56781005859375,-0.1299285888671875,-1.135772705078125
1726995920318220800,7.230220703125,0.4587249755859375,-0.1041259765625,-1.098175048828125
1726995920328206800,7.240206787109375,0.33648681640625,-0.06414794921875,-1.019866943359375
1726995920338193700,7.250193603515625,0.2198333740234375,-0.0184326171875,-0.94207763671875
1726995920348179700,7.2601796875,0.130126953125,-0.0016021728515625,-0.8114013671875
1726995920358166800,7.270166748046875,0.0758056640625,-0.000640869140625,-0.7176971435546875
1726995920368153900,7.28015380859375,0.06524658203125,0.01556396484375,-0.6501617431640625
1726995920378139600,7.2901396484375,0.0748291015625,0.0526123046875,-0.6014862060546875
1726995920388127000,7.300126953125,0.124908447265625,0.09271240234375,-0.5655670166015625
1726995920398112800,7.31011279296875,0.2307586669921875,0.1118316650390625,-0.533843994140625
1726995920408099800,7.320099853515625,0.37310791015625,0.0854034423828125,-0.5450286865234375
1726995920418086700,7.330086669921875,0.4919891357421875,0.0604248046875,-0.581390380859375
1726995920428072700,7.34007275390625,0.596221923828125,0.03948974609375,-0.5944671630859375
1726995920438059800,7.350059814453125,0.623260498046875,0.04010009765625,-0.6302337646484375
1726995920448045800,7.3600458984375,0.61798095703125,0.03668212890625,-0.65948486328125
1726995920458033000,7.370032958984375,0.600677490234375,0.036712646484375,-0.6631317138671875
1726995920468019700,7.380019775390625,0.5873565673828125,0.046905517578125,-0.6393890380859375
1726995920478005800,7.390005859375,0.578826904296875,0.0518646240234375,-0.628448486328125
1726995920487992800,7.399992919921875,0.5844268798828125,0.0553436279296875,-0.6268310546875
1726995920497978600,7.409978515625,0.5934295654296875,0.0520477294921875,-0.665435791015625
1726995920507965700,7.419965576171875,0.61639404296875,0.04010009765625,-0.7083892822265625
1726995920517952800,7.429952880859375,0.6345672607421875,0.0506134033203125,-0.75762939453125
1726995920527938800,7.439938720703125,0.6593170166015625,0.0989532470703125,-0.8525543212890625
1726995920537925600,7.449925537109375,0.68463134765625,0.15118408203125,-0.9544677734375
1726995920547912000,7.459911865234375,0.703094482421875,0.1895599365234375,-1.0483245849609375
1726995920557898800,7.469898681640625,0.67742919921875,0.214324951171875,-1.1645660400390625
1726995920567884800,7.479884765625,0.651824951171875,0.230010986328125,-1.1993255615234375
1726995920577872000,7.489871826171875,0.6526336669921875,0.2131500244140625,-1.1585845947265625
1726995920587858700,7.499858642578125,0.665771484375,0.129241943359375,-1.058197021484375
1726995920597844700,7.5098447265625,0.70428466796875,0.0267486572265625,-0.9426422119140625
1726995920607831800,7.519831787109375,0.740081787109375,-0.0498809814453125,-0.8342437744140625
1726995920617817900,7.52981787109375,0.784149169921875,-0.11614990234375,-0.754425048828125
1726995920627804700,7.5398046875,0.8260040283203125,-0.153564453125,-0.699676513671875
1726995920637792000,7.5497919921875,0.8364715576171875,-0.1568145751953125,-0.68170166015625
1726995920647777800,7.55977783203125,0.8118133544921875,-0.1591796875,-0.6842498779296875
1726995920657764600,7.5697646484375,0.7589111328125,-0.162017822265625,-0.683258056640625
1726995920667751000,7.5797509765625,0.7065277099609375,-0.14599609375,-0.688568115234375
1726995920677737700,7.58973779296875,0.6622314453125,-0.1255645751953125,-0.71392822265625
1726995920687724800,7.599724853515625,0.6242523193359375,-0.101043701171875,-0.7624969482421875
1726995920697710800,7.6097109375,0.6051025390625,-0.08343505859375,-0.806976318359375
1726995920707698000,7.619697998046875,0.5917816162109375,-0.06915283203125,-0.831573486328125
1726995920717683700,7.62968359375,0.5875701904296875,-0.060821533203125,-0.8309326171875
1726995920727670800,7.6396708984375,0.59515380859375,-0.0614013671875,-0.8204803466796875
1726995920737657900,7.649657958984375,0.6053314208984375,-0.067901611328125,-0.8160400390625
1726995920747643600,7.6596435546875,0.6097564697265625,-0.071929931640625,-0.81707763671875
1726995920757630700,7.669630615234375,0.6094970703125,-0.0772247314453125,-0.830780029296875
1726995920767616800,7.67961669921875,0.607574462890625,-0.0827789306640625,-0.837677001953125
1726995920777603800,7.689603759765625,0.5955352783203125,-0.0811004638671875,-0.823486328125
1726995920787590700,7.699590576171875,0.565185546875,-0.0733184814453125,-0.809417724609375
1726995920797576700,7.70957666015625,0.53668212890625,-0.056854248046875,-0.7940216064453125
1726995920807563800,7.719563720703125,0.5014801025390625,-0.051300048828125,-0.7863006591796875
1726995920817549800,7.7295498046875,0.47747802734375,-0.0523529052734375,-0.7833251953125
1726995920827537000,7.739536865234375,0.4857025146484375,-0.0433807373046875,-0.7859954833984375
1726995920837523700,7.749523681640625,0.4934539794921875,-0.05322265625,-0.815338134765625
1726995920847509800,7.759509765625,0.513031005859375,-0.0687713623046875,-0.822113037109375
1726995920857496800,7.769496826171875,0.547576904296875,-0.077545166015625,-0.79522705078125
1726995920867482600,7.779482666015625,0.542816162109375,-0.07928466796875,-0.768524169921875
1726995920877469700,7.7894697265625,0.520843505859375,-0.0812835693359375,-0.748779296875
1726995920887455700,7.799455810546875,0.499755859375,-0.08453369140625,-0.743255615234375
1726995920897442800,7.80944287109375,0.4886016845703125,-0.09246826171875,-0.768951416015625
1726995920907429600,7.8194296875,0.5055999755859375,-0.1002044677734375,-0.8053131103515625
1726995920917416000,7.829416015625,0.514678955078125,-0.104522705078125,-0.82891845703125
1726995920927402800,7.83940283203125,0.5214080810546875,-0.1068115234375,-0.8358612060546875
1726995920937388500,7.849388427734375,0.53619384765625,-0.1053009033203125,-0.829742431640625
1726995920947375900,7.8593759765625,0.5551605224609375,-0.103363037109375,-0.826141357421875
1726995920957363000,7.869363037109375,0.5753021240234375,-0.1040496826171875,-0.83209228515625
1726995920967348700,7.8793486328125,0.6019744873046875,-0.0995025634765625,-0.8333740234375
1726995920977335800,7.889335693359375,0.6193695068359375,-0.0904083251953125,-0.82952880859375
1726995920987321900,7.89932177734375,0.630767822265625,-0.0874786376953125,-0.8173065185546875
1726995920997308700,7.90930859375,0.6322479248046875,-0.084014892578125,-0.798309326171875
1726995921007295700,7.919295654296875,0.634063720703125,-0.08038330078125,-0.7792816162109375
1726995921017281800,7.92928173828125,0.64794921875,-0.0751953125,-0.7696685791015625
1726995921027268900,7.939268798828125,0.6585540771484375,-0.0791168212890625,-0.775146484375
1726995921037255000,7.9492548828125,0.674591064453125,-0.081939697265625,-0.7811126708984375
1726995921047241700,7.95924169921875,0.6931915283203125,-0.0860443115234375,-0.7818145751953125
1726995921057228800,7.969228759765625,0.6960906982421875,-0.0820770263671875,-0.7872161865234375
1726995921067214800,7.97921484375,0.6956024169921875,-0.0802001953125,-0.7877044677734375
1726995921077202000,7.989201904296875,0.6999053955078125,-0.082275390625,-0.7823944091796875
1726995921087187700,7.999187744140625,0.707550048828125,-0.0887451171875,-0.773712158203125
1726995921097174800,8.0091748046875,0.7210235595703125,-0.0972442626953125,-0.7594146728515625
1726995921107160800,8.019160888671875,0.7374114990234375,-0.1125640869140625,-0.7501678466796875
1726995921117147600,8.029147705078126,0.74658203125,-0.126190185546875,-0.748443603515625
1726995921127134700,8.039134765625,0.7386016845703125,-0.12939453125,-0.7420196533203125
1726995921137120800,8.049120849609375,0.7181243896484375,-0.1354217529296875,-0.733612060546875
1726995921147107800,8.05910791015625,0.69195556640625,-0.1386260986328125,-0.7301177978515625
1726995921157095200,8.06909521484375,0.6562347412109375,-0.1387481689453125,-0.730743408203125
1726995921167081200,8.079081298828125,0.656036376953125,-0.1565093994140625,-0.7551727294921875
1726995921177068000,8.089068115234374,0.685516357421875,-0.18011474609375,-0.8003082275390625
1726995921187054000,8.09905419921875,0.71746826171875,-0.1802825927734375,-0.8543853759765625
1726995921197041200,8.109041259765625,0.7237091064453125,-0.1793975830078125,-0.908477783203125
1726995921207027200,8.119027099609376,0.717132568359375,-0.149749755859375,-0.95196533203125
1726995921217014000,8.129013916015625,0.691253662109375,-0.1516876220703125,-1.017120361328125
1726995921227001000,8.1390009765625,0.657318115234375,-0.152435302734375,-1.029205322265625
1726995921236987100,8.148987060546874,0.5883941650390625,-0.148468017578125,-1.0845794677734375
1726995921246974000,8.158973876953125,0.50103759765625,-0.14251708984375,-1.0604095458984375
1726995921256960300,8.168960205078125,0.4300384521484375,-0.1223907470703125,-1.0120391845703125
1726995921266947000,8.178947021484374,0.3195037841796875,-0.070709228515625,-0.9967803955078125
1726995921276934100,8.18893408203125,0.2068023681640625,-0.004638671875,-0.930999755859375
1726995921286920200,8.198920166015625,0.12908935546875,0.03057861328125,-0.870758056640625
1726995921296907300,8.2089072265625,0.0720062255859375,0.0662384033203125,-0.7931060791015625
1726995921306893000,8.21889306640625,0.0555267333984375,0.0969390869140625,-0.7350921630859375
1726995921316880000,8.2288798828125,0.104583740234375,0.118133544921875,-0.678192138671875
1726995921326867200,8.2388671875,0.19146728515625,0.1304931640625,-0.6132965087890625
1726995921336853000,8.24885302734375,0.2917327880859375,0.1337432861328125,-0.5781707763671875
1726995921346840000,8.258840087890626,0.4207763671875,0.120849609375,-0.55755615234375
1726995921356826000,8.268826171875,0.5114898681640625,0.0894775390625,-0.55230712890625
1726995921366813200,8.278813232421875,0.5637664794921875,0.07293701171875,-0.530029296875
1726995921376800000,8.288800048828126,0.6002197265625,0.078094482421875,-0.5521697998046875
1726995921386786300,8.298786376953124,0.613037109375,0.0958251953125,-0.558990478515625
1726995921396773000,8.308773193359375,0.6493682861328125,0.1028594970703125,-0.561248779296875
1726995921406759000,8.318759033203126,0.67071533203125,0.11895751953125,-0.591552734375
1726995921416746200,8.328746337890625,0.692779541015625,0.1121063232421875,-0.6302947998046875
1726995921426732000,8.33873193359375,0.7194976806640625,0.1333465576171875,-0.69268798828125
1726995921436719000,8.348718994140626,0.7522125244140625,0.1790618896484375,-0.807647705078125
1726995921446706200,8.3587060546875,0.782623291015625,0.2308807373046875,-0.936981201171875
1726995921456692200,8.368692138671875,0.78729248046875,0.2665863037109375,-1.0457611083984375
1726995921466679000,8.378678955078126,0.7451629638671875,0.2947540283203125,-1.13519287109375
1726995921476665000,8.3886650390625,0.7054443359375,0.29901123046875,-1.1561126708984375
1726995921486652200,8.398652099609375,0.668914794921875,0.251373291015625,-1.1262359619140625
1726995921496639000,8.408638916015626,0.6413726806640625,0.1407470703125,-1.011932373046875
1726995921506625300,8.418625244140625,0.659332275390625,0.0433349609375,-0.883270263671875
1726995921516612000,8.428612060546875,0.689361572265625,-0.033233642578125,-0.7789306640625
1726995921526598100,8.43859814453125,0.70904541015625,-0.1103363037109375,-0.7133941650390625
1726995921536585200,8.448585205078125,0.711395263671875,-0.159912109375,-0.676971435546875
1726995921546572300,8.458572265625,0.7193756103515625,-0.187957763671875,-0.6749420166015625
1726995921556558000,8.46855810546875,0.7272796630859375,-0.2054443359375,-0.702117919921875
1726995921566545000,8.478544921875,0.69744873046875,-0.1973724365234375,-0.748260498046875
1726995921576531200,8.48853125,0.656768798828125,-0.1739044189453125,-0.7995758056640625
1726995921586518000,8.49851806640625,0.6142425537109375,-0.137451171875,-0.8537445068359375
1726995921596505000,8.508505126953125,0.578277587890625,-0.11181640625,-0.890472412109375
1726995921606491100,8.5184912109375,0.55999755859375,-0.1037445068359375,-0.8950653076171875
1726995921616478200,8.528478271484374,0.54754638671875,-0.108184814453125,-0.8718109130859375
1726995921626464300,8.53846435546875,0.5422821044921875,-0.102783203125,-0.8422393798828125
1726995921636451000,8.548451171875,0.5386962890625,-0.105255126953125,-0.8227386474609375
1726995921646437000,8.55843701171875,0.545745849609375,-0.1100616455078125,-0.8011474609375
1726995921656424000,8.568423828125,0.559844970703125,-0.116180419921875,-0.790985107421875
1726995921666411300,8.578411376953126,0.565032958984375,-0.1127777099609375,-0.786956787109375
1726995921676397000,8.58839697265625,0.57928466796875,-0.0965118408203125,-0.79571533203125
1726995921686384000,8.598384033203125,0.59765625,-0.071380615234375,-0.814483642578125
1726995921696371200,8.60837109375,0.6106109619140625,-0.0501708984375,-0.8363800048828125
1726995921706357000,8.61835693359375,0.614105224609375,-0.03619384765625,-0.84210205078125
1726995921716344000,8.628343994140625,0.616912841796875,-0.02423095703125,-0.836517333984375
1726995921726330000,8.638330078125,0.570953369140625,-0.016693115234375,-0.847320556640625
1726995921736317200,8.648317138671874,0.5336456298828125,-0.019561767578125,-0.8196563720703125
1726995921746303000,8.658302978515625,0.5273590087890625,-0.019287109375,-0.7889404296875
1726995921756290300,8.668290283203126,0.5195465087890625,-0.0210113525390625,-0.769683837890625
1726995921766277000,8.678277099609375,0.516571044921875,-0.034698486328125,-0.749359130859375
1726995921776263000,8.688262939453125,0.51715087890625,-0.06219482421875,-0.734893798828125
1726995921786250200,8.698250244140626,0.517913818359375,-0.0991973876953125,-0.7412567138671875
1726995921796236000,8.708236083984374,0.5177001953125,-0.129913330078125,-0.76239013671875
1726995921806223000,8.71822314453125,0.505279541015625,-0.1518707275390625,-0.7774810791015625
1726995921816210000,8.7282099609375,0.4818572998046875,-0.1557769775390625,-0.7852935791015625
1726995921826196200,8.7381962890625,0.4460296630859375,-0.1540679931640625,-0.802001953125
1726995921836183000,8.74818310546875,0.43115234375,-0.153167724609375,-0.820556640625
1726995921846169000,8.758169189453126,0.43621826171875,-0.1516876220703125,-0.8476715087890625
1726995921856156200,8.76815625,0.4673614501953125,-0.1450653076171875,-0.883575439453125
1726995921866143000,8.77814306640625,0.5112762451171875,-0.127532958984375,-0.905670166015625
1726995921876129000,8.78812890625,0.5560302734375,-0.1163482666015625,-0.895843505859375
1726995921886116000,8.7981162109375,0.58135986328125,-0.10009765625,-0.8665313720703125
1726995921896102100,8.80810205078125,0.5850830078125,-0.07965087890625,-0.8368988037109375
1726995921906089000,8.8180888671875,0.591766357421875,-0.0605010986328125,-0.8125762939453125
1726995921916076300,8.828076171875,0.6025543212890625,-0.0472869873046875,-0.795501708984375
1726995921926062000,8.83806201171875,0.6303253173828125,-0.035491943359375,-0.7938232421875
1726995921936049200,8.848049072265624,0.6573333740234375,-0.0258026123046875,-0.7911376953125
1726995921946035200,8.85803515625,0.6788177490234375,-0.0182037353515625,-0.7848663330078125
1726995921956022000,8.86802197265625,0.69195556640625,-0.0137481689453125,-0.7684326171875
1726995921966008000,8.878008056640626,0.6916656494140625,-0.009979248046875,-0.74603271484375
1726995921975995100,8.8879951171875,0.7125701904296875,-0.0096435546875,-0.7288970947265625
1726995921985982200,8.897982177734375,0.7299652099609375,-0.0132293701171875,-0.7160797119140625
1726995921995968000,8.907968017578124,0.7487030029296875,-0.02947998046875,-0.7283935546875
1726995922005955300,8.917955322265625,0.7797698974609375,-0.05267333984375,-0.7319793701171875
1726995922015941000,8.927941162109375,0.80694580078125,-0.068389892578125,-0.72955322265625
1726995922025928000,8.937927978515624,0.8083038330078125,-0.0843505859375,-0.7419891357421875
1726995922035915300,8.947915283203125,0.7872161865234375,-0.10638427734375,-0.7394561767578125
1726995922045901000,8.957901123046875,0.7694244384765625,-0.1180267333984375,-0.7590789794921875
1726995922055888100,8.96788818359375,0.7358245849609375,-0.1287078857421875,-0.79144287109375
1726995922065874200,8.977874267578125,0.726287841796875,-0.15631103515625,-0.839813232421875
1726995922075861200,8.987861328125,0.7040252685546875,-0.1746063232421875,-0.8742523193359375
1726995922085848000,8.99784814453125,0.68365478515625,-0.1888275146484375,-0.8846435546875
1726995922095834000,9.007834228515625,0.674163818359375,-0.1955108642578125,-0.9026947021484375
1726995922105821200,9.0178212890625,0.651123046875,-0.18572998046875,-0.9429473876953125
1726995922115807000,9.027806884765624,0.640228271484375,-0.189910888671875,-1.0042877197265625
1726995922125794000,9.0377939453125,0.6091461181640625,-0.205535888671875,-1.0537567138671875
1726995922135781000,9.047781005859376,0.5649566650390625,-0.2215728759765625,-1.1033935546875
1726995922145767200,9.05776708984375,0.4641265869140625,-0.2039794921875,-1.0774993896484375
1726995922155754000,9.06775390625,0.3402557373046875,-0.1804962158203125,-1.05560302734375
1726995922165740000,9.077739990234376,0.2509613037109375,-0.1356048583984375,-0.99261474609375
1726995922175727000,9.08772705078125,0.1463623046875,-0.0595703125,-0.9234771728515625
1726995922185713200,9.097713134765625,0.0629119873046875,0.005645751953125,-0.860015869140625
1726995922195700000,9.107699951171876,0.015594482421875,0.0407562255859375,-0.7839508056640625
1726995922205687000,9.11768701171875,-0.005859375,0.0851593017578125,-0.7208404541015625
1726995922215673000,9.127673095703125,0.025177001953125,0.112640380859375,-0.6647186279296875
1726995922225660200,9.13766015625,0.12677001953125,0.1181488037109375,-0.6072998046875
1726995922235646000,9.14764599609375,0.2375335693359375,0.117431640625,-0.5577850341796875
1726995922245633000,9.157633056640625,0.3272857666015625,0.10260009765625,-0.5361175537109375
1726995922255620000,9.1676201171875,0.461944580078125,0.073883056640625,-0.5362091064453125
1726995922265606000,9.17760595703125,0.5756072998046875,0.042755126953125,-0.516754150390625
1726995922275593000,9.187593017578125,0.6395721435546875,0.04364013671875,-0.5400238037109375
1726995922285579000,9.1975791015625,0.632843017578125,0.046600341796875,-0.6376495361328125
1726995922295566000,9.207566162109375,0.6568145751953125,0.0549468994140625,-0.5958709716796875
1726995922305553000,9.217552978515625,0.68341064453125,0.07525634765625,-0.63348388671875
1726995922315539200,9.227539306640624,0.6856231689453125,0.1093292236328125,-0.6780242919921875
1726995922325526000,9.237526123046875,0.716949462890625,0.1599884033203125,-0.7451019287109375
1726995922335511800,9.24751171875,0.7336883544921875,0.2025146484375,-0.842437744140625
1726995922345499100,9.2574990234375,0.73992919921875,0.252716064453125,-0.959320068359375
1726995922355486000,9.26748583984375,0.7430419921875,0.2860107421875,-1.0733184814453125
1726995922365472000,9.277471923828125,0.7220916748046875,0.3089141845703125,-1.1334228515625
1726995922375459000,9.287458984375,0.6825408935546875,0.305755615234375,-1.15496826171875
1726995922385445000,9.297445068359375,0.6568450927734375,0.2112579345703125,-1.1147308349609375
1726995922395432000,9.307431884765625,0.6662139892578125,0.118560791015625,-1.0008392333984375
1726995922405418000,9.31741796875,0.6596832275390625,0.0377655029296875,-0.8861083984375
1726995922415405000,9.327405029296875,0.696319580078125,-0.0277557373046875,-0.7999114990234375
1726995922425391900,9.337391845703126,0.725555419921875,-0.08935546875,-0.726318359375
1726995922435378200,9.347378173828124,0.7447357177734375,-0.1332855224609375,-0.714813232421875
1726995922445365000,9.357364990234375,0.7399749755859375,-0.1623382568359375,-0.720458984375
1726995922455351000,9.36735107421875,0.744964599609375,-0.193756103515625,-0.7054595947265625
1726995922465338000,9.377338134765624,0.7362060546875,-0.1982269287109375,-0.73968505859375
1726995922475325200,9.3873251953125,0.71197509765625,-0.187835693359375,-0.78179931640625
1726995922485311000,9.39731103515625,0.6729736328125,-0.1717071533203125,-0.814483642578125
1726995922495297800,9.4072978515625,0.6327667236328125,-0.1573638916015625,-0.8384857177734375
1726995922505284000,9.4172841796875,0.6057586669921875,-0.1555023193359375,-0.8436431884765625
1726995922515271000,9.42727099609375,0.583648681640625,-0.1560211181640625,-0.8389739990234375
1726995922525258000,9.437258056640625,0.55438232421875,-0.15338134765625,-0.825958251953125
1726995922535244000,9.447244140625,0.52618408203125,-0.145416259765625,-0.8038482666015625
1726995922545231000,9.457231201171876,0.489013671875,-0.132904052734375,-0.798675537109375
1726995922555217200,9.467217041015624,0.4540557861328125,-0.1241455078125,-0.8194580078125
1726995922565204000,9.477203857421875,0.448822021484375,-0.1106109619140625,-0.861541748046875
1726995922575191000,9.48719091796875,0.4493865966796875,-0.09588623046875,-0.89361572265625
1726995922585176800,9.4971767578125,0.4421539306640625,-0.0811767578125,-0.910614013671875
1726995922595164200,9.5071640625,0.436126708984375,-0.0627288818359375,-0.9002532958984375
1726995922605150000,9.51714990234375,0.4279327392578125,-0.0537872314453125,-0.885467529296875
1726995922615137000,9.527136962890625,0.44158935546875,-0.051727294921875,-0.8663482666015625
1726995922625124000,9.5371240234375,0.4696502685546875,-0.048675537109375,-0.8488616943359375
1726995922635110100,9.547110107421876,0.5067138671875,-0.038818359375,-0.8340911865234375
1726995922645097000,9.557096923828125,0.5860137939453125,-0.003692626953125,-0.81707763671875
1726995922655083000,9.5670830078125,0.5554046630859375,0.010955810546875,-0.856597900390625
1726995922665070000,9.577070068359374,0.516082763671875,0.0030517578125,-0.8477630615234375
1726995922675055900,9.587055908203125,0.5356292724609375,-0.00054931640625,-0.79888916015625
1726995922685043200,9.597043212890625,0.522064208984375,-0.0151824951171875,-0.7600250244140625
1726995922695030000,9.607030029296874,0.4793548583984375,-0.04010009765625,-0.7429656982421875
1726995922705016000,9.61701611328125,0.4676361083984375,-0.0733184814453125,-0.7470703125
1726995922715003100,9.627003173828125,0.4850006103515625,-0.076904296875,-0.748260498046875
1726995922724989000,9.636989013671876,0.53387451171875,-0.08819580078125,-0.7653656005859375
1726995922734976000,9.64697607421875,0.552581787109375,-0.0845947265625,-0.7635955810546875
1726995922744962800,9.656962890625,0.570098876953125,-0.0956878662109375,-0.7771759033203125
1726995922754949000,9.66694921875,0.5650482177734375,-0.107452392578125,-0.816802978515625
1726995922764936000,9.67693603515625,0.5656280517578125,-0.11767578125,-0.842742919921875
1726995922774922200,9.686922119140625,0.578338623046875,-0.141143798828125,-0.8643646240234375
1726995922784909000,9.696908935546874,0.5902862548828125,-0.14691162109375,-0.8746795654296875
1726995922794896100,9.706896240234375,0.58953857421875,-0.1584625244140625,-0.87420654296875
1726995922804882200,9.716882080078125,0.59820556640625,-0.1662139892578125,-0.8782806396484375
1726995922814869000,9.726868896484374,0.5852813720703125,-0.1772003173828125,-0.864593505859375
1726995922824855000,9.73685498046875,0.589019775390625,-0.1829071044921875,-0.84332275390625
1726995922834841900,9.746841796875,0.589996337890625,-0.17816162109375,-0.82415771484375
1726995922844829200,9.7568291015625,0.61090087890625,-0.1722564697265625,-0.812164306640625
1726995922854815000,9.76681494140625,0.640777587890625,-0.17095947265625,-0.8202056884765625
1726995922864802000,9.776802001953126,0.67529296875,-0.1729583740234375,-0.8295135498046875
1726995922874788000,9.7867880859375,0.7083282470703125,-0.167633056640625,-0.843597412109375
1726995922884775000,9.79677490234375,0.71807861328125,-0.1640472412109375,-0.8561553955078125
1726995922894761000,9.806760986328126,0.705474853515625,-0.16156005859375,-0.852325439453125
1726995922904748000,9.816748046875,0.6896514892578125,-0.1566619873046875,-0.826263427734375
1726995922914735000,9.826735107421875,0.6830291748046875,-0.15386962890625,-0.7970123291015625
1726995922924721000,9.836720947265626,0.6608123779296875,-0.1490631103515625,-0.78533935546875
1726995922934708200,9.846708251953125,0.651702880859375,-0.1489105224609375,-0.7980194091796875
1726995922944694000,9.856694091796875,0.64337158203125,-0.154632568359375,-0.833465576171875
1726995922954680800,9.866680908203126,0.62139892578125,-0.1527557373046875,-0.84051513671875
1726995922964668200,9.876668212890625,0.60198974609375,-0.144622802734375,-0.8358917236328125
1726995922974654000,9.886654052734375,0.5984649658203125,-0.131378173828125,-0.8607177734375
1726995922984641000,9.89664111328125,0.6015625,-0.1383056640625,-0.9351959228515625
1726995922994627000,9.906626953125,0.6206512451171875,-0.1461639404296875,-1.0130615234375
1726995923004614100,9.9166142578125,0.5994720458984375,-0.1465301513671875,-1.0482330322265625
1726995923014601000,9.92660107421875,0.55633544921875,-0.139068603515625,-1.0612640380859375
1726995923024587000,9.9365869140625,0.43731689453125,-0.10650634765625,-1.008148193359375
1726995923034574000,9.946573974609375,0.368682861328125,-0.0908966064453125,-0.9912109375
1726995923044560000,9.956559814453126,0.2766876220703125,-0.060821533203125,-0.9550933837890625
1726995923054547000,9.966546875,0.1740875244140625,0.006134033203125,-0.9158477783203125
1726995923064534000,9.976533935546875,0.100372314453125,0.0814971923828125,-0.8602142333984375
1726995923074520000,9.98652001953125,0.0565185546875,0.130767822265625,-0.785858154296875
1726995923084507000,9.9965068359375,0.0541839599609375,0.154510498046875,-0.7205352783203125
1726995923094493000,10.006492919921875,0.087677001953125,0.1513214111328125,-0.6586456298828125
1726995923104480000,10.01647998046875,0.1961669921875,0.1399688720703125,-0.6039581298828125
1726995923114466000,10.026466064453125,0.3289947509765625,0.1472930908203125,-0.5606231689453125
1726995923124453000,10.036453125,0.4619140625,0.1552886962890625,-0.545013427734375
1726995923134440000,10.04643994140625,0.626220703125,0.1098175048828125,-0.517059326171875
1726995923144426000,10.056426025390625,0.7134552001953125,0.081390380859375,-0.5261383056640625
1726995923154413000,10.0664130859375,0.6704864501953125,0.0770263671875,-0.517425537109375
1726995923164398800,10.07639892578125,0.6578521728515625,0.07586669921875,-0.4924774169921875
1726995923174386000,10.086385986328125,0.7066650390625,0.082305908203125,-0.5337066650390625
1726995923184373000,10.096373046875,0.7602386474609375,0.1244049072265625,-0.6387176513671875
1726995923194359000,10.106359130859374,0.810150146484375,0.2047882080078125,-0.7663726806640625
1726995923204345900,10.116345947265625,0.80499267578125,0.27783203125,-0.8980712890625
1726995923214332000,10.126331787109375,0.7565460205078125,0.3340911865234375,-1.0157928466796875
1726995923224319000,10.136319091796874,0.7256011962890625,0.37420654296875,-1.1146392822265625
1726995923234306000,10.14630615234375,0.7050018310546875,0.3943328857421875,-1.177001953125
1726995923244292000,10.1562919921875,0.6690826416015625,0.3662261962890625,-1.163360595703125
1726995923254279000,10.16627880859375,0.6502227783203125,0.26177978515625,-1.054901123046875
1726995923264265000,10.176264892578125,0.6346282958984375,0.1360626220703125,-0.9000091552734375
1726995923274252000,10.186251953125,0.6373138427734375,0.0384063720703125,-0.76715087890625
1726995923284239000,10.196239013671875,0.638885498046875,-0.0290069580078125,-0.6790313720703125
1726995923294225000,10.206224853515625,0.630859375,-0.077972412109375,-0.6475982666015625
1726995923304212000,10.2162119140625,0.6533203125,-0.1174774169921875,-0.65069580078125
1726995923314198000,10.226197998046874,0.7020263671875,-0.1551361083984375,-0.6802520751953125
1726995923324184800,10.236184814453125,0.7217864990234375,-0.167236328125,-0.7391204833984375
1726995923334171100,10.246171142578126,0.704620361328125,-0.1682586669921875,-0.800079345703125
1726995923344158000,10.256157958984375,0.673187255859375,-0.165618896484375,-0.8589935302734375
1726995923354145000,10.26614501953125,0.64093017578125,-0.1619720458984375,-0.9114227294921875
1726995923364131000,10.276131103515626,0.6281890869140625,-0.1775360107421875,-0.9535369873046875
1726995923374118100,10.2861181640625,0.61370849609375,-0.1994781494140625,-0.9577484130859375
1726995923384104000,10.29610400390625,0.58197021484375,-0.2124176025390625,-0.902923583984375
1726995923394091000,10.306091064453126,0.534912109375,-0.214752197265625,-0.8210296630859375
1726995923404078000,10.316078125,0.484954833984375,-0.1967315673828125,-0.7762603759765625
1726995923414063900,10.32606396484375,0.4681549072265625,-0.183013916015625,-0.786956787109375
1726995923424051000,10.336051025390624,0.4737548828125,-0.1885528564453125,-0.8271942138671875
1726995923434037000,10.346037109375,0.50457763671875,-0.183990478515625,-0.8591461181640625
1726995923444024000,10.356024169921875,0.5138702392578125,-0.1544342041015625,-0.858856201171875
1726995923454011000,10.366010986328124,0.4916839599609375,-0.1085205078125,-0.84368896484375
1726995923463997000,10.375996826171875,0.451751708984375,-0.073394775390625,-0.825439453125
1726995923473984000,10.38598388671875,0.4379730224609375,-0.0524444580078125,-0.8212432861328125
1726995923483970000,10.395969970703124,0.4607696533203125,-0.0507659912109375,-0.82940673828125
1726995923493957000,10.40595703125,0.50811767578125,-0.043365478515625,-0.8353424072265625
1726995923503944000,10.41594384765625,0.485443115234375,-0.0429840087890625,-0.8353271484375
1726995923513930000,10.425929931640624,0.486663818359375,-0.0550384521484375,-0.7924957275390625
1726995923523917000,10.4359169921875,0.5160064697265625,-0.0641937255859375,-0.76324462890625
1726995923533902800,10.44590283203125,0.5275115966796875,-0.0612030029296875,-0.7754058837890625
1726995923543890000,10.455889892578124,0.522918701171875,-0.0653839111328125,-0.8107147216796875
1726995923553876000,10.4658759765625,0.504302978515625,-0.0767974853515625,-0.8216400146484375
1726995923563863000,10.475863037109375,0.4517059326171875,-0.0991668701171875,-0.8099517822265625
1726995923573849900,10.485849853515624,0.4134979248046875,-0.1063232421875,-0.78924560546875
1726995923583836200,10.495836181640625,0.4487762451171875,-0.10595703125,-0.8006591796875
1726995923593823000,10.505822998046876,0.5070037841796875,-0.095184326171875,-0.8638458251953125
1726995923603808800,10.515808837890624,0.5467071533203125,-0.0995330810546875,-0.912872314453125
1726995923613796000,10.525796142578125,0.5633087158203125,-0.1167144775390625,-0.904632568359375
1726995923623783000,10.535782958984376,0.551544189453125,-0.1199798583984375,-0.850433349609375
1726995923633769000,10.54576904296875,0.5464630126953125,-0.1194915771484375,-0.8049163818359375
1726995923643756000,10.555756103515625,0.5579986572265625,-0.121795654296875,-0.7847747802734375
1726995923653742000,10.5657421875,0.58184814453125,-0.125213623046875,-0.787322998046875
1726995923663729000,10.57572900390625,0.6254425048828125,-0.13116455078125,-0.816741943359375
1726995923673716000,10.585716064453125,0.678192138671875,-0.14501953125,-0.8663177490234375
1726995923683702000,10.595701904296876,0.7138519287109375,-0.1478118896484375,-0.883392333984375
1726995923693688800,10.605688720703125,0.7078399658203125,-0.14288330078125,-0.8779754638671875
1726995923703675100,10.615675048828125,0.6846466064453125,-0.132354736328125,-0.8527069091796875
1726995923713662000,10.625661865234376,0.6616363525390625,-0.1248931884765625,-0.8201751708984375
1726995923723649000,10.63564892578125,0.6712493896484375,-0.1313018798828125,-0.8011474609375
1726995923733635000,10.645635009765625,0.700836181640625,-0.143218994140625,-0.79473876953125
1726995923743622100,10.6556220703125,0.7288970947265625,-0.152435302734375,-0.794097900390625
1726995923753608000,10.66560791015625,0.7238922119140625,-0.154998779296875,-0.774993896484375
1726995923763594800,10.6755947265625,0.6878814697265625,-0.151611328125,-0.7519683837890625
1726995923773581000,10.6855810546875,0.654998779296875,-0.153564453125,-0.7339324951171875
1726995923783568000,10.69556787109375,0.627655029296875,-0.15032958984375,-0.7294769287109375
1726995923793555000,10.705554931640625,0.620513916015625,-0.1578216552734375,-0.732330322265625
1726995923803541000,10.715541015625,0.628509521484375,-0.1696014404296875,-0.746917724609375
1726995923813528000,10.725528076171875,0.644805908203125,-0.1814422607421875,-0.775634765625
1726995923823514000,10.73551416015625,0.672698974609375,-0.1798553466796875,-0.8160400390625
1726995923833501000,10.7455009765625,0.6954193115234375,-0.1896820068359375,-0.8886566162109375
1726995923843488000,10.755488037109375,0.704010009765625,-0.182464599609375,-0.970672607421875
1726995923853473800,10.765473876953125,0.6923370361328125,-0.1824951171875,-1.028411865234375
1726995923863461000,10.775461181640624,0.655975341796875,-0.2098388671875,-1.1253662109375
1726995923873447000,10.785447021484375,0.571746826171875,-0.2124481201171875,-1.168365478515625
1726995923883434000,10.79543408203125,0.432830810546875,-0.20111083984375,-1.1350555419921875
1726995923893421000,10.805421142578124,0.30450439453125,-0.17041015625,-1.085845947265625
1726995923903407000,10.815406982421875,0.18597412109375,-0.10955810546875,-1.0233612060546875
1726995923913394000,10.825393798828125,0.130340576171875,-0.0393218994140625,-0.958343505859375
1726995923923380000,10.8353798828125,0.072906494140625,0.0270233154296875,-0.8593292236328125
1726995923933367000,10.845366943359375,0.015472412109375,0.086029052734375,-0.7545166015625
1726995923943353900,10.855353759765626,0.012451171875,0.1149749755859375,-0.646514892578125
1726995923953340200,10.865340087890624,0.0539703369140625,0.13262939453125,-0.5487213134765625
1726995923963327000,10.875326904296875,0.1629180908203125,0.155548095703125,-0.4910125732421875
1726995923973313000,10.88531298828125,0.2347259521484375,0.186126708984375,-0.464874267578125
1726995923983300000,10.895300048828124,0.3420562744140625,0.192779541015625,-0.461181640625
1726995923993286000,10.905285888671875,0.4658966064453125,0.1486663818359375,-0.4904327392578125
1726995924003273000,10.91527294921875,0.5706634521484375,0.148406982421875,-0.499847412109375
1726995924013259800,10.925259765625,0.66650390625,0.133270263671875,-0.558349609375
1726995924023246000,10.93524609375,0.7214508056640625,0.137298583984375,-0.5742645263671875
1726995924033233000,10.94523291015625,0.7606964111328125,0.1402435302734375,-0.61614990234375
1726995924043219200,10.95521923828125,0.8188323974609375,0.16937255859375,-0.6990814208984375
1726995924053206000,10.9652060546875,0.8473052978515625,0.2000732421875,-0.7996673583984375
1726995924063193000,10.975193115234376,0.8541259765625,0.22857666015625,-0.870574951171875
1726995924073179000,10.985178955078124,0.8185272216796875,0.26788330078125,-0.92877197265625
1726995924083166000,10.995166015625,0.7833404541015625,0.3088226318359375,-0.959259033203125
1726995924093152000,11.005152099609376,0.7149200439453125,0.324066162109375,-1.05059814453125
1726995924103138800,11.015138916015625,0.640411376953125,0.315185546875,-1.11004638671875
1726995924113126100,11.025126220703125,0.6544342041015625,0.2448883056640625,-1.0876312255859375
1726995924123112000,11.03511181640625,0.6909027099609375,0.1650848388671875,-1.0047760009765625
1726995924133099000,11.04509912109375,0.70184326171875,0.084014892578125,-0.8881683349609375
1726995924143085000,11.0550849609375,0.7092132568359375,-0.0043487548828125,-0.768463134765625
1726995924153071900,11.06507177734375,0.726287841796875,-0.08221435546875,-0.700347900390625
1726995924163058700,11.07505859375,0.73663330078125,-0.1483306884765625,-0.693084716796875
1726995924173044700,11.085044677734375,0.725189208984375,-0.193695068359375,-0.733978271484375
1726995924183031600,11.095031494140626,0.7171630859375,-0.2287139892578125,-0.7642364501953125
1726995924193017600,11.105017578125,0.7024688720703125,-0.2451019287109375,-0.783477783203125
1726995924203004700,11.115004638671875,0.647918701171875,-0.2378692626953125,-0.7909393310546875
1726995924212991700,11.12499169921875,0.62054443359375,-0.234771728515625,-0.8117828369140625
1726995924222977500,11.1349775390625,0.593719482421875,-0.2333984375,-0.86358642578125
1726995924232964900,11.14496484375,0.5725250244140625,-0.224700927734375,-0.92681884765625
1726995924242950700,11.15495068359375,0.532073974609375,-0.20428466796875,-0.9666290283203125
1726995924252937500,11.1649375,0.4829864501953125,-0.199005126953125,-0.961883544921875
1726995924262923800,11.174923828125,0.4112548828125,-0.187225341796875,-0.9118804931640625
1726995924272910600,11.18491064453125,0.3721160888671875,-0.171173095703125,-0.8393402099609375
1726995924282897700,11.194897705078125,0.3644561767578125,-0.1636199951171875,-0.774688720703125
1726995924292883700,11.2048837890625,0.3853302001953125,-0.1604156494140625,-0.7568206787109375
1726995924302870800,11.214870849609374,0.42718505859375,-0.165313720703125,-0.78558349609375
1726995924312856600,11.224856689453125,0.4670257568359375,-0.159149169921875,-0.84210205078125
1726995924322843600,11.23484375,0.48956298828125,-0.1382598876953125,-0.887481689453125
1726995924332830700,11.244830810546874,0.5088043212890625,-0.1050872802734375,-0.8973846435546875
1726995924342816500,11.25481640625,0.527679443359375,-0.0728607177734375,-0.8637237548828125
1726995924352803600,11.264803466796875,0.56781005859375,-0.0342254638671875,-0.832366943359375
1726995924362789600,11.27478955078125,0.5197601318359375,-0.0192108154296875,-0.8405303955078125
1726995924372776700,11.284776611328125,0.5172271728515625,-0.03857421875,-0.8067474365234375
1726995924382763500,11.294763427734376,0.5523834228515625,-0.056915283203125,-0.7822113037109375
1726995924392749600,11.30474951171875,0.554290771484375,-0.0637054443359375,-0.7607421875
1726995924402736600,11.314736572265625,0.540985107421875,-0.0737457275390625,-0.751434326171875
1726995924412722700,11.32472265625,0.52984619140625,-0.0944976806640625,-0.74658203125
1726995924422709800,11.334709716796874,0.5182342529296875,-0.1197052001953125,-0.7387542724609375
1726995924432696600,11.344696533203125,0.4948272705078125,-0.152130126953125,-0.7526397705078125
1726995924442682600,11.3546826171875,0.4814910888671875,-0.163848876953125,-0.8097991943359375
1726995924452669700,11.364669677734375,0.496673583984375,-0.171173095703125,-0.8725433349609375
1726995924462655500,11.374655517578125,0.5117645263671875,-0.18426513671875,-0.885162353515625
1726995924472642600,11.384642578125,0.5243377685546875,-0.207489013671875,-0.8806915283203125
1726995924482628600,11.394628662109374,0.520050048828125,-0.2060394287109375,-0.8631591796875
1726995924492615700,11.40461572265625,0.5186614990234375,-0.21051025390625,-0.828033447265625
1726995924502602500,11.4146025390625,0.5214691162109375,-0.1997833251953125,-0.807952880859375
1726995924512588800,11.4245888671875,0.5074310302734375,-0.1910858154296875,-0.777008056640625
1726995924522575600,11.43457568359375,0.5224761962890625,-0.1843109130859375,-0.79742431640625
1726995924532561700,11.444561767578126,0.5394744873046875,-0.164886474609375,-0.8380126953125
1726995924542548700,11.454548828125,0.59320068359375,-0.146759033203125,-0.8674468994140625
1726995924552535600,11.46453564453125,0.6484222412109375,-0.1324310302734375,-0.8885345458984375
1726995924562521600,11.474521484375,0.6879119873046875,-0.126983642578125,-0.88140869140625
1726995924572508700,11.4845087890625,0.708160400390625,-0.117095947265625,-0.853118896484375
1726995924582494700,11.49449462890625,0.7286376953125,-0.1195220947265625,-0.8166656494140625
1726995924592481500,11.5044814453125,0.74871826171875,-0.1241912841796875,-0.801300048828125
1726995924602468600,11.514468505859375,0.762786865234375,-0.1203155517578125,-0.7982940673828125
1726995924612454700,11.52445458984375,0.7514801025390625,-0.1132659912109375,-0.7835693359375
1726995924622441500,11.53444140625,0.7217254638671875,-0.107330322265625,-0.7550506591796875
1726995924632427800,11.544427734375,0.6938934326171875,-0.104461669921875,-0.7246551513671875
1726995924642414600,11.55441455078125,0.67413330078125,-0.1149444580078125,-0.7004241943359375
1726995924652401700,11.564401611328124,0.6702728271484375,-0.1343231201171875,-0.698272705078125
1726995924662387700,11.5743876953125,0.6884918212890625,-0.1573486328125,-0.7424774169921875
1726995924672374800,11.584374755859375,0.704315185546875,-0.1707916259765625,-0.8035430908203125
1726995924682360600,11.594360595703124,0.726287841796875,-0.1747283935546875,-0.9071807861328125
1726995924692347600,11.60434765625,0.743316650390625,-0.18109130859375,-0.97991943359375
1726995924702334700,11.614334716796876,0.735809326171875,-0.185882568359375,-1.06793212890625
1726995924712320500,11.624320556640624,0.64349365234375,-0.2016754150390625,-1.1787567138671875
1726995924722307600,11.6343076171875,0.55224609375,-0.2117767333984375,-1.2163238525390625
1726995924732293600,11.644293701171875,0.4291229248046875,-0.1935882568359375,-1.1692962646484375
1726995924742280700,11.65428076171875,0.2761077880859375,-0.1439971923828125,-1.1113739013671875
1726995924752266800,11.664266845703125,0.1760711669921875,-0.0789031982421875,-1.0320587158203125
1726995924762253800,11.67425390625,0.0971832275390625,-0.026947021484375,-0.96270751953125
1726995924772240600,11.68424072265625,0.0225067138671875,0.0256805419921875,-0.8927154541015625
1726995924782226700,11.694226806640625,0.0074920654296875,0.06988525390625,-0.819244384765625
1726995924792213800,11.7042138671875,0.0236358642578125,0.09625244140625,-0.730865478515625
1726995924802199600,11.714199462890624,0.0623779296875,0.1072540283203125,-0.6304779052734375
1726995924812186600,11.7241865234375,0.14117431640625,0.10443115234375,-0.517242431640625
1726995924822173700,11.734173583984376,0.2405853271484375,0.0988006591796875,-0.4398651123046875
1726995924832159700,11.74415966796875,0.37701416015625,0.086334228515625,-0.401885986328125
1726995924842146600,11.754146484375,0.500823974609375,0.0511016845703125,-0.3587799072265625
1726995924852132600,11.764132568359376,0.5579986572265625,0.0449066162109375,-0.4237213134765625
1726995924862119700,11.77411962890625,0.568023681640625,0.05841064453125,-0.5051727294921875
1726995924872106500,11.7841064453125,0.592071533203125,0.067718505859375,-0.4864044189453125
1726995924882092800,11.7940927734375,0.60723876953125,0.0749053955078125,-0.470672607421875
1726995924892079600,11.80407958984375,0.633697509765625,0.0907440185546875,-0.5092315673828125
1726995924902065700,11.814065673828125,0.679229736328125,0.112091064453125,-0.5725250244140625
1726995924912052700,11.824052734375,0.731689453125,0.15399169921875,-0.725799560546875
1726995924922039800,11.834039794921875,0.80181884765625,0.2186279296875,-0.894989013671875
1726995924932025600,11.844025634765625,0.8411102294921875,0.287078857421875,-1.0262298583984375
1726995924942012700,11.8540126953125,0.83319091796875,0.34490966796875,-1.1488189697265625
1726995924951998700,11.863998779296875,0.779693603515625,0.3804931640625,-1.2083892822265625
1726995924961985500,11.873985595703125,0.73291015625,0.3403167724609375,-1.220703125
1726995924971972600,11.88397265625,0.65753173828125,0.2774505615234375,-1.20928955078125
1726995924981958700,11.893958740234375,0.62078857421875,0.19378662109375,-1.1278839111328125
1726995924991945700,11.90394580078125,0.636566162109375,0.08514404296875,-0.984375
1726995925001931800,11.913931884765624,0.671051025390625,-0.014007568359375,-0.852630615234375
1726995925011918600,11.923918701171875,0.7140655517578125,-0.0955352783203125,-0.7601165771484375
1726995925021904600,11.933904541015625,0.737060546875,-0.1707763671875,-0.714752197265625
1726995925031891700,11.9438916015625,0.748199462890625,-0.234283447265625,-0.702606201171875
1726995925041878800,11.953878662109375,0.723724365234375,-0.2696075439453125,-0.7030181884765625
1726995925051864600,11.963864501953125,0.6820068359375,-0.301177978515625,-0.728973388671875
1726995925061851600,11.9738515625,0.6540985107421875,-0.3196258544921875,-0.7785797119140625
1726995925071837700,11.983837646484375,0.613555908203125,-0.306732177734375,-0.8240509033203125
1726995925081824500,11.993824462890625,0.5780029296875,-0.2821197509765625,-0.8743438720703125
1726995925091811600,12.0038115234375,0.55108642578125,-0.26324462890625,-0.922088623046875
1726995925101797600,12.013797607421875,0.510040283203125,-0.250762939453125,-0.9451141357421875
1726995925111784700,12.02378466796875,0.43316650390625,-0.2390289306640625,-0.9327850341796875
1726995925121770500,12.0337705078125,0.3878326416015625,-0.2270050048828125,-0.8917236328125
1726995925131757800,12.0437578125,0.371612548828125,-0.203094482421875,-0.8600311279296875
1726995925141744600,12.05374462890625,0.3696136474609375,-0.17730712890625,-0.84710693359375
1726995925151730400,12.06373046875,0.3675537109375,-0.158538818359375,-0.8497467041015625
1726995925161718000,12.073718017578125,0.3574676513671875,-0.1314544677734375,-0.8402252197265625
1726995925171704000,12.0837041015625,0.3629608154296875,-0.1063079833984375,-0.8414154052734375
1726995925181691100,12.093691162109375,0.358367919921875,-0.0859375,-0.834320068359375
1726995925191678000,12.103677978515625,0.346343994140625,-0.081451416015625,-0.822235107421875
1726995925201664300,12.113664306640626,0.3670806884765625,-0.08001708984375,-0.798309326171875
1726995925211651000,12.123651123046875,0.44451904296875,-0.0696563720703125,-0.7964324951171875
1726995925221637400,12.133637451171875,0.5469512939453125,-0.0514373779296875,-0.8216094970703125
1726995925231624200,12.143624267578126,0.5933074951171875,-0.063812255859375,-0.8529205322265625
1726995925241611300,12.153611328125,0.6028594970703125,-0.089813232421875,-0.8470458984375
1726995925251597000,12.16359716796875,0.6102142333984375,-0.092254638671875,-0.82489013671875
1726995925261584100,12.173584228515624,0.560821533203125,-0.09954833984375,-0.8163604736328125
1726995925271570200,12.183570068359375,0.508758544921875,-0.1063385009765625,-0.837249755859375
1726995925281557000,12.193556884765625,0.4828948974609375,-0.1295928955078125,-0.8650665283203125
1726995925291543300,12.203543212890626,0.4711456298828125,-0.147186279296875,-0.8744049072265625
1726995925301530000,12.213530029296875,0.4839630126953125,-0.1589813232421875,-0.8767242431640625
1726995925311517200,12.22351708984375,0.5021514892578125,-0.169708251953125,-0.8726043701171875
1726995925321503200,12.233503173828124,0.5181121826171875,-0.1859283447265625,-0.865631103515625
1726995925331490000,12.243489990234375,0.519287109375,-0.211822509765625,-0.8516082763671875
1726995925341476000,12.25347607421875,0.5228424072265625,-0.23602294921875,-0.8399505615234375
1726995925351463200,12.263463134765624,0.52264404296875,-0.2569427490234375,-0.8290557861328125
1726995925361450200,12.2734501953125,0.5118408203125,-0.271759033203125,-0.79766845703125
1726995925371436000,12.28343603515625,0.5254669189453125,-0.285064697265625,-0.799407958984375
1726995925381423400,12.29342333984375,0.55242919921875,-0.293853759765625,-0.8123931884765625
1726995925391409200,12.3034091796875,0.5923309326171875,-0.295166015625,-0.8352813720703125
1726995925401396000,12.31339599609375,0.6475982666015625,-0.2890625,-0.8396759033203125
1726995925411383000,12.323383056640624,0.665191650390625,-0.281280517578125,-0.8245697021484375
1726995925421369000,12.333369140625,0.6574249267578125,-0.2604522705078125,-0.8177642822265625
1726995925431356200,12.343356201171876,0.66656494140625,-0.2369842529296875,-0.8056640625
1726995925441342200,12.35334228515625,0.657012939453125,-0.225555419921875,-0.8129119873046875
1726995925451329300,12.363329345703125,0.6644744873046875,-0.2262420654296875,-0.8147430419921875
1726995925461315000,12.373315185546875,0.666259765625,-0.2237396240234375,-0.8033294677734375
1726995925471302100,12.38330224609375,0.666839599609375,-0.2237701416015625,-0.8102569580078125
1726995925481289200,12.393289306640625,0.659027099609375,-0.2149810791015625,-0.8160247802734375
1726995925491275000,12.40327490234375,0.6591796875,-0.2071075439453125,-0.82049560546875
1726995925501262000,12.413261962890624,0.65142822265625,-0.2012481689453125,-0.8325042724609375
1726995925511249200,12.423249267578125,0.6327667236328125,-0.195526123046875,-0.865478515625
1726995925521235200,12.433235107421876,0.62322998046875,-0.1972198486328125,-0.90191650390625
1726995925531222000,12.443221923828125,0.6507415771484375,-0.2034454345703125,-0.971832275390625
1726995925541208000,12.4532080078125,0.635162353515625,-0.2138671875,-1.03271484375
1726995925551195100,12.463195068359376,0.5988922119140625,-0.23663330078125,-1.1256866455078125
1726995925561181200,12.47318115234375,0.5789794921875,-0.254913330078125,-1.222381591796875
1726995925571168300,12.483168212890625,0.456573486328125,-0.2095184326171875,-1.193206787109375
1726995925581155000,12.493155029296876,0.3009033203125,-0.1442413330078125,-1.1243438720703125
1726995925591141000,12.50314111328125,0.1603240966796875,-0.0807037353515625,-1.0111541748046875
1726995925601128200,12.513128173828125,0.044464111328125,-0.0342254638671875,-0.8917083740234375
1726995925611114200,12.5231142578125,0.00726318359375,-0.0044403076171875,-0.7992706298828125
1726995925621101000,12.53310107421875,-0.0111846923828125,0.0358734130859375,-0.7273101806640625
1726995925631088400,12.54308837890625,-0.0192413330078125,0.0847015380859375,-0.642120361328125
1726995925641074200,12.55307421875,0.0478515625,0.1183624267578125,-0.52508544921875
1726995925651061000,12.56306103515625,0.1508331298828125,0.130126953125,-0.4673919677734375
1726995925661047300,12.57304736328125,0.2093963623046875,0.1535186767578125,-0.45892333984375
1726995925671034000,12.5830341796875,0.3541107177734375,0.14996337890625,-0.4360198974609375
1726995925681021200,12.593021240234375,0.431549072265625,0.119293212890625,-0.48193359375
1726995925691007200,12.60300732421875,0.4647674560546875,0.131744384765625,-0.5301055908203125
1726995925700994300,12.612994384765624,0.50872802734375,0.12725830078125,-0.5133514404296875
1726995925710980000,12.62297998046875,0.5462493896484375,0.12493896484375,-0.531158447265625
1726995925720967200,12.63296728515625,0.5792083740234375,0.1279449462890625,-0.5557403564453125
1726995925730954200,12.642954345703124,0.6444244384765625,0.13958740234375,-0.5897369384765625
1726995925740940000,12.65293994140625,0.7270965576171875,0.175384521484375,-0.6795654296875
1726995925750927000,12.662927001953125,0.7860107421875,0.2368621826171875,-0.791412353515625
1726995925760913200,12.6729130859375,0.793792724609375,0.2795867919921875,-0.8861083984375
1726995925770900200,12.682900146484375,0.7942962646484375,0.3110198974609375,-1.022491455078125
1726995925780887000,12.692886962890626,0.8177947998046875,0.34552001953125,-1.1322021484375
1726995925790873000,12.702873046875,0.827056884765625,0.3544769287109375,-1.1628265380859375
1726995925800860200,12.712860107421875,0.8281707763671875,0.3430328369140625,-1.174591064453125
1726995925810846200,12.72284619140625,0.812957763671875,0.297698974609375,-1.0985565185546875
1726995925820833300,12.732833251953124,0.780059814453125,0.2087249755859375,-0.9989013671875
1726995925830819000,12.742819091796875,0.7363128662109375,0.109161376953125,-0.8817901611328125
1726995925840806100,12.75280615234375,0.7464752197265625,0.0167388916015625,-0.8081207275390625
1726995925850793200,12.762793212890625,0.750030517578125,-0.06573486328125,-0.7359466552734375
1726995925860779000,12.772779052734375,0.7350006103515625,-0.1298980712890625,-0.697509765625
1726995925870766000,12.78276611328125,0.72186279296875,-0.1850128173828125,-0.700897216796875
1726995925880752000,12.792752197265624,0.7140655517578125,-0.221710205078125,-0.724578857421875
1726995925890739200,12.8027392578125,0.691162109375,-0.2348785400390625,-0.781005859375
1726995925900726000,12.81272607421875,0.6488189697265625,-0.2225494384765625,-0.858673095703125
1726995925910712300,12.82271240234375,0.58990478515625,-0.2117919921875,-0.9079742431640625
1726995925920699100,12.83269921875,0.5436553955078125,-0.2072601318359375,-0.9278717041015625
1726995925930685000,12.842684814453126,0.4994354248046875,-0.2023468017578125,-0.93524169921875
1726995925940672300,12.85267236328125,0.4582366943359375,-0.20050048828125,-0.945037841796875
1726995925950659000,12.8626591796875,0.408721923828125,-0.2190093994140625,-0.941070556640625
1726995925960645000,12.87264501953125,0.3932342529296875,-0.218048095703125,-0.930908203125
1726995925970632200,12.882632080078125,0.374969482421875,-0.19915771484375,-0.9049530029296875
1726995925980618200,12.8926181640625,0.3364105224609375,-0.1815338134765625,-0.8720703125
1726995925990605000,12.90260498046875,0.321990966796875,-0.166015625,-0.82794189453125
