time,seconds_elapsed,z,y,x
1726995913105400800,0.01740087890625,0.015759294667840002,0.21882161462306976,0.12044336571842432
1726995913115388000,0.027387939453125,-0.2879875053077936,0.35245530130416153,0.15878624811619518
1726995913125374700,0.037374755859375,-0.9013029432803392,0.6239762404575944,0.07123509817421436
1726995913135361000,0.047361083984375,-1.5540233399242163,0.9247577608868479,-0.001902326489984989
1726995913145347800,0.057347900390625,-2.0172820719420907,1.0503145240962504,-0.24060323832035063
1726995913155333600,0.067333740234375,-2.4881758288830516,1.0118678890630601,-0.6256760301128029
1726995913165321000,0.077321044921875,-2.4918629929631946,0.8964721621230244,-0.658063803498447
1726995913175307800,0.087307861328125,-2.334342526999116,0.9165715318217873,-0.2750318698838353
1726995913185293600,0.09729345703125,-2.020480575722456,1.1434601330444216,0.23054069398939608
1726995913195281000,0.107281005859375,-1.6251210754543541,1.3862021369591355,0.7734931404471397
1726995913205266700,0.1172666015625,-1.3677157554149626,1.9575585478633641,1.0317883950635791
1726995913215253800,0.127253662109375,-1.1955763969898223,2.328646068923175,1.2920032195657492
1726995913225240800,0.13724072265625,-0.6911299145370722,2.7768898948997256,1.2926166752889752
1726995913235227000,0.147226806640625,0.05504793348312378,3.174152013918757,1.1986404607355594
1726995913245213700,0.157213623046875,0.9836275907456874,3.518421378418803,1.551636737048626
1726995913255199700,0.16719970703125,1.4596370832651853,3.5772704577505587,1.6588637705802916
1726995913265186800,0.177186767578125,-0.20915479161143302,2.772504811683297,3.4347073224216698
1726995913275173600,0.187173583984375,-0.18654840752780436,2.8213118049502373,5.3706099187940355
1726995913285160000,0.197159912109375,0.7446919933766126,3.5019483825236555,5.680476078432798
1726995913295146800,0.207146728515625,0.9639613517671823,3.651094403374195,5.762655764469504
1726995913305132800,0.2171328125,1.8019371935188768,3.743368782445788,5.588783883163333
1726995913315119600,0.22711962890625,1.9888135178267954,2.875144809685647,5.064977451202273
1726995913325107000,0.23710693359375,2.7594512688428163,2.057183874219656,4.143934034663438
1726995913335092700,0.2470927734375,3.8990474199354646,1.8256480317130683,2.8623499177813527
1726995913345079600,0.25707958984375,4.673869763159751,1.520237097917497,1.670297603264451
1726995913355065900,0.26706591796875,4.239682811847329,1.5663509065777061,1.487644449609518
1726995913365052700,0.277052734375,3.4085002834975717,1.004994642292708,1.1547680012613535
1726995913375039700,0.287039794921875,3.8214766889989376,2.919232080954313,0.5176771354258061
1726995913385025800,0.29702587890625,3.5930455345094203,-0.5276259902492165,0.06646949120759964
1726995913395012900,0.307012939453125,2.4185107565045354,-1.6475740225419402,0.5096235928297043
1726995913404998700,0.31699853515625,2.074731513608992,-2.091542947678268,-1.598045437002182
1726995913414985700,0.32698583984375,1.6560592345535754,-4.373823279006779,-6.028428515359759
1726995913424972800,0.336972900390625,3.456045586265623,-4.761413022056222,-7.34264064412415
1726995913434958600,0.34695849609375,5.719421602898835,-3.4444910498112438,-6.572911824646591
1726995913444946000,0.35694580078125,6.830387287312746,-2.1105404936149714,-2.589885560297966
1726995913454931700,0.366931640625,6.462196364477276,-2.1160402600750325,0.7392652921527624
1726995913464918800,0.376918701171875,5.726405470436811,-0.8686743468761443,2.6608944485008714
1726995913474905900,0.38690576171875,2.717399595054984,0.09202025818005204,2.2066958057731387
1726995913484891600,0.3968916015625,-0.7514636794686317,-0.036598961339890955,-0.55467152582407
1726995913494878700,0.406878662109375,-3.1291473355442285,-1.1197279598012566,-2.6452403677731753
1726995913504864800,0.41686474609375,-4.557915817815065,-2.0626783799827098,-4.389377698752284
1726995913514851800,0.426851806640625,-4.1849785772353405,-2.83534062256366,-4.4553304726094005
1726995913524838700,0.436838623046875,-1.1903203761577605,-4.957803609162569,-3.2637048590719697
1726995913534825000,0.446824951171875,1.2566630261152982,-6.670102032810449,-1.5687456927597523
1726995913544811800,0.456811767578125,2.266401794195175,-6.439629727882147,-0.5890104332774877
1726995913554797800,0.4667978515625,2.2837316991806027,-5.911007420071959,0.6284545549154281
1726995913564784600,0.47678466796875,2.431989831280708,-3.8673897143900393,2.611142867860198
1726995913574772000,0.48677197265625,1.768861437869072,-1.8149444129996,3.921996918368339
1726995913584757800,0.4967578125,0.0661877516567707,-0.8441115680277347,4.645877009862661
1726995913594744600,0.50674462890625,-1.4834160182595253,-0.40290144008025525,3.743824709519744
1726995913604731000,0.51673095703125,-3.807468037390709,-0.18873408100381492,2.268755079323053
1726995913614717700,0.5267177734375,-3.805443838086724,1.7641539908304809,0.46857963477969167
1726995913624704800,0.536704833984375,-4.0545951245218514,6.160958916974067,-1.7319412817507982
1726995913634690800,0.54669091796875,-2.7419799095600843,4.944692198655009,-2.598322549253702
1726995913644678000,0.556677978515625,0.9846195243924856,5.846524718767404,-4.394298204019665
1726995913654663700,0.56666357421875,1.9278116443753242,5.262178185647726,-4.027138962319493
1726995913664650800,0.576650634765625,3.751464995139837,5.436501317852735,-5.615500625175238
1726995913674637800,0.586637939453125,4.3645887099325655,4.5979871314406395,-7.7730854862987995
1726995913684623600,0.59662353515625,0.5469757106244564,3.3740602537572384,-4.7716760573953385
1726995913694611000,0.60661083984375,-0.8464625150680541,1.8370596525654195,-4.0120588820874685
1726995913704596700,0.6165966796875,-1.5608073009759187,1.1896782788619398,-3.1383821968793866
1726995913714583800,0.626583740234375,-1.495462429884076,0.9215759159803389,-3.6119554021626707
1726995913724570600,0.636570556640625,-1.7483511492818593,0.5161251567434519,-3.872619431737065
1726995913734556700,0.646556640625,-1.3825351388841867,0.29646270738206804,-2.3515222098588944
1726995913744543700,0.656543701171875,-0.964909446272254,-0.2627027688603848,-1.352671915540099
1726995913754529800,0.66652978515625,-0.35038697059750556,-0.9421086355950683,-0.9792729026675224
1726995913764516900,0.676516845703125,-0.15504676932692527,-1.000841979592666,-0.949446504202485
1726995913774503700,0.686503662109375,0.001266074413061142,-0.7044006072595715,-0.5986380933225155
1726995913784490000,0.696489990234375,-0.036356677016615865,-0.5746571694826706,-0.021295886006951332
1726995913794476800,0.706476806640625,-0.5984872866749763,-0.19658389945505186,1.2392612249374388
1726995913804462600,0.716462646484375,-1.7555962981045246,-0.09493497658297419,2.489418522420525
1726995913814449700,0.72644970703125,-2.8200299484461544,-0.12722661438407376,3.1467285849422213
1726995913824436700,0.736436767578125,-4.472850931730866,0.9674272743120789,2.7684219262838363
1726995913834422800,0.7464228515625,-4.217477994301915,2.4218679579779505,1.4166396530598402
1726995913844409600,0.75640966796875,-4.22757619446814,1.3887109049096702,-1.549057241949439
1726995913854396000,0.76639599609375,-2.996182634165883,0.8276965859301387,-0.9339362158596515
1726995913864382700,0.7763828125,-1.0499240634739397,0.3146265789736062,0.2882230676293373
1726995913874369800,0.786369873046875,0.18140403037667274,-0.506878678035736,0.4264046268731355
1726995913884355800,0.79635595703125,1.3977858995079993,-0.666085562716797,0.28675416412055493
1726995913894342700,0.8063427734375,3.000957008960843,0.04345003281105309,-0.9590139584928751
1726995913904329700,0.816329833984375,3.926293154257536,-0.4944473952794447,-1.51723820836246
1726995913914315800,0.826315673828125,5.51700517963171,-1.5836067234136164,-1.2794371679812668
1726995913924302800,0.836302734375,6.525439879375695,-2.0794468516930937,0.4472469238936901
1726995913934288600,0.84628857421875,5.82344253386557,-2.28279558737427,1.5745944187879561
1726995913944276000,0.85627587890625,3.61675023522377,-2.0582760533705353,1.8618331515550612
1726995913954261800,0.86626171875,1.6665461417764424,-1.5686327339045703,2.1289239993065596
1726995913964248600,0.87624853515625,0.5316904632091521,-1.0370182585410772,2.1198113030463457
1726995913974235600,0.886235595703125,-0.6754232268393039,-0.2876361163205467,1.7659072642385958
1726995913984221700,0.8962216796875,-1.3131319323122501,0.15962284507080912,1.0161293458998202
1726995913994208800,0.906208740234375,-1.2590648265600204,0.4218650106821209,0.1602519367545843
1726995914004194800,0.91619482421875,-1.3329098149716854,0.4967474158501252,-0.507035329902172
1726995914014182000,0.926181884765625,-1.4541723881185054,0.4418075823839754,-0.7993518043249845
1726995914024168700,0.936168701171875,-1.5236942526340485,0.34755572922695427,-0.9174620509207249
1726995914034154800,0.94615478515625,-1.4818787256896495,0.22680870438683776,-0.987138229215145
1726995914044141800,0.956141845703125,-1.290403383153677,0.11434910396393388,-0.9276812471181154
1726995914054127600,0.966127685546875,-0.9021499154984951,-0.042234081150032576,-0.7779074497580528
1726995914064114700,0.97611474609375,-0.44842941167652606,-0.2555092954260297,-0.5740098480224609
1726995914074101800,0.986101806640625,0.0322901582300663,-0.5271314847305417,-0.4233697892218828
1726995914084087800,0.996087890625,0.7430635153919458,-0.694986516899988,0.12291384748518466
1726995914094074600,1.00607470703125,1.4911445666849612,-0.8889135634370148,0.2496890465736389
1726995914104062000,1.01606201171875,0.9238578894376754,-0.9374706735961139,-0.1647311279952526
1726995914114047700,1.0260478515625,0.850476426884532,-1.123942801017314,0.28801497783660884
1726995914124034800,1.036034912109375,0.4554635480970144,-1.132502393439412,0.7875801179885864
1726995914134020900,1.046020751953125,0.17670505890548227,-1.004055754007399,1.1442974606513976
1726995914144007700,1.056007568359375,0.007853051587939261,-0.9134183284878731,1.1550620157718658
1726995914153993700,1.06599365234375,0.011410451808571816,-0.847469938544929,0.8151163596898316
1726995914163980800,1.075980712890625,-0.21726970900595186,-0.7969825179103761,0.348366278424859
1726995914173967600,1.085967529296875,-0.2466127078682184,-0.7279761286363006,0.05707271730899811
1726995914183953400,1.095953369140625,-0.16917875505387783,-0.7192534546069801,-0.4503086495518684
1726995914193940700,1.105940673828125,-0.26959084787368776,-0.645383477884531,-0.7451040813088416
1726995914203926500,1.115926513671875,-0.4836141223043203,-0.3892652750462293,-0.5601420661896467
1726995914213913600,1.12591357421875,-0.46400575099289415,-0.3676072777286172,-0.10185235475599765
1726995914223900700,1.135900634765625,-0.4779594575434923,-0.31048845625557003,-0.32463702779114245
1726995914233886700,1.14588671875,-0.4537742798358202,-0.22762703503239898,-0.31587738275229926
1726995914243873500,1.15587353515625,-0.25871757168173787,-0.18769955032430588,-0.29561960762143136
1726995914253859600,1.165859619140625,0.03827624690234661,-0.002215904217492789,-0.16029226876497268
1726995914263846700,1.1758466796875,0.3701443949908018,0.021664299194235355,-0.7870008567959069
1726995914273833500,1.18583349609375,0.5088923559457064,0.05984400865323841,-1.277689447531104
1726995914283819800,1.19581982421875,0.7143348490357398,0.2058396939803846,-1.2762778271675108
1726995914293806600,1.205806640625,0.7279010175734758,0.3502192128151655,-0.9486924709647894
1726995914303792600,1.215792724609375,0.622953034889698,0.4025657418524846,-0.6683107644855976
1726995914313779700,1.22577978515625,0.3221913882046938,0.509881001656875,-0.1264274085640907
1726995914323766800,1.235766845703125,0.023925065466761587,0.6671397479448468,0.44323651920855045
1726995914333752600,1.245752685546875,-0.19032091180384159,0.7616666551835835,0.9883885215371847
1726995914343739400,1.255739501953125,-0.2810644280463457,0.8707365401029586,1.2810107009083032
1726995914353725700,1.2657255859375,-0.3241296627908945,0.9747325558241456,1.4305594573408364
1726995914363712500,1.27571240234375,-0.1015671080738306,1.097345082275197,1.3907920950978994
1726995914373699600,1.285699462890625,0.2122013197004795,1.2071055798072368,1.0307055682629347
1726995914383685600,1.295685546875,0.8144803998738527,1.246604135046154,0.582652004161477
1726995914393672700,1.305672607421875,1.4866145220398903,1.1739300170447677,-0.12079963181018828
1726995914403658800,1.31565869140625,1.9173954643011093,1.0940813312388955,-0.5679325739353895
1726995914413645600,1.3256455078125,1.940398738747835,0.8527575966242701,-0.62431087923944
1726995914423632600,1.335632568359375,1.7963363047719,0.4978380240984261,-0.569720041874051
1726995914433618400,1.345618408203125,1.5963205129057167,0.08933984172334894,-0.4792033201247453
1726995914443605800,1.355605712890625,1.2031371876329182,-0.220046480242908,-0.6392945133596658
1726995914453591600,1.365591552734375,0.9331757528811693,-0.4139380536077544,-0.6372399189174175
1726995914463578600,1.37557861328125,0.5115273806244135,-0.533151877531223,-0.23181027553379535
1726995914473565700,1.385565673828125,0.31582828291356563,-0.6439410970564932,0.34645489184558387
1726995914483551500,1.395551513671875,0.18524959988892079,-0.8392494418840855,0.47941608609259123
1726995914493538600,1.40553857421875,0.3163128515601158,-1.1328567598350345,0.4910322896063328
1726995914503524600,1.415524658203125,0.6573100625216961,-1.4435611238636075,0.7371615978717804
1726995914513511700,1.42551171875,0.8736188175410031,-1.7397174687102437,0.9973550873249769
1726995914523498500,1.43549853515625,0.9203507580995559,-2.0024045285448433,1.1585171246618031
1726995914533484800,1.44548486328125,0.9303010742276906,-2.198297395262122,1.130033372977376
1726995914543471600,1.4554716796875,0.715021077734232,-2.210890042592585,1.233843291541934
1726995914553457400,1.46545751953125,0.41741468020975586,-2.4214310278654096,0.965989058202505
1726995914563444700,1.47544482421875,0.2146241629332304,-2.638744576013088,0.4515595263957977
1726995914573431600,1.485431640625,-0.38648178180754184,-2.675768484766781,0.20459902800321578
1726995914583417600,1.49541748046875,-0.840550660675764,-2.491954178377986,0.1526262641817331
1726995914593404400,1.505404296875,-1.1854098077625035,-2.128635537753999,-0.019485037192702292
1726995914603390700,1.515390625,-1.7832120347827671,-1.7019808816425501,0.05059679929316044
1726995914613377500,1.52537744140625,-2.146217079412937,-1.0767081716336309,0.03982113825678825
1726995914623364600,1.535364501953125,-2.26440652872473,-0.20621829976812003,-0.4789256722271442
1726995914633350700,1.5453505859375,-2.4221663564026352,0.2979683627046644,-1.0575666871815919
1726995914643337500,1.55533740234375,-2.2735013970673084,0.7739838465735316,-1.6200345659703015
1726995914653323800,1.56532373046875,-1.7705752560496328,1.2856953515931964,-2.06592364551425
1726995914663310600,1.575310546875,-1.0772171440690754,1.7706281552806495,-1.7045377265185118
1726995914673296600,1.585296630859375,-0.36947920908033843,2.1594266895979644,-1.2425550057858228
1726995914683283500,1.595283447265625,-0.013424129718542099,2.5398370425373313,-1.0766554185330868
1726995914693270800,1.605270751953125,0.08539514095187187,2.9166125461056827,-0.9507418047100304
1726995914703256600,1.615256591796875,0.5169423914104699,3.1303198864549397,-0.797547385251522
1726995914713243600,1.62524365234375,0.8295213171392679,3.0359099566593764,-0.39625791041254993
1726995914723229700,1.635229736328125,1.0633522848457098,2.80141614113003,0.23682488882541655
1726995914733216500,1.645216552734375,1.4837240612953901,2.5395892052561044,0.7283563601255416
1726995914743203600,1.65520361328125,1.8712252492785453,2.005394065749645,1.3335416831344364
1726995914753189600,1.665189697265625,2.0220815811783073,1.6049663223065436,1.957299604666233
1726995914763176700,1.6751767578125,1.8940297862827777,1.4349251052044332,2.472436407959461
1726995914773162500,1.68516259765625,1.714326714605093,1.3350959268391132,2.8286142369180918
1726995914783149800,1.69514990234375,1.5353209775418042,1.2543040418989955,2.8267642251372336
1726995914793136600,1.70513671875,1.2308943786084652,1.1332955165784806,2.577223647123575
1726995914803122400,1.715122314453125,1.1746581121236086,1.006068335938826,2.139939314317703
1726995914813109800,1.72510986328125,1.2454963199347258,0.8287977521050721,1.7559604552417993
1726995914823095600,1.735095458984375,1.2316378904521466,0.7133413079537451,1.2710446026891469
1726995914833082600,1.74508251953125,1.234309740009904,0.6665917586732656,0.6301940920591353
1726995914843069400,1.7550693359375,1.1340069527834653,0.7148006399165838,-0.03448386888206005
1726995914853055700,1.7650556640625,0.9948504110276698,0.8464765435934066,-0.7178805588185787
1726995914863042600,1.77504248046875,0.7456541164070367,0.7822182256292551,-1.0708423483401537
1726995914873028600,1.785028564453125,0.36568741558194157,0.631441242576018,-1.045443703189492
1726995914883015700,1.795015625,0.01632277376949787,0.40149851447977125,-0.7621130837768316
1726995914893002500,1.80500244140625,-0.12011691024303435,0.2907987998688593,-0.6791472157984971
1726995914902988800,1.81498876953125,-0.028384967485070228,0.24386066921371966,-1.0119862547457217
1726995914912975600,1.8249755859375,0.2535147423416376,0.13725268089585005,-1.2068179219722748
1726995914922961700,1.834961669921875,0.3658692018896341,-0.19616145452558992,-0.9660486794352531
1726995914932948500,1.844948486328125,0.2847521766483784,-0.47257155396007,-0.44895022068023677
1726995914942934500,1.8549345703125,0.11851707383096217,-0.5395345643056556,-0.10606968019008636
1726995914952921600,1.864921630859375,0.19527298125326634,-0.5992173179825767,-0.009624152913689612
1726995914962908400,1.874908447265625,0.3549994328290224,-0.7065160650435834,0.14169453580081462
1726995914972894700,1.884894775390625,0.4987725284695625,-0.6680136812351644,0.8605050689458846
1726995914982881500,1.894881591796875,0.4141296671897173,-0.60549760382846,1.5619839435398577
1726995914992867600,1.90486767578125,0.047270285218954086,-0.7514940746068954,1.6638362982958554
1726995915002854700,1.914854736328125,-0.48249476288557047,-0.9425565254930406,1.7910171555757521
1726995915012841700,1.924841796875,-0.7128010635972023,-1.1465044691763817,1.8271943843722342
1726995915022827500,1.93482763671875,-0.7023591645598412,-1.2574511077530681,1.9095324758410452
1726995915032814600,1.944814697265625,-0.5287070634841918,-1.2767501208543777,1.607334658873081
1726995915042800600,1.954800537109375,-0.3556131808131933,-1.3345404849134386,1.119753386503458
1726995915052787500,1.964787353515625,-0.11149521237015723,-1.4213999993294477,0.6797673935234546
1726995915062774800,1.97477490234375,0.11638239988982677,-1.4055238002836703,0.20294132392406464
1726995915072760600,1.984760498046875,0.2259954517751932,-1.3553652462773025,-0.34281975021362304
1726995915082747600,1.99474755859375,0.3733037358045578,-1.2624508157365024,-0.6328501595258712
1726995915092733700,2.004733642578125,0.24353753820657728,-1.275251698990166,-0.4616296695113182
1726995915102720500,2.014720458984375,0.13020868066847324,-1.3316427176453172,-0.23529227243065834
1726995915112706600,2.02470654296875,-0.0731722037166357,-1.2510882947228847,-0.1761690523326397
1726995915122693600,2.034693603515625,-0.21970950337350367,-1.0318399060551076,-0.030821839243173596
1726995915132680700,2.0446806640625,-0.3298141381680965,-0.6758012663714588,0.05408113427758217
1726995915142666500,2.05466650390625,-0.3397445805519819,-0.2714528240869753,-0.06948679320216178
1726995915152653800,2.06465380859375,-0.40675943068265913,0.128180115716625,-0.28517946214973927
1726995915162640100,2.07464013671875,-0.41730654366016384,0.48504481269456445,-0.687262133193016
1726995915172627000,2.084626953125,-0.40412499052584167,0.737076915263012,-0.8036147224664688
1726995915182614000,2.094614013671875,-0.4358177673846483,0.7921262369856238,-0.38044074807763095
1726995915192600000,2.10460009765625,-0.3058575085192919,0.6459485644213855,0.257976982447505
1726995915202587000,2.1145869140625,-0.03915770591199398,0.3653554071485996,0.6939771206617354
1726995915212573000,2.124572998046875,0.4294780429691076,0.03516889200415462,0.928843861156702
1726995915222560000,2.13456005859375,1.0385498520225287,-0.18638952717166393,0.8040396698802709
1726995915232547000,2.144547119140625,1.5131868871450422,-0.28245635732878,0.4511152897596359
1726995915242532900,2.154532958984375,1.9371008662462232,-0.4514805428754538,-0.008468553137779236
1726995915252520200,2.164520263671875,2.0658044030487535,-0.6637560968559235,-0.5735112508505582
1726995915262506000,2.174506103515625,1.885489336952567,-0.8486048608589917,-0.8802934729993342
1726995915272492800,2.184492919921875,1.6062071161478757,-1.191559854824841,-0.9629664955109357
1726995915282480000,2.194480224609375,1.1235182919949291,-1.5295919323705136,-0.8122633083462715
1726995915292466000,2.2044658203125,0.6784037039548159,-1.691023288168013,-0.32834114300608636
1726995915302453000,2.214452880859375,0.2705775208234787,-1.7612714211314915,0.25935411601960656
1726995915312439000,2.22443896484375,0.05079612125754356,-1.9252163671851157,0.7453437352836132
1726995915322426000,2.234426025390625,0.049989481049776074,-2.1183931068114936,1.228071137881279
1726995915332413000,2.244412841796875,0.04824643677473068,-2.1811980841621756,1.3496908539026975
1726995915342399000,2.25439892578125,0.25816987467110153,-2.0573785200089216,1.3678490264058112
1726995915352386000,2.264385986328125,0.558000377985835,-1.7632731163427233,1.0179664981991052
1726995915362371800,2.274371826171875,0.8594681271135807,-1.4466446229621768,0.33540275195538993
1726995915372359000,2.28435888671875,1.1474082861483097,-1.180267476437986,-0.13165537234544752
1726995915382345000,2.294344970703125,0.9137450762242079,-0.8308264083884656,-0.16854104167222975
1726995915392332000,2.30433203125,0.44089492451846596,-0.428582628499344,0.16531740345060825
1726995915402318800,2.31431884765625,0.028683658170700073,-0.043097209918545556,0.44934944913089275
1726995915412305000,2.324304931640625,-0.26473347097039224,0.33241518751196564,0.5063046775400638
1726995915422292000,2.3342919921875,-0.2723720030248165,0.8338379382293671,0.3937690162062645
1726995915432278000,2.344278076171875,-0.5317348868727684,1.1496871908657251,0.1391764155000448
1726995915442265000,2.35426513671875,-0.4943891988188028,1.4142067268244922,-0.41541152369379997
1726995915452252000,2.364251953125,-0.042337504991889,1.7272211213611066,-0.7002975558549165
1726995915462238000,2.374238037109375,0.1794762771844864,1.8983638699643313,-0.7547106985658407
1726995915472225000,2.38422509765625,0.6367004052132368,1.7929760345585644,-0.740047382441163
1726995915482210800,2.3942109375,1.1320061343550682,1.7537933403357862,-0.42785541020333767
1726995915492198000,2.404197998046875,1.4354583352982997,1.5670292442306875,-0.11534545805752276
1726995915502185000,2.41418505859375,1.909022188231349,1.285738898473978,-0.03995324020385742
1726995915512171000,2.4241708984375,1.901890436655283,1.0560091555412858,-0.14682254633903502
1726995915522157800,2.43415771484375,1.6353917095780373,0.785827721363306,-0.21298340998888016
1726995915532144000,2.44414404296875,1.3130980300426482,0.599730345538631,-0.4987631761193275
1726995915542131000,2.454130859375,1.030734794357419,0.81130556923002,-0.8282458903759717
1726995915552118000,2.464117919921875,0.7286825233399867,0.9527443767040967,-0.6413385864078999
1726995915562104000,2.47410400390625,0.34062194790840145,1.000308968694508,-0.1747135928273201
1726995915572091000,2.4840908203125,-0.5015308872669935,1.1357058656558394,0.45696050865650173
1726995915582077000,2.494076904296875,-1.2520172461360692,1.3425295839712024,0.9824912801921367
1726995915592064000,2.50406396484375,-1.3234540043622254,1.1967645838610828,1.2006669981271028
1726995915602050000,2.514050048828125,-1.53448978741467,0.7066646066688,1.3372417066961526
1726995915612036900,2.524036865234375,-1.8321306717306374,0.15931337726283817,1.1456307550817728
1726995915622024000,2.53402392578125,-1.8934142847329376,-0.26525975986681877,0.48315644166469573
1726995915632010000,2.544010009765625,-1.9111995322704314,-0.6377683267056942,0.023660861572623253
1726995915641997000,2.5539970703125,-1.7473843500763178,-1.084430509513989,-0.23763562068641184
1726995915651983000,2.563983154296875,-1.6737170563191175,-1.4239426695495843,-0.6785989342659712
1726995915661970000,2.573969970703125,-1.811170885810256,-1.7520993958994746,-0.3549620234280824
1726995915671957000,2.58395703125,-1.745927137005329,-1.932062287557125,0.5511094494283199
1726995915681943000,2.593943115234375,-1.3175234452694653,-2.0971815380871295,1.0440765064895152
1726995915691930000,2.60393017578125,-1.3525386445492504,-2.1088940415821966,0.5493254886209964
1726995915701916000,2.613916015625,-0.7587988446623086,-1.9421096343189477,0.021454291439056396
1726995915711903000,2.623903076171875,0.45162265475988383,-1.8067032388769089,-0.6645137102901936
1726995915721890000,2.63389013671875,1.0850766253978013,-1.5148425453975796,-1.229665713596344
1726995915731875800,2.643875732421875,1.2530296380490065,-1.0683069846436382,-1.4450485859423874
1726995915741863000,2.65386279296875,1.1390297493815422,-0.28083686636816707,-1.0341472331494093
1726995915751849000,2.663848876953125,1.1834294476002454,0.4907424032816663,-0.339483299267292
1726995915761836000,2.6738359375,1.3864911830335855,1.2226735166214406,0.22351532539725302
1726995915771822000,2.683822021484375,1.3842103786200284,1.7390689416736362,0.43783261433839793
1726995915781809200,2.69380908203125,1.2439976058095692,2.0817460685461757,0.5468973846912384
1726995915791796000,2.7037958984375,0.9499673132061958,2.220338400547951,0.5917331362396479
1726995915801782000,2.713781982421875,0.31107728899419307,1.9963142488457262,0.6061152973353863
1726995915811769000,2.72376904296875,-0.247960030823946,1.6019818996682762,0.9059019615083932
1726995915821755000,2.7337548828125,-0.38650282459557056,1.194771218086779,1.172754908850789
1726995915831742000,2.743741943359375,-0.12431553097665309,0.8578967130783944,1.0054553916722535
1726995915841729000,2.75372900390625,0.0029588498055934903,0.42217707230597734,0.5078945770800113
1726995915851715000,2.763715087890625,-0.07866320234835147,-0.06601216676100156,0.024336568877100943
1726995915861702000,2.773701904296875,-0.520288194707036,-0.641203488786146,-0.35927170332074165
1726995915871688000,2.78368798828125,-0.8124106078624724,-1.2025726125527172,-0.4081237047731876
1726995915881675000,2.793675048828125,-0.6770499512583017,-1.6006157258816063,-0.32098435050249097
1726995915891661800,2.803661865234375,-0.7166787818133831,-1.958151837581396,-0.2219739411741495
1726995915901648100,2.813648193359375,-0.5089402867406606,-2.22728325124979,0.055500353425741195
1726995915911635000,2.823635009765625,0.05472293931245804,-2.344292258605361,0.03264320945143699
1726995915921621000,2.83362109375,0.502289012157917,-2.2073133531495928,-0.35593349880874153
1726995915931608000,2.843608154296875,0.4135696952193975,-1.8430356582351028,-0.5552151311814785
1726995915941595100,2.85359521484375,0.16656243507564067,-1.1518190152626484,-0.5988081891924143
1726995915951581000,2.863580810546875,-0.028072248274087903,-0.40682833120040596,-0.42160336407124993
1726995915961568000,2.873568115234375,-0.4828647652417421,0.04238746334714815,-0.6031897652775049
1726995915971554000,2.883553955078125,-0.5515092624008655,0.40480906379986553,-0.47057110085785386
1726995915981540900,2.893540771484375,-0.003312485548853874,0.4788971402524039,-0.39029695618152616
1726995915991527200,2.903527099609375,0.7048878062546253,0.25921748402789235,-0.08717851723730563
1726995916001514000,2.913513916015625,1.463226047667861,0.32218441047463564,-0.4200672405451536
1726995916011501000,2.9235009765625,1.5760966400444507,0.5446527841022237,-0.8991904811710119
1726995916021487000,2.933487060546875,1.4756114819884298,0.7394451787643134,-0.839118582046032
1726995916031474000,2.943473876953125,1.238123160818219,0.9334121919855475,-0.5422609570622444
1726995916041460000,2.9534599609375,1.1848995201528072,0.8624728618875145,-0.25070669918358324
1726995916051447000,2.963447021484375,1.0376783298850059,0.5043725039010867,0.20238135195374488
1726995916061434000,2.97343408203125,0.5617132610291242,-0.08818117320751771,0.7134756018579006
1726995916071420000,2.983419921875,0.2876391302615404,-0.7130326803959905,1.0218687663346528
1726995916081407000,2.993406982421875,0.02823065370619297,-1.3118889465138315,1.1310235530585049
1726995916091393000,3.00339306640625,-0.07718377744555473,-1.7940348959617316,1.2083218967944382
1726995916101379800,3.0133798828125,-0.1689531296044588,-2.0667294089391826,1.1853449258327484
1726995916111367000,3.023366943359375,-0.2334773319631815,-2.0294597087308763,0.9249433465868234
1726995916121353000,3.03335302734375,-0.20322247895300388,-1.7130261534005402,0.5609498754411936
1726995916131340000,3.043340087890625,-0.32070085738599297,-1.2387459688916802,0.3302466843664646
1726995916141325800,3.053325927734375,-0.4772153611779213,-0.7902338473677635,0.2949421467512846
1726995916151313200,3.063313232421875,-0.5240408252388239,-0.3885066386986524,0.43714521659612654
1726995916161300000,3.073300048828125,-0.3237152367711067,0.0005103058760054409,0.4570446798086166
1726995916171285800,3.08328564453125,-0.16023264753222466,0.3486222259473055,0.4056821568399667
1726995916181273000,3.093273193359375,0.04603986664116382,0.6622641047324985,0.3948223246514797
1726995916191259000,3.1032587890625,0.2195990287363529,0.9658850133061408,0.4421937321573496
1726995916201246000,3.113245849609375,0.6022603754729032,1.2025133566461503,0.441394690734148
1726995916211232000,3.12323193359375,0.9591437223523854,1.3188720833994447,0.22378069833517072
1726995916221219000,3.133218994140625,1.4555056825488806,1.429679751896858,0.14449381113052367
1726995916231206000,3.143205810546875,1.888520082950592,1.421069159939885,0.3160556619286537
1726995916241192000,3.15319189453125,2.2061691515505313,1.3391953249819577,0.6825806973785161
1726995916251179000,3.163178955078125,2.5128970131635664,1.1299625727634877,0.8747761708825826
1726995916261164800,3.173164794921875,2.8765602294415236,0.7908534405708313,0.9340484440624713
1726995916271152000,3.183152099609375,3.009386983653903,0.23301455502333118,1.0577899745434522
1726995916281139000,3.193138916015625,2.5145424422830343,-0.33138120482172817,1.051749525335431
1726995916291125000,3.203125,1.813129034140706,-0.78612093215622,1.0171844079107046
1726995916301112000,3.213112060546875,0.9491858074396848,-1.1411516369063406,1.0308639736950398
1726995916311098000,3.22309814453125,0.3294786226034164,-1.4208851816751062,0.8579594761162995
1726995916321085000,3.2330849609375,-0.0032809213668107983,-1.56947692964375,0.8984826251626015
1726995916331072000,3.243072021484375,-0.09107143302261829,-1.7431196783691643,0.8987479981005191
1726995916341058000,3.25305810546875,-0.11493746177852153,-2.014708422061801,0.7922627228468656
1726995916351044900,3.263044921875,-0.045916532522439955,-2.319864942704886,0.827139390438795
1726995916361031200,3.27303125,0.2385825461477041,-2.627243523311615,0.9295037863701582
1726995916371018000,3.28301806640625,0.450481083509326,-2.7565868193224072,1.030710244438052
1726995916381005000,3.293005126953125,0.4444610925674438,-2.797958401891589,0.9788286660313605
1726995916390990800,3.302990966796875,0.4524649508029222,-2.6035496362522244,0.7878677027583122
1726995916400978200,3.312978271484375,0.33101591517329215,-2.1131698192052544,0.535156093493104
1726995916410964000,3.3229638671875,0.2645890940636396,-1.6917035255171358,0.3316886998683214
1726995916420950800,3.33295068359375,0.2660124048650265,-1.3928615948483347,0.22349252904355524
1726995916430938000,3.342938232421875,0.41059623236656184,-1.150202812237665,0.16103753417432307
1726995916440924000,3.352923828125,0.5971037233620882,-0.909552300709486,0.16305179660618305
1726995916450911000,3.362910888671875,0.818823397514224,-0.6911034649215638,0.20811258908212182
1726995916460897000,3.37289697265625,0.9563964694708585,-0.40370000657942146,0.3658528352767229
1726995916470884000,3.382884033203125,1.0284434685498476,-0.155721106658224,0.5879775830984115
1726995916480870000,3.392869873046875,1.0786036299914121,0.06900090024820528,0.7362883221685886
1726995916490857000,3.40285693359375,1.1662906812727452,0.23596438127225264,0.7408382405579089
1726995916500844000,3.412843994140625,1.2645768679797649,0.39779081906825303,0.5002952079921961
1726995916510829800,3.422829833984375,1.3982207837939262,0.5871242542047054,0.19435703545212746
1726995916520817200,3.432817138671875,1.5712363405317067,0.7694017064150422,-0.0479448234796524
1726995916530803000,3.442802978515625,1.5945955888092518,0.8206341001980006,-0.21967209397256374
1726995916540790000,3.4527900390625,1.5875363179475068,0.7430212106201798,-0.14377134207487105
1726995916550776800,3.46277685546875,1.2555875058382748,0.5252057408323512,0.3393395068824291
1726995916560763000,3.472762939453125,1.070058504486084,0.17646345043564216,0.9773404733002186
1726995916570750000,3.48275,0.757244600957632,-0.19725637362282722,1.3214514323681592
1726995916580736000,3.492736083984375,0.745347826936841,-0.48575610276907677,1.4620307004034518
1726995916590723000,3.50272314453125,0.7428577636867761,-0.6871977627199143,1.2953010920673609
1726995916600710000,3.5127099609375,0.6362789649307727,-0.8413852848690002,0.8790420116335153
1726995916610696200,3.5226962890625,0.6313339097440243,-1.056389094769582,0.5454629679739474
1726995916620683000,3.53268310546875,0.563860209929943,-1.2368079865664243,0.11167641415596008
1726995916630668800,3.542668701171875,0.4213490970492363,-1.3790354602001607,0.005287585014104843
1726995916640656000,3.55265576171875,0.17618483442366123,-1.3739543575435875,0.23726035763323305
1726995916650643000,3.562642822265625,-0.11556816089749336,-1.3214606385879217,0.4415221165060997
1726995916660629000,3.57262890625,-0.17216683095395563,-1.3077686517134308,0.5363508562356233
1726995916670615800,3.58261572265625,-0.0859814164072275,-1.271587331263721,0.5592231977790594
1726995916680602000,3.59260205078125,-0.009983049353957175,-1.1797967171210795,0.40744741294682024
1726995916690589000,3.6025888671875,0.12000526656210422,-1.054575761737302,0.23298341096639633
1726995916700576000,3.612575927734375,0.23384090457856654,-1.0263519761633126,0.06554243949055671
1726995916710562000,3.62256201171875,0.3347136006474495,-0.9953394366536289,0.015396306574344635
1726995916720548900,3.632548828125,0.3441553827315569,-1.0282430506069213,0.04794657704532146
1726995916730535000,3.642534912109375,0.29933541327416896,-1.0385339238010347,0.02340659455060959
1726995916740522000,3.65252197265625,0.3478898930847645,-1.0655552747827022,-0.05988952829539775
1726995916750508000,3.662508056640625,0.34134266339838504,-0.9703149585776031,-0.06763210524618625
1726995916760494800,3.672494873046875,0.38313422494530675,-0.9596442922856658,0.11007540870010853
1726995916770482200,3.682482177734375,0.47499008634388445,-1.0041159597620368,0.37338323078155516
1726995916780468000,3.692468017578125,0.4006166901439428,-1.152335294221714,0.6288871011137962
1726995916790454800,3.702454833984375,0.18380933795273302,-1.2827305104382336,0.6471615934729575
1726995916800441000,3.712441162109375,-0.2458721186339855,-1.0954915633630007,0.6658809069901704
1726995916810428000,3.722427978515625,-0.8508832541197537,-0.8248612163737415,0.5525812755465507
1726995916820415000,3.7324150390625,-1.2356845354944468,-0.5426389965943992,0.2930412815660238
1726995916830401000,3.742401123046875,-1.4597633399933576,-0.40642201542183753,0.3704185357570648
1726995916840388000,3.75238818359375,-1.4769973833888768,-0.5397202961361035,0.31926644066870213
1726995916850374000,3.762373779296875,-1.5603595572084188,-0.4621549354944378,0.0029839842468500134
1726995916860361200,3.772361328125,-1.5946756683081387,-0.3036746845874935,-0.2718658070683479
1726995916870348000,3.78234814453125,-1.4871119501680135,-0.19410313375629484,-0.29451076959669586
1726995916880333800,3.792333740234375,-1.3567366807609795,-0.13748473608605563,-0.18828794467151164
1726995916890321000,3.80232080078125,-0.9733324067026377,-0.19362623695954678,-0.1957265702396631
1726995916900307000,3.812306884765625,-0.5906769051849842,-0.32135289155393837,-0.2700847688704729
1726995916910294000,3.8222939453125,-0.2668997090935707,-0.4318361504025757,-0.4696773668885231
1726995916920280000,3.832280029296875,-0.07144494153261184,-0.49606721503362056,-0.49174248370230195
1726995916930267100,3.84226708984375,-0.0018903437912464142,-0.468192973549664,-0.39833120955526824
1726995916940254000,3.85225390625,0.04617664476335048,-0.3927162922829389,-0.2758405559182167
1726995916950240000,3.862239990234375,-0.002433364626765251,-0.29991321316212416,-0.07516016266345978
1726995916960227000,3.87222705078125,-0.1544622474372387,-0.14056874664127825,0.23608079245984553
1726995916970212900,3.882212890625,-0.2399339607566595,0.11423355129286646,0.6178139184355735
1726995916980200000,3.892199951171875,-0.2632142985790968,0.3740377491675317,0.8999263942301273
1726995916990187000,3.90218701171875,-0.19997779794335363,0.5945666060999035,1.0829337681502103
1726995917000173000,3.912173095703125,0.026051556101441383,0.7797488398410379,1.1428203738361595
1726995917010159900,3.922159912109375,0.3640256198495626,0.9133062464155256,1.118621167603135
1726995917020146000,3.93214599609375,0.8455594287484883,0.8830432100988924,1.0663584809243678
1726995917030133000,3.942133056640625,1.439573953923583,0.7698463083773851,1.029680901390314
1726995917040119800,3.952119873046875,1.8897201063901186,0.7315120476774871,0.9133739048242568
1726995917050106000,3.962106201171875,2.087325914505124,0.7518594007879495,0.7429851894587278
1726995917060093000,3.972093017578125,1.7322838115781545,0.7152049098685384,0.5572101043909787
1726995917070079000,3.982078857421875,1.1362748977154493,0.6319131709367036,0.4432160609424114
1726995917080066000,3.992066162109375,0.6440811631143093,0.5833157287672162,0.2775000135630369
1726995917090053000,4.00205322265625,0.21809739200174807,0.6045560851946473,0.1969078889787197
1726995917100039000,4.012038818359375,-0.1730582268357277,0.6330263928756118,0.35314123774170875
1726995917110026000,4.02202587890625,-0.25878420717716216,0.6153086576163769,0.41846097439229485
1726995917120012000,4.032011962890625,-0.34174189184904097,0.5597668031364679,0.42048868082761764
1726995917129998800,4.041998779296875,-0.2953407906800508,0.4458696441911161,0.49662674861252304
1726995917139986000,4.05198583984375,-0.16572656877338884,0.2472317165493965,0.6463689817905426
1726995917149972000,4.061971923828125,0.04451777164041996,-0.04861103230342269,0.7485135974913835
1726995917159958500,4.07195849609375,0.34862522162199017,-0.34360154824107886,0.8402882103472947
1726995917169944600,4.081944580078125,0.6253004747986793,-0.6226498141594231,0.9126970284759998
1726995917179931600,4.091931640625,1.0229904638409615,-0.7738196689877659,1.0093366170197724
1726995917189917400,4.10191748046875,1.289250705987215,-0.7614668948277831,1.0795376959711314
1726995917199904800,4.11190478515625,1.2906973976641893,-0.5675272810701281,1.1030267081081866
1726995917209891600,4.1218916015625,1.2210738263398409,-0.2659264070820063,1.0374527044355868
1726995917219877600,4.131877685546875,1.0857406422644853,0.00993029625341296,0.8862555962741374
1726995917229864700,4.14186474609375,1.0299480278939008,0.23219079928398131,0.7119149284124374
1726995917239850500,4.1518505859375,0.9528332240313291,0.3043597442422062,0.5403969167560339
1726995917249837600,4.161837646484375,0.9343272610038519,0.22475787280425427,0.3823965583205223
1726995917259824600,4.17182470703125,0.9427987367510795,0.05406790946982801,0.3871551510244608
1726995917269810700,4.181810791015625,0.8294570197314024,-0.0738648621559143,0.48684419026672837
1726995917279797500,4.191797607421875,0.7418243289858102,-0.196747876111418,0.4451163416057825
1726995917289783800,4.20178369140625,0.6081961952626704,-0.18464133179746567,0.41426878339946266
1726995917299770600,4.2117705078125,0.49890404589474197,-0.14947086889073252,0.45121290491521354
1726995917309757700,4.2217578125,0.4579641327410936,-0.12783647164441644,0.453455715405941
1726995917319743700,4.23174365234375,0.43633097760379314,-0.10870258597694336,0.5107955592185258
1726995917329730600,4.24173046875,0.4083931693643331,-0.11304039598554372,0.5654542011231184
1726995917339716600,4.251716552734375,0.601802110311389,-0.0903160846106708,0.4921902274698019
1726995917349703400,4.261703369140625,0.8116559901028871,0.0482236404210329,0.09360767350196837
1726995917359689700,4.271689697265625,0.7015466791331768,0.20638700739853083,-0.45495150692164893
1726995917369676500,4.281676513671875,0.6108458329886197,0.29319654519297184,-0.711149204736948
1726995917379663600,4.29166357421875,0.43236908823549747,0.3148641871217638,-0.661006578952074
1726995917389649700,4.301649658203125,0.20389409460425376,0.31200938221253455,-0.5904957033991813
1726995917399636500,4.311636474609375,0.1281137542158365,0.30959311485104263,-0.40559214046895503
1726995917409622800,4.321622802734375,0.015738251879811285,0.33350568616241216,-0.08574410052001476
1726995917419609600,4.331609619140625,-0.16180559593737123,0.3939725028891116,0.10091945782005786
1726995917429596700,4.3415966796875,-0.349638198056817,0.48799167980141933,0.2839922981917858
1726995917439582500,4.35158251953125,-0.3596358604580164,0.5877437743425369,0.5015045837819576
1726995917449569800,4.36156982421875,-0.22736323299705982,0.6479249790608883,0.641267274737358
1726995917459555600,4.3715556640625,0.012801029384136199,0.7239158934600651,0.7093786879330873
1726995917469542400,4.38154248046875,0.4616594801276922,0.7096008793164044,0.6919961759775877
1726995917479529700,4.39152978515625,1.047279101923108,0.6536269900947809,0.5631845026254654
1726995917489515500,4.401515625,1.5505910273879766,0.6026637686420232,0.47109950864613054
1726995917499502600,4.411502685546875,1.7423381726026534,0.5163632032830268,0.5473235011488199
1726995917509488600,4.421488525390625,1.6680676522552966,0.37782932347021997,0.6764069771796465
1726995917519475700,4.431475830078125,1.489714826142788,0.22372874895222483,0.8584364459782838
1726995917529462500,4.441462646484375,1.2670640086203813,0.08206676371414214,0.8569564365535974
1726995917539448600,4.451448486328125,0.8910317246347665,0.023515333888400346,0.5386263999521732
1726995917549435600,4.461435546875,0.5709580592364073,0.08559150377418845,0.00407119496166706
1726995917559421400,4.47142138671875,0.34831893215179444,0.2944459059332497,-0.4426584270596504
1726995917569408800,4.48140869140625,0.2995598696798086,0.4305353700023144,-0.6459031178444623
1726995917579395600,4.4913955078125,0.25230069037675856,0.5251836020657792,-0.6672019264608621
1726995917589381600,4.501381591796875,0.179641112357378,0.5114781346552074,-0.5632277572453022
1726995917599368400,4.511368408203125,-0.011837152788043022,0.5284654002154245,-0.5053600901663303
1726995917609354500,4.5213544921875,-0.011166706180572509,0.5887213141378015,-0.34135493835806846
1726995917619341600,4.531341552734375,-0.06581015051603317,0.5592403681095689,-0.2000456024825573
1726995917629328400,4.541328369140625,-0.04778466448187828,0.5781445366743951,0.08320961360633372
1726995917639314700,4.551314697265625,-0.015007014995813368,0.516526504085958,0.3196890499949455
1726995917649301500,4.561301513671875,-0.07925181589126587,0.47438788266703485,0.4557207377284765
1726995917659287800,4.571287841796875,-0.38027299029529094,0.5279348370026796,0.5685813932329415
1726995917669274600,4.581274658203125,-0.4411030143111944,0.6167562260761856,0.5429086073160171
1726995917679261700,4.59126171875,-0.262449159425497,0.6779428084447979,0.523546319720149
1726995917689247500,4.60124755859375,-0.18392974946200846,0.7127968988787382,0.5122977804750204
1726995917699234800,4.61123486328125,-0.11701952874958514,0.740500679166615,0.5623825385928154
1726995917709220600,4.621220703125,-0.27206395998895166,0.7024322297960519,0.652671881327033
1726995917719207400,4.63120751953125,-0.4126379673272371,0.7790199410445988,0.5528875650167465
1726995917729194800,4.64119482421875,-0.20580138953030108,0.9599741087619215,0.5185737920045852
1726995917739180500,4.6511806640625,-0.29751813471913335,1.1440339874096215,0.32408407008349893
1726995917749167600,4.661167724609375,-0.7992834152638911,1.2153199389882385,0.40690205402374263
1726995917759153700,4.671153564453125,-0.8435515960574149,1.2763164056122303,0.40654374210536476
1726995917769140700,4.681140625,-1.1325409718841313,1.3138449028871952,0.41368776864111423
1726995917779126500,4.69112646484375,-1.1495645873993634,1.2192077402070165,0.7306009241819381
1726995917789113600,4.701113525390625,-1.1860644722789526,1.161505931214243,0.6351397317677736
1726995917799100700,4.7111005859375,-0.7386036133736371,1.1449648385189473,0.5252344189375638
1726995917809086500,4.72108642578125,-0.09533259759843349,1.3247620182208717,0.4141197303175926
1726995917819073800,4.73107373046875,0.4073492132693529,1.5421601759120822,0.17164894455969332
1726995917829059600,4.7410595703125,0.8019353910773992,1.5517499881647527,-0.06351005688011646
1726995917839046700,4.751046630859375,1.0448252790302037,1.411024443526566,-0.3522796524763107
1726995917849033500,4.761033447265625,1.3256430388391016,1.2469563094846903,-0.43868660081923005
1726995917859019500,4.77101953125,1.5738573366850614,1.0079374177463352,-0.3608598492950201
1726995917869006600,4.781006591796875,1.8312538888961076,0.8395588731594383,-0.319663915553689
1726995917878992600,4.79099267578125,2.2783032443910836,0.7119060875188559,-0.20683014805614947
1726995917888979700,4.800979736328125,2.509077747136354,0.49876134948842227,-0.03410509869754314
1726995917898966500,4.810966552734375,2.6418518943786617,0.30124082677038383,0.18781623550653456
1726995917908952800,4.820952880859375,2.4736107124358413,0.14209406564556992,0.4189239157289266
1726995917918939600,4.830939697265625,2.0899328821331262,-0.1359169113805983,0.712872375267744
1726995917928925400,4.840925537109375,1.6030799240380524,-0.33737171394079923,0.9777250887036323
1726995917938912500,4.85091259765625,1.259433075350523,-0.5030073164951055,1.1752747827172279
1726995917948899600,4.860899658203125,0.9732517426818609,-0.5740099210876971,1.2143915720969438
1726995917958885600,4.8708857421875,0.7369722127795219,-0.6163889271337538,1.082544476571679
1726995917968872400,4.88087255859375,0.5891033722579478,-0.6751834997992963,0.882466725385189
1726995917978858800,4.890858642578125,0.5302022704780102,-0.6898103563711047,0.6678975075095892
1726995917988845600,4.900845458984375,0.5082949745744466,-0.5996633447170258,0.327577172896266
1726995917998832600,4.91083251953125,0.5596855545938014,-0.6955383786290884,-0.02364215687215328
1726995918008818700,4.920818603515625,0.7448252643674612,-0.7649804559066892,-0.1834668081253767
1726995918018805500,4.930805419921875,0.7603980965524911,-0.8095417013626545,-0.2159966203302145
1726995918028791600,4.94079150390625,0.5869511626601219,-0.9532779721241443,-0.19694471385776996
1726995918038778600,4.950778564453125,0.21243629750013351,-1.2599107758648693,0.06894435688853263
1726995918048765700,4.960765625,0.15910744289457798,-1.3778691928997635,0.38683366398513314
1726995918058751500,4.97075146484375,0.29116087464690205,-1.4196762442767619,0.6296908187121153
1726995918068738800,4.98073876953125,0.624305034020543,-1.4166357075370848,0.4738993684977293
1726995918078724600,4.990724609375,1.0405132610499859,-1.3311781688734887,0.016520926690101623
1726995918088711400,5.00071142578125,1.3950854083776474,-1.1868098107535392,-0.46772272568941115
1726995918098698500,5.010698486328125,1.5249047974675893,-1.0063385311823339,-0.6254694016247987
1726995918108684500,5.0206845703125,1.46582015581429,-1.000930388528481,-0.46925943373739715
1726995918118671600,5.030671630859375,1.2987842580080031,-0.84653316915147,-0.3244371213048696
1726995918128657700,5.04065771484375,1.1196680463075637,-0.6817004074126481,-0.364457581526041
1726995918138644700,5.050644775390625,0.7354618082165718,-0.433414870961383,-0.3965092548251152
1726995918148631600,5.060631591796875,0.19745850859880446,-0.11536412622537463,-0.35696634898781776
1726995918158618000,5.0706181640625,-0.2997860796511173,0.2538140358154662,-0.4293465255439281
1726995918168605400,5.08060546875,-0.5927969660788774,0.32698837669026104,-0.5924515136420726
1726995918178591200,5.09059130859375,-0.619911182975769,0.491078138042055,-0.9675368721663952
1726995918188578000,5.100578125,-0.8141150736927986,0.8687243234977126,-1.15154787017107
1726995918198565000,5.110565185546875,-0.6376970150351524,1.1746367770746349,-1.2109972534835338
1726995918208551200,5.12055126953125,-0.4154541937917471,1.1889971647299826,-1.2058832714706658
1726995918218538200,5.130538330078125,-0.28287819947004317,1.125805233888328,-1.1171768140137195
1726995918228524300,5.140524169921875,-0.2288414888560772,0.7827958063215017,-1.3105746490448713
1726995918238511400,5.150511474609375,-0.5837240173071623,0.6025494215473532,-1.194254792997241
1726995918248498200,5.160498291015625,-0.8934171584665774,0.5164487626746297,-0.9447200602024793
1726995918258484200,5.170484130859375,-1.342352766099572,0.4168854687038809,-0.47250353022515773
1726995918268471300,5.18047119140625,-1.9032564643114804,0.40305516933724284,-0.00965045639872551
1726995918278457000,5.19045703125,-1.9487369435042141,0.26908669774383304,0.4564963982760906
1726995918288444200,5.200444091796875,-1.8578993192374704,0.24318733652941882,0.8956073619872331
1726995918298431200,5.21043115234375,-1.5553075345158576,0.20437552144564686,1.3901111270964144
1726995918308417300,5.220417236328125,-1.2102794606029987,0.2181528485160321,1.7755840241223573
1726995918318404000,5.230404052734375,-0.9169231217384338,0.18339973423853514,2.075557735300064
1726995918328390100,5.24039013671875,-0.6208709679186344,0.0901242883656174,2.4074422500014303
1726995918338377200,5.250377197265625,-0.3345207084238529,0.01287212185896933,2.7527409575492143
1726995918348364000,5.260364013671875,0.07464519887864589,0.02257693879343569,2.998409078043699
1726995918358350300,5.270350341796875,0.5415297201782465,-0.007071545821428299,3.054585138773918
1726995918368337200,5.280337158203125,0.8239291962206363,-0.010068097288906574,3.050394116824865
1726995918378323200,5.2903232421875,0.8112316272109746,-0.0726712684571743,2.999218640860915
1726995918388310300,5.300310302734375,0.5390501783221959,-0.12013693011775613,2.9004829568207264
1726995918398297300,5.31029736328125,0.2411316461086273,-0.07239025955870747,2.809883232963085
1726995918408283100,5.320283203125,0.1534855113595724,-0.02546981069073081,2.6662615284919737
1726995918418270200,5.330270263671875,0.19211364043951035,-0.02377089781835675,2.486103114262223
1726995918428256300,5.34025634765625,0.31163083122372626,-0.043739042352885005,2.4112211840182542
1726995918438243000,5.3502431640625,0.32465397892594333,-0.1332002636998892,2.2894804719656703
1726995918448230100,5.360230224609375,0.34494624084830283,-0.0859719179265201,2.1090707133233546
1726995918458216200,5.37021630859375,0.46065527152121066,-0.015667086339741943,1.8256103300511837
1726995918468203300,5.380203369140625,0.5473246701925992,0.17650749050676823,1.3768418956786392
1726995918478189300,5.390189208984375,0.7535790641874075,0.6030329672805964,0.8509200789988041
1726995918488176400,5.40017626953125,0.9062906685650348,1.2467314146876334,0.019781974312663077
1726995918498163200,5.4101630859375,0.9554770165383816,1.922165601312369,-0.8219728014558553
1726995918508149200,5.420149169921875,0.880383489370346,2.5569638261660934,-1.6386299608469008
1726995918518136300,5.43013623046875,0.8164227661132812,3.0885943758815526,-2.3269237751752136
1726995918528122000,5.4401220703125,0.8248720300287008,3.342374198900163,-2.9025299524784085
1726995918538109200,5.450109130859375,0.6979390100300311,3.17318609149605,-3.121616940039396
1726995918548096300,5.46009619140625,0.6431418364375829,2.4474438593916594,-3.067334145709872
1726995918558082300,5.470082275390625,0.7546791343837976,1.5675294488377869,-2.4657015467464922
1726995918568069000,5.480069091796875,0.7827882075369358,0.7524341319359839,-1.5554139174997805
1726995918578055200,5.49005517578125,1.0108704024583102,0.08774841694659553,-0.7506506095200777
1726995918588042200,5.500042236328125,1.4404782092869282,-0.20369217882398516,-0.23555530728101728
1726995918598029000,5.510029052734375,1.6964760006159543,-0.39966530770324166,0.010575754550099372
1726995918608015400,5.520015380859375,1.6915607560455799,-0.5676530263416468,0.2778033804237842
1726995918618002200,5.530002197265625,1.538534678891301,-0.7009833461619913,0.5393973843246698
1726995918627988200,5.53998828125,1.372586576321721,-0.8391109101962297,0.73833707139194
1726995918637975300,5.549975341796875,1.1962719780385493,-0.9238209184281527,0.7330769589066505
1726995918647962400,5.55996240234375,1.0666057336837054,-0.9310535000301897,0.7352513803362846
1726995918657948200,5.5699482421875,0.8662479965120553,-0.8750016502015292,0.5853782142549753
1726995918667935200,5.579935302734375,0.6929699894458055,-0.8574730077736079,0.19429449160993098
1726995918677921300,5.58992138671875,0.5233545965403318,-0.7990548672050237,-0.19354747263491154
1726995918687908000,5.599908203125,0.36861703929305073,-0.6825590700685977,-0.1503442907243967
1726995918697895200,5.609895263671875,0.228131294760108,-0.6646859250519425,-0.06993687505722046
1726995918707881200,5.619881103515625,-0.03231938432455063,-0.7069438620015979,-0.1924590928763151
1726995918717868300,5.629868408203125,-0.46770402098894115,-0.7113343520455062,-0.4236871846079826
1726995918727854300,5.639854248046875,-0.6894383081883192,-0.7388609491355717,-0.5075584769934416
1726995918737841200,5.649841064453125,-0.9337281260669231,-0.70535454698354,-0.6087982528090476
1726995918747828200,5.659828125,-1.0188403584241867,-0.6459631044033914,-0.6479547896772623
1726995918757814300,5.669814208984375,-1.041838956695795,-0.5047726456671953,-0.7028466558158397
1726995918767801300,5.67980126953125,-0.966418097269535,-0.4597890100806951,-0.6031582010954618
1726995918777787100,5.689787109375,-0.7012924121111631,-0.46062896803617476,-0.4032750956982374
1726995918787774200,5.699774169921875,-0.5625520499408245,-0.4603072618011385,-0.20971184097230433
1726995918797761300,5.70976123046875,-0.49350247911214823,-0.3553145631927997,-0.14061784648001194
1726995918807747000,5.7197470703125,-0.5286515339046717,-0.08840462496615946,-0.1487719268411398
1726995918817734100,5.729734130859375,-0.41684535588920113,0.20606902749054132,-0.2747457464188337
1726995918827720200,5.73972021484375,-0.2139566389352083,0.6148931356180459,-0.40886254044175147
1726995918837707300,5.749707275390625,-0.06197334883213043,1.0018419504154472,-0.5420780017107725
1726995918847694000,5.759694091796875,-0.09642974518537521,1.2564715951964258,-0.4662988303661346
1726995918857680400,5.769680419921875,-0.19602584544718266,1.4121274363324046,-0.2970107697188854
1726995918867667200,5.779667236328125,-0.1626566598087549,1.4251748416930436,-0.05400573095381259
1726995918877653200,5.7896533203125,-0.389948581135273,1.3510969213083386,-0.045617257314920424
1726995918887640300,5.799640380859375,-0.36040801387429233,1.0506808731906114,0.20190321304798126
1726995918897627100,5.809627197265625,-0.29041619375944133,0.8168667104884981,0.540450692769885
1726995918907613200,5.81961328125,-0.4823451252818107,0.6015213936738669,0.7768594020098447
1726995918917600300,5.829600341796875,-0.899497939684987,0.3888759104024619,0.8947071982771158
1726995918927586300,5.83958642578125,-1.1728566156595945,0.17511610921360551,0.7402765150219202
1726995918937573000,5.849572998046875,-1.2525374706178902,-0.10910035312287508,0.41385552642345425
1726995918947560200,5.859560302734375,-1.0677601644158363,-0.36235571387596427,0.38293841011226176
1726995918957546200,5.869546142578125,-0.7095376778870821,-0.44968730278313157,0.35418227122724055
1726995918967533000,5.879532958984375,-0.418221904939413,-0.33245720002278684,0.35334055970609185
1726995918977519400,5.889519287109375,-0.20758593485951424,-0.3150453158423304,0.39787060630619525
1726995918987506200,5.899506103515625,-0.021107085436582563,-0.2511100923527032,0.30872049673497676
1726995918997493200,5.9094931640625,0.12464461680054664,-0.11870379204209894,0.24999182891249655
1726995919007479300,5.919479248046875,0.35063948405385015,0.04936404262781143,0.17802140220105647
1726995919017466400,5.92946630859375,0.537621606823802,0.2591869062265381,0.041239188361167904
1726995919027452200,5.9394521484375,0.7024024191796779,0.3886790361234918,-0.2074994256198406
1726995919037439200,5.949439208984375,0.8422738312065601,0.38305600860994304,-0.32745033164620396
1726995919047426300,5.95942626953125,0.96721070895195,0.3607917890274897,-0.2725233941942453
1726995919057412000,5.969412109375,1.093020277878642,0.2542937638901174,-0.18525076893270015
1726995919067399200,5.979399169921875,1.2077595867365598,0.10922609839439391,-0.025453005686402318
1726995919077385200,5.98938525390625,1.207020751067996,-0.09378642760235816,0.15724223354458808
1726995919087372300,5.999372314453125,1.1790572238653898,-0.31298783532325175,0.36416239797174926
1726995919097359000,6.009359130859375,1.2485159600168465,-0.5648577330673114,0.5575935507506132
1726995919107345400,6.019345458984375,1.2353057653099297,-0.8141483183752745,0.7032721877515316
1726995919117332200,6.029332275390625,1.2994383380025625,-1.0907850661724805,0.6884364376693963
1726995919127318000,6.039318115234375,1.3726789307802916,-1.270895257346332,0.5632277572453022
1726995919137305300,6.049305419921875,1.3613456358611582,-1.4150477076932788,0.3256546804010868
1726995919147292200,6.059292236328125,1.4451947164148091,-1.4819240261361002,0.247089093208313
1726995919157278500,6.069278564453125,1.3089695519357918,-1.5917308470278977,0.17295184385180473
1726995919167265500,6.079265625,0.9828834943801164,-1.4815588460855185,0.2137216611355543
1726995919177251600,6.08925146484375,0.43535891770124435,-1.3210915130145846,0.11373977642655372
1726995919187238400,6.09923828125,0.3475117074221372,-1.3069807162061333,0.1468453426927328
1726995919197225500,6.1092255859375,0.22178104895055292,-1.1041214445423335,-0.0208703540712595
1726995919207211500,6.11921142578125,0.24674597885906696,-1.0018041756883262,-0.38206513440907
1726995919217198300,6.1291982421875,0.4809750059723854,-0.8781100645456462,-0.6531535273641348
1726995919227184600,6.1391845703125,0.5646551596999168,-0.7724545911796391,-0.8290817566782236
1726995919237171500,6.14917138671875,0.5153121598601341,-0.7429924959823488,-0.8398340368390083
1726995919247158500,6.159158447265625,0.49801557262241836,-0.6896745280969887,-0.5478069007515907
1726995919257144600,6.16914453125,0.5420914457142353,-0.7056764724142849,-0.33312837728261946
1726995919267131600,6.179131591796875,0.6073825407922268,-0.7232994420621544,-0.41152211503982544
1726995919277117400,6.189117431640625,0.46807694595456123,-0.6067815792243927,-0.6448223368704319
1726995919287104300,6.199104248046875,0.29537527747154235,-0.5188280590265989,-0.9102876292467117
1726995919297091600,6.209091552734375,0.06346095704138278,-0.42163518398161975,-1.2167898654103277
1726995919307077400,6.219077392578125,-0.2487479663312435,-0.28596918775532393,-1.3525474123775958
1726995919317064400,6.229064453125,-0.8098720292955637,-0.5045006968580186,-1.1980348960578442
1726995919327050500,6.239050537109375,-1.0473913301259279,-0.394856738377735,-1.1790928797006606
1726995919337037600,6.24903759765625,-1.73423143851459,-0.1997040955685079,-1.0466402194976807
1726995919347024400,6.2590244140625,-2.3031384104400874,0.016904519180208445,-0.8746493296325206
1726995919357010400,6.269010498046875,-2.5126380699664352,0.08572524968907237,-0.48332419944703575
1726995919366997500,6.27899755859375,-3.1028765837341545,0.15402663249894977,-0.03744797938466072
1726995919376983300,6.2889833984375,-3.4707571254462,0.40137444970868524,0.3160340346187353
1726995919386970600,6.298970703125,-3.3672710320085284,0.4918190560698509,0.44125674356818195
1726995919396957400,6.30895751953125,-2.452443421244621,0.5353901214446872,0.6028349604904651
1726995919406943500,6.318943603515625,-1.6874498135954141,0.5676536839287728,0.9557020574659109
1726995919416930600,6.3289306640625,-1.0623574285894632,0.6114139152001589,1.4132967723727226
1726995919426916600,6.33891650390625,-0.5187444723963737,0.5362858281753957,2.085293531894684
1726995919436903400,6.3489033203125,-0.08586801916062832,0.3362828227255493,2.6950240971177815
1726995919446889500,6.358889404296875,0.2875099509239197,0.05454677902795374,2.9977719491839405
1726995919456876500,6.36887646484375,0.35148470270633697,-0.09287387933470308,3.0891514252424237
1726995919466863400,6.37886328125,0.2568377492845058,-0.056343307055905456,3.0632103437781333
1726995919476849700,6.388849609375,-0.08260755605995655,0.09355689316280186,2.826554966300726
1726995919486836500,6.39883642578125,-0.25925825442969797,0.23504553112797438,2.6503853294461965
1726995919496822500,6.408822509765625,-0.27278350643515586,0.4077589631140232,2.535503981769085
1726995919506809600,6.4188095703125,-0.1242500645250082,0.7089856700275093,2.1619477325081826
1726995919516796700,6.428796630859375,0.23201485819518564,0.9757230281662196,1.7557044346541166
1726995919526782500,6.438782470703125,0.46672085517048834,1.3377262753427028,1.3354846338957547
1726995919536769300,6.448769287109375,0.7352572255551815,1.7317600799649953,0.6357464654892683
1726995919546756600,6.458756591796875,1.0465092865943908,2.1093729111403228,-0.00829670370221138
1726995919556742400,6.468742431640625,1.392053493335843,2.441305941158533,-0.9693056354045867
1726995919566729500,6.4787294921875,1.661065664538741,2.699252820728719,-1.9291817636847495
1726995919576715500,6.488715576171875,1.760519141459465,2.6850278960213063,-2.489431966423988
1726995919586702600,6.49870263671875,1.65509944961071,2.357993305569142,-2.443402036654949
1726995919596688400,6.5086884765625,1.5834622003763914,1.6455390095829963,-1.999860981541872
1726995919606675500,6.518675537109375,1.5684130998045205,0.9738264738298952,-1.2937269746184348
1726995919616662500,6.52866259765625,1.3683598985373973,0.44922216948941346,-0.5889455513477325
1726995919626648300,6.5386484375,1.5801538064807652,-0.15726718532275408,-0.25470190629959105
1726995919636635600,6.5486357421875,1.6563438967138528,-0.5543946085788309,0.05575578949153423
1726995919646621400,6.558621337890625,1.4979694442689417,-0.8884878853708505,0.376440280264616
1726995919656608500,6.5686083984375,1.313068803948164,-1.0976929458647966,0.6029156245112419
1726995919666595600,6.578595703125,1.1970739420711993,-1.1958256955757736,0.7293249128967523
1726995919676581400,6.588581298828125,0.8973153349488973,-1.2261945303544401,0.7183253799766302
1726995919686568400,6.598568359375,0.6594850684732199,-1.1404459728550165,0.47870355390906333
1726995919696554500,6.608554443359375,0.44678690516650676,-1.02282080636248,0.2284440139710903
1726995919706541600,6.61854150390625,0.2800964597970247,-0.9357196652103215,-0.01635141534209251
1726995919716528400,6.6285283203125,0.0882388399451971,-0.7875666739851236,-0.28987726457715035
1726995919726514700,6.6385146484375,0.012267360898852348,-0.6827886410407722,-0.5057189866065979
1726995919736501500,6.64850146484375,0.0952139396548271,-0.6249190012004227,-0.6563818417608738
1726995919746487300,6.6584873046875,0.08919511775672435,-0.537288575477153,-0.8598007200688124
1726995919756474400,6.668474365234375,-0.13514496802687645,-0.44788240878563373,-0.8271697855770588
1726995919766461400,6.67846142578125,-0.5408510902643203,-0.48389001663625236,-0.618130144777894
1726995919776447500,6.688447509765625,-0.8123883960306644,-0.4656538835261017,-0.4886503629058599
1726995919786434300,6.698434326171875,-0.8153630279272794,-0.31925047591459005,-0.41476621152758597
1726995919796420600,6.708420654296875,-0.8709311858922243,-0.17883659104146063,-0.4971300219595432
1726995919806407400,6.718407470703125,-0.8734265098392963,-0.07889006990678608,-0.5710644422203303
1726995919816394500,6.72839453125,-0.7744190231204032,0.006725216601788997,-0.540264230287075
1726995919826380500,6.738380615234375,-0.7873913174182177,0.13042794944234193,-0.6065571958839893
1726995919836367400,6.748367431640625,-0.7471832256704568,0.20221322884522377,-0.5332733484864235
1726995919846353400,6.758353515625,-0.7687824785381555,0.20012904298231005,-0.556025278520584
1726995919856340500,6.768340576171875,-0.6673059713572264,0.2674586581505835,-0.3886503580182791
1726995919866327600,6.77832763671875,-0.751041654664278,0.44160029630884523,-0.22093349221050737
1726995919876313300,6.788313232421875,-0.5355155744552612,0.586265664613992,0.21023557258546352
1726995919886300700,6.79830078125,-0.2986632131010294,0.7646915559627115,0.33280455215573307
1726995919896286500,6.808286376953125,-0.0763005648702383,0.7949641638252883,0.22571605031192302
1726995919906273300,6.818273193359375,0.13688918134570122,0.6342199865743517,0.39276363855600355
1726995919916260600,6.828260498046875,0.04821721068024635,0.5286265455938876,0.5837134959131479
1726995919926246400,6.838246337890625,-0.15505962880849838,0.37861981626078484,0.5461766692012548
1726995919936233500,6.8482333984375,-0.20865677896142004,0.1704417607270181,0.49069209786653517
1726995919946219500,6.858219482421875,-0.2955108865499496,0.04905431909151375,0.29974983929395677
1726995919956206600,6.86820654296875,-0.4826683658868074,-0.06317439518496394,0.23882746081948278
1726995919966193400,6.878193359375,-0.7534948930352926,-0.19076047226488588,0.18254560162723063
1726995919976179500,6.888179443359375,-1.092735031196475,-0.3219557528179139,0.09401450073719024
1726995919986166500,6.89816650390625,-1.3814812459170818,-0.3111909785017371,0.036225159591436386
1726995919996152300,6.90815234375,-1.3745564150899647,-0.21195392081066966,-0.08746025678813457
1726995920006139400,6.918139404296875,-1.1145336060285567,-0.12239680134113877,-0.3382429438173771
1726995920016126500,6.92812646484375,-0.7427619020968675,-0.06914853769112378,-0.5198661699026823
1726995920026112500,6.938112548828125,-0.43931846898198124,-0.04296206663101911,-0.4074415677279234
1726995920036099300,6.948099365234375,-0.21878128261268137,0.022871099434420464,-0.12111410458683967
1726995920046085600,6.958085693359375,-0.06522270601689815,0.10160528465975076,0.08315057689547538
1726995920056072400,6.968072509765625,0.047075639429688454,0.17006149270515888,0.10521744727492331
1726995920066059500,6.9780595703125,0.23406126933097837,0.2483030355753377,0.012731471279263495
1726995920076045600,6.988045654296875,0.5260340448826551,0.3211532407959923,-0.0811719702988863
1726995920086032400,6.998032470703125,0.8330921613633632,0.3967692574681714,-0.0668541066110134
1726995920096018400,7.008018310546875,1.043733976662159,0.5091488879900425,-0.003861351603269577
1726995920106005500,7.018005615234375,1.269032093822956,0.5631029983544722,0.040994273689389224
1726995920115991600,7.027991455078125,1.3543857337206602,0.5870572533831,0.008859598281979561
1726995920125978400,7.037978271484375,1.3203566228687762,0.5717032515805214,0.014791910940408706
1726995920135965700,7.047965576171875,1.2486223430007695,0.5529977108603343,0.15638006375730037
1726995920145951500,7.057951416015625,1.2501438534796236,0.5277711343409494,0.4237918140262365
1726995920155937800,7.067937744140625,1.3122662553936242,0.4707729801055044,0.6503904923915863
1726995920165923800,7.077923828125,1.3059358833283186,0.3438996178722009,0.7553904975235461
1726995920175910700,7.08791064453125,1.3458563903063534,0.2773604954944923,0.8144692939579486
1726995920185897700,7.097897705078125,1.3743611847788095,0.11534662710130214,0.8033247996091842
1726995920195883800,7.1078837890625,1.3408446996241807,-0.0011737747534178197,0.8637842367470264
1726995920205870800,7.117870849609375,1.2939835797280073,-0.08690090587232262,0.7304641460597515
1726995920215857000,7.12785693359375,1.3925935915619134,-0.21802080136789007,0.4592471582889557
1726995920225843700,7.13784375,1.4219547106027601,-0.32293910129945724,0.2371545591711998
1726995920235830800,7.147830810546875,1.5278683234483004,-0.5727940059592947,0.0298544555157423
1726995920245816800,7.15781689453125,1.7457710696607827,-0.6542178686600179,-0.48722120688557624
1726995920255804000,7.167803955078125,1.639133234193921,-0.714753220578283,-0.7017804878890513
1726995920265789700,7.177789794921875,1.5116723909288643,-0.7700213726833463,-0.8370955517858266
1726995920275776800,7.18777685546875,1.4604162509441374,-0.8711435865338891,-1.3629045557409525
1726995920285763800,7.197763916015625,1.3518079921871422,-0.8306845156997442,-1.793154752126336
1726995920295749600,7.20774951171875,0.7656237222462892,-0.9787641494277864,-2.0234633909255266
1726995920305736700,7.21773681640625,0.29040391879975797,-1.2723271898455917,-2.570074944412708
1726995920315722800,7.22772265625,-0.2860287724554539,-1.417881031423062,-3.0268267787545917
1726995920325709800,7.237709716796875,-1.486795723825693,-1.1116871305562555,-2.0994716948509216
1726995920335696600,7.247696533203125,-2.591613991525769,-0.7230993163801729,-1.466497032162547
1726995920345683000,7.257682861328125,-3.5929017421245573,-0.44122276823334394,-0.3366390157520771
1726995920355669800,7.267669677734375,-4.281103201994299,-0.47487394915092734,0.8276105150818824
1726995920365655600,7.277655517578125,-4.61035152297318,-0.3876706993311643,1.5742004510343073
1726995920375643000,7.287642822265625,-4.58556428771913,-0.1866437941936776,2.1557798575282097
1726995920385629700,7.297629638671875,-4.433214502391219,0.20961334903389214,2.4988304938882586
1726995920395615700,7.30761572265625,-3.659138009098172,0.5119689503794536,2.7924469449937344
1726995920405602800,7.317602783203125,-2.5276620360970496,0.4366157128293067,2.898938649988174
1726995920415588900,7.3275888671875,-1.274329031187296,0.07820384120829403,2.5342209562212226
1726995920425575700,7.33757568359375,-0.12997604095637796,-0.15636238197013735,2.274231464907527
1726995920435561700,7.347561767578125,0.4049211093395948,-0.32978936905302103,2.04050278853178
1726995920445548800,7.357548828125,0.527412347498536,-0.3282762610763311,1.6578338430106638
1726995920455535900,7.367535888671875,0.32512510356903074,-0.3950349444888532,1.4681424612820149
1726995920465522000,7.37752197265625,0.1741770017325878,-0.3253765210468322,1.594063673889637
1726995920475508700,7.3875087890625,0.03952887731194496,-0.2062984523322433,1.7808692710489034
1726995920485494800,7.397494873046875,0.01706570109128952,-0.17878727200701833,1.8404934264063835
1726995920495481900,7.40748193359375,0.08709493060708046,-0.10354461869187652,1.675329167690873
1726995920505469000,7.417468994140625,0.27880115928947924,-0.1271549921862781,1.2272399477541447
1726995920515454700,7.427454833984375,0.4831996962845325,-0.1022301020272076,0.862567262172699
1726995920525441800,7.43744189453125,0.7371469848245382,0.2954094354694709,0.18913374784588813
1726995920535427800,7.447427734375,0.9937035790801048,0.9756973822683095,-0.8429284957230091
1726995920545414700,7.45741455078125,1.2620277680188416,1.4809819229803978,-1.7358073095291853
1726995920555401700,7.467401611328125,1.2640700875014066,1.9601643464475869,-2.824418538793921
1726995920565387800,7.4773876953125,0.8009890501379966,2.2015127040468156,-3.701936117339134
1726995920575374800,7.487374755859375,0.6729296564579009,2.4032504974000153,-3.691333474782109
1726995920585360600,7.497360595703125,0.5778057331740856,1.9635468284927307,-3.02835881062746
1726995920595348000,7.507347900390625,0.8273468957096338,1.0348179720178245,-1.9734025982052086
1726995920605334800,7.517334716796875,1.1083896964460611,0.22081739155016838,-0.9041466422736644
1726995920615320600,7.527320556640625,1.487700563710928,-0.4430885255726054,-0.003841477859020233
1726995920625308000,7.537307861328125,1.8923738357692956,-0.9363125896021723,0.6245604700863361
1726995920635293700,7.547293701171875,2.1733985163271425,-1.061156528367102,0.990845851561427
1726995920645280800,7.55728076171875,2.0535726979851723,-1.047390745604038,0.9908002588540316
1726995920655267800,7.567267822265625,1.6752929273337125,-1.0651710977707058,0.9760445882707833
1726995920665254000,7.57725390625,1.113461008360982,-0.9727775492988526,0.9749959560006857
1726995920675240700,7.58724072265625,0.6449445019453763,-0.7654089104518293,0.8558300628721713
1726995920685226800,7.597226806640625,0.2469838792681694,-0.5337695345055311,0.4795575403898954
1726995920695213800,7.6072138671875,-0.03263911779820919,-0.28175051061436535,-0.016332126119732854
1726995920705199600,7.61719970703125,-0.14926175618469714,-0.10578969420492648,-0.3333382206410169
1726995920715187000,7.62718701171875,-0.2386445054680109,0.055986091116070745,-0.4689823703616857
1726995920725173800,7.637173828125,-0.21443477784097192,0.11410108401961624,-0.3668815938025713
1726995920735159800,7.647159912109375,-0.09891279417276382,0.09554076045639813,-0.290504456564784
1726995920745146600,7.657146728515625,-0.020718378379940984,0.07481361424811184,-0.27086569011509415
1726995920755132700,7.667132568359375,-0.01384498547911644,0.05731171369664371,-0.34630759232938285
1726995920765119700,7.67711962890625,-0.013334697869420051,0.003252279794216156,-0.4805670096933841
1726995920775106600,7.6871064453125,-0.07183131050169468,0.01806625643596053,-0.44904608227014536
1726995920785092900,7.6970927734375,-0.294993584677577,0.07128573238290846,-0.2814297542273998
1726995920795079700,7.70707958984375,-0.5857639987021684,0.2262040530245751,-0.15160568896234033
1726995920805066000,7.71706591796875,-0.8679822729587554,0.3688583737682551,0.008187982630729675
1726995920815052800,7.727052734375,-1.1947446223407983,0.35399661246202885,0.033575521865487096
1726995920825040000,7.737039794921875,-1.2376596349596976,0.43074689386114473,0.08655366333723068
1726995920835025700,7.747025634765625,-1.1206740084797144,0.4617127446848899,-0.07358779878020286
1726995920845012700,7.7570126953125,-1.01948683963418,0.315127295037359,-0.33591771574020385
1726995920854998800,7.766998779296875,-0.684561642062664,0.20168051020801067,-0.16499825449883937
1726995920864985600,7.776985595703125,-0.49050563538372516,0.16434008285105228,0.12276888605654239
1726995920874973000,7.786972900390625,-0.6539128212988377,0.14222257826291024,0.36670331462621686
1726995920884958700,7.796958740234375,-0.8509913906693458,0.1275108198866248,0.5094347922593355
1726995920894945800,7.80694580078125,-1.026281322079897,0.07002879112437367,0.4480395355761051
1726995920904931800,7.816931884765625,-0.9674608843207358,-0.0021660189274698496,0.10166939940452575
1726995920914918700,7.826918701171875,-0.8165472692757845,-0.06934205096922814,-0.19947627816200256
1726995920924905700,7.83690576171875,-0.7587351317763328,-0.10585764487460254,-0.3355652490407228
1726995920934891800,7.846891845703125,-0.6591238339453935,-0.1400012489516288,-0.3454319785386324
1726995920944878800,7.85687890625,-0.4870861823290586,-0.11996259646415709,-0.26900632598400115
1726995920954864600,7.86686474609375,-0.3025836014151573,-0.12934519570693373,-0.31588498153686523
1726995920964852000,7.87685205078125,-0.11089490838944911,-0.15313421370387076,-0.36531916679143905
1726995920974838800,7.8868388671875,0.10466858122050761,-0.10262465430274605,-0.3871364463239908
1726995920984824600,7.896824462890625,0.2060878052562475,-0.075813877331838,-0.3105640787750482
1726995920994811600,7.906811767578125,0.24817338131368158,-0.07808978637456894,-0.18632278207838535
1726995921004797700,7.916797607421875,0.22087854715287683,-0.07662490145377815,-0.002776478976011276
1726995921014784800,7.92678466796875,0.26660394101738927,-0.0701849315341562,0.144161218175292
1726995921024771600,7.936771484375,0.3888087634503841,-0.07277107556983828,0.1382791743993759
1726995921034758000,7.9467578125,0.46163025403320784,-0.13999620745033026,0.04238777387440204
1726995921044744700,7.95674462890625,0.6446551636099815,-0.1913930710799992,0.0045949265748262405
1726995921054730800,7.966730712890625,0.729032651951909,-0.2132335122924298,-0.028259879800677297
1726995921064717800,7.9767177734375,0.7171621814161538,-0.1841907384857535,-0.08858020072877407
1726995921074703600,7.98670361328125,0.7110375610560178,-0.21467103428225964,-0.052477790734171866
1726995921084690700,7.996690673828125,0.7720037786722183,-0.2665370132610202,0.0033709377378225323
1726995921094677800,8.006677734375,0.8536930508434772,-0.3554580633167177,0.10733166294991969
1726995921104663800,8.016663818359374,1.002593572500348,-0.48514874799307434,0.23288638033270834
1726995921114650600,8.026650634765625,1.1261492250204086,-0.6560215570811182,0.2581640294522047
1726995921124637000,8.036636962890626,1.1491735422551632,-0.7364699623458087,0.3036655514329672
1726995921134623700,8.046623779296874,0.9888865341871976,-0.7864978757098317,0.3884358384847641
1726995921144610800,8.05661083984375,0.8124345732599496,-0.8468450115796178,0.47502165052592754
1726995921154596900,8.066596923828126,0.5267512532413006,-0.8678745748005807,0.5227285735964775
1726995921164584200,8.076584228515625,0.36505087124407287,-0.9384183297097682,0.48628480281829833
1726995921174570000,8.086570068359375,0.6228326233804226,-1.221521643172577,0.15645079090595246
1726995921184557300,8.096557373046876,0.9687024088144301,-1.3226364043690264,-0.283342894372344
1726995921194544000,8.106544189453125,1.2582143472105265,-1.3688060348697006,-0.8264245201677084
1726995921204530000,8.116530029296875,1.2949813585937022,-1.2309113297432661,-1.1624392665416001
1726995921214517000,8.12651708984375,1.2009212651491163,-1.1047390649840234,-1.7542390382766722
1726995921224503000,8.1365029296875,0.9513438622564077,-1.2517609332874418,-1.9882360101997851
1726995921234490000,8.146489990234375,0.5746165817439556,-1.346058634880185,-2.337331771942973
1726995921244477000,8.156476806640624,-0.23928046528398988,-1.3736359392441808,-2.5729893705546854
1726995921254463200,8.166463134765625,-0.9237953455954789,-1.4103196562580764,-1.947991093572974
1726995921264450000,8.176449951171875,-1.7169997332066296,-1.0954344994135201,-1.7442057200402021
1726995921274436000,8.18643603515625,-2.899315666607022,-0.6387427246958017,-1.3038701829701662
1726995921284423200,8.196423095703125,-3.8006577728539703,-0.1884659681195393,-0.6483242075115442
1726995921294409000,8.206408935546875,-4.408338419809938,0.008540924254246055,0.006983283016085624
1726995921304396000,8.21639599609375,-4.848272974863648,0.3158583857908845,0.7195330022007227
1726995921314383000,8.226383056640625,-4.725111874619126,0.44873500702697783,1.2078238841444253
1726995921324369200,8.236369140625,-4.067089864435792,0.6071668522149324,1.788738104727864
1726995921334356000,8.24635595703125,-3.218918207362294,0.6007216215983033,2.239545935973525
1726995921344342000,8.256342041015625,-2.116238705256581,0.5685178995426744,2.4045599725633857
1726995921354329000,8.2663291015625,-1.0309142425775528,0.31682094721272586,2.593229610028863
1726995921364316000,8.27631591796875,-0.39007133073210715,0.02749824777841568,2.667184488555789
1726995921374302200,8.28630224609375,0.08615794201791285,-0.02798573903441429,2.6811171523183583
1726995921384289000,8.2962890625,0.2500666477143764,0.10223470513708889,2.4580717825204133
1726995921394275000,8.306275146484374,0.51830374289155,0.24078034845292567,2.514219786199927
1726995921404262100,8.31626220703125,0.8069277925372124,0.38661702555976807,2.323428334274888
1726995921414249200,8.326249267578126,1.018283893585205,0.4779182487502694,2.015031078144908
1726995921424235000,8.336235107421874,1.2867822700470686,0.5539151544988155,1.554689694878459
1726995921434222300,8.346222412109375,1.60951901717484,1.00468338438645,0.763102679336071
1726995921444208000,8.3562080078125,1.941111270931363,1.5889678120553492,-0.5293038603335619
1726995921454195000,8.36619482421875,2.203058326053619,2.1332716731220485,-1.6627257067054508
1726995921464182000,8.37618212890625,1.9467180048972368,2.570436471201479,-2.708813553017378
1726995921474168000,8.38616796875,1.4804776267200708,2.864288776889443,-3.2431583301275966
1726995921484155100,8.396155029296875,1.0512392377257347,2.800690164943039,-3.318427213862538
1726995921494141200,8.40614111328125,0.6101286246299743,2.105394655159116,-2.6091052245527506
1726995921504128300,8.416128173828126,0.5301426492452621,1.0700810085788368,-1.3831588237404822
1726995921514115000,8.426114990234375,0.7394885795146227,0.34749026277530937,-0.23583996944129465
1726995921524101000,8.43610107421875,1.000913072067499,-0.3142106551164761,0.5491700057983399
1726995921534088200,8.446088134765626,1.0323615187764168,-0.9129560447383671,1.0210416678607463
1726995921544074000,8.456073974609374,1.0601754083752633,-1.1806811718054115,1.2189520118802786
1726995921554061000,8.46606103515625,1.1929197450011968,-1.3708847408398985,1.0356143830925226
1726995921564048100,8.476048095703124,1.0751233866602181,-1.3686524517431855,0.6799860047101974
1726995921574034200,8.4860341796875,0.7222983752608299,-1.1532581812202929,0.200193486520648
1726995921584021000,8.49602099609375,0.30892215678691864,-0.8129251332558691,-0.3218447667241096
1726995921594007000,8.506007080078126,-0.07437281167805194,-0.43833610688112673,-0.7964058140009641
1726995921603994000,8.515994140625,-0.33737259072363374,-0.2506700204350054,-1.0059101497024296
1726995921613980200,8.525980224609375,-0.4848427873164415,-0.23247458466142415,-0.9018202451527119
1726995921623967200,8.53596728515625,-0.5619891553610563,-0.20223982459120451,-0.611996172067523
1726995921633954000,8.5459541015625,-0.6331698929995297,-0.1566157722093165,-0.375599153265357
1726995921643940000,8.555940185546875,-0.6134457863539456,-0.18713913996256887,-0.18295009077489374
1726995921653927200,8.56592724609375,-0.511035797715187,-0.21576595337949692,-0.03214753488898277
1726995921663913000,8.575912841796875,-0.40446401322185993,-0.24649485364221035,0.037080315116047854
1726995921673900000,8.585900146484375,-0.328097397378087,-0.12155994865819811,0.013770751199126243
1726995921683887000,8.59588720703125,-0.14181027113497258,0.11622355606630444,-0.11473755529224872
1726995921693873200,8.605873046875,0.03477729887068271,0.376164751258865,-0.3285205912262201
1726995921703860000,8.61585986328125,0.11818331183195113,0.56386123284325,-0.49376025326550005
1726995921713846300,8.62584619140625,0.1564145505487919,0.7048568265944719,-0.4276128336191177
1726995921723833000,8.6358330078125,0.04358955087959766,0.8114394978079944,-0.4746124852031469
1726995921733820200,8.645820068359376,-0.5007517195880413,0.8448780954208225,-0.40870647309720515
1726995921743806200,8.65580615234375,-0.5950888764083385,0.8237764898769557,-0.028118425503373144
1726995921753793000,8.66579296875,-0.6508867514759302,0.8611766845971346,0.23525603207349777
1726995921763779000,8.675779052734375,-0.656124067607522,0.8011256090644746,0.4424456610918045
1726995921773766100,8.68576611328125,-0.6306465120017528,0.6229935130305588,0.6353098276376724
1726995921783753200,8.695753173828125,-0.6104834294170141,0.28063195491321385,0.7217325580716133
1726995921793739000,8.705739013671876,-0.5485217710226774,-0.024231062676012514,0.5777344215035438
1726995921803726000,8.71572607421875,-0.6020160453230142,-0.2954195550046861,0.39289749406874175
1726995921813712100,8.725712158203125,-0.7424643804550171,-0.39908370842300356,0.31103754150569435
1726995921823699000,8.735698974609376,-1.0435241333037615,-0.4039605937443673,0.19721300940513609
1726995921833685200,8.745685302734374,-1.337528122422099,-0.39683556417003274,0.018254034093022346
1726995921843672000,8.755672119140625,-1.3873510147333143,-0.4079419915307313,-0.190773331746459
1726995921853659100,8.7656591796875,-1.2311878085970878,-0.3953665145307779,-0.5249865816563367
1726995921863645200,8.775645263671874,-0.8779787663161754,-0.2939179913353175,-0.8750041344195604
1726995921873632300,8.78563232421875,-0.47584757995605464,-0.17125592665411532,-0.9641361238121986
1726995921883618000,8.7956181640625,-0.15358078842759132,-0.0695739600289613,-0.7956950353831053
1726995921893605000,8.805605224609375,-0.10440729993581771,0.08838942739702761,-0.5084709156632423
1726995921903592200,8.81559228515625,-0.0933235958635807,0.26056327261365947,-0.2948591446429491
1726995921913578000,8.825577880859376,-0.07415478501319885,0.3761035225909203,-0.09656360069811344
1726995921923565000,8.83556494140625,0.058820437759160994,0.47148178596198553,-0.061010641279816626
1726995921933551000,8.845551025390625,0.31961832284629343,0.5410922055438161,-0.06482990730702877
1726995921943538200,8.8555380859375,0.5283949287950992,0.6022352410316467,-0.03194236770570278
1726995921953525000,8.86552490234375,0.6999994496911763,0.6293162863112985,0.04468903655409813
1726995921963511000,8.875510986328125,0.7427239081740379,0.6593675065081566,0.2605330966711044
1726995921973498000,8.885498046875,0.8044733851224184,0.6682959322426468,0.456283047786355
1726995921983484000,8.89548388671875,1.0836182432830332,0.6232382085066288,0.6327537134140729
1726995921993471200,8.90547119140625,1.147903960710764,0.5318845244765281,0.6294587635219097
1726995922003458000,8.9154580078125,1.4871107811242341,0.3002107348039746,0.5008867441445589
1726995922013444000,8.925444091796875,1.748151827317476,0.10657777584269643,0.5751841524988413
1726995922023431200,8.93543115234375,1.9838246234983206,-0.034214331225678324,0.48672319423556326
1726995922033417000,8.9454169921875,1.8159493522584438,-0.22306940826065838,0.46558512913882727
1726995922043404000,8.955404052734375,1.6916297296285627,-0.40065716828480363,0.4375315855652094
1726995922053391000,8.96539111328125,1.458392051640153,-0.45364795004241165,0.1987900494635105
1726995922063377200,8.975377197265624,1.2786971632689237,-0.6938711030039936,-0.15936638609170914
1726995922073364000,8.985364013671875,1.2416717932105064,-0.8794804030507802,-0.5503700292378664
1726995922083350300,8.995350341796875,1.0436638340353965,-1.0843572981473057,-0.7294371410995721
1726995922093337000,9.005337158203124,1.0207160891681908,-1.166689909723401,-0.7494236980736255
1726995922103323100,9.0153232421875,0.9269809898942708,-1.167448253810033,-0.9646031568020582
1726995922113310200,9.025310302734376,0.8404150515973567,-1.1800340330082923,-1.4900497571855782
1726995922123297300,9.03529736328125,0.7338321611881256,-1.3013339424908161,-1.8419687596559524
1726995922133283000,9.045282958984375,0.44554421162903307,-1.627937594179809,-2.5061703352570532
1726995922143270000,9.055269775390625,-0.13757482552230357,-1.6589663541719317,-2.4246213483393193
1726995922153256200,9.065256103515624,-1.2792892839431762,-1.5308999462291597,-2.185199428758025
1726995922163243000,9.075242919921875,-2.205535529822111,-1.336579151134193,-1.7175947764903305
1726995922173229800,9.085229736328126,-3.108763888207078,-0.7926299487240612,-0.9607938276469707
1726995922183216000,9.095216064453124,-3.9673949799746273,-0.1385876192940399,-0.28540684116482734
1726995922193203000,9.105202880859375,-4.5981987283647054,0.21913908307440577,0.39708208627700803
1726995922203189200,9.115189208984376,-4.920683546558022,0.5326510153369978,1.1302017152816057
1726995922213176000,9.125176025390624,-4.977110367178916,0.8436067603107541,1.6372539963185786
1726995922223163100,9.1351630859375,-4.39208871127665,0.9454206096872687,2.141630920666456
1726995922233149000,9.14514892578125,-3.31765973662138,0.9160045455887913,2.674621945080161
1726995922243136000,9.155135986328125,-2.5068477961271998,0.838322536297515,2.905328058764338
1726995922253122000,9.1651220703125,-1.4755138668328522,0.5786325028544291,3.0554005468100307
1726995922263108900,9.17510888671875,-0.23327742547690866,0.23435097299255428,2.7730197754681107
1726995922273095200,9.18509521484375,0.6637859805375337,0.11235727255959063,3.443940430191159
1726995922283082000,9.19508203125,0.8128197731852531,0.10018979183863848,2.022332341068983
1726995922293069000,9.205069091796876,0.8683768252342939,0.2033025401855819,2.236052833160758
1726995922303055000,9.21505517578125,1.2263602423101663,0.35329467473775145,2.1801187644928692
1726995922313042000,9.2250419921875,1.2372796957314014,0.6330833837598562,1.717642707285285
1726995922323028000,9.235028076171876,1.4586626852750777,1.1367997253071516,1.2721148622691631
1726995922333015000,9.24501513671875,1.7358686843276023,1.6475201003976165,0.4118856876552105
1726995922343002000,9.255002197265625,1.8266712372809648,2.165484966723621,-0.6095429336965084
1726995922352988000,9.26498779296875,1.8658260205835102,2.700390884847939,-1.8530173924148081
1726995922362975200,9.274975341796875,1.7125281407505273,2.9762893084332345,-2.7510096037119625
1726995922372961000,9.2849609375,1.3662719863474369,3.326148163503408,-3.19240546348989
1726995922382947800,9.29494775390625,0.8523217624902725,2.84396611982882,-3.1896926973998543
1726995922392935000,9.304934814453125,0.8015314864516258,1.9212366498991846,-2.475639003393054
1726995922402921000,9.3149208984375,0.7217845805197953,1.1666651406083255,-1.236799218738079
1726995922412908000,9.324907958984374,0.8698942440599202,0.5188500516626984,-0.3527121986746788
1726995922422894000,9.33489404296875,1.2132388949304818,-0.03749941731095314,0.47035365871489043
1726995922432881200,9.344881103515625,1.4715508084207771,-0.5210494614031166,0.9141974961668252
1726995922442868000,9.354867919921874,1.5006535687863827,-0.7827950026039033,0.8240607136458158
1726995922452854000,9.36485400390625,1.5189344908863305,-1.0506364495269953,0.9317325683355331
1726995922462841000,9.374841064453125,1.547289063233137,-1.1982880671013145,0.8867623767524957
1726995922472827000,9.384826904296874,1.3972761964201927,-1.1272204344484955,0.4422176975548267
1726995922482814000,9.39481396484375,1.119601995334029,-0.9321903951056301,0.11687982801795005
1726995922492801000,9.404801025390626,0.7342015790224075,-0.7440827754370868,-0.1697773054689169
1726995922502787000,9.414787109375,0.3971744407355785,-0.6245515561275183,-0.29566286224126814
1726995922512774000,9.42477392578125,0.2018921071320772,-0.6037148120649158,-0.2802490200102329
1726995922522760000,9.434760009765625,-0.035032734936475754,-0.558128242149204,-0.21959669064879417
1726995922532747000,9.4447470703125,-0.31681261777579783,-0.4812425708673894,-0.015543606090545654
1726995922542733000,9.454733154296875,-0.6229951204657554,-0.3307870017882436,0.15047580814957617
1726995922552720100,9.46472021484375,-1.0164461567640304,-0.20106683528907596,0.07006196274161339
1726995922562707000,9.47470703125,-1.2043138301968574,-0.08460501348748803,-0.2605728441596031
1726995922572693000,9.48469287109375,-1.1789864967167376,0.09985182858854531,-0.647302463248372
1726995922582680000,9.49468017578125,-1.2177677705317735,0.23191906967051326,-0.8858633820861578
1726995922592665900,9.504665771484374,-1.2742395993381739,0.4196803601194173,-0.9256476954638957
1726995922602653000,9.51465283203125,-1.3518541694164274,0.5613259422119706,-0.7570061160266399
1726995922612640000,9.524639892578126,-1.3677718695163725,0.6175073367044329,-0.6196008018523455
1726995922622626000,9.5346259765625,-1.1216004756748676,0.6183899647578597,-0.4343161306500435
1726995922632612900,9.54461279296875,-0.8355015605926513,0.6676119685664773,-0.2787690105855465
1726995922642599200,9.55459912109375,-0.24336861138045787,0.8860193763654679,-0.06412555842995643
1726995922652586000,9.5645859375,0.225059632229805,1.185257101418823,-0.17302549360990524
1726995922662573000,9.574572998046875,-0.4260048139005899,1.178862870337069,-0.47693888232409953
1726995922672559000,9.58455908203125,-0.3595072656422853,1.1300259203232823,-0.045426703178882595
1726995922682546200,9.594546142578125,-0.2575046887606382,1.0399353880967945,0.413740375611186
1726995922692532000,9.604531982421875,-0.5912953293442725,0.8637461697589606,0.7225514732390642
1726995922702519000,9.61451904296875,-0.8586112180233001,0.5032401754029094,0.7349959442704915
1726995922712506000,9.624506103515625,-0.866198312151432,0.3660325026925653,0.7650783633232117
1726995922722492000,9.634491943359375,-0.42077100490033625,0.23102504344023764,0.6685404815882444
1726995922732479000,9.64447900390625,-0.12137187874019145,0.2303139725614339,0.5542068309217691
1726995922742465000,9.654465087890625,0.07205693595111369,0.17381342911720274,0.5940940201520919
1726995922752452000,9.6644521484375,0.12093991706371307,0.03515869940370321,0.25541268491744995
1726995922762438100,9.674438232421876,0.05124152693748474,-0.0881409325286746,-0.09283201295435428
1726995922772425000,9.684425048828125,0.06540449232459068,-0.25085721357017754,-0.29611995835900307
1726995922782412000,9.694412109375,0.24573943216502664,-0.45774544848911464,-0.5126297889083623
1726995922792398000,9.704398193359374,0.18740005592107772,-0.5024028477959335,-0.5615957721292972
1726995922802385200,9.71438525390625,0.2660498142659664,-0.6337354179278015,-0.588422404256463
1726995922812371000,9.724370849609375,0.16892624159753322,-0.7233474459223449,-0.6123983231276273
1726995922822358000,9.73435791015625,0.09504209021925926,-0.8601848970808088,-0.4078232605218887
1726995922832345000,9.744344970703125,0.09754618199467659,-0.8618965233042836,-0.24505261894464492
1726995922842331000,9.754330810546875,0.1599549996346235,-0.8265851175568998,-0.0631295331299305
1726995922852318000,9.76431787109375,0.3969184201478958,-0.81962813802585,-0.07808394115567206
1726995922862304000,9.774303955078125,0.7026438267201185,-0.8459000588797032,-0.18810849645137787
1726995922872291000,9.784291015625,1.0540876128941774,-0.8773342578675597,-0.2927712324529886
1726995922882278000,9.79427783203125,1.225243805500865,-0.8283348838336765,-0.4689876310586929
1726995922892264200,9.80426416015625,1.2404127330601216,-0.8389312427803873,-0.5277344190597534
1726995922902251000,9.8142509765625,1.0192752427101135,-0.806772090518847,-0.3772247086405754
1726995922912237000,9.824237060546874,0.9500304415702819,-0.7956576259821653,-0.05306172810196876
1726995922922224000,9.83422412109375,0.8216326097160578,-0.7786136252660304,0.17807050203979014
1726995922932210000,9.8442099609375,0.6616156507611274,-0.7868851945269852,0.18214345056712627
1726995922942197000,9.854197021484374,0.6626876639068127,-0.8238332615654915,-0.051348494443297386
1726995922952184000,9.86418408203125,0.5450584788262843,-0.914909955285117,-0.28936230079233644
1726995922962170000,9.874170166015626,0.36315702032148833,-0.8518165894471108,-0.19578443790674208
1726995922972157000,9.884156982421874,0.33282384137809273,-0.8029454449027776,-0.19354688811302184
1726995922982143000,9.89414306640625,0.3161211283802986,-0.7637078786876053,-0.6831020909041166
1726995922992130000,9.904130126953126,0.5241542224854231,-0.9818445067211985,-1.4638649300932884
1726995923002116900,9.914116943359375,0.5903782144993543,-1.0709994385980068,-1.9492104062348603
1726995923012103200,9.924103271484375,0.33145956728756426,-1.16823735836111,-2.3164222549051043
1726995923022090000,9.934090087890626,-0.4355290135711431,-1.0200930618990212,-1.875381199914217
1726995923032076000,9.944075927734374,-1.396016551747918,-0.9239244518678634,-1.5143804808437824
1726995923042063000,9.95406298828125,-1.946234605294466,-0.861530685666576,-1.272141165754199
1726995923052050200,9.96405029296875,-2.9680612860530613,-0.4921623896148056,-0.8105114962428808
1726995923062036000,9.974035888671875,-3.7701720336973663,0.13490827319417148,-0.3827928641617298
1726995923072023000,9.98402294921875,-4.419771083450317,0.6479553011339158,0.27762510124742984
1726995923082009000,9.994009033203126,-4.621491341146826,0.921029388013482,0.9687491705656051
1726995923091996000,10.003995849609375,-4.569390567031502,0.9130864661850034,1.517197291830182
1726995923101983000,10.01398291015625,-3.9368946277707813,0.7395248198717832,2.080018221840262
1726995923111969000,10.023968994140626,-2.7668641754478216,0.652096200330928,2.5161177287757397
1726995923121956000,10.0339560546875,-1.574208634340763,0.799699229523167,2.69586580863893
1726995923131942100,10.043942138671875,-0.2683680280804634,0.6297559929028153,2.8620874674528833
1726995923141929000,10.053928955078124,1.301742523291707,0.16201076312065124,2.9864164424329993
1726995923151915000,10.0639150390625,1.2189543499678372,0.08150858184210956,2.8574656528711317
1726995923161901800,10.07390185546875,0.8897884465754031,0.09795505505651235,3.1603894460260866
1726995923171889200,10.08388916015625,1.136369005739689,0.1641038264097646,3.1728987989872692
1726995923181875000,10.093875,1.6423030964016914,0.4064515337772667,2.352135957843065
1726995923191861800,10.10386181640625,2.1942548418730494,1.1428510612353682,1.2047177348226308
1726995923201849000,10.11384912109375,2.4627988110423087,2.007520117992908,-0.08076105141043663
1726995923211835000,10.1238349609375,2.112341113296151,2.7144983206555247,-1.3172680092036724
1726995923221822000,10.133822021484375,1.6826842066287993,3.2644512935250996,-2.4087498254686595
1726995923231808000,10.14380810546875,1.4428531217247247,3.725691086935997,-3.2463445589482784
1726995923241795000,10.153795166015625,1.0754162321269511,3.7607495408356186,-3.564565289956331
1726995923251780900,10.16378076171875,0.7641542342156171,3.236245774260163,-3.0257606108278035
1726995923261768000,10.173767822265624,0.531129322195053,2.080769040207565,-1.638870199343562
1726995923271755000,10.183755126953125,0.4288374069780111,1.0826235331572591,-0.22286066088080406
1726995923281740800,10.19374072265625,0.4586597137898206,0.3724504069108516,0.8646481600999831
1726995923291728100,10.20372802734375,0.39143385125696656,-0.12439466062746941,1.4470903209030628
1726995923301714000,10.2137138671875,0.39882103889882564,-0.45788997152633965,1.520554201042652
1726995923311701000,10.223700927734376,0.812404178121686,-0.7809560236737132,1.385714353442192
1726995923321688000,10.23368798828125,1.210541910931468,-0.978494392575696,0.9250625890523194
1726995923331674000,10.243674072265625,1.2409253587573765,-0.9307108971375971,0.330708456659317
1726995923341661000,10.253660888671876,0.9977467169910669,-0.8897876428578049,-0.21403905652165411
1726995923351647000,10.26364697265625,0.7052133849471807,-0.7765260053370148,-0.779158326601982
1726995923361634000,10.273634033203125,0.5016723415642976,-0.7717429357789456,-1.2434084077447651
1726995923371620900,10.283620849609376,0.4134855240672827,-0.921696181359142,-1.5107242964237928
1726995923381607200,10.293607177734375,0.18575521132349967,-1.0417299433633684,-1.2697715140134096
1726995923391594000,10.303593994140625,-0.18992168335318566,-1.0801982787717133,-0.5258505050092935
1726995923401580000,10.313580078125,-0.7124316457629203,-0.9462335335053503,0.15902560983002184
1726995923411566800,10.32356689453125,-1.0665385136663914,-0.7284188309025019,0.28725685294568537
1726995923421553000,10.333552978515625,-1.118043075454235,-0.694738022031635,0.0025409166544675824
1726995923431540000,10.3435400390625,-0.9299018457770347,-0.6907060631018132,-0.42295010250508785
1726995923441526800,10.35352685546875,-0.6683586952805519,-0.5182615842502564,-0.5565612850934266
1726995923451513000,10.36351318359375,-0.745054981470108,-0.09909998730793594,-0.47688218370079993
1726995923461500000,10.3735,-1.049944521740079,0.3139278561197221,-0.2649380536317825
1726995923471486200,10.383486328125,-1.353802380874753,0.607982187185809,-0.11989186931550502
1726995923481473000,10.39347314453125,-1.2786731978714465,0.7001094859369099,-0.155498604747653
1726995923491460000,10.403460205078124,-0.8281722406178712,0.7378638278570026,-0.1914519616603851
1726995923501446000,10.41344580078125,-0.6773451348125934,0.8009325707104057,-0.2872048304975033
1726995923511433000,10.423432861328125,-0.852746125382185,0.7478092486143112,-0.02051204215288162
1726995923521419000,10.4334189453125,-0.6200204885691404,0.6296348507411778,0.41849253857433794
1726995923531405800,10.44340576171875,-0.32970424805283544,0.6038866615004838,0.5243623122781514
1726995923541393200,10.45339306640625,-0.32277941722571846,0.6418392294064164,0.25956337485611436
1726995923551379000,10.46337890625,-0.3902782514810562,0.5387438888520002,0.016827216160297392
1726995923561366000,10.473365966796875,-0.7455676071673631,0.38609029827192426,0.04671148229241371
1726995923571352000,10.48335205078125,-1.2436088987529277,0.17521350517347453,0.233092132037878
1726995923581339000,10.4933388671875,-1.3522107277691364,0.18116094233579932,0.31118484102189536
1726995923591326000,10.503325927734375,-0.7845856123477221,0.20449206049740312,-0.10684709430336951
1726995923601312000,10.51331201171875,-0.35415479869842525,0.27378873795494435,-0.7485702961146831
1726995923611299000,10.523299072265624,-0.09397884490191936,0.10393537157513201,-1.0212433279126882
1726995923621284900,10.533284912109375,-0.13646423393189908,-0.03420293304882943,-0.6757698483198881
1726995923631272200,10.543272216796876,-0.3041565498203039,-0.04521919790804386,-0.1550374169766903
1726995923641258000,10.553258056640624,-0.28811551560163495,-0.08370039279796182,0.12991934233307836
1726995923651244800,10.563244873046875,-0.19260171621739863,-0.11505918846204877,0.21078794577121734
1726995923661231900,10.57323193359375,0.16287702456116676,-0.16706519696600733,0.029713001218438145
1726995923671218000,10.583218017578124,0.5679997939527034,-0.29603739464208484,-0.4241442807257175
1726995923681205000,10.593205078125,1.0649252332508563,-0.395577599998191,-0.8134048795968294
1726995923691191000,10.60319091796875,1.1522522190481423,-0.3939723567586392,-0.8436848670482635
1726995923701178000,10.61317822265625,0.9727508074223995,-0.3392630806453526,-0.7135539277911186
1726995923711165000,10.6231650390625,0.7045476145148277,-0.23195889022424815,-0.41203883239030836
1726995923721151000,10.63315087890625,0.5918477025300264,-0.24787111043147741,-0.1549637672185898
1726995923731138000,10.643137939453124,0.8183417514771223,-0.3789059397257864,-0.04235971682369709
1726995923741123800,10.653123779296875,1.1071996098786592,-0.4775676086816936,-0.03930442090630531
1726995923751111000,10.66311083984375,1.2621516866594553,-0.5669458279203623,0.039914661759138104
1726995923761098000,10.673097900390625,1.015747653105855,-0.5643816034555434,0.28486206676363945
1726995923771084000,10.683083984375,0.6751496705949306,-0.5702716113422066,0.502788778373599
1726995923781070800,10.69307080078125,0.3874801451951265,-0.567235458516702,0.6311427710860967
1726995923791057000,10.703056884765624,0.24047055185139177,-0.5950266248270869,0.6671569182753563
1726995923801044000,10.7130439453125,0.32665421283245083,-0.7125880784336477,0.6259019478231668
1726995923811030800,10.72303076171875,0.4819482349187135,-0.8408684213880449,0.4487099821835756
1726995923821017000,10.73301708984375,0.7734948940128088,-0.9172814336568117,0.18944705157876013
1726995923831004000,10.74300390625,1.114132039490342,-0.9469942887447774,-0.3472206155210733
1726995923840990000,10.752989990234376,1.3173323066115379,-1.0768257335986942,-1.0460293941229581
1726995923850977000,10.76297705078125,1.3629875578492878,-1.009756888258457,-1.788643412181735
1726995923860964000,10.772964111328125,1.2752853089988232,-1.3116836332000792,-2.3369056554853915
1726995923870950000,10.782949951171876,0.6993214042991399,-1.542292862381041,-3.1983003667473793
1726995923880937000,10.79293701171875,-0.2142629284054041,-1.6102249734871088,-3.020942396891117
1726995923890923000,10.802923095703125,-1.58853760394454,-1.5246540375769138,-2.6087171020179984
1726995923900909800,10.812909912109374,-2.7122359286814928,-1.1786129141639918,-1.9110165769189595
1726995923910896000,10.822896240234375,-3.508047868442535,-0.6450318879678845,-1.3359838155895472
1726995923920883000,10.832883056640625,-3.961628671532869,-0.05476210227906703,-0.4855985741198063
1726995923930870000,10.8428701171875,-4.628544182267785,0.44235158960018306,0.4869283614188432
1726995923940856000,10.85285595703125,-4.9628018558412785,0.8156783044215291,1.5500041674107312
1726995923950843100,10.862843017578125,-4.889142160868644,0.91987671084702,2.507478495246172
1726995923960829000,10.872828857421876,-4.146373244509101,1.0693523289781064,3.295970467382669
1726995923970816000,10.88281591796875,-3.276317672407627,1.2655464436642825,3.581169218754768
1726995923980803000,10.892802978515626,-2.5658424214094877,1.5479071951314807,3.796950735029578
1726995923990788900,10.902788818359374,-1.396943603464961,1.223601445121318,3.448407346472144
1726995924000776000,10.91277587890625,-0.3176753720849752,0.9826358032293617,3.3839942032724615
1726995924010762000,10.922761962890625,0.5881196219176054,0.9310437823537736,2.8836247610002754
1726995924020749000,10.9327490234375,1.3352671917527914,0.8436343059048056,2.5131115326970814
1726995924030736000,10.94273583984375,1.6662655712693928,0.9223601982258259,2.2934879540413617
1726995924040722000,10.952721923828125,2.2239128980338574,1.0783502397522329,1.6610037052184343
1726995924050709000,10.962708984375,2.6415695703059434,1.4734452438652514,0.7082318559855222
1726995924060695000,10.972695068359375,2.8300211811065674,1.8130206053301692,-0.1314519587278366
1726995924070682000,10.98268212890625,2.6502877142906187,2.2062825487971303,-0.822704622861743
1726995924080668000,10.99266796875,2.294611989635229,2.7099738289684057,-1.1433633946716786
1726995924090655000,11.002655029296875,1.746669479805231,3.0567998922139403,-1.771048718780279
1726995924100642000,11.01264208984375,0.9384995782524347,3.2550486744076013,-2.7263281669199464
1726995924110627800,11.0226279296875,0.5174591087609529,2.9371216656491157,-2.879939935007691
1726995924120615000,11.032614990234375,0.8446148413747548,2.250517996364832,-2.405207038295269
1726995924130602000,11.04260205078125,1.0683177982985972,1.608755193195492,-1.4099094680219888
1726995924140588000,11.052588134765625,1.0649223106414079,0.8566600108902901,-0.20585048936903474
1726995924150574800,11.062574951171875,1.2225053204476832,0.12356405502222478,0.7576800697654485
1726995924160560600,11.072560546875,1.3557628672927617,-0.4944193747613579,1.1037690509080886
1726995924170547700,11.082547607421875,1.3441373114287853,-0.9753126937996596,0.8984481383711099
1726995924180533800,11.09253369140625,1.2961410500228405,-1.268275868628174,0.5056733938992023
1726995924190520800,11.102520751953126,1.2356348511338233,-1.5017375646308064,0.29475042357146736
1726995924200507600,11.112507568359375,0.8891039714425801,-1.3974749338626862,0.17585399503409863
1726995924210493400,11.122493408203125,0.49215690972208975,-1.3155483458042143,0.08161328432559967
1726995924220480800,11.132480712890626,0.25026304706931113,-1.1966360621105878,-0.26114158395826814
1726995924230466600,11.142466552734374,0.03723462889492511,-1.1338345188260077,-0.8809253411620854
1726995924240453600,11.15245361328125,-0.25441490605175493,-0.904347863934189,-1.4351099602520465
1726995924250440700,11.162440673828126,-0.6940630453795195,-0.7356222594752907,-1.631268492168188
1726995924260426800,11.1724267578125,-1.308911684268713,-0.6481308768965304,-1.352239369341731
1726995924270413600,11.18241357421875,-1.926166799777746,-0.4392215844787657,-0.7353413967072964
1726995924280399600,11.192399658203126,-2.1231150207668543,-0.3145014182239771,-0.012501169654726982
1726995924290386700,11.20238671875,-2.0848551404774187,-0.25194895432963965,0.4019377096146345
1726995924300373500,11.21237353515625,-1.750082503119111,-0.23761223981082438,0.3438222052544355
1726995924310359800,11.22235986328125,-1.3222194941312073,-0.23612302416637537,-0.12968845618665217
1726995924320346600,11.2323466796875,-1.0417284820586443,-0.1059463460713625,-0.6562012244969606
1726995924330332700,11.242332763671875,-0.7841285162299871,0.19103768177106975,-0.9579150573402643
1726995924340319700,11.25231982421875,-0.6381792455941439,0.4999871649563312,-0.8140168740153312
1726995924350306800,11.262306884765625,-0.23037235168516634,0.8728659533470868,-0.3673281685262918
1726995924360292600,11.272292724609375,-0.21273148105442521,1.180397532558441,-0.28980712195038794
1726995924370279400,11.282279541015624,-0.6382073026448488,1.1584317844659089,-0.16866028413772582
1726995924380265700,11.292265625,-0.2957072859048843,0.9167496648676693,0.18712006993591784
1726995924390252500,11.30225244140625,-0.07816051352322101,0.8204089131399989,0.40152854429185386
1726995924400238800,11.31223876953125,-0.1374041451305151,0.7666241314604878,0.587678307890892
1726995924410225700,11.3222255859375,-0.26084873849153517,0.6026344694823026,0.6265390766829252
1726995924420212700,11.332212646484376,-0.31986148395240305,0.385941537450999,0.7157330253958701
1726995924430198800,11.34219873046875,-0.5033598562598228,0.08928615704104303,0.738130150642991
1726995924440185600,11.352185546875,-0.7246347092539072,-0.14355653028041124,0.4028741136819124
1726995924450171600,11.362171630859375,-0.7091811195343732,-0.2109834683433175,-0.2928536500394344
1726995924460158500,11.372158447265624,-0.5637830530405045,-0.31832886755764483,-0.6939414648264646
1726995924470145800,11.382145751953125,-0.4856780690968036,-0.5184605408884585,-0.6923942353844642
1726995924480131600,11.392131591796876,-0.45187458369433875,-0.6556625875756145,-0.6617378158360719
1726995924490118700,11.40211865234375,-0.6021779578864574,-0.6601277502909302,-0.37074703705906864
1726995924500104700,11.412104736328125,-0.5614660082697868,-0.6915699133895337,-0.16877718851566315
1726995924510091500,11.422091552734376,-0.7098655946671962,-0.5519426853820681,0.09333528630137443
1726995924520078600,11.43207861328125,-0.7572399247825146,-0.5680855725400149,0.1723509553492069
1726995924530064600,11.442064697265625,-0.6109329267501831,-0.4678163953222334,-0.2343131982654333
1726995924540051700,11.4520517578125,-0.32626959742903705,-0.30192594122402366,-0.5650678321540356
1726995924550037500,11.46203759765625,0.24984745200574396,-0.1773903377559036,-0.8746271178007126
1726995924560024800,11.47202490234375,0.6743254947304725,-0.12239449978619814,-0.9486702591329812
1726995924570011600,11.48201171875,0.9506821834772825,-0.08750015040710568,-0.7844114248245954
1726995924579997400,11.49199755859375,1.1050199277520178,-0.05632387170307338,-0.4371960700005293
1726995924589984800,11.50198486328125,1.3119319088727235,-0.1568136328689754,-0.18142858029603956
1726995924599970600,11.511970458984376,1.4964818360596894,-0.19778744829222558,-0.09708440970182418
1726995924609957600,11.52195751953125,1.5555267302244902,-0.17472418728657066,-0.021308160966634748
1726995924619943700,11.531943603515625,1.3219827627658842,-0.1282346041165292,0.2296376076698303
1726995924629930800,11.5419306640625,1.0866291155368089,-0.10625672719478607,0.5471551588445902
1726995924639917600,11.55191748046875,0.851688725283742,-0.16310053111873565,0.8582476454079151
1726995924649903600,11.561903564453125,0.7832704380959272,-0.3296100669633597,1.050787402305007
1726995924659890700,11.571890625,0.9195476250231266,-0.5870702589951455,0.8986790245175361
1726995924669876500,11.58187646484375,1.182082124644518,-0.7834449909452349,0.4017658601790666
1726995924679863800,11.59186376953125,1.4244202239334582,-0.8891596471525728,-0.33342823701202867
1726995924689850600,11.6018505859375,1.7268378211319446,-0.9499548190508037,-1.2652303634524344
1726995924699836700,11.611836669921875,1.9343109432667493,-1.046223455390334,-1.7605588889479635
1726995924709823500,11.621823486328125,1.5434931780815124,-1.2958648634299634,-2.881070400342345
1726995924719809500,11.6318095703125,0.5826444053769111,-1.4422653849646447,-3.5764094570070504
1726995924729796600,11.641796630859375,-0.22404022605419158,-1.5484370642244816,-3.410491749575734
1726995924739783700,11.65178369140625,-1.5981775389492512,-1.296168230290711,-2.7905624464213847
1726995924749769700,11.661769775390624,-2.7554876259088514,-0.7582206063829362,-2.048524766945839
1726995924759756500,11.671756591796875,-3.464661146658659,-0.30871092518903315,-1.2274188114523887
1726995924769742800,11.681742919921875,-4.240905047118663,0.07372988326516933,-0.5461375062346459
1726995924779729700,11.691729736328124,-4.703485733744502,0.4901509767271578,0.16087036091387272
1726995924789716700,11.701716796875,-4.696862516212463,0.719826651385054,0.9249714036375284
1726995924799702500,11.71170263671875,-4.528157808411121,0.8461515494227408,1.7736954338967799
1726995924809689900,11.72168994140625,-4.07610143840909,0.8259570487864315,2.8224902010798454
1726995924819675600,11.731675537109375,-3.2923096067875623,0.729553534020856,3.6806449075073
1726995924829662500,11.741662353515625,-2.2271388743430376,0.6503481876198202,4.220529198566079
1726995924839649800,11.75164990234375,-0.9086077133357524,0.3828475169584155,4.514989114758372
1726995924849635600,11.761635498046875,-0.08900164101123809,0.12294720176551491,4.563592109885811
1726995924859622700,11.77162255859375,0.18694880502223968,0.1652509871508926,3.514882098376751
1726995924869608700,11.781608642578124,0.3037958998143673,0.3474933315152302,3.2553385972648856
1726995924879595800,11.791595703125,0.46300855664908885,0.3848786574598402,3.5624639337629076
1726995924889581600,11.80158154296875,0.6735510032266377,0.5339985209558159,3.382829835668206
1726995924899568600,11.811568603515624,1.0386585730940103,0.7556102046888321,2.9856589020639657
1726995924909555700,11.8215556640625,1.5195149211227892,1.0971311472635716,1.9232740009456872
1726995924919541500,11.83154150390625,2.1420739882588387,1.7054346753582357,0.18666648094952104
1726995924929528800,11.84152880859375,2.6929969752043483,2.4552587709262967,-1.2772522251576184
1726995924939514600,11.8515146484375,2.8539988535434007,3.161524295274913,-2.5492162807792424
1726995924949501700,11.861501708984376,2.4227198986321685,3.7691403525620695,-3.483374030435085
1726995924959488500,11.871488525390625,1.9353847099781036,3.7855432058304546,-3.8855356119334696
1726995924969474600,11.881474609375,1.1982599369853735,3.3214132439360022,-3.897133695268631
1726995924979461600,11.891461669921876,0.5758733038067817,2.721517844028771,-3.5498698251277205
1726995924989447700,11.90144775390625,0.5139215822845697,1.8706389738231897,-2.3581255536466834
1726995924999434800,11.911434814453125,0.7291372813701629,0.9119166917532682,-0.9549193826556205
1726995925009421600,11.921421630859374,1.217630992409587,0.16400712456963956,0.13468611834347247
1726995925019408000,11.931407958984375,1.4906985764831304,-0.483080307688564,0.8359656709730625
1726995925029394700,11.941394775390625,1.7421417732477187,-1.078162462095171,1.065351349708438
1726995925039380500,11.95138037109375,1.6912363463968036,-1.487088569292426,1.1385790830045939
1726995925049367600,11.961367431640625,1.3402794669568538,-1.701385107706487,1.034528341421485
1726995925059354600,11.971354736328125,1.0299790075540542,-1.9475195305384694,0.6422802511721849
1726995925069340700,11.981340576171876,0.749887223932147,-1.9092216563262043,0.15238427211940286
1726995925079327500,11.991327392578125,0.3538216212213039,-1.642494965711981,-0.25421324599981304
1726995925089313800,12.001313720703125,0.1004950949281454,-1.346924019537866,-0.7911737585663795
1726995925099300600,12.011300537109374,-0.1836234599918127,-1.1821354622669518,-1.1221604476451874
1726995925109286700,12.02128662109375,-0.7526344768136739,-0.9922278074391185,-1.1854232517659664
1726995925119273700,12.031273681640625,-1.4140169033408163,-0.8588656311757862,-0.8826309760361909
1726995925129260500,12.041260498046874,-1.6720687045902012,-0.6373565310344099,-0.5035363818705082
1726995925139246600,12.05124658203125,-1.7664648981213569,-0.35203473780453204,-0.2606125916481018
1726995925149233700,12.061233642578125,-1.7540952458918093,-0.12872341054677963,-0.28354923059940335
1726995925159219700,12.0712197265625,-1.8592922349005936,0.09080299134477972,-0.22895897775590418
1726995925169207000,12.08120703125,-1.861042877960205,0.38559973827600474,-0.1907686555713415
1726995925179194000,12.091194091796876,-1.8217916485458612,0.6155154322348535,-0.18120646197795867
1726995925189180200,12.10118017578125,-1.9401795430392026,0.737613725553453,-0.08552665837705135
1726995925199167200,12.111167236328125,-1.9052841707468031,0.7426110954493284,0.1401928990662098
1726995925209153300,12.1211533203125,-1.4311919100254773,0.7886958241455256,0.2861749029278755
1726995925219140000,12.13114013671875,-0.40613399226069447,0.9457483803369104,0.21015257047712801
1726995925229127200,12.141127197265625,0.36838966027796266,1.0640022731870413,-0.13571896852254867
1726995925239113200,12.15111328125,0.5963619650840759,0.7744993948802351,-0.2530751818805933
1726995925249100300,12.161100341796875,0.6984364381581545,0.6775166919872164,-0.06510638616085052
1726995925259086000,12.171086181640625,0.5788882677137851,0.6224731424182653,0.12071838326752185
1726995925269073200,12.1810732421875,-0.013897007927298545,0.5464281597442925,0.09493512271344662
1726995925279060200,12.191060302734375,-0.35952304773330684,0.3908047595731914,-0.24072891052663326
1726995925289046000,12.2010458984375,-0.5893962177246809,0.16091463844701648,-0.3950573024511337
1726995925299033000,12.211033203125,-0.5325695841312408,0.020851795501261948,-0.41466333567500113
1726995925309019100,12.22101904296875,-0.4602180491477251,-0.0759070355080068,-0.4672182832986116
1726995925319006200,12.231006103515625,-0.27762627029120923,-0.21331059611663222,-0.4172703033030033
1726995925328993000,12.240992919921876,-0.2842541639983654,-0.4126012885786593,-0.3693248953014612
1726995925338979300,12.250979248046875,-0.29721827498972414,-0.6685192926697433,-0.24327216526865958
1726995925348966100,12.260966064453125,-0.3271925574928522,-0.90122213312909,-0.21147651255726813
1726995925358952000,12.270951904296876,-0.4366583098620176,-1.0488619872003793,0.002838438296318054
1726995925368939300,12.280939208984375,-0.5088841726392507,-1.2280234993472694,0.15212299083471298
1726995925378926000,12.290926025390625,-0.2674304549694061,-1.3130552138142286,0.030134441500902175
1726995925388912000,12.300912109375,-0.02008651021718979,-1.3943413120120762,-0.14719664034843444
1726995925398899200,12.310899169921875,0.4966986448049545,-1.3585609735786914,-0.3454664653301239
1726995925408885200,12.32088525390625,0.8746639426797628,-1.341427029556781,-0.2628004570811987
1726995925418872000,12.3308720703125,0.851807967749238,-1.213051409534365,-0.1400923613011837
1726995925428858000,12.340858154296875,0.8545388540178537,-1.0287651017196475,-0.05883037463128567
1726995925438845200,12.35084521484375,0.8780483244210481,-0.8698255627378821,0.000030979660153388974
1726995925448832000,12.36083203125,0.842486597174406,-0.8672586348593234,-0.09064999274015426
1726995925458818300,12.370818359375,0.9260212049514055,-0.906675430098921,0.02133329540789127
1726995925468805000,12.38080517578125,0.955520855680108,-0.9214188257224857,0.06463876864910126
1726995925478791200,12.390791259765624,0.9254507115870714,-0.9313179961852729,0.0070984338283538815
1726995925488778200,12.4007783203125,0.9523761279135942,-0.8537056180641055,0.015838789644837377
1726995925498765300,12.410765380859376,0.9793120656341314,-0.8222130399525165,-0.041324528557062146
1726995925508751000,12.420751220703124,0.9482733687698841,-0.8133203431185334,-0.18943068496584892
1726995925518738000,12.430738037109375,0.7884153997689485,-0.8146550257883965,-0.4784218143582344
1726995925528724200,12.44072412109375,1.0471464154541492,-0.9383082203987986,-0.9158703978151083
1726995925538711000,12.4507109375,1.216938918492198,-1.0766671820361167,-1.5480284834235907
1726995925548698000,12.460697998046875,0.9657979195445775,-1.3456041691109537,-2.1613807462751864
1726995925558684200,12.47068408203125,0.8021306213885545,-1.7066421514518557,-3.20325945045948
1726995925568671200,12.480671142578124,0.2772650357633829,-1.713398639974743,-3.521172722953558
