time,seconds_elapsed,z,y,x
1726995913097911800,0.009911865234375,0.2391822189092636,-0.9506648778915405,0.9670819640159607
1726995913107899000,0.01989892578125,0.30055662989616394,-1.0182455778121948,0.9753814339637756
1726995913117885000,0.029885009765625,0.37503060698509216,-1.0914560556411743,1.0545250177383423
1726995913127872000,0.0398720703125,0.4941902756690979,-1.0879825353622437,1.228198528289795
1726995913137858800,0.04985888671875,0.6259874701499939,-1.0764297246932983,1.4798840284347534
1726995913147844900,0.059844970703125,0.7824087738990784,-1.039020299911499,1.7621822357177734
1726995913157831700,0.069831787109375,0.9565842747688293,-1.21025812625885,1.9958418607711792
1726995913167817700,0.079817626953125,1.065619707107544,-1.5956875085830688,2.1262011528015137
1726995913177804800,0.0898046875,1.1323590278625488,-1.9574476480484009,2.1879830360412598
1726995913187792000,0.0997919921875,1.1718050241470337,-2.266256809234619,2.2150962352752686
1726995913197777700,0.109777587890625,1.2269896268844604,-2.494662046432495,2.252805233001709
1726995913207764700,0.1197646484375,1.3660184144973755,-2.6346399784088135,2.328059434890747
1726995913217750800,0.129750732421875,1.5482046604156494,-2.831883430480957,2.392780065536499
1726995913227737600,0.139737548828125,1.7690985202789307,-3.2194511890411377,2.458073377609253
1726995913237724700,0.149724609375,1.9773555994033813,-3.8794145584106445,2.518341302871704
1726995913247710700,0.159710693359375,2.112861156463623,-4.639583587646484,2.5753138065338135
1726995913257697800,0.16969775390625,2.1955816745758057,-5.031562328338623,2.8253071308135986
1726995913267683800,0.179683837890625,2.4880614280700684,-5.45209264755249,3.195230722427368
1726995913277671000,0.1896708984375,2.977440595626831,-5.916108131408691,3.4728379249572754
1726995913287657700,0.19965771484375,3.5678911209106445,-6.170616626739502,3.588082790374756
1726995913297643800,0.209643798828125,4.205438613891602,-6.296756744384766,3.5159037113189697
1726995913307630800,0.219630859375,4.746108055114746,-6.034420490264893,3.3804352283477783
1726995913317616600,0.22961669921875,5.14750862121582,-5.662204742431641,3.167193651199341
1726995913327603700,0.239603759765625,5.331998348236084,-5.333369731903076,2.87591552734375
1726995913337590800,0.2495908203125,5.303876876831055,-5.272742748260498,2.4728896617889404
1726995913347576800,0.259576904296875,5.25999641418457,-4.951657772064209,2.103780508041382
1726995913357563600,0.269563720703125,5.082194805145264,-4.293059349060059,1.7316248416900635
1726995913367549700,0.2795498046875,5.087286472320557,-3.933452844619751,1.546783447265625
1726995913377536800,0.289536865234375,4.748962879180908,-3.768301010131836,1.3017781972885132
1726995913387523800,0.29952392578125,4.486684799194336,-4.145066738128662,1.447813630104065
1726995913397510000,0.309510009765625,4.308943748474121,-4.856865406036377,1.7026829719543457
1726995913407496700,0.31949658203125,3.63641357421875,-4.830057621002197,2.0633814334869385
1726995913417482800,0.329482666015625,2.7301061153411865,-4.172057628631592,2.0832629203796387
1726995913427469800,0.3394697265625,1.7628391981124878,-3.5649361610412598,1.8669520616531372
1726995913437457000,0.349456787109375,1.198774814605713,-3.1546428203582764,1.3446608781814575
1726995913447442700,0.359442626953125,1.1985740661621094,-2.589276075363159,0.605815052986145
1726995913457429800,0.3694296875,1.6334434747695923,-2.8179352283477783,-0.07037296891212463
1726995913467415800,0.379415771484375,2.169840097427368,-3.230297565460205,-0.5745205283164978
1726995913477402600,0.389402587890625,2.4144608974456787,-3.586397886276245,-0.6119720339775085
1726995913487389700,0.3993896484375,2.3251819610595703,-3.5945193767547607,-0.4170747399330139
1726995913497375700,0.409375732421875,1.8339980840682983,-2.7730162143707275,-0.22502778470516205
1726995913507362800,0.41936279296875,1.2411973476409912,-1.6241719722747803,0.025841716676950455
1726995913517348900,0.429348876953125,0.651898980140686,-0.8696224689483643,0.12776488065719604
1726995913527336000,0.4393359375,0.29244276881217957,-0.8723493218421936,0.12160952389240265
1726995913537322800,0.44932275390625,0.016201606020331383,-1.403627872467041,0.05251434072852135
1726995913547308800,0.459308837890625,-0.3959825038909912,-1.9550251960754395,-0.04519650712609291
1726995913557295900,0.4692958984375,-0.5955451130867004,-2.254871368408203,-0.37388917803764343
1726995913567281700,0.47928173828125,-0.7057475447654724,-2.1523873805999756,-0.9178962707519531
1726995913577268700,0.489268798828125,-0.6378246545791626,-1.639378309249878,-1.4082361459732056
1726995913587255800,0.499255859375,-0.7254751920700073,-1.062633752822876,-1.6724331378936768
1726995913597241900,0.509241943359375,-0.9406077265739441,-0.4169423580169678,-1.57756769657135
1726995913607228700,0.519228759765625,-1.2256218194961548,-0.39245620369911194,-1.2876386642456055
1726995913617214700,0.529214599609375,-1.4318280220031738,-1.2046968936920166,-0.6705994009971619
1726995913627201800,0.539201904296875,-2.215148448944092,-2.468416452407837,0.06395368278026581
1726995913637188600,0.549188720703125,-3.073678493499756,-3.752835750579834,0.3396374583244324
1726995913647175000,0.5591748046875,-3.46024489402771,-4.047585487365723,0.37826234102249146
1726995913657161700,0.56916162109375,-3.4927780628204346,-3.816105842590332,0.1871778815984726
1726995913667147800,0.579147705078125,-3.588773488998413,-2.4176411628723145,-0.5161144733428955
1726995913677134800,0.589134765625,-3.106271743774414,-0.23786555230617523,-1.0000598430633545
1726995913687122000,0.599121826171875,-2.299805164337158,1.2396758794784546,-1.0297828912734985
1726995913697107700,0.609107666015625,-1.3596444129943848,1.8673901557922363,-0.6058622002601624
1726995913707094800,0.6190947265625,-0.7110267281532288,1.6721227169036865,-0.08605419099330902
1726995913717080800,0.629080810546875,-0.302603542804718,0.7999328970909119,0.43895819783210754
1726995913727067600,0.639067626953125,-0.07200441509485245,-0.3456929624080658,0.7822156548500061
1726995913737054700,0.6490546875,0.05825771391391754,-1.2759063243865967,0.9755867123603821
1726995913747040800,0.659040771484375,0.1104559376835823,-1.990181565284729,1.072555661201477
1726995913757027800,0.66902783203125,0.1388327181339264,-2.5470478534698486,1.1391607522964478
1726995913767014000,0.679013916015625,0.1996968686580658,-3.0123212337493896,1.261980652809143
1726995913777000700,0.689000732421875,0.2203744500875473,-3.099493980407715,1.3753926753997803
1726995913786987800,0.69898779296875,0.25664031505584717,-2.759322166442871,1.4705288410186768
1726995913796973800,0.708973876953125,0.3511465787887573,-1.9187418222427368,1.4754903316497803
1726995913806961000,0.7189609375,0.4169442355632782,-0.8109181523323059,1.3612302541732788
1726995913816946700,0.72894677734375,0.4047490954399109,0.2970165014266968,1.309110164642334
1726995913826933800,0.738933837890625,0.29501646757125854,0.9185631275177002,1.1344839334487915
1726995913836920800,0.7489208984375,-0.2565987706184387,1.2501219511032104,0.9189980030059814
1726995913846906600,0.75890673828125,-0.7762283682823181,1.3477187156677246,0.5465738773345947
1726995913856893700,0.768893798828125,-1.0048021078109741,1.4829559326171875,0.03885898366570473
1726995913866879700,0.778879638671875,-1.0701957941055298,1.7042510509490967,-0.4119848906993866
1726995913876866800,0.78886669921875,-0.9982728958129883,1.7524523735046387,-0.6825979948043823
1726995913886853600,0.798853515625,-0.8957326412200928,1.262282133102417,-0.8075628280639648
1726995913896840000,0.80883984375,-0.7959820628166199,0.5892712473869324,-0.763837993144989
1726995913906826800,0.81882666015625,-0.7159554362297058,-0.17359203100204468,-0.6053234338760376
1726995913916812500,0.8288125,-0.48257729411125183,-0.8542539477348328,-0.38553091883659363
1726995913926800000,0.8387998046875,-0.17109611630439758,-0.9963951110839844,-0.08729629218578339
1726995913936787000,0.848786865234375,0.08355481177568436,-0.34478774666786194,0.23948049545288086
1726995913946772700,0.858772705078125,0.19774477183818817,0.5722044110298157,0.3256497383117676
1726995913956759800,0.868759765625,0.22876900434494019,0.9295217990875244,0.2642154097557068
1726995913966745900,0.878745849609375,0.23505832254886627,0.8750726580619812,0.19529199600219727
1726995913976732700,0.888732666015625,0.20097865164279938,0.7459974884986877,0.14030598104000092
1726995913986719700,0.8987197265625,0.12748605012893677,0.6579877138137817,0.060871873050928116
1726995913996705800,0.908705810546875,0.0472940132021904,0.6548840999603271,-0.014414625242352486
1726995914006692900,0.91869287109375,-0.018604576587677002,0.662665069103241,-0.05796609818935394
1726995914016679000,0.928678955078125,-0.04851320758461952,0.6277856230735779,-0.1012408658862114
1726995914026665700,0.938665771484375,-0.05891231819987297,0.5584014654159546,-0.14260774850845337
1726995914036652800,0.94865283203125,-0.061580538749694824,0.4598432183265686,-0.16077743470668793
1726995914046638800,0.958638916015625,-0.06311824917793274,0.42471373081207275,-0.1313106119632721
1726995914056626000,0.9686259765625,-0.09482291340827942,0.4736005961894989,-0.0712270438671112
1726995914066611700,0.97861181640625,-0.15452991425991058,0.5090997219085693,0.0012748552253469825
1726995914076598800,0.988598876953125,-0.18506599962711334,0.468739777803421,0.06407912075519562
1726995914086585900,0.9985859375,-0.2273561954498291,0.4750528037548065,0.050517767667770386
1726995914096571600,1.008571533203125,-0.3225037455558777,0.6033458113670349,0.13462145626544952
1726995914106558700,1.018558837890625,-0.3788098990917206,0.6335921287536621,0.22400513291358948
1726995914116544800,1.028544677734375,-0.3905256688594818,0.6351900100708008,0.2311495989561081
1726995914126531800,1.03853173828125,-0.37206223607063293,0.646905243396759,0.21044938266277313
1726995914136518700,1.0485185546875,-0.33875754475593567,0.6851261258125305,0.18383347988128662
1726995914146505000,1.0585048828125,-0.31344500184059143,0.710189700126648,0.13582201302051544
1726995914156491500,1.068491455078125,-0.3160221576690674,0.704653263092041,0.13560763001441956
1726995914166477600,1.0784775390625,-0.2995997667312622,0.672309935092926,0.16313885152339935
1726995914176464600,1.088464599609375,-0.2994532883167267,0.6502387523651123,0.17603760957717896
1726995914186451700,1.09845166015625,-0.33613327145576477,0.6006584167480469,0.20546580851078033
1726995914196437500,1.1084375,-0.36858177185058594,0.5535944700241089,0.2559596002101898
1726995914206424800,1.1184248046875,-0.35803166031837463,0.521597146987915,0.28811994194984436
1726995914216410600,1.12841064453125,-0.34813693165779114,0.4569941759109497,0.31739315390586853
1726995914226397400,1.1383974609375,-0.33197689056396484,0.4025745987892151,0.36386263370513916
1726995914236384500,1.148384521484375,-0.294018030166626,0.3711293339729309,0.40886420011520386
1726995914246370600,1.15837060546875,-0.19986571371555328,0.3393208086490631,0.4505000710487366
1726995914256357600,1.168357666015625,-0.14866723120212555,0.3050467371940613,0.4948480725288391
1726995914266343700,1.17834375,-0.13581721484661102,0.30836182832717896,0.5430318713188171
1726995914276330800,1.188330810546875,-0.11980389803647995,0.29794594645500183,0.5717636346817017
1726995914286317600,1.198317626953125,-0.05746222659945488,0.28356221318244934,0.5764334797859192
1726995914296303600,1.2083037109375,0.01401754841208458,0.3145901560783386,0.5243042707443237
1726995914306290700,1.218290771484375,0.09206734597682953,0.33428317308425903,0.4574698209762573
1726995914316276500,1.2282763671875,0.17456887662410736,0.33781957626342773,0.3884020745754242
1726995914326263600,1.238263671875,0.27291354537010193,0.35819384455680847,0.3049148917198181
1726995914336250600,1.248250732421875,0.35294926166534424,0.3378009498119354,0.2142036408185959
1726995914346236700,1.258236572265625,0.4042518734931946,0.30360010266304016,0.11799987405538559
1726995914356223500,1.268223388671875,0.4208396375179291,0.2551497519016266,0.008212123066186905
1726995914366209500,1.27820947265625,0.39009636640548706,0.164300799369812,-0.08907341957092285
1726995914376196600,1.288196533203125,0.32529446482658386,0.053227536380290985,-0.1825045645236969
1726995914386183400,1.298183349609375,0.2406269907951355,-0.01190938986837864,-0.2758267819881439
1726995914396169700,1.308169677734375,0.18341189622879028,0.005285309627652168,-0.3462119996547699
1726995914406156500,1.318156494140625,0.2102656215429306,0.09101459383964539,-0.36764511466026306
1726995914416142600,1.328142578125,0.3094976544380188,0.15941496193408966,-0.35241425037384033
1726995914426129700,1.338129638671875,0.4303061068058014,0.1870172917842865,-0.3472258746623993
1726995914436116700,1.34811669921875,0.493358850479126,0.19440729916095734,-0.34177544713020325
1726995914446102500,1.3581025390625,0.5082661509513855,0.1920890212059021,-0.32543668150901794
1726995914456089600,1.368089599609375,0.5138475894927979,0.24590110778808594,-0.2718126177787781
1726995914466075600,1.37807568359375,0.5245457887649536,0.3415176570415497,-0.20769061148166656
1726995914476062500,1.3880625,0.5213470458984375,0.4625266194343567,-0.12180579453706741
1726995914486048800,1.398048828125,0.5396246314048767,0.5665446519851685,0.006668555550277233
1726995914496035600,1.40803564453125,0.6009987592697144,0.7426664233207703,0.12153841555118561
1726995914506022700,1.418022705078125,0.6876617670059204,0.9866569638252258,0.22577108442783356
1726995914516008700,1.4280087890625,0.7958928942680359,1.2704671621322632,0.32486385107040405
1726995914525995500,1.43799560546875,0.9040006995201111,1.5776970386505127,0.41608989238739014
1726995914535981600,1.447981689453125,1.0367268323898315,1.8665357828140259,0.47413453459739685
1726995914545968600,1.45796875,1.1460002660751343,2.048074722290039,0.516972541809082
1726995914555955700,1.467955810546875,1.22222101688385,2.0880417823791504,0.5424180030822754
1726995914565941500,1.47794140625,1.261078119277954,2.0494794845581055,0.5642433762550354
1726995914575928600,1.487928466796875,1.2817375659942627,1.9073647260665894,0.5776345729827881
1726995914585914600,1.49791455078125,1.2380234003067017,1.6473478078842163,0.5826285481452942
1726995914595901400,1.5079013671875,1.1518515348434448,1.3490564823150635,0.6095163226127625
1726995914605888500,1.517888427734375,1.0532538890838623,1.0107345581054688,0.6456892490386963
1726995914615874600,1.52787451171875,0.8541199564933777,0.6916415691375732,0.6639508008956909
1726995914625861600,1.537861572265625,0.5584360957145691,0.31063830852508545,0.7041821479797363
1726995914635847700,1.54784765625,0.16866092383861542,-0.26409396529197693,0.7744957208633423
1726995914645834800,1.557834716796875,-0.2842450439929962,-0.9002994298934937,0.8132699728012085
1726995914655821600,1.567821533203125,-0.6436426043510437,-1.3231735229492188,0.7803493142127991
1726995914665807600,1.5778076171875,-0.8469603061676025,-1.553219199180603,0.6941284537315369
1726995914675794700,1.587794677734375,-0.917978823184967,-1.6288214921951294,0.5848091244697571
1726995914685780500,1.597780517578125,-0.855286180973053,-1.570025086402893,0.4830196499824524
1726995914695767600,1.607767578125,-0.7209720015525818,-1.542771577835083,0.38729286193847656
1726995914705754600,1.617754638671875,-0.5485571026802063,-1.495245099067688,0.31545543670654297
1726995914715740700,1.62774072265625,-0.4403108060359955,-1.2875092029571533,0.23737767338752747
1726995914725727500,1.6377275390625,-0.44009482860565186,-0.9397720098495483,0.12455497682094574
1726995914735713800,1.6477138671875,-0.4880647361278534,-0.603488564491272,0.0062214103527367115
1726995914745700600,1.65770068359375,-0.5356777906417847,-0.35796159505844116,-0.12226545810699463
1726995914755687700,1.667687744140625,-0.5499749779701233,-0.2346726953983307,-0.23257066309452057
1726995914765673700,1.677673828125,-0.4879225194454193,-0.1766946166753769,-0.3285246193408966
1726995914775660500,1.68766064453125,-0.37417492270469666,-0.07567904889583588,-0.43142223358154297
1726995914785646600,1.697646484375,-0.2636294960975647,0.06657849252223969,-0.5214751958847046
1726995914795633700,1.707633544921875,-0.20601122081279755,0.1953340768814087,-0.6408188939094543
1726995914805620700,1.717620849609375,-0.1742471605539322,0.27780285477638245,-0.7956462502479553
1726995914815606500,1.7276064453125,-0.13465102016925812,0.30087941884994507,-0.956526517868042
1726995914825593600,1.737593505859375,-0.09056079387664795,0.28424158692359924,-1.1069495677947998
1726995914835579600,1.74757958984375,-0.04158153012394905,0.2125527411699295,-1.2202571630477905
1726995914845566500,1.75756640625,0.009135441854596138,0.14656174182891846,-1.3049867153167725
1726995914855552800,1.767552734375,0.042385805398225784,0.09482744336128235,-1.336907148361206
1726995914865539600,1.77753955078125,0.05058647692203522,0.09032643586397171,-1.302090048789978
1726995914875526700,1.787526611328125,0.08366134017705917,0.12074319273233414,-1.19643235206604
1726995914885512700,1.7975126953125,0.14697080850601196,0.12367640435695648,-1.0437208414077759
1726995914895499800,1.807499755859375,0.21033114194869995,0.10852594673633575,-0.902362048625946
1726995914905485600,1.817485595703125,0.30302751064300537,0.07967698574066162,-0.798943281173706
1726995914915472400,1.827472412109375,0.3765566051006317,0.12617577612400055,-0.7501538991928101
1726995914925459700,1.837459716796875,0.3964906334877014,0.19123227894306183,-0.736635684967041
1726995914935445500,1.847445556640625,0.347402960062027,0.1780911684036255,-0.7035733461380005
1726995914945432600,1.8574326171875,0.24521374702453613,0.13022324442863464,-0.6659484505653381
1726995914955418600,1.867418701171875,0.1227155327796936,0.10321134328842163,-0.6242944598197937
1726995914965405700,1.87740576171875,0.03822248801589012,0.11914796382188797,-0.5926028490066528
1726995914975392500,1.887392578125,-0.007645935285836458,0.1645308881998062,-0.5877186059951782
1726995914985378600,1.897378662109375,-0.09202925860881805,0.21972410380840302,-0.5914657115936279
1726995914995365600,1.90736572265625,-0.18420526385307312,0.2525973618030548,-0.5398038625717163
1726995915005351400,1.917351318359375,-0.2446928322315216,0.2246493548154831,-0.47306743264198303
1726995915015338800,1.9273388671875,-0.24349628388881683,0.14390043914318085,-0.4207909107208252
1726995915025324500,1.937324462890625,-0.19687257707118988,0.05080459266901016,-0.38707661628723145
1726995915035311600,1.9473115234375,-0.1353762000799179,0.038056306540966034,-0.35007545351982117
1726995915045298700,1.957298583984375,-0.06483545154333115,0.09846771508455276,-0.31462904810905457
1726995915055284500,1.967284423828125,-0.0012215919559821486,0.12585380673408508,-0.2915743291378021
1726995915065271600,1.977271484375,0.036133237183094025,0.09255097061395645,-0.26237621903419495
1726995915075257600,1.987257568359375,0.042928025126457214,0.05530666559934616,-0.23515978455543518
1726995915085244700,1.99724462890625,0.06733323633670807,0.10194607079029083,-0.20587566494941711
1726995915095231500,2.0072314453125,0.10283530503511429,0.14509834349155426,-0.1619897037744522
1726995915105217800,2.0172177734375,0.14802755415439606,0.13828144967556,-0.08438172936439514
1726995915115204600,2.02720458984375,0.21400070190429688,0.10945006459951401,0.025671275332570076
1726995915125190400,2.0371904296875,0.29290324449539185,0.08576736599206924,0.16754212975502014
1726995915135177700,2.047177734375,0.341979444026947,0.059238821268081665,0.3164418637752533
1726995915145164500,2.05716455078125,0.3290817439556122,-0.001282312092371285,0.453458309173584
1726995915155150800,2.06715087890625,0.22145196795463562,-0.1052182987332344,0.5641658902168274
1726995915165138000,2.077137939453125,0.04808869957923889,-0.20068223774433136,0.6508470177650452
1726995915175124000,2.0871240234375,-0.12988902628421783,-0.24394582211971283,0.7249001860618591
1726995915185111000,2.097111083984375,-0.28427353501319885,-0.23619788885116577,0.7701702117919922
1726995915195097900,2.107097900390625,-0.39965391159057617,-0.18437117338180542,0.7856194376945496
1726995915205084200,2.117084228515625,-0.4587382972240448,-0.09091392904520035,0.7401691675186157
1726995915215071000,2.127071044921875,-0.5021328926086426,-0.007409713231027126,0.6236995458602905
1726995915225056800,2.137056884765625,-0.523836076259613,0.01673104241490364,0.4853701591491699
1726995915235044000,2.147044189453125,-0.523395836353302,0.02388615719974041,0.32875683903694153
1726995915245031000,2.157031005859375,-0.5405879020690918,0.01817740499973297,0.1926426887512207
1726995915255017000,2.167016845703125,-0.5748236179351807,0.012516857124865055,0.1054563820362091
1726995915265004000,2.177004150390625,-0.6260034441947937,0.04886181652545929,0.05132044479250908
1726995915274990000,2.186989990234375,-0.6857168078422546,0.17520536482334137,0.001797101111151278
1726995915284977000,2.196976806640625,-0.7288193106651306,0.28363943099975586,-0.043292611837387085
1726995915294963000,2.206962890625,-0.7334585189819336,0.4000400900840759,-0.0987342968583107
1726995915304950000,2.216949951171875,-0.6937995553016663,0.4883209466934204,-0.14574602246284485
1726995915314936800,2.226936767578125,-0.5959249138832092,0.531908392906189,-0.18707241117954254
1726995915324923100,2.236923095703125,-0.4679940938949585,0.5798966884613037,-0.20864136517047882
1726995915334910000,2.246909912109375,-0.30607709288597107,0.6065444946289062,-0.2199680507183075
1726995915344896000,2.25689599609375,-0.12842269241809845,0.5634939670562744,-0.21461749076843262
1726995915354883000,2.266883056640625,0.027898209169507027,0.42608365416526794,-0.19750748574733734
1726995915364870100,2.2768701171875,0.1511887162923813,0.2871191203594208,-0.2119426131248474
1726995915374856000,2.28685595703125,0.24139291048049927,0.17861181497573853,-0.23065291345119476
1726995915384842800,2.2968427734375,0.263936847448349,0.03963422775268555,-0.2330782562494278
1726995915394829000,2.3068291015625,0.22879216074943542,-0.1556023806333542,-0.20723387598991394
1726995915404816000,2.31681591796875,0.18267260491847992,-0.3302820324897766,-0.15074583888053894
1726995915414803000,2.326802978515625,0.14912769198417664,-0.46732938289642334,-0.0736670270562172
1726995915424789000,2.3367890625,0.12237251549959183,-0.4609668254852295,0.02834189310669899
1726995915434776000,2.346776123046875,0.08020695298910141,-0.3464982807636261,0.14064526557922363
1726995915444762000,2.35676220703125,0.05047063156962395,-0.20788662135601044,0.2239271104335785
1726995915454749000,2.3667490234375,0.04860828071832657,-0.11864835023880005,0.28627118468284607
1726995915464735000,2.37673486328125,0.000215716048842296,-0.08509945124387741,0.272384375333786
1726995915474721800,2.3867216796875,-0.08035369217395782,-0.13940556347370148,0.18680930137634277
1726995915484709000,2.396709228515625,-0.1618722528219223,-0.17805255949497223,0.07881332188844681
1726995915494695000,2.40669482421875,-0.2241811752319336,-0.14299790561199188,-0.08395694941282272
1726995915504682000,2.416681884765625,-0.2665853500366211,-0.07189762592315674,-0.2383025884628296
1726995915514668000,2.42666796875,-0.2771775424480438,0.008669388480484486,-0.3421647846698761
1726995915524654800,2.43665478515625,-0.2997201383113861,0.12328917533159256,-0.3949025869369507
1726995915534642000,2.446641845703125,-0.3294508755207062,0.22731225192546844,-0.38446298241615295
1726995915544628000,2.4566279296875,-0.33843106031417847,0.39684057235717773,-0.3503420352935791
1726995915554615000,2.466614990234375,-0.3152751326560974,0.5391393899917603,-0.2895311415195465
1726995915564600800,2.476600830078125,-0.2489914447069168,0.5881436467170715,-0.17168866097927094
1726995915574588200,2.486588134765625,-0.15063823759555817,0.43007388710975647,-0.0019710054621100426
1726995915584575000,2.496574951171875,-0.07320231199264526,0.06198374181985855,0.09122844785451889
1726995915594560800,2.506560791015625,0.007531952112913132,-0.3307912349700928,0.13090874254703522
1726995915604548000,2.516548095703125,0.05301448330283165,-0.6554124355316162,0.16974270343780518
1726995915614534000,2.526533935546875,0.03080984391272068,-0.9665820598602295,0.209358811378479
1726995915624521000,2.53652099609375,-0.030901456251740456,-1.25443434715271,0.268500417470932
1726995915634507000,2.546507080078125,-0.08442460000514984,-1.4915273189544678,0.3165193498134613
1726995915644494000,2.556494140625,-0.15165290236473083,-1.5963631868362427,0.36097443103790283
1726995915654481000,2.56648095703125,-0.18735657632350922,-1.5766297578811646,0.45190808176994324
1726995915664467200,2.57646728515625,-0.13699381053447723,-1.407219409942627,0.5608513355255127
1726995915674454000,2.5864541015625,-0.060992781072854996,-1.1074614524841309,0.6202613711357117
1726995915684439800,2.596439697265625,-0.08314548432826996,-0.7911028861999512,0.687250554561615
1726995915694427100,2.60642724609375,-0.1658475548028946,-0.6022818684577942,0.7372671365737915
1726995915704414000,2.6164140625,-0.27270182967185974,-0.5639376640319824,0.6927086710929871
1726995915714400000,2.62639990234375,-0.3250156342983246,-0.589825451374054,0.6387160420417786
1726995915724386800,2.63638671875,-0.31509801745414734,-0.5631565451622009,0.6252486705780029
1726995915734373000,2.646373046875,-0.18184037506580353,-0.4730953872203827,0.6694406867027283
1726995915744360000,2.65635986328125,0.008500543422996998,-0.3358669579029083,0.6797095537185669
1726995915754347000,2.666346923828125,0.13943779468536377,-0.2254166156053543,0.5686442852020264
1726995915764333000,2.6763330078125,0.17658808827400208,-0.17297284305095673,0.39927682280540466
1726995915774319900,2.68631982421875,0.17425967752933502,-0.07696002721786499,0.19853386282920837
1726995915784306200,2.69630615234375,0.13890329003334045,0.08660493046045303,-0.002245843643322587
1726995915794293000,2.70629296875,0.05877276882529259,0.37937048077583313,-0.17961344122886658
1726995915804280000,2.716280029296875,0.006269081030040979,0.7322936654090881,-0.3313089609146118
1726995915814265900,2.726265869140625,0.027123762294650078,0.92201167345047,-0.4871632754802704
1726995915824253200,2.736253173828125,0.12956944108009338,0.8371825218200684,-0.6887616515159607
1726995915834239000,2.746239013671875,0.2501504421234131,0.5996698141098022,-0.8708677887916565
1726995915844225800,2.756225830078125,0.36750876903533936,0.41828539967536926,-0.9753265380859375
1726995915854213000,2.766213134765625,0.4370899796485901,0.34216880798339844,-0.9546417593955994
1726995915864199000,2.776198974609375,0.4686391055583954,0.2291990965604782,-0.8279134035110474
1726995915874186000,2.78618603515625,0.43479806184768677,0.03470684587955475,-0.6846475601196289
1726995915884172000,2.796172119140625,0.32406195998191833,-0.17671644687652588,-0.5118649005889893
1726995915894159000,2.8061591796875,0.20549163222312927,-0.3468756675720215,-0.3172416090965271
1726995915904145000,2.816144775390625,0.09824161231517792,-0.40491339564323425,-0.16667605936527252
1726995915914132000,2.826132080078125,0.01938461698591709,-0.34410756826400757,-0.04919897019863129
1726995915924119000,2.836119140625,0.027166640385985374,-0.21737253665924072,0.08255213499069214
1726995915934104800,2.846104736328125,0.07497437298297882,-0.12255441397428513,0.20520775020122528
1726995915944092200,2.856092041015625,0.1075456365942955,-0.09497790783643723,0.28433531522750854
1726995915954078000,2.866077880859375,0.046372026205062866,-0.05552797392010689,0.3676842749118805
1726995915964065000,2.87606494140625,-0.06914072483778,-0.011174357496201992,0.44231271743774414
1726995915974051800,2.8860517578125,-0.1750357300043106,-0.02322383038699627,0.4588940739631653
1726995915984038000,2.896037841796875,-0.16891418397426605,-0.010172742418944836,0.4088849723339081
1726995915994025000,2.90602490234375,-0.14636972546577454,0.008186290971934795,0.3119238018989563
1726995916004011000,2.916010986328125,-0.15005208551883698,0.028128573670983315,0.23741520941257477
1726995916013998000,2.925998046875,-0.1691131293773651,0.021639781072735786,0.17642083764076233
1726995916023985000,2.93598486328125,-0.19535166025161743,-0.026103772222995758,0.12693265080451965
1726995916033971000,2.945970947265625,-0.23196585476398468,-0.04719867184758186,0.04221802577376366
1726995916043958000,2.9559580078125,-0.23845678567886353,-0.038063228130340576,-0.06912660598754883
1726995916053943800,2.96594384765625,-0.22052225470542908,-0.019589945673942566,-0.1600879430770874
1726995916063931000,2.975930908203125,-0.19651944935321808,0.02545768953859806,-0.23232431709766388
1726995916073918000,2.98591796875,-0.18078495562076569,0.11553511768579483,-0.2814553678035736
1726995916083904000,2.995904052734375,-0.15760640799999237,0.19818659126758575,-0.3082193434238434
1726995916093890800,3.005890869140625,-0.1259118616580963,0.2501440644264221,-0.31127026677131653
1726995916103877000,3.015877197265625,-0.0901075229048729,0.25042662024497986,-0.26822054386138916
1726995916113864000,3.025864013671875,-0.0395953468978405,0.24645930528640747,-0.20706236362457275
1726995916123850000,3.03585009765625,0.0062549663707613945,0.20092111825942993,-0.1255193054676056
1726995916133837000,3.045837158203125,0.048957422375679016,0.10518793761730194,-0.03747227415442467
1726995916143824000,3.055823974609375,0.08985479176044464,-0.006450708955526352,0.039574041962623596
1726995916153810000,3.065809814453125,0.11579131335020065,-0.13455434143543243,0.07378926873207092
1726995916163797000,3.075796875,0.11513111740350723,-0.2622337341308594,0.06985391676425934
1726995916173783000,3.085782958984375,0.10723431408405304,-0.3460998833179474,0.03418353572487831
1726995916183769900,3.095769775390625,0.12253603339195251,-0.37075915932655334,0.004944957327097654
1726995916193757200,3.105757080078125,0.1573009341955185,-0.3673417866230011,-0.032824791967868805
1726995916203743000,3.115742919921875,0.1621452271938324,-0.32342758774757385,-0.07222306728363037
1726995916213730000,3.12572998046875,0.1217634528875351,-0.27604222297668457,-0.11016139388084412
1726995916223716000,3.135716064453125,0.09318959712982178,-0.26643967628479004,-0.10363984107971191
1726995916233703000,3.145702880859375,0.1057639792561531,-0.2215409129858017,-0.06695985794067383
1726995916243690000,3.15568994140625,0.12715448439121246,-0.18195302784442902,-0.020361997187137604
1726995916253676000,3.165676025390625,0.13892433047294617,-0.20032377541065216,0.007752461824566126
1726995916263663000,3.1756630859375,0.13697250187397003,-0.162698894739151,-0.04788283631205559
1726995916273649000,3.18564892578125,0.12985652685165405,-0.09536513686180115,-0.10588222742080688
1726995916283636000,3.195635986328125,0.1144392266869545,-0.00845766719430685,-0.17509405314922333
1726995916293623000,3.205623046875,0.08289062231779099,0.10125018656253815,-0.22598306834697723
1726995916303608800,3.21560888671875,-0.0006119944155216217,0.15667083859443665,-0.26081162691116333
1726995916313596000,3.225595947265625,-0.07859387993812561,0.13943326473236084,-0.26356345415115356
1726995916323582000,3.23558203125,-0.12386734783649445,0.07974143326282501,-0.22406186163425446
1726995916333569000,3.245569091796875,-0.1580468863248825,-0.029565881937742233,-0.12554407119750977
1726995916343555000,3.25555517578125,-0.17824296653270721,-0.151637464761734,0.033787526190280914
1726995916353542100,3.265542236328125,-0.17376646399497986,-0.22186848521232605,0.185899555683136
1726995916363529000,3.275529052734375,-0.1490376889705658,-0.254791796207428,0.29918405413627625
1726995916373515000,3.285514892578125,-0.13212421536445618,-0.24292530119419098,0.36794766783714294
1726995916383502000,3.295502197265625,-0.147569477558136,-0.24761246144771576,0.39041969180107117
1726995916393488000,3.30548779296875,-0.2025299370288849,-0.2518032193183899,0.4225323498249054
1726995916403475000,3.315474853515625,-0.2717188596725464,-0.22127699851989746,0.48358476161956787
1726995916413462000,3.3254619140625,-0.3215559124946594,-0.18926499783992767,0.5551979541778564
1726995916423448000,3.335447998046875,-0.34452328085899353,-0.20921659469604492,0.613201916217804
1726995916433435000,3.345434814453125,-0.3414476215839386,-0.2523965537548065,0.6303777098655701
1726995916443421000,3.3554208984375,-0.3236755430698395,-0.2895641624927521,0.6074521541595459
1726995916453408000,3.365407958984375,-0.28978973627090454,-0.289975106716156,0.566209614276886
1726995916463394800,3.375394775390625,-0.24723295867443085,-0.26556137204170227,0.5117844343185425
1726995916473381000,3.385381103515625,-0.1979128122329712,-0.24515250325202942,0.45227959752082825
1726995916483368000,3.395367919921875,-0.1328113079071045,-0.24781300127506256,0.38918957114219666
1726995916493354000,3.40535400390625,-0.06704214960336685,-0.24950942397117615,0.3167861998081207
1726995916503341000,3.415341064453125,-0.008835569024085999,-0.2657887935638428,0.24308988451957703
1726995916513328000,3.425328125,0.034206707030534744,-0.310896098613739,0.16983243823051453
1726995916523314000,3.43531396484375,0.02081553265452385,-0.2986644506454468,0.11193452030420303
1726995916533301000,3.445301025390625,-0.05241793394088745,-0.19231805205345154,0.04434828832745552
1726995916543287000,3.455287109375,-0.1280066967010498,-0.04128139466047287,-0.004265052266418934
1726995916553273900,3.46527392578125,-0.15885010361671448,-0.018271414563059807,-0.06546049565076828
1726995916563261000,3.475260986328125,-0.14470897614955902,-0.01528974063694477,-0.12835077941417694
1726995916573247000,3.4852470703125,-0.08851974457502365,-0.020952420309185982,-0.17915058135986328
1726995916583234000,3.495234130859375,-0.029263611882925034,-0.014933675527572632,-0.22040560841560364
1726995916593220000,3.50522021484375,0.009831857867538929,-0.00968698225915432,-0.22183385491371155
1726995916603207000,3.51520703125,0.054600659757852554,-0.02371784672141075,-0.20284126698970795
1726995916613193000,3.52519287109375,0.09376590698957443,-0.051606468856334686,-0.16460013389587402
1726995916623180000,3.535179931640625,0.12427587807178497,-0.08569066971540451,-0.1120154857635498
1726995916633167000,3.5451669921875,0.13220544159412384,-0.11952852457761765,-0.058209508657455444
1726995916643153000,3.55515283203125,0.12539947032928467,-0.12292619049549103,0.008761799894273281
1726995916653140000,3.565139892578125,0.11195503175258636,-0.11288686841726303,0.07490140199661255
1726995916663126000,3.5751259765625,0.09283220022916794,-0.07873475551605225,0.12062708288431168
1726995916673112800,3.58511279296875,0.05549788102507591,-0.03869945928454399,0.15207821130752563
1726995916683100000,3.595099853515625,0.007298126816749573,-0.01744610257446766,0.17729142308235168
1726995916693086000,3.6050859375,-0.04831506684422493,0.019184879958629608,0.19828033447265625
1726995916703073000,3.615072998046875,-0.09945681691169739,0.05492982640862465,0.2155725061893463
1726995916713059000,3.62505908203125,-0.13423636555671692,0.06409429758787155,0.23227211833000183
1726995916723046100,3.635046142578125,-0.14148175716400146,0.05993150919675827,0.27877065539360046
1726995916733033000,3.645032958984375,-0.12808632850646973,0.057739995419979095,0.3378283679485321
1726995916743018800,3.655018798828125,-0.06834416836500168,0.07873182743787766,0.41994214057922363
1726995916753006000,3.665006103515625,0.03904913365840912,0.14715908467769623,0.4986151158809662
1726995916762991900,3.674991943359375,0.1648976057767868,0.2400868982076645,0.5240083932876587
1726995916772979000,3.68497900390625,0.28514331579208374,0.2710927426815033,0.5118193626403809
1726995916782965000,3.694965087890625,0.3840637803077698,0.22236809134483337,0.47830185294151306
1726995916792952000,3.7049521484375,0.4441082179546356,0.10916510224342346,0.4356185793876648
1726995916802939000,3.71493896484375,0.46736371517181396,-0.05449759587645531,0.4235893487930298
1726995916812925000,3.724925048828125,0.4740253686904907,-0.19346587359905243,0.43765324354171753
1726995916822912000,3.734912109375,0.5080906748771667,-0.24020913243293762,0.4929870665073395
1726995916832897800,3.744897705078125,0.5533798336982727,-0.19064851105213165,0.5648159980773926
1726995916842885000,3.754885009765625,0.5963736176490784,-0.1414194405078888,0.6672003865242004
1726995916852872000,3.764871826171875,0.6171324253082275,-0.07474454492330551,0.778265118598938
1726995916862858000,3.77485791015625,0.6228950023651123,-0.0280928872525692,0.876137912273407
1726995916872845000,3.784844970703125,0.6169891953468323,-0.007172158919274807,0.9613092541694641
1726995916882831000,3.7948310546875,0.595267117023468,0.02454795315861702,0.9638179540634155
1726995916892818000,3.80481787109375,0.5592824816703796,0.009887252002954483,0.9035530090332031
1726995916902805000,3.814804931640625,0.5269210934638977,-0.009244897402822971,0.8164881467819214
1726995916912791000,3.824791015625,0.4893025755882263,-0.04722530394792557,0.748746395111084
1726995916922777900,3.83477783203125,0.4436517357826233,-0.08065809309482574,0.7060234546661377
1726995916932764200,3.84476416015625,0.3825841248035431,-0.1083642914891243,0.7012398838996887
1726995916942751000,3.8547509765625,0.28779664635658264,-0.1280980408191681,0.7205626964569092
1726995916952738000,3.864738037109375,0.15400899946689606,-0.14174515008926392,0.7630845904350281
1726995916962724000,3.87472412109375,-0.0008351673022843897,-0.1808914840221405,0.8014090657234192
1726995916972711200,3.884711181640625,-0.1630919873714447,-0.23351821303367615,0.835944414138794
1726995916982697000,3.894697021484375,-0.31193551421165466,-0.23441916704177856,0.852968156337738
1726995916992683800,3.904683837890625,-0.4343876838684082,-0.17377924919128418,0.8367010354995728
1726995917002671000,3.914671142578125,-0.5233087539672852,-0.10240919888019562,0.8052935600280762
1726995917012657000,3.924656982421875,-0.581520676612854,-0.011039335280656815,0.7378000020980835
1726995917022644000,3.93464404296875,-0.5854842662811279,0.05584968253970146,0.632110059261322
1726995917032630000,3.944630126953125,-0.5353254675865173,0.15158605575561523,0.4812380075454712
1726995917042617000,3.9546171875,-0.4418671429157257,0.2544141709804535,0.28401920199394226
1726995917052603000,3.964602783203125,-0.3682105243206024,0.3331579864025116,0.07955314964056015
1726995917062590000,3.97458984375,-0.35557568073272705,0.30561530590057373,-0.09210915118455887
1726995917072577000,3.984576904296875,-0.3877173662185669,0.20777583122253418,-0.2127343714237213
1726995917082562800,3.994562744140625,-0.41396042704582214,0.11198192834854126,-0.29219165444374084
1726995917092550100,4.004550048828125,-0.39252543449401855,0.04719041660428047,-0.3270532190799713
1726995917102536000,4.014535888671875,-0.3356024920940399,-0.012485697865486145,-0.36693114042282104
1726995917112523000,4.02452294921875,-0.2572062313556671,-0.09977053850889206,-0.4184587597846985
1726995917122510000,4.034510009765625,-0.17256218194961548,-0.20970848202705383,-0.47047802805900574
1726995917132496000,4.044495849609375,-0.07835898548364639,-0.23439785838127136,-0.5109050869941711
1726995917142483000,4.05448291015625,-0.037400901317596436,-0.18143902719020844,-0.5228016972541809
1726995917152468700,4.06446875,-0.03915992006659508,-0.11414787918329239,-0.5222266912460327
1726995917162455600,4.07445556640625,-0.061830610036849976,-0.0421714223921299,-0.5024130344390869
1726995917172442600,4.084442626953125,-0.08448266237974167,0.050033606588840485,-0.5087715983390808
1726995917182428700,4.0944287109375,-0.08889498561620712,0.1348920315504074,-0.5378530621528625
1726995917192415700,4.104415771484375,-0.06339095532894135,0.2085239142179489,-0.5650538206100464
1726995917202401500,4.114401611328125,-0.01612916961312294,0.25383228063583374,-0.5696003437042236
1726995917212388600,4.124388671875,0.048162735998630524,0.2637200653553009,-0.5352386236190796
1726995917222375700,4.134375732421875,0.11225969344377518,0.23549027740955353,-0.478340744972229
1726995917232361500,4.144361572265625,0.15925809741020203,0.17373450100421906,-0.39442241191864014
1726995917242348500,4.1543486328125,0.1702795922756195,0.12904560565948486,-0.293640673160553
1726995917252334600,4.16433447265625,0.11905474960803986,0.06602242588996887,-0.19145171344280243
1726995917262321700,4.17432177734375,0.030429543927311897,0.005184908397495747,-0.09352941811084747
1726995917272307700,4.1843076171875,-0.06697317212820053,-0.022237926721572876,-0.030599454417824745
1726995917282294500,4.19429443359375,-0.1611659824848175,-0.01817953586578369,-0.001939846551977098
1726995917292281600,4.204281494140625,-0.24932727217674255,-0.013434316031634808,0.006869091186672449
1726995917302267600,4.214267578125,-0.31756916642189026,0.016220781952142715,-0.011680890806019306
1726995917312254700,4.224254638671875,-0.35783085227012634,0.03146631270647049,-0.04669320210814476
1726995917322240500,4.234240478515625,-0.35343343019485474,0.024277908727526665,-0.07698666304349899
1726995917332227600,4.2442275390625,-0.3285616338253021,0.005591573193669319,-0.12113548070192337
1726995917342214700,4.254214599609375,-0.3128950595855713,-0.021077588200569153,-0.15195490419864655
1726995917352200400,4.264200439453125,-0.32387953996658325,-0.034881819039583206,-0.1423978954553604
1726995917362187500,4.2741875,-0.33448052406311035,-0.05031350255012512,-0.127691388130188
1726995917372173600,4.284173583984375,-0.32110053300857544,-0.04806899279356003,-0.09401491284370422
1726995917382160600,4.29416064453125,-0.28805816173553467,-0.02383209578692913,-0.0500786118209362
1726995917392147500,4.3041474609375,-0.2593846917152405,-0.004957207944244146,-0.019901003688573837
1726995917402133800,4.3141337890625,-0.23925893008708954,0.013084109872579575,0.0071127708069980145
1726995917412120600,4.32412060546875,-0.2499334067106247,0.04998460412025452,0.033299632370471954
1726995917422106600,4.334106689453125,-0.26893559098243713,0.08966197818517685,0.07106006145477295
1726995917432093700,4.34409375,-0.28303462266921997,0.10988175868988037,0.07967618852853775
1726995917442080500,4.35408056640625,-0.30264216661453247,0.08047353476285934,0.054667770862579346
1726995917452066600,4.364066650390625,-0.3156229257583618,0.00917618814855814,0.002614957746118307
1726995917462053600,4.3740537109375,-0.2957914471626282,-0.06577528268098831,-0.07223877310752869
1726995917472039700,4.384039794921875,-0.25108015537261963,-0.10098227113485336,-0.18202945590019226
1726995917482026500,4.394026611328125,-0.18395332992076874,-0.10098866373300552,-0.30377987027168274
1726995917492012500,4.404012451171875,-0.09763068705797195,-0.045164547860622406,-0.4293960928916931
1726995917501999600,4.41399951171875,-0.016953149810433388,0.030001575127243996,-0.5544389486312866
1726995917511986400,4.423986328125,0.06587808579206467,0.09126865863800049,-0.6732300519943237
1726995917521972700,4.43397265625,0.1458517462015152,0.14991892874240875,-0.7741287350654602
1726995917531959600,4.44395947265625,0.19830243289470673,0.26169711351394653,-0.8281973004341125
1726995917541945600,4.453945556640625,0.2138044238090515,0.3965902328491211,-0.8350509405136108
1726995917551932700,4.4639326171875,0.19985052943229675,0.4826281666755676,-0.7929348945617676
1726995917561919700,4.473919677734375,0.17438271641731262,0.48255759477615356,-0.739471435546875
1726995917571905500,4.483905517578125,0.154328852891922,0.4745425581932068,-0.6897667050361633
1726995917581892600,4.493892578125,0.1380646675825119,0.44015607237815857,-0.6569541692733765
1726995917591878700,4.503878662109375,0.11265251040458679,0.3699447512626648,-0.623216450214386
1726995917601865500,4.513865478515625,0.09548711031675339,0.27447524666786194,-0.6085413694381714
1726995917611852500,4.5238525390625,0.08754396438598633,0.2691939175128937,-0.6086660027503967
1726995917621838600,4.533838623046875,0.10875657200813293,0.3200669586658478,-0.6240678429603577
1726995917631825700,4.54382568359375,0.14837029576301575,0.3725501298904419,-0.6641135215759277
1726995917641811700,4.553811767578125,0.199718177318573,0.41644302010536194,-0.7049246430397034
1726995917651798500,4.563798583984375,0.2566989064216614,0.450054794549942,-0.7021285891532898
1726995917661785600,4.57378564453125,0.3096766173839569,0.42497074604034424,-0.6659303307533264
1726995917671771600,4.583771728515625,0.35782232880592346,0.3446314036846161,-0.6301100254058838
1726995917681758700,4.5937587890625,0.4053104817867279,0.26399701833724976,-0.6019375324249268
1726995917691744500,4.60374462890625,0.4572128355503082,0.17551589012145996,-0.5755706429481506
1726995917701731600,4.613731689453125,0.5007690787315369,0.05417029559612274,-0.5451616048812866
1726995917711718700,4.62371875,0.5010945200920105,-0.07618398219347,-0.5057627558708191
1726995917721704700,4.63370458984375,0.4892573058605194,-0.16384485363960266,-0.49418044090270996
1726995917731691500,4.64369140625,0.46364596486091614,-0.23330755531787872,-0.4737960696220398
1726995917741677600,4.653677490234375,0.4198087155818939,-0.3365556597709656,-0.4040502607822418
1726995917751664600,4.66366455078125,0.36473348736763,-0.3742692172527313,-0.36801931262016296
1726995917761651500,4.6736513671875,0.3056621849536896,-0.3234659433364868,-0.3123863935470581
1726995917771637800,4.6836376953125,0.26404842734336853,-0.23361808061599731,-0.2887071669101715
1726995917781624600,4.69362451171875,0.22108657658100128,-0.11257368326187134,-0.25911012291908264
1726995917791610600,4.703610595703125,0.20756970345973969,0.006073072552680969,-0.24751392006874084
1726995917801597700,4.71359765625,0.22640490531921387,0.06690339744091034,-0.2590685784816742
1726995917811584800,4.723584716796875,0.26026272773742676,-0.0011624698527157307,-0.26014289259910583
1726995917821570600,4.733570556640625,0.27971020340919495,-0.10228056460618973,-0.2519214451313019
1726995917831557600,4.7435576171875,0.25958895683288574,-0.17296777665615082,-0.23403353989124298
1726995917841543700,4.753543701171875,0.22953759133815765,-0.25344690680503845,-0.22142267227172852
1726995917851530500,4.763530517578125,0.1979154795408249,-0.33226636052131653,-0.22004102170467377
1726995917861517600,4.773517578125,0.16546165943145752,-0.414908230304718,-0.22487252950668335
1726995917871503600,4.783503662109375,0.139308363199234,-0.49227041006088257,-0.26606684923171997
1726995917881490700,4.79349072265625,0.135949045419693,-0.485625296831131,-0.32700955867767334
1726995917891476700,4.803476806640625,0.1522904634475708,-0.41985106468200684,-0.4009527564048767
1726995917901463600,4.813463623046875,0.17808105051517487,-0.33339792490005493,-0.4726061522960663
1726995917911450600,4.82345068359375,0.2116997390985489,-0.23816968500614166,-0.520483136177063
1726995917921436700,4.833436767578125,0.26682528853416443,-0.12651905417442322,-0.5626031756401062
1726995917931423700,4.843423828125,0.33697429299354553,-0.028149079531431198,-0.5976178646087646
1726995917941409500,4.853409423828125,0.39941930770874023,0.06908959150314331,-0.6283164024353027
1726995917951396600,4.863396728515625,0.42737504839897156,0.12837448716163635,-0.6500014662742615
1726995917961383700,4.8733837890625,0.42383089661598206,0.1874479204416275,-0.6641465425491333
1726995917971369500,4.883369384765625,0.39954712986946106,0.21104779839515686,-0.6570960879325867
1726995917981356500,4.8933564453125,0.3428524136543274,0.18260256946086884,-0.6143742203712463
1726995917991342600,4.903342529296875,0.2967078387737274,0.17721952497959137,-0.552453875541687
1726995918001329700,4.91332958984375,0.26086968183517456,0.19036781787872314,-0.48318928480148315
1726995918011316500,4.92331640625,0.23429638147354126,0.1846420168876648,-0.3794253468513489
1726995918021302800,4.933302734375,0.17352572083473206,0.279634028673172,-0.2800891697406769
1726995918031289600,4.94328955078125,0.1566583216190338,0.4398024082183838,-0.17215418815612793
1726995918041275400,4.953275390625,0.16110526025295258,0.49658021330833435,-0.06753643602132797
1726995918051262700,4.9632626953125,0.19823665916919708,0.4474073350429535,0.04318422079086304
1726995918061249500,4.97324951171875,0.25145408511161804,0.39200398325920105,0.11223572492599487
1726995918071235600,4.983235595703125,0.2908523380756378,0.3470138907432556,0.14803101122379303
1726995918081222700,4.99322265625,0.31261834502220154,0.348554790019989,0.14940093457698822
1726995918091208700,5.003208740234375,0.3411937952041626,0.4491666257381439,0.14534761011600494
1726995918101195500,5.013195556640625,0.40805912017822266,0.6149225831031799,0.13143499195575714
1726995918111182600,5.0231826171875,0.47685524821281433,0.7275593876838684,0.11842278391122818
1726995918121168600,5.033168701171875,0.5211779475212097,0.7564080357551575,0.09168864041566849
1726995918131155500,5.043155517578125,0.5859476327896118,0.7619026899337769,0.04390940070152283
1726995918141141800,5.053141845703125,0.6497995853424072,0.8177505135536194,-0.02130741998553276
1726995918151128600,5.063128662109375,0.6934322714805603,0.8711471557617188,-0.0622660368680954
1726995918161116200,5.0731162109375,0.7136451601982117,0.8676493763923645,-0.07205182313919067
1726995918171102200,5.083102294921875,0.6768636703491211,0.7303426265716553,-0.08276385813951492
1726995918181089300,5.09308935546875,0.6609504818916321,0.5906481146812439,-0.05873202160000801
1726995918191075300,5.103075439453125,0.6669511198997498,0.42854151129722595,-0.043544281274080276
1726995918201062100,5.113062255859375,0.6914226412773132,0.20061592757701874,-0.026685673743486404
1726995918211049200,5.12304931640625,0.7668737173080444,0.005024852231144905,-0.027226295322179794
1726995918221035300,5.13303515625,0.8213021159172058,-0.09352116286754608,-0.05173882842063904
1726995918231022000,5.14302197265625,0.8640929460525513,-0.061401575803756714,-0.09495261311531067
1726995918241008400,5.15300830078125,0.8718217015266418,-0.039323970675468445,-0.14271746575832367
1726995918250995200,5.1629951171875,0.8129850625991821,-0.04309394210577011,-0.1413869559764862
1726995918260982300,5.172982177734375,0.701145589351654,-0.18649104237556458,-0.0231159720569849
1726995918270968300,5.18296826171875,0.572106122970581,-0.46578606963157654,0.13890808820724487
1726995918280955400,5.192955322265625,0.45290330052375793,-0.7564794421195984,0.2796843647956848
1726995918290941200,5.202941162109375,0.33776846528053284,-0.9361628890037537,0.3547160029411316
1726995918300928000,5.212927978515625,0.23004625737667084,-0.9617961049079895,0.38308292627334595
1726995918310915300,5.222915283203125,0.141159787774086,-0.8899786472320557,0.382214218378067
1726995918320901000,5.232901123046875,0.06387991458177567,-0.7648348212242126,0.37337809801101685
1726995918330888200,5.24288818359375,0.006942062173038721,-0.6461055278778076,0.38742390275001526
1726995918340874200,5.252874267578125,-0.00621129060164094,-0.5736259818077087,0.39632949233055115
1726995918350861300,5.262861328125,0.018582472577691078,-0.48838964104652405,0.3783196210861206
1726995918360848100,5.27284814453125,0.055862732231616974,-0.3652799725532532,0.3237844705581665
1726995918370834200,5.282834228515625,0.07917817682027817,-0.2055440992116928,0.26185211539268494
1726995918380821200,5.2928212890625,0.07097724080085754,-0.0487385094165802,0.21659009158611298
1726995918390807000,5.30280712890625,0.024746624752879143,0.008646485395729542,0.1843559890985489
1726995918400794400,5.31279443359375,-0.06329881399869919,-0.02046932280063629,0.15693847835063934
1726995918410781200,5.32278125,-0.18969643115997314,-0.0297286007553339,0.1333111822605133
1726995918420767200,5.332767333984375,-0.3301198482513428,0.013488378375768661,0.10051089525222778
1726995918430754300,5.34275439453125,-0.4921468496322632,0.0907733142375946,0.08492954075336456
1726995918440740400,5.352740234375,-0.6642978191375732,0.20294086635112762,0.09342875331640244
1726995918450727200,5.36272705078125,-0.8144684433937073,0.3168213665485382,0.10828971862792969
1726995918460714200,5.37271435546875,-0.9469960927963257,0.45431822538375854,0.12222364544868469
1726995918470700300,5.3827001953125,-1.0284409523010254,0.594743013381958,0.11726750433444977
1726995918480687000,5.39268701171875,-1.042472004890442,0.6985676288604736,0.048891909420490265
1726995918490673400,5.40267333984375,-0.9958563446998596,0.693078339099884,-0.08125224709510803
1726995918500660200,5.41266015625,-0.9200111031532288,0.5188868641853333,-0.2571122348308563
1726995918510647300,5.422647216796875,-0.7867425084114075,0.22771118581295013,-0.47242507338523865
1726995918520633300,5.43263330078125,-0.6085328459739685,-0.20787011086940765,-0.6558138132095337
1726995918530620400,5.442620361328125,-0.4450792074203491,-0.6349596381187439,-0.7418501377105713
1726995918540606200,5.452606201171875,-0.3771270513534546,-0.8006671071052551,-0.7820609211921692
1726995918550593000,5.462593017578125,-0.40529635548591614,-0.6621260046958923,-0.8256691694259644
1726995918560580400,5.472580322265625,-0.46365395188331604,-0.4844966530799866,-0.8261216282844543
1726995918570566100,5.482566162109375,-0.4976966083049774,-0.3087240159511566,-0.8114169836044312
1726995918580553200,5.49255322265625,-0.4738442599773407,-0.15032638609409332,-0.8280542492866516
1726995918590539300,5.502539306640625,-0.4036305546760559,-0.09634464234113693,-0.8323385119438171
1726995918600526300,5.5125263671875,-0.31041592359542847,-0.06091368570923805,-0.8066022396087646
1726995918610513200,5.52251318359375,-0.20555821061134338,-0.030883613973855972,-0.7468435764312744
1726995918620499200,5.532499267578125,-0.11246395856142044,0.0002463423879817128,-0.6777782440185547
1726995918630486300,5.542486328125,-0.04424762353301048,0.0327472947537899,-0.6105155348777771
1726995918640472000,5.55247216796875,-0.004476507660001516,0.06769595295190811,-0.5658887028694153
1726995918650459400,5.56245947265625,0.019829630851745605,0.09676382690668106,-0.5373545289039612
1726995918660446200,5.5724462890625,0.012013519182801247,0.10088666528463364,-0.5483174324035645
1726995918670432300,5.582432373046875,-0.024118386209011078,0.07543270289897919,-0.5883700251579285
1726995918680419300,5.59241943359375,-0.048170190304517746,0.02221129648387432,-0.644511878490448
1726995918690405000,5.602405029296875,-0.044201549142599106,-0.022226208820939064,-0.7042948007583618
1726995918700392200,5.61239208984375,-0.04536428675055504,-0.014113422483205795,-0.741715133190155
1726995918710379000,5.62237890625,-0.05300595983862877,0.022494124248623848,-0.7295905351638794
1726995918720365300,5.632365234375,-0.03784910961985588,0.024040354415774345,-0.6903536915779114
1726995918730352000,5.64235205078125,-0.020252540707588196,-0.00446798512712121,-0.6118631362915039
1726995918740338400,5.65233837890625,-0.020615262910723686,-0.052507415413856506,-0.48520132899284363
1726995918750325200,5.6623251953125,-0.07148750126361847,-0.08869657665491104,-0.3234750032424927
1726995918760312300,5.672312255859375,-0.13990198075771332,-0.1448642462491989,-0.15247581899166107
1726995918770298400,5.68229833984375,-0.19096383452415466,-0.23170992732048035,-0.008133294060826302
1726995918780285200,5.69228515625,-0.21919147670269012,-0.2825150489807129,0.11573884636163712
1726995918790271200,5.702271240234375,-0.22299233078956604,-0.26127076148986816,0.2406352460384369
1726995918800258000,5.712258056640625,-0.2094845175743103,-0.1283414661884308,0.356547474861145
1726995918810245400,5.722245361328125,-0.19114439189434052,-0.02262009121477604,0.4309106469154358
1726995918820231200,5.732231201171875,-0.16980262100696564,0.04583779722452164,0.44478464126586914
1726995918830218200,5.74221826171875,-0.1730748414993286,0.09203165769577026,0.40802982449531555
1726995918840204300,5.752204345703125,-0.1783207356929779,0.10057827085256577,0.3591768145561218
1726995918850191000,5.762191162109375,-0.19009989500045776,0.07646068930625916,0.32929348945617676
1726995918860178200,5.77217822265625,-0.2052927017211914,0.06712790578603745,0.2745644450187683
1726995918870164200,5.782164306640625,-0.23412834107875824,0.06797318905591965,0.23076103627681732
1726995918880151300,5.7921513671875,-0.24175909161567688,0.07211706787347794,0.15939418971538544
1726995918890137000,5.80213720703125,-0.191257044672966,0.08095530420541763,0.07561539858579636
1726995918900124400,5.81212451171875,-0.10142435878515244,0.1436157524585724,0.00589517317712307
1726995918910111200,5.822111328125,-0.008408931083977222,0.18903037905693054,-0.01961604505777359
1726995918920097000,5.832096923828125,0.06025215610861778,0.15964984893798828,-0.011946940794587135
1726995918930084400,5.84208447265625,0.08725900202989578,0.08697191625833511,0.011707255616784096
1726995918940070100,5.852070068359375,0.1102849617600441,0.0028277444653213024,0.02810034342110157
1726995918950057200,5.86205712890625,0.13099023699760437,-0.08665553480386734,0.02101021073758602
1726995918960044000,5.8720439453125,0.15901042520999908,-0.12177224457263947,0.02997121401131153
1726995918970030300,5.8820302734375,0.19780336320400238,-0.1226087361574173,0.05962924286723137
1726995918980017200,5.89201708984375,0.2227044403553009,-0.12607857584953308,0.09101726114749908
1726995918990003500,5.90200341796875,0.2399422973394394,-0.17792418599128723,0.1333085149526596
1726995918999990300,5.911990234375,0.24786385893821716,-0.2320111244916916,0.17134378850460052
1726995919009977300,5.921977294921875,0.25424933433532715,-0.2583774924278259,0.19913627207279205
1726995919019963400,5.93196337890625,0.24014602601528168,-0.3061884343624115,0.2245151251554489
1726995919029950200,5.9419501953125,0.2219529002904892,-0.3665372431278229,0.23300261795520782
1726995919039936300,5.951936279296875,0.21241585910320282,-0.418456107378006,0.2170066088438034
1726995919049923000,5.961923095703125,0.19803239405155182,-0.43468859791755676,0.18142704665660858
1726995919059909400,5.971909423828125,0.19026421010494232,-0.4054684042930603,0.12305322289466858
1726995919069896200,5.981896240234375,0.18350005149841309,-0.34173309803009033,0.05456710606813431
1726995919079883300,5.99188330078125,0.17351798713207245,-0.2380029708147049,-0.010431601665914059
1726995919089869300,6.001869384765625,0.16117557883262634,-0.13112206757068634,-0.06459683924913406
1726995919099856100,6.011856201171875,0.14681580662727356,-0.0557711198925972,-0.1026209145784378
1726995919109842200,6.02184228515625,0.11640756577253342,0.0013547500129789114,-0.10685001313686371
1726995919119829200,6.031829345703125,0.07180574536323547,-0.0016783240716904402,-0.08428159356117249
1726995919129816300,6.04181640625,0.025676334276795387,0.01943894475698471,-0.015410914085805416
1726995919139802000,6.051802001953125,0.0004191815387457609,0.05325257033109665,0.055874984711408615
1726995919149789400,6.06178955078125,0.019652530550956726,0.11350099742412567,0.1336962729692459
1726995919159775500,6.071775390625,0.04577121511101723,0.17164446413516998,0.2097678780555725
1726995919169762300,6.08176220703125,0.060379721224308014,0.21031275391578674,0.2993007004261017
1726995919179749400,6.091749267578125,0.08481688797473907,0.2228250950574875,0.3450210392475128
1726995919189735400,6.1017353515625,0.1090516522526741,0.236050084233284,0.37474989891052246
1726995919199722500,6.111722412109375,0.12779152393341064,0.2405976951122284,0.39217790961265564
1726995919209708500,6.12170849609375,0.14426849782466888,0.23614035546779633,0.40151867270469666
1726995919219695600,6.131695556640625,0.20053815841674805,0.3044009208679199,0.4035453200340271
1726995919229682400,6.141682373046875,0.2795245945453644,0.5278187990188599,0.3885685205459595
1726995919239668500,6.15166845703125,0.36691728234291077,0.7185754776000977,0.3724241554737091
1726995919249655600,6.161655517578125,0.4519869089126587,0.8360312581062317,0.33575722575187683
1726995919259641300,6.171641357421875,0.5169536471366882,0.8067127466201782,0.2984793782234192
1726995919269628400,6.18162841796875,0.5733194351196289,0.7204090356826782,0.27502569556236267
1726995919279615500,6.191615478515625,0.6513767242431641,0.6278231739997864,0.2517898976802826
1726995919289601500,6.2016015625,0.7368292808532715,0.5985403656959534,0.21781808137893677
1726995919299588400,6.21158837890625,0.7950521111488342,0.6357077360153198,0.16964229941368103
1726995919309574400,6.221574462890625,0.8672946095466614,0.7088181376457214,0.10954780131578445
1726995919319561500,6.2315615234375,0.9111350178718567,0.6303806304931641,0.012702745385468006
1726995919329548500,6.241548583984375,0.9455068707466125,0.49095454812049866,-0.03904566913843155
1726995919339534600,6.25153466796875,0.9468451142311096,0.3130679130554199,-0.04845461621880531
1726995919349521400,6.261521484375,0.9022315740585327,0.040109600871801376,-0.025001490488648415
1726995919359507500,6.271507568359375,0.8093780875205994,-0.2505539357662201,0.0781422033905983
1726995919369494500,6.28149462890625,0.6721096634864807,-0.5547774434089661,0.25069159269332886
1726995919379481600,6.291481689453125,0.5056130886077881,-0.8024969696998596,0.4329996407032013
1726995919389467400,6.30146728515625,0.30948513746261597,-0.9802403450012207,0.5324175357818604
1726995919399454700,6.311454833984375,0.10675680637359619,-1.0503933429718018,0.5931456089019775
1726995919409440500,6.3214404296875,-0.10015083849430084,-0.9938064813613892,0.6501705646514893
1726995919419427300,6.33142724609375,-0.2686445116996765,-0.8687186241149902,0.7126799821853638
1726995919429414400,6.341414306640625,-0.35375380516052246,-0.6978885531425476,0.7488755583763123
1726995919439400400,6.351400390625,-0.37737685441970825,-0.4976443946361542,0.7382351756095886
1726995919449387500,6.361387451171875,-0.3848390281200409,-0.3115488290786743,0.7083750367164612
1726995919459373600,6.37137353515625,-0.4147423207759857,-0.17749355733394623,0.6884476542472839
1726995919469360600,6.381360595703125,-0.49070847034454346,-0.06735214591026306,0.7017879486083984
1726995919479347500,6.391347412109375,-0.6070190668106079,0.007678425870835781,0.7191126346588135
1726995919489333500,6.40133349609375,-0.7622331976890564,0.08320380747318268,0.722001850605011
1726995919499320600,6.411320556640625,-0.9207903146743774,0.16302646696567535,0.6894623041152954
1726995919509306400,6.421306396484375,-1.0950864553451538,0.2383047193288803,0.5826836824417114
1726995919519293400,6.43129345703125,-1.2211203575134277,0.29927486181259155,0.4121206998825073
1726995919529280500,6.441280517578125,-1.2677727937698364,0.3152487576007843,0.2136632800102234
1726995919539266600,6.4512666015625,-1.2077752351760864,0.23223216831684113,-0.03147163987159729
1726995919549253400,6.46125341796875,-1.044407606124878,0.024172447621822357,-0.31259357929229736
1726995919559239400,6.471239501953125,-0.8256816864013672,-0.2618771493434906,-0.5669499635696411
1726995919569226500,6.4812265625,-0.6441129446029663,-0.5132566690444946,-0.7792944312095642
1726995919579213300,6.49121337890625,-0.4510774314403534,-0.6724084615707397,-0.905952513217926
1726995919589199600,6.50119970703125,-0.29334187507629395,-0.5544331073760986,-1.0263208150863647
1726995919599186400,6.5111865234375,-0.2312079221010208,-0.34589534997940063,-1.1202757358551025
1726995919609172500,6.52117236328125,-0.20023322105407715,-0.1965775042772293,-1.1173391342163086
1726995919619159600,6.53115966796875,-0.1704297959804535,-0.10258043557405472,-1.0840256214141846
1726995919629146600,6.541146728515625,-0.13561882078647614,-0.053219545632600784,-1.0497450828552246
1726995919639132400,6.55113232421875,-0.0892648994922638,-0.04181722179055214,-0.9913033843040466
1726995919649119500,6.561119384765625,-0.03533828258514404,-0.02809608355164528,-0.9082708358764648
1726995919659105500,6.57110546875,0.030306506901979446,-0.00410473020747304,-0.8396525979042053
1726995919669092400,6.58109228515625,0.07607506215572357,0.010567422956228256,-0.7630744576454163
1726995919679079400,6.591079345703125,0.08532261848449707,0.020895162597298622,-0.6957250237464905
1726995919689065500,6.6010654296875,0.0764729380607605,0.03597504645586014,-0.6481417417526245
1726995919699052500,6.611052490234375,0.053646184504032135,0.05571279674768448,-0.6267461776733398
1726995919709038600,6.62103857421875,0.015984559431672096,0.05750963091850281,-0.6011446714401245
1726995919719025400,6.631025390625,-0.019891416653990746,0.0603078156709671,-0.5735868215560913
1726995919729012500,6.641012451171875,-0.041014280170202255,0.06640805304050446,-0.565678060054779
1726995919738998500,6.65099853515625,-0.08219926804304123,0.05421316996216774,-0.5549604296684265
1726995919748985600,6.660985595703125,-0.12089872360229492,0.02690485119819641,-0.5176692605018616
1726995919758971400,6.670971435546875,-0.14621873199939728,0.06828904151916504,-0.4598544239997864
1726995919768958500,6.68095849609375,-0.1565035879611969,0.10144247114658356,-0.3904300630092621
1726995919778945500,6.690945556640625,-0.15638108551502228,0.0511566624045372,-0.31935614347457886
1726995919788931300,6.700931396484375,-0.1744740754365921,-0.013923538848757744,-0.24194684624671936
1726995919798918400,6.71091845703125,-0.20007051527500153,-0.06369136273860931,-0.16111698746681213
1726995919808904400,6.720904541015625,-0.20588605105876923,-0.12066490203142166,-0.08644061535596848
1726995919818891500,6.7308916015625,-0.2071012556552887,-0.15360580384731293,-0.01840111054480076
1726995919828877600,6.740877685546875,-0.20280051231384277,-0.16652213037014008,0.039983369410037994
1726995919838864600,6.75086474609375,-0.21817174553871155,-0.16297267377376556,0.08444643765687943
1726995919848851500,6.7608515625,-0.21762952208518982,-0.08476868271827698,0.11325571686029434
1726995919858837200,6.770837158203125,-0.2188817411661148,0.03913035988807678,0.1527181714773178
1726995919868824600,6.780824462890625,-0.1896442323923111,0.10059744864702225,0.15296317636966705
1726995919878810400,6.790810302734375,-0.1586730033159256,0.07608704268932343,0.10553867369890213
1726995919888797400,6.80079736328125,-0.13260331749916077,0.03495585173368454,0.050027213990688324
1726995919898784500,6.810784423828125,-0.05493728443980217,0.058111771941185,-0.0012990899849683046
1726995919908770600,6.8207705078125,0.052561745047569275,0.11572446674108505,-0.02786705084145069
1726995919918757400,6.83075732421875,0.14065511524677277,0.15256556868553162,-0.02592933550477028
1726995919928743400,6.840743408203125,0.2129269242286682,0.15560796856880188,-0.024894963949918747
1726995919938730500,6.85073046875,0.24166908860206604,0.16028474271297455,-0.016638364642858505
1726995919948717600,6.860717529296875,0.24818849563598633,0.15624871850013733,-0.011352789588272572
1726995919958703600,6.87070361328125,0.22347623109817505,0.12119646370410919,-0.006539658177644014
1726995919968690400,6.8806904296875,0.1824536919593811,0.05571253225207329,0.019220300018787384
1726995919978676500,6.890676513671875,0.1561744213104248,-0.022644326090812683,0.06547088176012039
1726995919988663600,6.90066357421875,0.14516331255435944,-0.13758182525634766,0.11030733585357666
1726995919998650600,6.910650634765625,0.13019607961177826,-0.25802409648895264,0.14628876745700836
1726995920008636400,6.920636474609375,0.10823352634906769,-0.35156121850013733,0.17823071777820587
1726995920018623500,6.93062353515625,0.10176870226860046,-0.43635016679763794,0.22157952189445496
1726995920028609500,6.940609619140625,0.12002653628587723,-0.5023784637451172,0.26892921328544617
1726995920038596400,6.950596435546875,0.15530303120613098,-0.5624492168426514,0.31250596046447754
1726995920048583400,6.96058349609375,0.18247100710868835,-0.5976762175559998,0.34609803557395935
1726995920058569500,6.970569580078125,0.19014863669872284,-0.6107653379440308,0.3604854941368103
1726995920068556500,6.980556640625,0.18324385583400726,-0.5988320112228394,0.3539673984050751
1726995920078542600,6.99054248046875,0.17827466130256653,-0.544768750667572,0.3271823823451996
1726995920088529700,7.00052978515625,0.1814797818660736,-0.4276570677757263,0.2843949794769287
1726995920098516500,7.0105166015625,0.18794779479503632,-0.33054009079933167,0.2281511425971985
1726995920108502300,7.020502197265625,0.18898457288742065,-0.23270301520824432,0.15830069780349731
1726995920118489600,7.030489501953125,0.18074075877666473,-0.1273222714662552,0.08928193897008896
1726995920128475400,7.040475341796875,0.16696955263614655,-0.03152810037136078,0.02407258003950119
1726995920138462500,7.05046240234375,0.16688352823257446,0.040526919066905975,-0.050335872918367386
1726995920148449500,7.060449462890625,0.18514375388622284,0.10233542323112488,-0.12093600630760193
1726995920158434800,7.070434814453125,0.22296516597270966,0.16338945925235748,-0.1776496171951294
1726995920168421600,7.080421630859375,0.2738341987133026,0.20936520397663116,-0.22340166568756104
1726995920178407700,7.09040771484375,0.3279445767402649,0.29019641876220703,-0.26454031467437744
1726995920188394800,7.100394775390625,0.3895019590854645,0.39527541399002075,-0.31359201669692993
1726995920198381600,7.110381591796875,0.43961411714553833,0.5092174410820007,-0.35494184494018555
1726995920208367900,7.120367919921875,0.47184741497039795,0.641596257686615,-0.3988645672798157
1726995920218354700,7.130354736328125,0.4826633334159851,0.7285857200622559,-0.4426722228527069
1726995920228341000,7.140341064453125,0.5089380741119385,0.7895092964172363,-0.47158750891685486
1726995920238327800,7.150327880859375,0.548870325088501,0.9405613541603088,-0.502855658531189
1726995920248315000,7.16031494140625,0.5975382328033447,1.2172150611877441,-0.49992460012435913
1726995920258300700,7.17030078125,0.6608487963676453,1.3397396802902222,-0.44936421513557434
1726995920268287700,7.180287841796875,0.7307596802711487,1.2853283882141113,-0.4119308292865753
1726995920278273800,7.190273681640625,0.8195334672927856,1.1434944868087769,-0.3875083029270172
1726995920288260600,7.200260498046875,0.9784520268440247,1.0613075494766235,-0.3441768288612366
1726995920298247000,7.210246826171875,1.1002227067947388,0.9880926609039307,-0.32226699590682983
1726995920308233700,7.220233642578125,1.064034104347229,0.8080291748046875,-0.3156466484069824
1726995920318220800,7.230220703125,1.0248863697052002,0.7430067658424377,-0.3289640545845032
1726995920328206800,7.240206787109375,0.9311979413032532,0.6987807154655457,-0.329354465007782
1726995920338193700,7.250193603515625,0.787373423576355,0.522121250629425,-0.2445192039012909
1726995920348179700,7.2601796875,0.609471321105957,0.31910422444343567,-0.10785695910453796
1726995920358166800,7.270166748046875,0.3919539153575897,0.11153851449489594,0.06752258539199829
1726995920368153900,7.28015380859375,0.16698312759399414,-0.16879087686538696,0.2747862935066223
1726995920378139600,7.2901396484375,-0.035843219608068466,-0.5238645672798157,0.5305959582328796
1726995920388127000,7.300126953125,-0.17502135038375854,-0.9038193225860596,0.758605420589447
1726995920398112800,7.31011279296875,-0.19359369575977325,-1.1033800840377808,0.890792727470398
1726995920408099800,7.320099853515625,-0.14082768559455872,-0.8947113156318665,0.894520103931427
1726995920418086700,7.330086669921875,-0.08148180693387985,-0.6131808757781982,0.8471845388412476
1726995920428072700,7.34007275390625,-0.08463818579912186,-0.4304909408092499,0.8171132206916809
1726995920438059800,7.350059814453125,-0.16081391274929047,-0.3474692702293396,0.7868484854698181
1726995920448045800,7.3600458984375,-0.2968854606151581,-0.27794986963272095,0.7602224946022034
1726995920458033000,7.370032958984375,-0.445168673992157,-0.2526940405368805,0.7062253355979919
1726995920468019700,7.380019775390625,-0.5914047360420227,-0.20775079727172852,0.6405930519104004
1726995920478005800,7.390005859375,-0.7549755573272705,-0.13820767402648926,0.5871569514274597
1726995920487992800,7.399992919921875,-0.9163056015968323,-0.055510398000478745,0.5515249371528625
1726995920497978600,7.409978515625,-1.1148133277893066,0.07509634643793106,0.5117163062095642
1726995920507965700,7.419965576171875,-1.3090403079986572,0.21019718050956726,0.46354395151138306
1726995920517952800,7.429952880859375,-1.4497824907302856,0.28409963846206665,0.3758756220340729
1726995920527938800,7.439938720703125,-1.4724109172821045,0.3165678381919861,0.19567203521728516
1726995920537925600,7.449925537109375,-1.326995849609375,0.23067955672740936,-0.09586793929338455
1726995920547912000,7.459911865234375,-1.08684504032135,-0.12210673093795776,-0.4328555464744568
1726995920557898800,7.469898681640625,-0.8897224068641663,-0.5469523072242737,-0.6845719218254089
1726995920567884800,7.479884765625,-0.7139527201652527,-1.0063683986663818,-0.7847837805747986
1726995920577872000,7.489871826171875,-0.5328479409217834,-1.1770570278167725,-0.7902999520301819
1726995920587858700,7.499858642578125,-0.3785342574119568,-1.0424435138702393,-0.7440027594566345
1726995920597844700,7.5098447265625,-0.29923197627067566,-0.7422136664390564,-0.6611105799674988
1726995920607831800,7.519831787109375,-0.2601519525051117,-0.5323451161384583,-0.5496807098388672
1726995920617817900,7.52981787109375,-0.22457344830036163,-0.43291175365448,-0.44013556838035583
1726995920627804700,7.5398046875,-0.18105819821357727,-0.3509995639324188,-0.3624272048473358
1726995920637792000,7.5497919921875,-0.14606612920761108,-0.2354671210050583,-0.2981927990913391
1726995920647777800,7.55977783203125,-0.10886789113283157,-0.09657447785139084,-0.25253692269325256
1726995920657764600,7.5697646484375,-0.08426854014396667,-0.00965768750756979,-0.22742809355258942
1726995920667751000,7.5797509765625,-0.07282120734453201,0.04988713189959526,-0.2280893623828888
1726995920677737700,7.58973779296875,-0.09612973034381866,0.10554932802915573,-0.2444552779197693
1726995920687724800,7.599724853515625,-0.1356973797082901,0.13900768756866455,-0.26593074202537537
1726995920697710800,7.6097109375,-0.16321128606796265,0.15109391510486603,-0.2891489863395691
1726995920707698000,7.619697998046875,-0.1777031570672989,0.14870212972164154,-0.2922409176826477
1726995920717683700,7.62968359375,-0.16802948713302612,0.11136487126350403,-0.2816343307495117
1726995920727670800,7.6396708984375,-0.1404212862253189,0.0641518235206604,-0.2787506580352783
1726995920737657900,7.649657958984375,-0.09850127249956131,0.011069162748754025,-0.28685814142227173
1726995920747643600,7.6596435546875,-0.0672416239976883,-0.06795427948236465,-0.2918124198913574
1726995920757630700,7.669630615234375,-0.05380650609731674,-0.09082098305225372,-0.3001720607280731
1726995920767616800,7.67961669921875,-0.034930817782878876,-0.0531122200191021,-0.30659401416778564
1726995920777603800,7.689603759765625,-0.012373578734695911,0.01224734541028738,-0.30855944752693176
1726995920787590700,7.699590576171875,0.010391388088464737,0.077788807451725,-0.30006715655326843
1726995920797576700,7.70957666015625,0.03346261754631996,0.117494136095047,-0.27214309573173523
1726995920807563800,7.719563720703125,0.021707957610487938,0.15899178385734558,-0.23384205996990204
1726995920817549800,7.7295498046875,0.00968458503484726,0.16107037663459778,-0.20011071860790253
1726995920827537000,7.739536865234375,-0.003707386553287506,0.1329793483018875,-0.17916922271251678
1726995920837523700,7.749523681640625,-0.02617514505982399,0.11349540203809738,-0.1664169430732727
1726995920847509800,7.759509765625,-0.015557387843728065,0.12080445140600204,-0.184048131108284
1726995920857496800,7.769496826171875,0.020381703972816467,0.1735006868839264,-0.20152859389781952
1726995920867482600,7.779482666015625,0.05433247983455658,0.22424322366714478,-0.19190925359725952
1726995920877469700,7.7894697265625,0.09032616764307022,0.22167061269283295,-0.16686195135116577
1726995920887455700,7.799455810546875,0.1110042855143547,0.18979017436504364,-0.12083400785923004
1726995920897442800,7.80944287109375,0.10071729123592377,0.11546774208545685,-0.07154741883277893
1726995920907429600,7.8194296875,0.07672194391489029,0.055564723908901215,-0.03335609287023544
1726995920917416000,7.829416015625,0.050226420164108276,0.01882535219192505,0.026129871606826782
1726995920927402800,7.83940283203125,0.029319006949663162,-0.02508964017033577,0.09962432831525803
1726995920937388500,7.849388427734375,0.03128788247704506,-0.09622693061828613,0.17723096907138824
1726995920947375900,7.8593759765625,0.04502260312438011,-0.1663418412208557,0.2492082267999649
1726995920957363000,7.869363037109375,0.06270892173051834,-0.2358735054731369,0.31743600964546204
1726995920967348700,7.8793486328125,0.07117750495672226,-0.2882283329963684,0.36902809143066406
1726995920977335800,7.889335693359375,0.0840538889169693,-0.29910388588905334,0.4082082509994507
1726995920987321900,7.89932177734375,0.08141949027776718,-0.30132654309272766,0.4297636151313782
1726995920997308700,7.90930859375,0.06792871654033661,-0.3102097809314728,0.4460533857345581
1726995921007295700,7.919295654296875,0.046303581446409225,-0.31962114572525024,0.4491083025932312
1726995921017281800,7.92928173828125,0.01726873591542244,-0.30062028765678406,0.4367176592350006
1726995921027268900,7.939268798828125,-0.017058879137039185,-0.2578754723072052,0.41442808508872986
1726995921037255000,7.9492548828125,-0.03934474289417267,-0.2231321483850479,0.37878352403640747
1726995921047241700,7.95924169921875,-0.03712340071797371,-0.18588651716709137,0.33898526430130005
1726995921057228800,7.969228759765625,-0.019146529957652092,-0.15217116475105286,0.3081924617290497
1726995921067214800,7.97921484375,0.006126602180302143,-0.1346808522939682,0.2717859745025635
1726995921077202000,7.989201904296875,0.02111194282770157,-0.14765682816505432,0.23301833868026733
1726995921087187700,7.999187744140625,0.03184128552675247,-0.15737152099609375,0.1920224279165268
1726995921097174800,8.0091748046875,0.044717937707901,-0.1450836956501007,0.1490832269191742
1726995921107160800,8.019160888671875,0.062363773584365845,-0.08745793998241425,0.09957079589366913
1726995921117147600,8.029147705078126,0.0754859670996666,-0.005746036302298307,0.0443970263004303
1726995921127134700,8.039134765625,0.10275114327669144,0.10961810499429703,-0.0008633967954665422
1726995921137120800,8.049120849609375,0.14890027046203613,0.3108811676502228,-0.03373346105217934
1726995921147107800,8.05910791015625,0.17966483533382416,0.5547002553939819,-0.05564142391085625
1726995921157095200,8.06909521484375,0.1929263174533844,0.7144795060157776,-0.05590720847249031
1726995921167081200,8.079081298828125,0.19667018949985504,0.7488142848014832,-0.05355696752667427
1726995921177068000,8.089068115234374,0.215765580534935,0.7202580571174622,-0.028178641572594643
1726995921187054000,8.09905419921875,0.2658652365207672,0.7171155214309692,0.0008969526388682425
1726995921197041200,8.109041259765625,0.3811531960964203,0.8045201897621155,0.044079575687646866
1726995921207027200,8.119027099609376,0.5646823048591614,0.773623526096344,0.12981951236724854
1726995921217014000,8.129013916015625,0.7951027154922485,0.7435218095779419,0.2245766520500183
1726995921227001000,8.1390009765625,0.9842217564582825,0.7365507483482361,0.2739729583263397
1726995921236987100,8.148987060546874,1.0602220296859741,0.71340012550354,0.2954047620296478
1726995921246974000,8.158973876953125,1.08085298538208,0.6889600157737732,0.2710544168949127
1726995921256960300,8.168960205078125,1.091701865196228,0.5625190138816833,0.2328830510377884
1726995921266947000,8.178947021484374,1.0787615776062012,0.43686041235923767,0.24999412894248962
1726995921276934100,8.18893408203125,1.0175280570983887,0.30286720395088196,0.29505056142807007
1726995921286920200,8.198920166015625,0.8760694861412048,0.16674689948558807,0.3664906322956085
1726995921296907300,8.2089072265625,0.6799441576004028,-0.03738066181540489,0.5253711342811584
1726995921306893000,8.21889306640625,0.42022204399108887,-0.35829663276672363,0.7332319021224976
1726995921316880000,8.2288798828125,0.13623879849910736,-0.7238051295280457,0.8999082446098328
1726995921326867200,8.2388671875,-0.14238004386425018,-1.0239588022232056,1.002780556678772
1726995921336853000,8.24885302734375,-0.3935640752315521,-0.996725857257843,1.0306686162948608
1726995921346840000,8.258840087890626,-0.5261018872261047,-0.6024067401885986,1.0216586589813232
1726995921356826000,8.268826171875,-0.575691282749176,-0.2941645085811615,1.0162417888641357
1726995921366813200,8.278813232421875,-0.5968961715698242,-0.1427781879901886,0.9899627566337585
1726995921376800000,8.288800048828126,-0.6708939671516418,-0.11009987443685532,0.9648664593696594
1726995921386786300,8.298786376953124,-0.7543371915817261,-0.08540064841508865,0.9211269617080688
1726995921396773000,8.308773193359375,-0.8867372870445251,-0.014603443443775177,0.847892701625824
1726995921406759000,8.318759033203126,-1.0142902135849,0.1357346624135971,0.7378378510475159
1726995921416746200,8.328746337890625,-1.1520546674728394,0.2610907256603241,0.5878206491470337
1726995921426732000,8.33873193359375,-1.2242631912231445,0.31478163599967957,0.37904319167137146
1726995921436719000,8.348718994140626,-1.1775422096252441,0.3543042838573456,0.049428269267082214
1726995921446706200,8.3587060546875,-1.0441346168518066,0.25022608041763306,-0.3655068874359131
1726995921456692200,8.368692138671875,-0.8900694251060486,-0.041355960071086884,-0.751135528087616
1726995921466679000,8.378678955078126,-0.7560014128684998,-0.4610821306705475,-1.020099401473999
1726995921476665000,8.3886650390625,-0.6177085041999817,-0.7995664477348328,-1.160131573677063
1726995921486652200,8.398652099609375,-0.47021758556365967,-0.8821699619293213,-1.1879419088363647
1726995921496639000,8.408638916015626,-0.3604676425457001,-0.7953735589981079,-1.177331566810608
1726995921506625300,8.418625244140625,-0.2857510447502136,-0.6487503051757812,-1.1245259046554565
1726995921516612000,8.428612060546875,-0.23650947213172913,-0.4859238266944885,-1.0696929693222046
1726995921526598100,8.43859814453125,-0.20504502952098846,-0.3742508292198181,-0.9849381446838379
1726995921536585200,8.448585205078125,-0.170395165681839,-0.3032520115375519,-0.8937616348266602
1726995921546572300,8.458572265625,-0.1457042098045349,-0.1832856684923172,-0.8202096819877625
1726995921556558000,8.46855810546875,-0.12281939387321472,-0.008621717803180218,-0.7490854263305664
1726995921566545000,8.478544921875,-0.10861489176750183,0.11651676148176193,-0.6642741560935974
1726995921576531200,8.48853125,-0.11782543361186981,0.12389051914215088,-0.5600649118423462
1726995921586518000,8.49851806640625,-0.14325515925884247,0.073811374604702,-0.4432775676250458
1726995921596505000,8.508505126953125,-0.1613081991672516,0.016622386872768402,-0.3288966715335846
1726995921606491100,8.5184912109375,-0.15944957733154297,-0.017306817695498466,-0.23407241702079773
1726995921616478200,8.528478271484374,-0.14346875250339508,-0.043176766484975815,-0.17728689312934875
1726995921626464300,8.53846435546875,-0.14375238120555878,-0.09099302440881729,-0.13690485060214996
1726995921636451000,8.548451171875,-0.14769811928272247,-0.12489719688892365,-0.115811288356781
1726995921646437000,8.55843701171875,-0.1426554173231125,-0.11365120112895966,-0.11996501684188843
1726995921656424000,8.568423828125,-0.13131274282932281,-0.06081781163811684,-0.13685664534568787
1726995921666411300,8.578411376953126,-0.11616362631320953,0.014671887271106243,-0.1548606902360916
1726995921676397000,8.58839697265625,-0.0973646342754364,0.07571686804294586,-0.17836761474609375
1726995921686384000,8.598384033203125,-0.07595787942409515,0.09675290435552597,-0.19785556197166443
1726995921696371200,8.60837109375,-0.04902506619691849,0.10073912888765335,-0.21381855010986328
1726995921706357000,8.61835693359375,-0.001698564155958593,0.13329707086086273,-0.23752626776695251
1726995921716344000,8.628343994140625,0.018615229055285454,0.2145320028066635,-0.26894572377204895
1726995921726330000,8.638330078125,0.01780216582119465,0.2968420684337616,-0.24142540991306305
1726995921736317200,8.648317138671874,0.006441654171794653,0.35202622413635254,-0.23778992891311646
1726995921746303000,8.658302978515625,0.0031438616570085287,0.4215238094329834,-0.2563316524028778
1726995921756290300,8.668290283203126,0.00008255799184553325,0.44764673709869385,-0.2801986336708069
1726995921766277000,8.678277099609375,0.014430338516831398,0.4002089202404022,-0.3040163516998291
1726995921776263000,8.688262939453125,0.051959868520498276,0.32755523920059204,-0.33764514327049255
1726995921786250200,8.698250244140626,0.09866692125797272,0.2870786488056183,-0.3732824921607971
1726995921796236000,8.708236083984374,0.14270362257957458,0.24837279319763184,-0.3910417854785919
1726995921806223000,8.71822314453125,0.18235249817371368,0.17096774280071259,-0.3726622462272644
1726995921816210000,8.7282099609375,0.20382742583751678,0.08797778934240341,-0.288822203874588
1726995921826196200,8.7381962890625,0.20282527804374695,0.0006242449744604528,-0.15598107874393463
1726995921836183000,8.74818310546875,0.1867496371269226,-0.11032890528440475,-0.009978331625461578
1726995921846169000,8.758169189453126,0.15125583112239838,-0.2528138756752014,0.1154448390007019
1726995921856156200,8.76815625,0.10058466345071793,-0.4022989869117737,0.2108784168958664
1726995921866143000,8.77814306640625,0.06399176269769669,-0.5237417817115784,0.28916284441947937
1726995921876129000,8.78812890625,0.051127366721630096,-0.5916321277618408,0.34606897830963135
1726995921886116000,8.7981162109375,0.0643097460269928,-0.6207274794578552,0.3956892788410187
1726995921896102100,8.80810205078125,0.08213188499212265,-0.6213147044181824,0.4334600865840912
1726995921906089000,8.8180888671875,0.09305058419704437,-0.5862352252006531,0.44902172684669495
1726995921916076300,8.828076171875,0.09373155236244202,-0.5162606835365295,0.43326622247695923
1726995921926062000,8.83806201171875,0.0825185775756836,-0.432761013507843,0.39369750022888184
1726995921936049200,8.848049072265624,0.07187259197235107,-0.3121797442436218,0.3411429524421692
1726995921946035200,8.85803515625,0.0773448571562767,-0.1732974797487259,0.28438326716423035
1726995921956022000,8.86802197265625,0.10375595837831497,-0.0548643134534359,0.22796232998371124
1726995921966008000,8.878008056640626,0.13777011632919312,0.025718679651618004,0.16810858249664307
1726995921975995100,8.8879951171875,0.163967102766037,0.05558310076594353,0.08102241158485413
1726995921985982200,8.897982177734375,0.1774301826953888,0.06487220525741577,0.017056215554475784
1726995921995968000,8.907968017578124,0.17558060586452484,0.022711703553795815,-0.06347031891345978
1726995922005955300,8.917955322265625,0.1864050328731537,0.07065153121948242,-0.14727146923542023
1726995922015941000,8.927941162109375,0.18647587299346924,0.1442871391773224,-0.23505166172981262
1726995922025928000,8.937927978515624,0.19928008317947388,0.19221605360507965,-0.28590312600135803
1726995922035915300,8.947915283203125,0.2206205278635025,0.2842594087123871,-0.3320743441581726
1726995922045901000,8.957901123046875,0.23144175112247467,0.43702632188796997,-0.3735235333442688
1726995922055888100,8.96788818359375,0.2395811676979065,0.6223706007003784,-0.39871782064437866
1726995922065874200,8.977874267578125,0.22889523208141327,0.78146892786026,-0.41802334785461426
1726995922075861200,8.987861328125,0.23174721002578735,0.8608564138412476,-0.36360403895378113
1726995922085848000,8.99784814453125,0.2766622304916382,0.9503191709518433,-0.30483153462409973
1726995922095834000,9.007834228515625,0.37893614172935486,1.0531803369522095,-0.24706438183784485
1726995922105821200,9.0178212890625,0.5327554941177368,0.9394699931144714,-0.12572704255580902
1726995922115807000,9.027806884765624,0.7486585378646851,0.8932897448539734,-0.033188577741384506
1726995922125794000,9.0377939453125,0.8561745882034302,0.9650542140007019,0.02311677113175392
1726995922135781000,9.047781005859376,0.9243821501731873,0.9334419369697571,0.0510256327688694
1726995922145767200,9.05776708984375,0.9838231205940247,0.8951417207717896,0.08668296039104462
1726995922155754000,9.06775390625,1.036725401878357,0.9271965622901917,0.09657873958349228
1726995922165740000,9.077739990234376,1.0489696264266968,0.9557185173034668,0.11423203349113464
1726995922175727000,9.08772705078125,0.9937654733657837,0.8711181282997131,0.16164268553256989
1726995922185713200,9.097713134765625,0.8528962135314941,0.5102757811546326,0.3345228433609009
1726995922195700000,9.107699951171876,0.6397852897644043,0.013658287934958935,0.565155029296875
1726995922205687000,9.11768701171875,0.38844946026802063,-0.44784700870513916,0.8171475529670715
1726995922215673000,9.127673095703125,0.12171844393014908,-0.8442510962486267,1.0106121301651
1726995922225660200,9.13766015625,-0.15824156999588013,-1.1353332996368408,1.0925676822662354
1726995922235646000,9.14764599609375,-0.3942048251628876,-1.1516200304031372,1.1283560991287231
1726995922245633000,9.157633056640625,-0.5171421766281128,-0.9549573659896851,1.1500885486602783
1726995922255620000,9.1676201171875,-0.5928342938423157,-0.7622286677360535,1.1117256879806519
1726995922265606000,9.17760595703125,-0.5267884135246277,-0.44966381788253784,1.033469796180725
1726995922275593000,9.187593017578125,-0.6490267515182495,-0.23468440771102905,0.9824467897415161
1726995922285579000,9.1975791015625,-0.74373459815979,-0.16117237508296967,0.9533027410507202
1726995922295566000,9.207566162109375,-0.8314074873924255,-0.1315697431564331,0.8790063858032227
1726995922305553000,9.217552978515625,-0.9318445920944214,-0.014159761369228363,0.7593724131584167
1726995922315539200,9.227539306640624,-0.967818021774292,0.14299577474594116,0.5526165962219238
1726995922325526000,9.237526123046875,-0.8908808827400208,0.19151856005191803,0.25455132126808167
1726995922335511800,9.24751171875,-0.7490471005439758,0.04918059706687927,-0.08252257108688354
1726995922345499100,9.2574990234375,-0.6101863980293274,-0.23010244965553284,-0.41823744773864746
1726995922355486000,9.26748583984375,-0.49814215302467346,-0.5903250575065613,-0.6968594789505005
1726995922365472000,9.277471923828125,-0.3987439274787903,-0.891538679599762,-0.8749376535415649
1726995922375459000,9.287458984375,-0.3203172981739044,-0.9684625267982483,-0.9387139678001404
1726995922385445000,9.297445068359375,-0.2905553877353668,-0.838638186454773,-0.9848289489746094
1726995922395432000,9.307431884765625,-0.23252485692501068,-0.6409760117530823,-0.9778501391410828
1726995922405418000,9.31741796875,-0.19488906860351562,-0.4300749599933624,-0.9404782652854919
1726995922415405000,9.327405029296875,-0.16188611090183258,-0.24544517695903778,-0.9226958155632019
1726995922425391900,9.337391845703126,-0.14144767820835114,-0.10402893275022507,-0.9206409454345703
1726995922435378200,9.347378173828124,-0.12252458184957504,0.000824248360004276,-0.895041286945343
1726995922445365000,9.357364990234375,-0.06389296054840088,0.04157114401459694,-0.8545583486557007
1726995922455351000,9.36735107421875,0.02292795293033123,0.11463204026222229,-0.8155819177627563
1726995922465338000,9.377338134765624,0.08230073004961014,0.2153884768486023,-0.7787980437278748
1726995922475325200,9.3873251953125,0.11141493916511536,0.28304582834243774,-0.7545962929725647
1726995922485311000,9.39731103515625,0.10047920048236847,0.2533792555332184,-0.7215291857719421
1726995922495297800,9.4072978515625,0.06696491688489914,0.17575185000896454,-0.6964594721794128
1726995922505284000,9.4172841796875,0.03945739567279816,0.08573780953884125,-0.6846212148666382
1726995922515271000,9.42727099609375,0.015212242491543293,0.026040920987725258,-0.6803212761878967
1726995922525258000,9.437258056640625,0.025836657732725143,0.0011012171162292361,-0.6716207265853882
1726995922535244000,9.447244140625,0.05097370222210884,-0.01949460618197918,-0.6493988037109375
1726995922545231000,9.457231201171876,0.07660423219203949,0.0007683219737373292,-0.608875572681427
1726995922555217200,9.467217041015624,0.08835063129663467,0.03220028057694435,-0.5630002617835999
1726995922565204000,9.477203857421875,0.0986032709479332,0.0057649449445307255,-0.5035680532455444
1726995922575191000,9.48719091796875,0.11130628734827042,0.010903780348598957,-0.44220617413520813
1726995922585176800,9.4971767578125,0.12712092697620392,-0.0037412086967378855,-0.3626519739627838
1726995922595164200,9.5071640625,0.13918638229370117,-0.04501780867576599,-0.2727854549884796
1726995922605150000,9.51714990234375,0.13779035210609436,-0.05104667320847511,-0.1930229812860489
1726995922615137000,9.527136962890625,0.13287842273712158,-0.03171984478831291,-0.15057459473609924
1726995922625124000,9.5371240234375,0.12766821682453156,0.010047308169305325,-0.13316577672958374
1726995922635110100,9.547110107421876,0.13950888812541962,0.06041061133146286,-0.153410866856575
1726995922645097000,9.557096923828125,0.14485251903533936,0.15894463658332825,-0.20661629736423492
1726995922655083000,9.5670830078125,0.11746351420879364,0.23306787014007568,-0.14739663898944855
1726995922665070000,9.577070068359374,0.11647361516952515,0.20431025326251984,-0.12385882437229156
1726995922675055900,9.587055908203125,0.1357405185699463,0.20094987750053406,-0.13790540397167206
1726995922685043200,9.597043212890625,0.14326901733875275,0.20924216508865356,-0.1362268179655075
1726995922695030000,9.607030029296874,0.13140062987804413,0.20821338891983032,-0.10008718818426132
1726995922705016000,9.61701611328125,0.13656051456928253,0.16138330101966858,-0.02912406250834465
1726995922715003100,9.627003173828125,0.1271001547574997,0.06872020661830902,0.0003294330381322652
1726995922724989000,9.636989013671876,0.12030963599681854,0.06913166493177414,0.021887455135583878
1726995922734976000,9.64697607421875,0.11718228459358215,0.035532958805561066,0.04285159334540367
1726995922744962800,9.656962890625,0.09895667433738708,-0.054431281983852386,0.081721231341362
1726995922754949000,9.66694921875,0.05343259871006012,-0.17956256866455078,0.13282649219036102
1726995922764936000,9.67693603515625,0.017074324190616608,-0.29733899235725403,0.1848398894071579
1726995922774922200,9.686922119140625,-0.0009139968897216022,-0.329172819852829,0.2008979469537735
1726995922784909000,9.696908935546874,-0.015384815633296967,-0.3514288663864136,0.2389896810054779
1726995922794896100,9.706896240234375,-0.01549666840583086,-0.36304929852485657,0.26516854763031006
1726995922804882200,9.716882080078125,-0.02436685934662819,-0.34176957607269287,0.30597376823425293
1726995922814869000,9.726868896484374,-0.019956663250923157,-0.3001483678817749,0.3469896614551544
1726995922824855000,9.73685498046875,-0.015516375191509724,-0.2618214786052704,0.39463067054748535
1726995922834841900,9.746841796875,-0.014085458591580391,-0.2511496841907501,0.4443129897117615
1726995922844829200,9.7568291015625,-0.02496846579015255,-0.2283860296010971,0.47951120138168335
1726995922854815000,9.76681494140625,-0.03724057972431183,-0.1981636881828308,0.492200642824173
1726995922864802000,9.776802001953126,-0.04597681388258934,-0.17157015204429626,0.47006842494010925
1726995922874788000,9.7867880859375,-0.044410340487957,-0.11773701757192612,0.44113823771476746
1726995922884775000,9.79677490234375,-0.035661324858665466,-0.09436538070440292,0.4169871211051941
1726995922894761000,9.806760986328126,-0.017590710893273354,-0.0582561157643795,0.4155745804309845
1726995922904748000,9.816748046875,0.009242766536772251,0.03249269723892212,0.39410683512687683
1726995922914735000,9.826735107421875,0.0475776381790638,0.16534635424613953,0.35376739501953125
1726995922924721000,9.836720947265626,0.07834993302822113,0.3413996696472168,0.30079153180122375
1726995922934708200,9.846708251953125,0.09824135154485703,0.4933713674545288,0.2551494836807251
1726995922944694000,9.856694091796875,0.1191205307841301,0.5628891587257385,0.240514874458313
1726995922954680800,9.866680908203126,0.15593154728412628,0.5772782564163208,0.2529070973396301
1726995922964668200,9.876668212890625,0.20872817933559418,0.6176666617393494,0.2753088176250458
1726995922974654000,9.886654052734375,0.30561184883117676,0.6278740167617798,0.3312684893608093
1726995922984641000,9.89664111328125,0.45618805289268494,0.5047899484634399,0.4296243488788605
1726995922994627000,9.906626953125,0.6557818651199341,0.4747324287891388,0.49639856815338135
1726995923004614100,9.9166142578125,0.8117506504058838,0.5829489231109619,0.5278382301330566
1726995923014601000,9.92660107421875,0.9692292213439941,0.7353442907333374,0.5085380673408508
1726995923024587000,9.9365869140625,1.0938664674758911,0.8716850876808167,0.47434520721435547
1726995923034574000,9.946573974609375,1.168958306312561,0.9070811867713928,0.37637948989868164
1726995923044560000,9.956559814453126,1.1967828273773193,0.7957730293273926,0.32529687881469727
1726995923054547000,9.966546875,1.1269701719284058,0.41169753670692444,0.42650070786476135
1726995923064534000,9.976533935546875,0.988584578037262,-0.03334464132785797,0.6043702960014343
1726995923074520000,9.98652001953125,0.8017696738243103,-0.3551860451698303,0.7623578310012817
1726995923084507000,9.9965068359375,0.5435128211975098,-0.5811843276023865,0.9161332845687866
1726995923094493000,10.006492919921875,0.22450394928455353,-0.8225322365760803,1.0185033082962036
1726995923104480000,10.01647998046875,-0.13730326294898987,-1.115670919418335,1.0669493675231934
1726995923114466000,10.026466064453125,-0.49293699860572815,-1.2771892547607422,1.1238163709640503
1726995923124453000,10.036453125,-0.7169237732887268,-1.1647454500198364,1.118599772453308
1726995923134440000,10.04643994140625,-0.812999963760376,-0.7665762901306152,0.9519322514533997
1726995923144426000,10.056426025390625,-0.8789241313934326,-0.12230940163135529,0.8229146599769592
1726995923154413000,10.0664130859375,-0.9351423978805542,0.11055527627468109,0.7536641955375671
1726995923164398800,10.07639892578125,-1.002469539642334,0.0626484677195549,0.6541677117347717
1726995923174386000,10.086385986328125,-1.0667344331741333,-0.016033029183745384,0.540729820728302
1726995923184373000,10.096373046875,-1.110890507698059,-0.027399400249123573,0.33571356534957886
1726995923194359000,10.106359130859374,-1.045154333114624,0.039627570658922195,0.03978602960705757
1726995923204345900,10.116345947265625,-0.8739349246025085,0.03659289702773094,-0.2780478596687317
1726995923214332000,10.126331787109375,-0.6577991843223572,-0.10843539983034134,-0.5839028358459473
1726995923224319000,10.136319091796874,-0.5020554065704346,-0.3950956463813782,-0.842290997505188
1726995923234306000,10.14630615234375,-0.4341466426849365,-0.6545929908752441,-1.0023338794708252
1726995923244292000,10.1562919921875,-0.45563915371894836,-0.6941324472427368,-1.0727952718734741
1726995923254279000,10.16627880859375,-0.4606355130672455,-0.6351394057273865,-1.0841861963272095
1726995923264265000,10.176264892578125,-0.41800791025161743,-0.5554690957069397,-1.067120909690857
1726995923274252000,10.186251953125,-0.3534797728061676,-0.41076356172561646,-1.0566773414611816
1726995923284239000,10.196239013671875,-0.29031091928482056,-0.2827723026275635,-1.0381861925125122
1726995923294225000,10.206224853515625,-0.24673707783222198,-0.17755508422851562,-1.0108141899108887
1726995923304212000,10.2162119140625,-0.1889006793498993,-0.07386276870965958,-1.0047121047973633
1726995923314198000,10.226197998046874,-0.11559716612100601,0.0788777694106102,-1.020645260810852
1726995923324184800,10.236184814453125,-0.04090535640716553,0.25264984369277954,-1.0290592908859253
1726995923334171100,10.246171142578126,0.006963367108255625,0.33880627155303955,-0.9929047226905823
1726995923344158000,10.256157958984375,-0.009484848007559776,0.3111160695552826,-0.9378670454025269
1726995923354145000,10.26614501953125,-0.07723939418792725,0.2076874077320099,-0.8725570440292358
1726995923364131000,10.276131103515626,-0.15122467279434204,0.082170769572258,-0.8190290927886963
1726995923374118100,10.2861181640625,-0.18732701241970062,-0.03184475004673004,-0.7668606638908386
1726995923384104000,10.29610400390625,-0.1507575511932373,-0.06662030518054962,-0.7120078206062317
1726995923394091000,10.306091064453126,-0.08485230803489685,-0.08436441421508789,-0.6263166069984436
1726995923404078000,10.316078125,-0.05360490456223488,-0.1500006765127182,-0.5199313163757324
1726995923414063900,10.32606396484375,-0.04614778608083725,-0.18377462029457092,-0.4388071894645691
1726995923424051000,10.336051025390624,-0.024758342653512955,-0.11340086162090302,-0.4062841236591339
1726995923434037000,10.346037109375,0.03904513642191887,-0.03966991603374481,-0.409716933965683
1726995923444024000,10.356024169921875,0.11552952229976654,0.038053907454013824,-0.3906812071800232
1726995923454011000,10.366010986328124,0.1739952266216278,0.13885748386383057,-0.3429594933986664
1726995923463997000,10.375996826171875,0.1942184716463089,0.2324572056531906,-0.29316237568855286
1726995923473984000,10.38598388671875,0.16724331676959991,0.23854252696037292,-0.2641722559928894
1726995923483970000,10.395969970703124,0.12394564598798752,0.22115954756736755,-0.29611101746559143
1726995923493957000,10.40595703125,0.08144532144069672,0.28379443287849426,-0.31583917140960693
1726995923503944000,10.41594384765625,0.05620494857430458,0.3574516177177429,-0.26267209649086
1726995923513930000,10.425929931640624,0.05764571949839592,0.3667697310447693,-0.23320183157920837
1726995923523917000,10.4359169921875,0.09018448740243912,0.32516610622406006,-0.23183242976665497
1726995923533902800,10.44590283203125,0.11847072094678879,0.25528156757354736,-0.21765322983264923
1726995923543890000,10.455889892578124,0.12633955478668213,0.15945863723754883,-0.19627177715301514
1726995923553876000,10.4658759765625,0.11761797964572906,0.09541946649551392,-0.14816762506961823
1726995923563863000,10.475863037109375,0.10923194885253906,0.03594468533992767,-0.04855421930551529
1726995923573849900,10.485849853515624,0.09893830120563507,-0.12610653042793274,0.08028951287269592
1726995923583836200,10.495836181640625,0.06561575829982758,-0.27285391092300415,0.14235740900039673
1726995923593823000,10.505822998046876,0.02605503611266613,-0.39154887199401855,0.19740255177021027
1726995923603808800,10.515808837890624,0.008529040031135082,-0.4616837501525879,0.25847816467285156
1726995923613796000,10.525796142578125,0.00894076470285654,-0.48244521021842957,0.3252633213996887
1726995923623783000,10.535782958984376,-0.001546763931401074,-0.4722655415534973,0.3873932659626007
1726995923633769000,10.54576904296875,-0.0296657495200634,-0.44528958201408386,0.4228191673755646
1726995923643756000,10.555756103515625,-0.06058158725500107,-0.4016531705856323,0.4267161786556244
1726995923653742000,10.5657421875,-0.08243308961391449,-0.3874518573284149,0.39592015743255615
1726995923663729000,10.57572900390625,-0.08973255008459091,-0.343659371137619,0.35207894444465637
1726995923673716000,10.585716064453125,-0.08295906335115433,-0.31348201632499695,0.2973957359790802
1726995923683702000,10.595701904296876,-0.042032670229673386,-0.25231215357780457,0.26634353399276733
1726995923693688800,10.605688720703125,0.0023696806747466326,-0.1841096580028534,0.24972674250602722
1726995923703675100,10.615675048828125,0.019182216376066208,-0.17697717249393463,0.23675821721553802
1726995923713662000,10.625661865234376,-0.0004980111261829734,-0.18537065386772156,0.2303229570388794
1726995923723649000,10.63564892578125,-0.01853932999074459,-0.16729259490966797,0.21782393753528595
1726995923733635000,10.645635009765625,-0.00839668046683073,-0.12867915630340576,0.19592370092868805
1726995923743622100,10.6556220703125,0.03261173889040947,-0.040815871208906174,0.1523623764514923
1726995923753608000,10.66560791015625,0.08891628682613373,0.07382522523403168,0.10975392907857895
1726995923763594800,10.6755947265625,0.1309409737586975,0.17481841146945953,0.07002782076597214
1726995923773581000,10.6855810546875,0.1444874107837677,0.2593700587749481,0.037091709673404694
1726995923783568000,10.69556787109375,0.14908269047737122,0.39421042799949646,0.018077803775668144
1726995923793555000,10.705554931640625,0.1597134917974472,0.5672828555107117,-0.014452176168560982
1726995923803541000,10.715541015625,0.17813032865524292,0.7023256421089172,-0.042571693658828735
1726995923813528000,10.725528076171875,0.21484360098838806,0.7408040761947632,-0.0648314580321312
1726995923823514000,10.73551416015625,0.3287304937839508,0.7847515344619751,-0.08034810423851013
1726995923833501000,10.7455009765625,0.5105562210083008,0.7858762145042419,-0.04622874781489372
1726995923843488000,10.755488037109375,0.7435676455497742,0.8035353422164917,0.022001439705491066
1726995923853473800,10.765473876953125,0.9929018020629883,0.9428418278694153,0.06501415371894836
1726995923863461000,10.775461181640624,1.0830868482589722,1.0013235807418823,0.143941730260849
1726995923873447000,10.785447021484375,1.1495503187179565,1.023106575012207,0.16923004388809204
1726995923883434000,10.79543408203125,1.199722409248352,1.091610074043274,0.18577678501605988
1726995923893421000,10.805421142578124,1.2223656177520752,1.0962034463882446,0.23651640117168427
1726995923903407000,10.815406982421875,1.1824747323989868,0.8942370414733887,0.34907063841819763
1726995923913394000,10.825393798828125,1.0268079042434692,0.336977481842041,0.5515015125274658
1726995923923380000,10.8353798828125,0.7927753925323486,-0.2047307789325714,0.7934789657592773
1726995923933367000,10.845366943359375,0.533933162689209,-0.5408989191055298,0.9940115809440613
1726995923943353900,10.855353759765626,0.25158190727233887,-0.714673638343811,1.163489580154419
1726995923953340200,10.865340087890624,-0.024153539910912514,-0.8222805261611938,1.237042784690857
1726995923963327000,10.875326904296875,-0.3094366788864136,-0.9118676781654358,1.2743360996246338
1726995923973313000,10.88531298828125,-0.4985368251800537,-0.8573887348175049,1.3330365419387817
1726995923983300000,10.895300048828124,-0.6236026287078857,-0.8630074858665466,1.3800772428512573
1726995923993286000,10.905285888671875,-0.6542111039161682,-0.9030963182449341,1.355161190032959
1726995924003273000,10.91527294921875,-0.714366614818573,-0.7821128964424133,1.267420768737793
1726995924013259800,10.925259765625,-0.7849936485290527,-0.4631253182888031,1.1216092109680176
1726995924023246000,10.93524609375,-0.8364149928092957,-0.2403779774904251,0.974231481552124
1726995924033233000,10.94523291015625,-0.8841931819915771,-0.1547379195690155,0.7499152421951294
1726995924043219200,10.95521923828125,-0.8750790357589722,-0.07521432638168335,0.40950068831443787
1726995924053206000,10.9652060546875,-0.78192138671875,-0.06547407805919647,0.006052832584828138
1726995924063193000,10.975193115234376,-0.6450991034507751,-0.09150408208370209,-0.3835676312446594
1726995924073179000,10.985178955078124,-0.459626168012619,-0.15222549438476562,-0.745380699634552
1726995924083166000,10.995166015625,-0.3187497556209564,-0.332267701625824,-1.0392520427703857
1726995924093152000,11.005152099609376,-0.29903650283813477,-0.5616638660430908,-1.2049392461776733
1726995924103138800,11.015138916015625,-0.3399711549282074,-0.6891350150108337,-1.2960553169250488
1726995924113126100,11.025126220703125,-0.38568511605262756,-0.6667543053627014,-1.38741934299469
1726995924123112000,11.03511181640625,-0.3591613471508026,-0.513083815574646,-1.430084466934204
1726995924133099000,11.04509912109375,-0.28470149636268616,-0.344968318939209,-1.41432785987854
1726995924143085000,11.0550849609375,-0.19728563725948334,-0.2065798044204712,-1.3704211711883545
1726995924153071900,11.06507177734375,-0.11872025579214096,-0.07275143265724182,-1.3283008337020874
1726995924163058700,11.07505859375,-0.08238808065652847,0.057494185864925385,-1.2768621444702148
1726995924173044700,11.085044677734375,-0.07978377491235733,0.14263170957565308,-1.2278155088424683
1726995924183031600,11.095031494140626,-0.08726752549409866,0.20931407809257507,-1.1882622241973877
1726995924193017600,11.105017578125,-0.08953946828842163,0.2177986353635788,-1.1694589853286743
1726995924203004700,11.115004638671875,-0.0722488984465599,0.19776314496994019,-1.1083216667175293
1726995924212991700,11.12499169921875,-0.06695666164159775,0.12290354818105698,-1.0262539386749268
1726995924222977500,11.1349775390625,-0.06326578557491302,0.024397751316428185,-0.9326419234275818
1726995924232964900,11.14496484375,-0.07317354530096054,-0.11404774338006973,-0.8253698348999023
1726995924242950700,11.15495068359375,-0.06547221541404724,-0.2252080887556076,-0.6789590716362
1726995924252937500,11.1649375,-0.07183077931404114,-0.2044796347618103,-0.5305706858634949
1726995924262923800,11.174923828125,-0.10729289799928665,-0.11095128208398819,-0.37458717823028564
1726995924272910600,11.18491064453125,-0.14083142578601837,-0.08483712375164032,-0.2362237125635147
1726995924282897700,11.194897705078125,-0.16741909086704254,-0.09094162285327911,-0.14080239832401276
1726995924292883700,11.2048837890625,-0.1693839728832245,-0.10087201744318008,-0.08719003200531006
1726995924302870800,11.214870849609374,-0.14738279581069946,-0.05830219015479088,-0.06125962734222412
1726995924312856600,11.224856689453125,-0.10964687168598175,0.033134251832962036,-0.03777054697275162
1726995924322843600,11.23484375,-0.07150907069444656,0.14200560748577118,-0.01864825189113617
1726995924332830700,11.244830810546874,-0.05308345705270767,0.280152291059494,-0.00942013319581747
1726995924342816500,11.25481640625,-0.04294533655047417,0.3725988566875458,-0.046790141612291336
1726995924352803600,11.264803466796875,-0.0420563742518425,0.4159194529056549,-0.0583229623734951
1726995924362789600,11.27478955078125,-0.048775795847177505,0.3839662969112396,-0.012620187364518642
1726995924372776700,11.284776611328125,-0.028927255421876907,0.33598387241363525,-0.04928818717598915
1726995924382763500,11.294763427734376,0.010310960933566093,0.3117786645889282,-0.11170469224452972
1726995924392749600,11.30474951171875,0.030350714921951294,0.26635923981666565,-0.15252269804477692
1726995924402736600,11.314736572265625,0.03126950562000275,0.1947449892759323,-0.17291797697544098
1726995924412722700,11.32472265625,0.04506601020693779,0.13822712004184723,-0.17803151905536652
1726995924422709800,11.334709716796874,0.07563750445842743,0.10155805200338364,-0.15338289737701416
1726995924432696600,11.344696533203125,0.09125454723834991,0.007388141471892595,-0.08579985797405243
1726995924442682600,11.3546826171875,0.04711664468050003,-0.14439073204994202,0.008229966275393963
1726995924452669700,11.364669677734375,-0.004860268905758858,-0.3010980486869812,0.08431461453437805
1726995924462655500,11.374655517578125,-0.021446170285344124,-0.42778435349464417,0.15507373213768005
1726995924472642600,11.384642578125,-0.021817414090037346,-0.48959019780158997,0.22332575917243958
1726995924482628600,11.394628662109374,-0.015087606385350227,-0.531013011932373,0.31840115785598755
1726995924492615700,11.40461572265625,-0.012073973193764687,-0.5237265825271606,0.386700302362442
1726995924502602500,11.4146025390625,-0.003288471372798085,-0.4909098148345947,0.46662336587905884
1726995924512588800,11.4245888671875,0.013884656131267548,-0.4003809690475464,0.5279053449630737
1726995924522575600,11.43457568359375,0.023179354146122932,-0.31337761878967285,0.5597591996192932
1726995924532561700,11.444561767578126,0.04179884493350983,-0.28485891222953796,0.5728297233581543
1726995924542548700,11.454548828125,0.05489600449800491,-0.27196040749549866,0.5472798943519592
1726995924552535600,11.46453564453125,0.06613560765981674,-0.2513810992240906,0.5005816221237183
1726995924562521600,11.474521484375,0.08120857179164886,-0.2148294746875763,0.45377734303474426
1726995924572508700,11.4845087890625,0.11312229186296463,-0.1675916612148285,0.421218603849411
1726995924582494700,11.49449462890625,0.14265967905521393,-0.09199490398168564,0.39383411407470703
1726995924592481500,11.5044814453125,0.1761140376329422,0.024930117651820183,0.3633233606815338
1726995924602468600,11.514468505859375,0.20738089084625244,0.17468446493148804,0.3080829977989197
1726995924612454700,11.52445458984375,0.2346937358379364,0.2898067831993103,0.2365797758102417
1726995924622441500,11.53444140625,0.24586862325668335,0.3804924786090851,0.14475852251052856
1726995924632427800,11.544427734375,0.2677989602088928,0.4694817364215851,0.05697700008749962
1726995924642414600,11.55441455078125,0.2871875762939453,0.5625767707824707,-0.0378325991332531
1726995924652401700,11.564401611328124,0.3082156181335449,0.6472480297088623,-0.13305126130580902
1726995924662387700,11.5743876953125,0.35141661763191223,0.7551673054695129,-0.21413439512252808
1726995924672374800,11.584374755859375,0.4660995304584503,0.9964464902877808,-0.25574949383735657
1726995924682360600,11.594360595703124,0.6164570450782776,1.110971450805664,-0.2171943634748459
1726995924692347600,11.60434765625,0.8192152380943298,1.0889580249786377,-0.22411273419857025
1726995924702334700,11.614334716796876,0.9594756960868835,1.0328963994979858,-0.2201043963432312
1726995924712320500,11.624320556640624,0.9912543892860413,1.0224125385284424,-0.12739230692386627
1726995924722307600,11.6343076171875,1.0341874361038208,1.0914475917816162,-0.1543285846710205
1726995924732293600,11.644293701171875,1.1325883865356445,1.2950677871704102,-0.19343577325344086
1726995924742280700,11.65428076171875,1.2399845123291016,1.4071208238601685,-0.12316533923149109
1726995924752266800,11.664266845703125,1.2500969171524048,1.1422516107559204,0.05783160775899887
1726995924762253800,11.67425390625,1.1384649276733398,0.6594389081001282,0.29287660121917725
1726995924772240600,11.68424072265625,0.9229205846786499,0.11344693601131439,0.5391359329223633
1726995924782226700,11.694226806640625,0.6275981664657593,-0.46675625443458557,0.7669895887374878
1726995924792213800,11.7042138671875,0.2980306148529053,-1.0023618936538696,0.9814976453781128
1726995924802199600,11.714199462890624,-0.011275824159383774,-1.3355227708816528,1.1420789957046509
1726995924812186600,11.7241865234375,-0.2691726088523865,-1.34871506690979,1.2124197483062744
1726995924822173700,11.734173583984376,-0.4635055959224701,-1.1263829469680786,1.2359302043914795
1726995924832159700,11.74415966796875,-0.5589601993560791,-0.8967971205711365,1.2145012617111206
1726995924842146600,11.754146484375,-0.5506173372268677,-0.7428752183914185,1.1810293197631836
1726995924852132600,11.764132568359376,-0.6511620283126831,-0.5107330679893494,1.1385215520858765
1726995924862119700,11.77411962890625,-0.7836290001869202,-0.23388279974460602,1.1134474277496338
1726995924872106500,11.7841064453125,-0.8890718221664429,-0.08156303316354752,1.0633783340454102
1726995924882092800,11.7940927734375,-0.9506137371063232,-0.03344077989459038,0.984165608882904
1726995924892079600,11.80407958984375,-1.0098803043365479,0.024763137102127075,0.8535513877868652
1726995924902065700,11.814065673828125,-1.0639408826828003,0.04336345195770264,0.6661567091941833
1726995924912052700,11.824052734375,-1.043281078338623,-0.023608922958374023,0.3716542422771454
1726995924922039800,11.834039794921875,-0.8998032808303833,-0.19803878664970398,-0.016525713726878166
1726995924932025600,11.844025634765625,-0.648468554019928,-0.3870318830013275,-0.4430810213088989
1726995924942012700,11.8540126953125,-0.3688443601131439,-0.5031334161758423,-0.8331893682479858
1726995924951998700,11.863998779296875,-0.15170137584209442,-0.6677050590515137,-1.123671054840088
1726995924961985500,11.873985595703125,-0.08272390812635422,-0.6832526326179504,-1.2962182760238647
1726995924971972600,11.88397265625,-0.21747666597366333,-0.5058243274688721,-1.3803459405899048
1726995924981958700,11.893958740234375,-0.3712558448314667,-0.3070662021636963,-1.3906667232513428
1726995924991945700,11.90394580078125,-0.47189322113990784,-0.11056725680828094,-1.3790374994277954
1726995925001931800,11.913931884765624,-0.4920315146446228,0.03916870802640915,-1.367166519165039
1726995925011918600,11.923918701171875,-0.4626898765563965,0.0778772234916687,-1.337288498878479
1726995925021904600,11.933904541015625,-0.39600512385368347,0.0627366155385971,-1.2961047887802124
1726995925031891700,11.9438916015625,-0.2740062475204468,0.09595662355422974,-1.2272809743881226
1726995925041878800,11.953878662109375,-0.1470879763364792,0.1299465447664261,-1.1425397396087646
1726995925051864600,11.963864501953125,-0.059310995042324066,0.16444647312164307,-1.0429441928863525
1726995925061851600,11.9738515625,-0.023418506607413292,0.20242208242416382,-0.9841330647468567
1726995925071837700,11.983837646484375,-0.016270581632852554,0.21619008481502533,-0.9331231713294983
1726995925081824500,11.993824462890625,-0.04815048351883888,0.19570718705654144,-0.8885618448257446
1726995925091811600,12.0038115234375,-0.07502870261669159,0.1548180729150772,-0.8450977206230164
1726995925101797600,12.013797607421875,-0.0816999226808548,0.07736270129680634,-0.7714221477508545
1726995925111784700,12.02378466796875,-0.07946206629276276,0.046598393470048904,-0.6590335369110107
1726995925121770500,12.0337705078125,-0.07151732593774796,-0.005222192499786615,-0.5429535508155823
1726995925131757800,12.0437578125,-0.056411076337099075,-0.07072210311889648,-0.4316619336605072
1726995925141744600,12.05374462890625,-0.05037901923060417,-0.10175538808107376,-0.3355846703052521
1726995925151730400,12.06373046875,-0.03461683169007301,-0.08296439051628113,-0.2396235167980194
1726995925161718000,12.073718017578125,-0.01866130158305168,-0.03964781016111374,-0.14814844727516174
1726995925171704000,12.0837041015625,-0.00501206936314702,0.0408819206058979,-0.07748360931873322
1726995925181691100,12.093691162109375,0.013853231444954872,0.1400734782218933,-0.009736782871186733
1726995925191678000,12.103677978515625,0.023548202589154243,0.2235872894525528,0.035539351403713226
1726995925201664300,12.113664306640626,0.010439058765769005,0.25287139415740967,0.026207368820905685
1726995925211651000,12.123651123046875,-0.019631225615739822,0.2337251454591751,-0.07501804828643799
1726995925221637400,12.133637451171875,-0.027394872158765793,0.22990509867668152,-0.16849340498447418
1726995925231624200,12.143624267578126,0.0060152821242809296,0.18763993680477142,-0.202053502202034
1726995925241611300,12.153611328125,0.0910007432103157,0.14242905378341675,-0.21180865168571472
1726995925251597000,12.16359716796875,0.19215212762355804,0.19299688935279846,-0.20897291600704193
1726995925261584100,12.173584228515624,0.23190540075302124,0.22791199386119843,-0.15150617063045502
1726995925271570200,12.183570068359375,0.1744876503944397,0.14299017190933228,-0.07902983576059341
1726995925281557000,12.193556884765625,0.08560039103031158,0.016751283779740334,0.021517010405659676
1726995925291543300,12.203543212890626,-0.01447268296033144,-0.19079364836215973,0.10486143082380295
1726995925301530000,12.213530029296875,-0.10326939821243286,-0.34539201855659485,0.16596020758152008
1726995925311517200,12.22351708984375,-0.15724767744541168,-0.4522082209587097,0.19982390105724335
1726995925321503200,12.233503173828124,-0.18195408582687378,-0.5256637930870056,0.2284369021654129
1726995925331490000,12.243489990234375,-0.1915912628173828,-0.5910161733627319,0.2617216110229492
1726995925341476000,12.25347607421875,-0.20120075345039368,-0.6085109710693359,0.29571235179901123
1726995925351463200,12.263463134765624,-0.20862378180027008,-0.5632604360580444,0.32169467210769653
1726995925361450200,12.2734501953125,-0.20325671136379242,-0.41256973147392273,0.34749671816825867
1726995925371436000,12.28343603515625,-0.18624337017536163,-0.2663176953792572,0.36078429222106934
1726995925381423400,12.29342333984375,-0.1500595360994339,-0.17912128567695618,0.3776668608188629
1726995925391409200,12.3034091796875,-0.10488886386156082,-0.1551496386528015,0.3888894319534302
1726995925401396000,12.31339599609375,-0.03828107565641403,-0.09098929166793823,0.3858310580253601
1726995925411383000,12.323383056640624,0.034979287534952164,-0.03429831936955452,0.39968082308769226
1726995925421369000,12.333369140625,0.09064734727144241,0.00788801722228527,0.4224729537963867
