time,seconds_elapsed,z,y,x
1726995913105400800,0.01740087890625,0.28437602519989014,-1.0024312734603882,0.9731776118278503
1726995913115388000,0.027387939453125,0.350557416677475,-1.0774378776550293,1.0305986404418945
1726995913125374700,0.037374755859375,0.4621448814868927,-1.092929482460022,1.1819088459014893
1726995913135361000,0.047361083984375,0.5893195867538452,-1.0819953680038452,1.417560338973999
1726995913145347800,0.057347900390625,0.7367061376571655,-1.0424481630325317,1.6970411539077759
1726995913155333600,0.067333740234375,0.9204285740852356,-1.137703776359558,1.9513314962387085
1726995913165321000,0.077321044921875,1.0412219762802124,-1.4966410398483276,2.1075844764709473
1726995913175307800,0.087307861328125,1.1177653074264526,-1.8717414140701294,2.182621955871582
1726995913185293600,0.09729345703125,1.1639164686203003,-2.1941494941711426,2.213921070098877
1726995913195281000,0.107281005859375,1.2039352655410767,-2.4471590518951416,2.2451813220977783
1726995913205266700,0.1172666015625,1.3229317665100098,-2.6052348613739014,2.312460422515869
1726995913215253800,0.127253662109375,1.4935293197631836,-2.770565986633301,2.3822906017303467
1726995913225240800,0.13724072265625,1.710054636001587,-3.0973358154296875,2.4464097023010254
1726995913235227000,0.147226806640625,1.9266269207000732,-3.69549298286438,2.506265163421631
1726995913245213700,0.157213623046875,2.0891425609588623,-4.456463813781738,2.5676746368408203
1726995913255199700,0.16719970703125,2.1589303016662598,-4.940243721008301,2.743757486343384
1726995913265186800,0.177186767578125,2.395977735519409,-5.342757225036621,3.1145317554473877
1726995913275173600,0.187173583984375,2.8418729305267334,-5.816080093383789,3.419158458709717
1726995913285160000,0.197159912109375,3.4140584468841553,-6.122387886047363,3.58134388923645
1726995913295146800,0.207146728515625,4.0457234382629395,-6.274338245391846,3.5477402210235596
1726995913305132800,0.2171328125,4.634076118469238,-6.153130531311035,3.4252994060516357
1726995913315119600,0.22711962890625,5.062046527862549,-5.764626502990723,3.2334253787994385
1726995913325107000,0.23710693359375,5.3120903968811035,-5.389381408691406,2.962679862976074
1726995913335092700,0.2470927734375,5.3227362632751465,-5.289421558380127,2.585529327392578
1726995913345079600,0.25707958984375,5.2770771980285645,-5.102662563323975,2.1794075965881348
1726995913355065900,0.26706591796875,5.1036529541015625,-4.372691631317139,1.8181594610214233
1726995913365052700,0.277052734375,5.090381145477295,-4.021670341491699,1.5876871347427368
1726995913375039700,0.287039794921875,4.8100266456604,-3.7702343463897705,1.300615906715393
1726995913385025800,0.29702587890625,4.5353288650512695,-3.9947996139526367,1.4222792387008667
1726995913395012900,0.307012939453125,4.377048969268799,-4.676980018615723,1.6212083101272583
1726995913404998700,0.31699853515625,3.8403549194335938,-4.939303398132324,1.9912008047103882
1726995913414985700,0.32698583984375,2.9545986652374268,-4.349797248840332,2.115370273590088
1726995913424972800,0.336972900390625,1.984299659729004,-3.6839466094970703,1.9433825016021729
1726995913434958600,0.34695849609375,1.2740495204925537,-3.276472806930542,1.531284213066101
1726995913444946000,0.35694580078125,1.1500751972198486,-2.6322953701019287,0.7843519449234009
1726995913454931700,0.366931640625,1.4999867677688599,-2.724811315536499,0.10090143233537674
1726995913464918800,0.376918701171875,2.060880184173584,-3.1594185829162598,-0.48022109270095825
1726995913474905900,0.38690576171875,2.3759427070617676,-3.4998998641967773,-0.6247146129608154
1726995913484891600,0.3968916015625,2.3902323246002197,-3.6850767135620117,-0.45830997824668884
1726995913494878700,0.406878662109375,1.9656747579574585,-3.058391571044922,-0.28715500235557556
1726995913504864800,0.41686474609375,1.414847493171692,-1.8871986865997314,-0.018492773175239563
1726995913514851800,0.426851806640625,0.7826724052429199,-0.9988605976104736,0.12418820708990097
1726995913524838700,0.436838623046875,0.35970568656921387,-0.8008162975311279,0.12263868749141693
1726995913534825000,0.446824951171875,0.1075354740023613,-1.2359322309494019,0.0442887507379055
1726995913544811800,0.456811767578125,-0.288088321685791,-1.855023741722107,0.012974528595805168
1726995913554797800,0.4667978515625,-0.5694206953048706,-2.1884236335754395,-0.2610040307044983
1726995913564784600,0.47678466796875,-0.6856924295425415,-2.2495229244232178,-0.7664172649383545
1726995913574772000,0.48677197265625,-0.6545858979225159,-1.7788606882095337,-1.3140183687210083
1726995913584757800,0.4967578125,-0.6818098425865173,-1.2374099493026733,-1.6184978485107422
1726995913594744600,0.50674462890625,-0.8822398781776428,-0.5330982804298401,-1.652559757232666
1726995913604731000,0.51673095703125,-1.1482259035110474,-0.3388233482837677,-1.3519810438156128
1726995913614717700,0.5267177734375,-1.3984373807907104,-1.045515775680542,-0.940723180770874
1726995913624704800,0.536704833984375,-1.9328876733779907,-2.0731303691864014,-0.0632195994257927
1726995913634690800,0.54669091796875,-2.8957741260528564,-3.526355504989624,0.2991785705089569
1726995913644678000,0.556677978515625,-3.4189677238464355,-4.029629230499268,0.42338937520980835
1726995913654663700,0.56666357421875,-3.526165246963501,-3.9220268726348877,0.3132551610469818
1726995913664650800,0.576650634765625,-3.5913543701171875,-2.8868520259857178,-0.3516571521759033
1726995913674637800,0.586637939453125,-3.2555630207061768,-0.7859933376312256,-0.8955835700035095
1726995913684623600,0.59662353515625,-2.5171902179718018,0.9798499345779419,-1.0776684284210205
1726995913694611000,0.60661083984375,-1.5775748491287231,1.7614765167236328,-0.7177311182022095
1726995913704596700,0.6165966796875,-0.8445266485214233,1.7861520051956177,-0.22214670479297638
1726995913714583800,0.626583740234375,-0.38451674580574036,1.0781439542770386,0.32351794838905334
1726995913724570600,0.636570556640625,-0.12006140500307083,-0.07294721901416779,0.7189886569976807
1726995913734556700,0.646556640625,0.03752981498837471,-1.0731650590896606,0.9404996633529663
1726995913744543700,0.656543701171875,0.1016395166516304,-1.803784966468811,1.0615758895874023
1726995913754529800,0.66652978515625,0.1267952024936676,-2.422870397567749,1.1199060678482056
1726995913764516900,0.676516845703125,0.19113904237747192,-2.9195828437805176,1.2321137189865112
1726995913774503700,0.686503662109375,0.2129037231206894,-3.115345001220703,1.3567360639572144
1726995913784490000,0.696489990234375,0.23705199360847473,-2.8944785594940186,1.4568567276000977
1726995913794476800,0.706476806640625,0.3318357467651367,-2.1597652435302734,1.4949183464050293
1726995913804462600,0.716462646484375,0.40897446870803833,-1.1103886365890503,1.3881137371063232
1726995913814449700,0.72644970703125,0.40528571605682373,0.0468439906835556,1.32552170753479
1726995913824436700,0.736436767578125,0.3789873719215393,0.8043853640556335,1.1933220624923706
1726995913834422800,0.7464228515625,-0.10427995026111603,1.1840754747390747,0.9782877564430237
1726995913844409600,0.75640966796875,-0.6717498302459717,1.340739130973816,0.6687593460083008
1726995913854396000,0.76639599609375,-0.9697780609130859,1.4359625577926636,0.16929841041564941
1726995913864382700,0.7763828125,-1.0754488706588745,1.6425607204437256,-0.31312429904937744
1726995913874369800,0.786369873046875,-1.0200601816177368,1.7855397462844849,-0.6215039491653442
1726995913884355800,0.79635595703125,-0.9202747941017151,1.4125791788101196,-0.78546541929245
1726995913894342700,0.8063427734375,-0.8184637427330017,0.7704689502716064,-0.7803180813789368
1726995913904329700,0.816329833984375,-0.7396259903907776,0.02444985881447792,-0.6434454917907715
1726995913914315800,0.826315673828125,-0.5563904047012329,-0.7150148749351501,-0.4454581141471863
1726995913924302800,0.836302734375,-0.24650970101356506,-1.0348284244537354,-0.16244058310985565
1726995913934288600,0.84628857421875,0.03821098431944847,-0.5696215033531189,0.17765361070632935
1726995913944276000,0.85627587890625,0.17911182343959808,0.3770955204963684,0.3256436586380005
1726995913954261800,0.86626171875,0.2241661101579666,0.896403431892395,0.28891682624816895
1726995913964248600,0.87624853515625,0.2361261397600174,0.9022680521011353,0.21478115022182465
1726995913974235600,0.886235595703125,0.2149670571088791,0.7771575450897217,0.1607229858636856
1726995913984221700,0.8962216796875,0.1486024558544159,0.670916736125946,0.08716525882482529
1726995913994208800,0.906208740234375,0.06648415327072144,0.6495075821876526,0.004632564727216959
1726995914004194800,0.91619482421875,-0.0026989970356225967,0.6657379865646362,-0.04484785348176956
1726995914014182000,0.926181884765625,-0.043251749128103256,0.6377604007720947,-0.08497583121061325
1726995914024168700,0.936168701171875,-0.057102739810943604,0.5792127251625061,-0.12809686362743378
1726995914034154800,0.94615478515625,-0.06372122466564178,0.4818773865699768,-0.1584603637456894
1726995914044141800,0.956141845703125,-0.061780791729688644,0.4215866029262543,-0.1362544149160385
1726995914054127600,0.966127685546875,-0.08405546844005585,0.45646071434020996,-0.08427510410547256
1726995914064114700,0.97611474609375,-0.13699182868003845,0.5072914361953735,-0.013996340334415436
1726995914074101800,0.986101806640625,-0.19042815268039703,0.4864513874053955,0.0651560053229332
1726995914084087800,0.996087890625,-0.1926386058330536,0.45960864424705505,0.04493783786892891
1726995914094074600,1.00607470703125,-0.3044189214706421,0.5836600065231323,0.1213039830327034
1726995914104062000,1.01606201171875,-0.3660567104816437,0.632354736328125,0.21200819313526154
1726995914114047700,1.0260478515625,-0.3916321396827698,0.6336306929588318,0.23876656591892242
1726995914124034800,1.036034912109375,-0.3795817792415619,0.6397274732589722,0.22277158498764038
1726995914134020900,1.046020751953125,-0.353010356426239,0.6700084209442139,0.1942691057920456
1726995914144007700,1.056007568359375,-0.31144633889198303,0.706831693649292,0.15401950478553772
1726995914153993700,1.06599365234375,-0.317319393157959,0.7095696926116943,0.13209158182144165
1726995914163980800,1.075980712890625,-0.30214908719062805,0.6785613894462585,0.16283662617206573
1726995914173967600,1.085967529296875,-0.2952493727207184,0.6561546325683594,0.17554736137390137
1726995914183953400,1.095953369140625,-0.32642123103141785,0.6192293763160706,0.20156064629554749
1726995914193940700,1.105940673828125,-0.3638533055782318,0.5653043389320374,0.251319944858551
1726995914203926500,1.115926513671875,-0.35789403319358826,0.5274448990821838,0.2821143865585327
1726995914213913600,1.12591357421875,-0.3548002243041992,0.47190868854522705,0.30989593267440796
1726995914223900700,1.135900634765625,-0.33534255623817444,0.4143754243850708,0.3557972013950348
1726995914233886700,1.14588671875,-0.30570822954177856,0.3759390711784363,0.40320679545402527
1726995914243873500,1.15587353515625,-0.22327920794487,0.3508160412311554,0.44298499822616577
1726995914253859600,1.165859619140625,-0.15797875821590424,0.30813780426979065,0.4859481751918793
1726995914263846700,1.1758466796875,-0.13820670545101166,0.30693426728248596,0.536998987197876
1726995914273833500,1.18583349609375,-0.12876152992248535,0.3001821041107178,0.5697713494300842
1726995914283819800,1.19581982421875,-0.07390352338552475,0.282837837934494,0.5858297944068909
1726995914293806600,1.205806640625,-0.005422468297183514,0.30379238724708557,0.5445539951324463
1726995914303792600,1.215792724609375,0.0701107382774353,0.33175134658813477,0.4786511957645416
1726995914313779700,1.22577978515625,0.15457049012184143,0.3345077335834503,0.41126468777656555
1726995914323766800,1.235766845703125,0.24782513082027435,0.3545283079147339,0.3320082128047943
1726995914333752600,1.245752685546875,0.33792996406555176,0.3478730618953705,0.2397909164428711
1726995914343739400,1.255739501953125,0.39325469732284546,0.31217604875564575,0.14612996578216553
1726995914353725700,1.2657255859375,0.4211382567882538,0.2694387137889862,0.03921337053179741
1726995914363712500,1.27571240234375,0.39820700883865356,0.19244825839996338,-0.06289176642894745
1726995914373699600,1.285699462890625,0.34453925490379333,0.07816270738840103,-0.15480171144008636
1726995914383685600,1.295685546875,0.2625770568847656,-0.004667546600103378,-0.2489522397518158
1726995914393672700,1.305672607421875,0.19210529327392578,-0.006038541905581951,-0.32735222578048706
1726995914403658800,1.31565869140625,0.195669025182724,0.06584586203098297,-0.36167818307876587
1726995914413645600,1.3256455078125,0.27997833490371704,0.14614123106002808,-0.3517983555793762
1726995914423632600,1.335632568359375,0.4029792249202728,0.1797863245010376,-0.3457537591457367
1726995914433618400,1.345618408203125,0.48492151498794556,0.19625318050384521,-0.3382207453250885
1726995914443605800,1.355605712890625,0.5069552063941956,0.18831267952919006,-0.3276679813861847
1726995914453591600,1.365591552734375,0.5105515718460083,0.22689442336559296,-0.2829902470111847
1726995914463578600,1.37557861328125,0.5225639939308167,0.3125876188278198,-0.21803347766399384
1726995914473565700,1.385565673828125,0.5235965251922607,0.43192094564437866,-0.14351265132427216
1726995914483551500,1.395551513671875,0.5318154096603394,0.5422242283821106,-0.023877641186118126
1726995914493538600,1.40553857421875,0.5858154892921448,0.689755916595459,0.09909515082836151
1726995914503524600,1.415524658203125,0.6616821885108948,0.9219604134559631,0.20195795595645905
1726995914513511700,1.42551171875,0.7685787677764893,1.193799376487732,0.3033143877983093
1726995914523498500,1.43549853515625,0.8789783716201782,1.5007641315460205,0.4009029269218445
1726995914533484800,1.44548486328125,1.0049091577529907,1.7950987815856934,0.4628792107105255
1726995914543471600,1.4554716796875,1.1216473579406738,2.019068956375122,0.5154187679290771
1726995914553457400,1.46545751953125,1.2080589532852173,2.0859551429748535,0.5396985411643982
1726995914563444700,1.47544482421875,1.2560008764266968,2.0672314167022705,0.5641308426856995
1726995914573431600,1.485431640625,1.2786513566970825,1.9531772136688232,0.5809572339057922
1726995914583417600,1.49541748046875,1.2623064517974854,1.7202600240707397,0.5869876146316528
1726995914593404400,1.505404296875,1.1695178747177124,1.4230759143829346,0.6021178364753723
1726995914603390700,1.515390625,1.087760329246521,1.0966116189956665,0.644814670085907
1726995914613377500,1.52537744140625,0.9136037230491638,0.7671926617622375,0.6614293456077576
1726995914623364600,1.535364501953125,0.6421926021575928,0.4155479371547699,0.6953312754631042
1726995914633350700,1.5453505859375,0.2722180485725403,-0.09955534338951111,0.76207435131073
1726995914643337500,1.55533740234375,-0.1681295782327652,-0.7577495574951172,0.8125364184379578
1726995914653323800,1.56532373046875,-0.570627748966217,-1.2386258840560913,0.7992610931396484
1726995914663310600,1.575310546875,-0.8111361861228943,-1.5058964490890503,0.7231119275093079
1726995914673296600,1.585296630859375,-0.910381019115448,-1.6276146173477173,0.6163839101791382
1726995914683283500,1.595283447265625,-0.8806867599487305,-1.587565302848816,0.5123795866966248
1726995914693270800,1.605270751953125,-0.7590183615684509,-1.547793984413147,0.41368234157562256
1726995914703256600,1.615256591796875,-0.5938029289245605,-1.5168180465698242,0.33638161420822144
1726995914713243600,1.62524365234375,-0.4577252268791199,-1.358042597770691,0.2648347318172455
1726995914723229700,1.635229736328125,-0.4316636621952057,-1.032663345336914,0.16134858131408691
1726995914733216500,1.645216552734375,-0.4740225672721863,-0.6815173029899597,0.039614420384168625
1726995914743203600,1.65520361328125,-0.5248342752456665,-0.41046085953712463,-0.0864669606089592
1726995914753189600,1.665189697265625,-0.5529687404632568,-0.25569313764572144,-0.20306813716888428
1726995914763176700,1.6751767578125,-0.5095502138137817,-0.19380204379558563,-0.29778236150741577
1726995914773162500,1.68516259765625,-0.4056214392185211,-0.10669351369142532,-0.4015441834926605
1726995914783149800,1.69514990234375,-0.2860325276851654,0.030291924253106117,-0.49483001232147217
1726995914793136600,1.70513671875,-0.21553544700145721,0.16430245339870453,-0.604654848575592
1726995914803122400,1.715122314453125,-0.18271447718143463,0.2615300118923187,-0.7505690455436707
1726995914813109800,1.72510986328125,-0.14505338668823242,0.29700756072998047,-0.9120184183120728
1726995914823095600,1.735095458984375,-0.10423613339662552,0.29183781147003174,-1.0671582221984863
1726995914833082600,1.74508251953125,-0.05568378046154976,0.23029987514019012,-1.192305326461792
1726995914843069400,1.7550693359375,-0.0035673840902745724,0.16000857949256897,-1.2821630239486694
1726995914853055700,1.7650556640625,0.03733929991722107,0.10427474230527878,-1.3314865827560425
1726995914863042600,1.77504248046875,0.04827537387609482,0.08574269711971283,-1.3139255046844482
1726995914873028600,1.785028564453125,0.07365477085113525,0.1128467544913292,-1.222793459892273
1726995914883015700,1.795015625,0.12987516820430756,0.12423469871282578,-1.0764635801315308
1726995914893002500,1.80500244140625,0.19408132135868073,0.11531364172697067,-0.9296165704727173
1726995914902988800,1.81498876953125,0.279369980096817,0.08398669213056564,-0.8171480298042297
1726995914912975600,1.8249755859375,0.36633843183517456,0.10452792048454285,-0.7507919073104858
1726995914922961700,1.834961669921875,0.39665487408638,0.18250787258148193,-0.7384328246116638
1726995914932948500,1.844948486328125,0.36492279171943665,0.1848493218421936,-0.708014726638794
1726995914942934500,1.8549345703125,0.2736365795135498,0.14174646139144897,-0.6729146242141724
1726995914952921600,1.864921630859375,0.15549315512180328,0.10518180578947067,-0.6297855377197266
1726995914962908400,1.874908447265625,0.046175166964530945,0.11619730293750763,-0.5840818285942078
1726995914972894700,1.884894775390625,0.011085090227425098,0.16695955395698547,-0.5913903117179871
1726995914982881500,1.894881591796875,-0.0649876743555069,0.19763682782649994,-0.6026408076286316
1726995914992867600,1.90486767578125,-0.15684807300567627,0.250476598739624,-0.5482792854309082
1726995915002854700,1.914854736328125,-0.23410068452358246,0.23689480125904083,-0.48523396253585815
1726995915012841700,1.924841796875,-0.2519289553165436,0.16678257286548615,-0.4272068738937378
1726995915022827500,1.93482763671875,-0.21071016788482666,0.06680063158273697,-0.3909279406070709
1726995915032814600,1.944814697265625,-0.14966492354869843,0.03295690938830376,-0.35628020763397217
1726995915042800600,1.954800537109375,-0.08227169513702393,0.08232854306697845,-0.3170379102230072
1726995915052787500,1.964787353515625,-0.017330780625343323,0.12099497765302658,-0.2949807941913605
1726995915062774800,1.97477490234375,0.03024118021130562,0.10489579290151596,-0.26800358295440674
1726995915072760600,1.984760498046875,0.0404655858874321,0.05584169551730156,-0.23734183609485626
1726995915082747600,1.99474755859375,0.05865517258644104,0.0840655192732811,-0.2112690508365631
1726995915092733700,2.004733642578125,0.09266347438097,0.13857324421405792,-0.17219889163970947
1726995915102720500,2.014720458984375,0.13749098777770996,0.14344263076782227,-0.10213930159807205
1726995915112706600,2.02470654296875,0.19588851928710938,0.11510394513607025,0.0009431429207324982
1726995915122693600,2.034693603515625,0.27286866307258606,0.08981368690729141,0.13310563564300537
1726995915132680700,2.0446806640625,0.33218711614608765,0.06596241891384125,0.28389328718185425
1726995915142666500,2.05466650390625,0.3398800492286682,0.018148349598050117,0.42576101422309875
1726995915152653800,2.06465380859375,0.25374943017959595,-0.07646683603525162,0.5445795655250549
1726995915162640100,2.07464013671875,0.09301526844501495,-0.18096545338630676,0.6334466338157654
1726995915172627000,2.084626953125,-0.08752547949552536,-0.2394958734512329,0.7106729745864868
1726995915182614000,2.094614013671875,-0.24930569529533386,-0.24308685958385468,0.766677737236023
1726995915192600000,2.10460009765625,-0.37785834074020386,-0.20424093306064606,0.7918887734413147
1726995915202587000,2.1145869140625,-0.44915246963500977,-0.11908204108476639,0.7632560729980469
1726995915212573000,2.124572998046875,-0.49197983741760254,-0.02209051325917244,0.6617296934127808
1726995915222560000,2.13456005859375,-0.5202590227127075,0.013766646385192871,0.5261842608451843
1726995915232547000,2.144547119140625,-0.5234689712524414,0.023187313228845596,0.3719419538974762
1726995915242532900,2.154532958984375,-0.5305014252662659,0.017715729773044586,0.22959454357624054
1726995915252520200,2.164520263671875,-0.5668202638626099,0.00943463109433651,0.12657895684242249
1726995915262506000,2.174506103515625,-0.613116443157196,0.02955589070916176,0.07354451715946198
1726995915272492800,2.184492919921875,-0.6699932813644409,0.14371362328529358,0.015450590290129185
1726995915282480000,2.194480224609375,-0.7210842370986938,0.2533474862575531,-0.028313374146819115
1726995915292466000,2.2044658203125,-0.737144410610199,0.3728744089603424,-0.08206608891487122
1726995915302453000,2.214452880859375,-0.7071614265441895,0.4697047472000122,-0.12914229929447174
1726995915312439000,2.22443896484375,-0.6239240765571594,0.5216028094291687,-0.17267246544361115
1726995915322426000,2.234426025390625,-0.5033980011940002,0.5641769170761108,-0.2016831487417221
1726995915332413000,2.244412841796875,-0.34934771060943604,0.6060745716094971,-0.2130599170923233
1726995915342399000,2.25439892578125,-0.17083552479743958,0.5837006568908691,-0.2143426090478897
1726995915352386000,2.264385986328125,-0.0067941234447062016,0.4636591970920563,-0.19519448280334473
1726995915362371800,2.274371826171875,0.1235494613647461,0.3164439797401428,-0.20067843794822693
1726995915372359000,2.28435888671875,0.22390082478523254,0.20673902332782745,-0.22379733622074127
1726995915382345000,2.294344970703125,0.2660459280014038,0.08040209859609604,-0.23058736324310303
1726995915392332000,2.30433203125,0.24226921796798706,-0.10298051685094833,-0.2160041630268097
1726995915402318800,2.31431884765625,0.19283971190452576,-0.2895691990852356,-0.1597418338060379
1726995915412305000,2.324304931640625,0.15737652778625488,-0.44356754422187805,-0.0919359028339386
1726995915422292000,2.3342919921875,0.12779965996742249,-0.477683424949646,0.001999933272600174
1726995915432278000,2.344278076171875,0.09091459959745407,-0.382337749004364,0.11936171352863312
1726995915442265000,2.35426513671875,0.054577745497226715,-0.2392822653055191,0.20618216693401337
1726995915452252000,2.364251953125,0.04950761795043945,-0.139764204621315,0.27630186080932617
1726995915462238000,2.374238037109375,0.016637712717056274,-0.08251295238733292,0.2894897758960724
1726995915472225000,2.38422509765625,-0.05927995592355728,-0.12159057706594467,0.21309193968772888
1726995915482210800,2.3942109375,-0.14189815521240234,-0.17946971952915192,0.11763932555913925
1726995915492198000,2.404197998046875,-0.21095605194568634,-0.15513640642166138,-0.0377286933362484
1726995915502185000,2.41418505859375,-0.2569744884967804,-0.09048843383789062,-0.20040759444236755
1726995915512171000,2.4241708984375,-0.27670052647590637,-0.01811223477125168,-0.31893211603164673
1726995915522157800,2.43415771484375,-0.2903006970882416,0.09660916775465012,-0.38247179985046387
1726995915532144000,2.44414404296875,-0.3201723098754883,0.1944158971309662,-0.38567104935646057
1726995915542131000,2.454130859375,-0.33831363916397095,0.3529664874076843,-0.3557114899158478
1726995915552118000,2.464117919921875,-0.325684130191803,0.5130882263183594,-0.30510130524635315
1726995915562104000,2.47410400390625,-0.2680821120738983,0.585563600063324,-0.20258758962154388
1726995915572091000,2.4840908203125,-0.17554767429828644,0.4924406111240387,-0.04069029539823532
1726995915582077000,2.494076904296875,-0.09312286227941513,0.16472172737121582,0.08308105915784836
1726995915592064000,2.50406396484375,-0.011366479098796844,-0.2403956800699234,0.1239352822303772
1726995915602050000,2.514050048828125,0.04656541720032692,-0.5797750353813171,0.16430619359016418
1726995915612036900,2.524036865234375,0.04300263896584511,-0.8894607424736023,0.20021651685237885
1726995915622024000,2.53402392578125,-0.013647924177348614,-1.1843011379241943,0.2566220760345459
1726995915632010000,2.544010009765625,-0.06995673477649689,-1.4416970014572144,0.3126230239868164
1726995915641997000,2.5539970703125,-0.13130192458629608,-1.5864330530166626,0.3529636859893799
1726995915651983000,2.563983154296875,-0.18646317720413208,-1.593628168106079,0.4309631586074829
1726995915661970000,2.573969970703125,-0.15797442197799683,-1.4622005224227905,0.5419098138809204
1726995915671957000,2.58395703125,-0.07095430046319962,-1.190751552581787,0.6142106056213379
1726995915681943000,2.593943115234375,-0.07287528365850449,-0.8691512942314148,0.6696486473083496
1726995915691930000,2.60393017578125,-0.13964872062206268,-0.6307727694511414,0.7395824790000916
1726995915701916000,2.613916015625,-0.25313201546669006,-0.5650938153266907,0.7142720818519592
1726995915711903000,2.623903076171875,-0.31664973497390747,-0.5861218571662903,0.6517823934555054
1726995915721890000,2.63389013671875,-0.32733452320098877,-0.5796042680740356,0.6276360750198364
1726995915731875800,2.643875732421875,-0.2286154180765152,-0.5006252527236938,0.656438410282135
1726995915741863000,2.65386279296875,-0.03632047772407532,-0.378143846988678,0.6930153369903564
1726995915751849000,2.663848876953125,0.11521285027265549,-0.24229680001735687,0.6082413792610168
1726995915761836000,2.6738359375,0.17453618347644806,-0.19060330092906952,0.4470957815647125
1726995915771822000,2.683822021484375,0.17717403173446655,-0.10271074622869492,0.25621798634529114
1726995915781809200,2.69380908203125,0.1513240933418274,0.034634459763765335,0.05106736719608307
1726995915791796000,2.7037958984375,0.08010664582252502,0.29656779766082764,-0.13508252799510956
1726995915801782000,2.713781982421875,0.009781710803508759,0.6485806703567505,-0.2904982566833496
1726995915811769000,2.72376904296875,0.011699985712766647,0.9030011892318726,-0.440650999546051
1726995915821755000,2.7337548828125,0.09852363914251328,0.8784911036491394,-0.6342868208885193
1726995915831742000,2.743741943359375,0.2209067940711975,0.6639649271965027,-0.8273830413818359
1726995915841729000,2.75372900390625,0.342301607131958,0.45057597756385803,-0.9543551206588745
1726995915851715000,2.763715087890625,0.4236859679222107,0.3553280234336853,-0.968819797039032
1726995915861702000,2.773701904296875,0.4663885533809662,0.26779791712760925,-0.8576223850250244
1726995915871688000,2.78368798828125,0.4487970471382141,0.08553064614534378,-0.7203177809715271
1726995915881675000,2.793675048828125,0.3562268614768982,-0.12756630778312683,-0.5532982349395752
1726995915891661800,2.803661865234375,0.23479656875133514,-0.3105611503124237,-0.3614734411239624
1726995915901648100,2.813648193359375,0.12376531213521957,-0.40269315242767334,-0.1937302052974701
1726995915911635000,2.823635009765625,0.033760055899620056,-0.36659854650497437,-0.07412071526050568
1726995915921621000,2.83362109375,0.018709495663642883,-0.2546236515045166,0.05473405867815018
1726995915931608000,2.843608154296875,0.06334167718887329,-0.13706721365451813,0.18082009255886078
1726995915941595100,2.85359521484375,0.1055663526058197,-0.10245980322360992,0.2753816246986389
1726995915951581000,2.863580810546875,0.07056362926959991,-0.07137832045555115,0.3468230664730072
1726995915961568000,2.873568115234375,-0.038113221526145935,-0.01645253226161003,0.43513715267181396
1726995915971554000,2.883553955078125,-0.15820500254631042,-0.02203398570418358,0.46574753522872925
1726995915981540900,2.893540771484375,-0.181413933634758,-0.014394883997738361,0.4362025260925293
1726995915991527200,2.903527099609375,-0.15262356400489807,0.0005611621891148388,0.3349965512752533
1726995916001514000,2.913513916015625,-0.14688460528850555,0.025024397298693657,0.2602439522743225
1726995916011501000,2.9235009765625,-0.1596163660287857,0.02733388915657997,0.1946742832660675
1726995916021487000,2.933487060546875,-0.18703246116638184,-0.01574935019016266,0.14413635432720184
1726995916031474000,2.943473876953125,-0.22343334555625916,-0.04778291657567024,0.07263021171092987
1726995916041460000,2.9534599609375,-0.23944981396198273,-0.04254380613565445,-0.0410459004342556
1726995916051447000,2.963447021484375,-0.22787784039974213,-0.02420288510620594,-0.13670265674591064
1726995916061434000,2.97343408203125,-0.20183630287647247,0.0085653867572546,-0.21159957349300385
1726995916071420000,2.983419921875,-0.18396197259426117,0.09187998622655869,-0.2655719816684723
1726995916081407000,2.993406982421875,-0.16447021067142487,0.1800440400838852,-0.29942548274993896
1726995916091393000,3.00339306640625,-0.13284064829349518,0.24018594622612,-0.30983391404151917
1726995916101379800,3.0133798828125,-0.1019337847828865,0.25361335277557373,-0.27726292610168457
1726995916111367000,3.023366943359375,-0.05099763721227646,0.24738794565200806,-0.2179034799337387
1726995916121353000,3.03335302734375,-0.004773684777319431,0.21769803762435913,-0.14285999536514282
1726995916131340000,3.043340087890625,0.0395362563431263,0.1311706006526947,-0.05452428013086319
1726995916141325800,3.053325927734375,0.07908711582422256,0.02035156823694706,0.0281454436480999
1726995916151313200,3.063313232421875,0.11406693607568741,-0.10145529359579086,0.07127746939659119
1726995916161300000,3.073300048828125,0.1173667460680008,-0.2335239052772522,0.07757870107889175
1726995916171285800,3.08328564453125,0.10975223779678345,-0.33362868428230286,0.047199491411447525
1726995916181273000,3.093273193359375,0.11552715301513672,-0.3687642216682434,0.01671595498919487
1726995916191259000,3.1032587890625,0.1503908634185791,-0.372450590133667,-0.019059352576732635
1726995916201246000,3.113245849609375,0.165688157081604,-0.3362843692302704,-0.05782011151313782
1726995916211232000,3.12323193359375,0.13422158360481262,-0.2862206697463989,-0.09957794845104218
1726995916221219000,3.133218994140625,0.09691621363162994,-0.26724907755851746,-0.1049705520272255
1726995916231206000,3.143205810546875,0.0980997234582901,-0.24051840603351593,-0.07279370725154877
1726995916241192000,3.15319189453125,0.12024413794279099,-0.1852007955312729,-0.02902330458164215
1726995916251179000,3.163178955078125,0.14004181325435638,-0.19636103510856628,0.01250842772424221
1726995916261164800,3.173164794921875,0.13591186702251434,-0.1786373108625412,-0.026497194543480873
1726995916271152000,3.183152099609375,0.13211606442928314,-0.11461998522281647,-0.08699463307857513
1726995916281139000,3.193138916015625,0.11846648156642914,-0.03458598256111145,-0.15384113788604736
1726995916291125000,3.203125,0.09714335203170776,0.0762004554271698,-0.20798346400260925
1726995916301112000,3.213112060546875,0.02331092208623886,0.14951664209365845,-0.24850037693977356
1726995916311098000,3.22309814453125,-0.06435581296682358,0.14652670919895172,-0.2639866769313812
1726995916321085000,3.2330849609375,-0.11280779540538788,0.09824986010789871,-0.23473170399665833
1726995916331072000,3.243072021484375,-0.15114426612854004,0.0010700479615479708,-0.1519302874803543
1726995916341058000,3.25305810546875,-0.17701281607151031,-0.12407366186380386,-0.005633970256894827
1726995916351044900,3.263044921875,-0.17742399871349335,-0.20854832231998444,0.15333038568496704
1726995916361031200,3.27303125,-0.15858076512813568,-0.2519177496433258,0.28017154335975647
1726995916371018000,3.28301806640625,-0.13430684804916382,-0.24871984124183655,0.36116307973861694
1726995916381005000,3.293005126953125,-0.13930420577526093,-0.2441394031047821,0.39004752039909363
1726995916390990800,3.302990966796875,-0.1857428103685379,-0.2546074688434601,0.41581016778945923
1726995916400978200,3.312978271484375,-0.2542795240879059,-0.23142321407794952,0.46691715717315674
1726995916410964000,3.3229638671875,-0.31150153279304504,-0.19415253400802612,0.5414318442344666
1726995916420950800,3.33295068359375,-0.3399445712566376,-0.20227763056755066,0.6063615679740906
1726995916430938000,3.342938232421875,-0.34618890285491943,-0.24088414013385773,0.6332725286483765
1726995916440924000,3.352923828125,-0.33037567138671875,-0.28207269310951233,0.6199536919593811
1726995916450911000,3.362910888671875,-0.29837992787361145,-0.2952388525009155,0.5811506509780884
1726995916460897000,3.37289697265625,-0.25792640447616577,-0.2745319604873657,0.5307212471961975
1726995916470884000,3.382884033203125,-0.21145904064178467,-0.24840977787971497,0.4715964198112488
1726995916480870000,3.392869873046875,-0.15119564533233643,-0.2447289675474167,0.4100516736507416
1726995916490857000,3.40285693359375,-0.08265014737844467,-0.2525131106376648,0.33920037746429443
1726995916500844000,3.412843994140625,-0.02071821130812168,-0.2592178285121918,0.266875684261322
1726995916510829800,3.422829833984375,0.026542510837316513,-0.2994326055049896,0.1881454437971115
1726995916520817200,3.432817138671875,0.030887922272086143,-0.3114667236804962,0.1311502456665039
1726995916530803000,3.442802978515625,-0.030707797035574913,-0.22960567474365234,0.06588255614042282
1726995916540790000,3.4527900390625,-0.1144811287522316,-0.06607738882303238,0.010921911336481571
1726995916550776800,3.46277685546875,-0.15465117990970612,-0.023398635908961296,-0.04508543014526367
1726995916560763000,3.472762939453125,-0.1535739302635193,-0.014080662280321121,-0.11103929579257965
1726995916570750000,3.48275,-0.10326068848371506,-0.021008342504501343,-0.1616675853729248
1726995916580736000,3.492736083984375,-0.04154233634471893,-0.018121128901839256,-0.20931120216846466
1726995916590723000,3.50272314453125,-0.0006769286701455712,-0.00942537747323513,-0.2203603833913803
1726995916600710000,3.5127099609375,0.044202785938978195,-0.018122291192412376,-0.2050912231206894
1726995916610696200,3.5226962890625,0.08547618985176086,-0.04353976622223854,-0.16911138594150543
1726995916620683000,3.53268310546875,0.1189434751868248,-0.0776614248752594,-0.11904735118150711
1726995916630668800,3.542668701171875,0.13250109553337097,-0.1130596250295639,-0.06865980476140976
1726995916640656000,3.55265576171875,0.12542305886745453,-0.12359609454870224,-0.0055817002430558205
1726995916650643000,3.562642822265625,0.11634354293346405,-0.11790518462657928,0.06265514343976974
1726995916660629000,3.57262890625,0.0977998673915863,-0.08874324709177017,0.11688221246004105
1726995916670615800,3.58261572265625,0.06414763629436493,-0.048979051411151886,0.14768806099891663
1726995916680602000,3.59260205078125,0.021161329001188278,-0.02163667604327202,0.17603206634521484
1726995916690589000,3.6025888671875,-0.03395465388894081,0.007665552664548159,0.19563186168670654
1726995916700576000,3.612575927734375,-0.08907356858253479,0.046565908938646317,0.2181258350610733
1726995916710562000,3.62256201171875,-0.1280374825000763,0.06345727294683456,0.22935053706169128
1726995916720548900,3.632548828125,-0.14224238693714142,0.059640415012836456,0.26950085163116455
1726995916730535000,3.642534912109375,-0.13315488398075104,0.06094349920749664,0.32579395174980164
1726995916740522000,3.65252197265625,-0.0889100730419159,0.0672791376709938,0.4038495421409607
1726995916750508000,3.662508056640625,0.009144855663180351,0.12479782104492188,0.4862610697746277
1726995916760494800,3.672494873046875,0.13564053177833557,0.2171962559223175,0.527533233165741
1726995916770482200,3.682482177734375,0.256136029958725,0.26876041293144226,0.5224663019180298
1726995916780468000,3.692468017578125,0.36421406269073486,0.24034377932548523,0.48952311277389526
1726995916790454800,3.702454833984375,0.43052464723587036,0.14163903892040253,0.44794318079948425
1726995916800441000,3.712441162109375,0.4671436846256256,-0.014772176742553711,0.4271582365036011
1726995916810428000,3.722427978515625,0.47333449125289917,-0.1665302813053131,0.43702471256256104
1726995916820415000,3.7324150390625,0.49476510286331177,-0.240620419383049,0.4788241684436798
1726995916830401000,3.742401123046875,0.5451928973197937,-0.20408610999584198,0.5491031408309937
1726995916840388000,3.75238818359375,0.5865439176559448,-0.15523144602775574,0.6445095539093018
1726995916850374000,3.762373779296875,0.6131941676139832,-0.09206978231668472,0.7550413608551025
1726995916860361200,3.772361328125,0.6213330030441284,-0.03736497834324837,0.8564908504486084
1726995916870348000,3.78234814453125,0.6200512051582336,-0.015855424106121063,0.948803186416626
1726995916880333800,3.792333740234375,0.6046646237373352,0.01828913390636444,0.9740601778030396
1726995916890321000,3.80232080078125,0.5684615969657898,0.016641702502965927,0.9261887669563293
1726995916900307000,3.812306884765625,0.5351660847663879,-0.006314828060567379,0.8433100581169128
1726995916910294000,3.8222939453125,0.49690020084381104,-0.03828367963433266,0.7651745080947876
1726995916920280000,3.832280029296875,0.45470142364501953,-0.07508423924446106,0.7174225449562073
1726995916930267100,3.84226708984375,0.40214207768440247,-0.10132436454296112,0.7036330103874207
1726995916940254000,3.85225390625,0.31701725721359253,-0.12382324784994125,0.7182707786560059
1726995916950240000,3.862239990234375,0.1917445808649063,-0.13892816007137299,0.7564256191253662
1726995916960227000,3.87222705078125,0.03816419839859009,-0.17146924138069153,0.7968192100524902
1726995916970212900,3.882212890625,-0.12296503037214279,-0.22197289764881134,0.8306309580802917
1726995916980200000,3.892199951171875,-0.27653589844703674,-0.24184933304786682,0.8572778701782227
1726995916990187000,3.90218701171875,-0.40507230162620544,-0.191663920879364,0.8452755212783813
1726995917000173000,3.912173095703125,-0.5064465403556824,-0.12464795261621475,0.819246232509613
1726995917010159900,3.922159912109375,-0.5694452524185181,-0.032252777367830276,0.7628148794174194
1726995917020146000,3.93214599609375,-0.5910348296165466,0.037958431988954544,0.667304277420044
1726995917030133000,3.942133056640625,-0.5520898699760437,0.13046333193778992,0.5263921618461609
1726995917040119800,3.952119873046875,-0.46540650725364685,0.22706973552703857,0.3402584493160248
1726995917050106000,3.962106201171875,-0.38207221031188965,0.3224034309387207,0.13270924985408783
1726995917060093000,3.972093017578125,-0.3527669906616211,0.3229447901248932,-0.048482149839401245
1726995917070079000,3.982078857421875,-0.37975013256073,0.23373182117938995,-0.18258962035179138
1726995917080066000,3.992066162109375,-0.4095887243747711,0.133255735039711,-0.2718413174152374
1726995917090053000,4.00205322265625,-0.40271830558776855,0.059422511607408524,-0.31531476974487305
1726995917100039000,4.012038818359375,-0.350894957780838,0.0043862503953278065,-0.35125723481178284
1726995917110026000,4.02202587890625,-0.27679169178009033,-0.07545717805624008,-0.4022711515426636
1726995917120012000,4.032011962890625,-0.19450117647647858,-0.1885891705751419,-0.45252665877342224
1726995917129998800,4.041998779296875,-0.10033553838729858,-0.2352469563484192,-0.4972264766693115
1726995917139986000,4.05198583984375,-0.0431264266371727,-0.1990646868944168,-0.5169455409049988
1726995917149972000,4.061971923828125,-0.03382480517029762,-0.13468436896800995,-0.5215674638748169
1726995917159958500,4.07195849609375,-0.056857530027627945,-0.064763143658638,-0.5016431212425232
1726995917169944600,4.081944580078125,-0.07946723699569702,0.025950517505407333,-0.5000551342964172
1726995917179931600,4.091931640625,-0.08932053297758102,0.11282876878976822,-0.5265529155731201
1726995917189917400,4.10191748046875,-0.07274182885885239,0.19253984093666077,-0.5549041032791138
1726995917199904800,4.11190478515625,-0.030848568305373192,0.24699102342128754,-0.5683342814445496
1726995917209891600,4.1218916015625,0.02970319241285324,0.2641361653804779,-0.5406507253646851
1726995917219877600,4.131877685546875,0.09743406623601913,0.24784442782402039,-0.4910614490509033
1726995917229864700,4.14186474609375,0.1490461230278015,0.18879468739032745,-0.4130995273590088
1726995917239850500,4.1518505859375,0.17195169627666473,0.14032292366027832,-0.3139624297618866
1726995917249837600,4.161837646484375,0.13418275117874146,0.08275070041418076,-0.2127828150987625
1726995917259824600,4.17182470703125,0.0549330972135067,0.017209380865097046,-0.1113995686173439
1726995917269810700,4.181810791015625,-0.042499981820583344,-0.021507123485207558,-0.03852057084441185
1726995917279797500,4.191797607421875,-0.13850551843643188,-0.019696753472089767,-0.002257686574012041
1726995917289783800,4.20178369140625,-0.22652378678321838,-0.015518252737820148,0.009267675690352917
1726995917299770600,4.2117705078125,-0.3041266202926636,0.007866967469453812,-0.0017405245453119278
1726995917309757700,4.2217578125,-0.3522432744503021,0.026720816269516945,-0.0324515663087368
1726995917319743700,4.23174365234375,-0.35615453124046326,0.02666481025516987,-0.0626998245716095
1726995917329730600,4.24173046875,-0.33668842911720276,0.0160896647721529,-0.10465366393327713
1726995917339716600,4.251716552734375,-0.31416553258895874,-0.01959536224603653,-0.14116880297660828
1726995917349703400,4.261703369140625,-0.3179842531681061,-0.03490374609827995,-0.13993202149868011
1726995917359689700,4.271689697265625,-0.3322448134422302,-0.04840979725122452,-0.12791192531585693
1726995917369676500,4.281676513671875,-0.327475368976593,-0.05101516842842102,-0.10132665187120438
1726995917379663600,4.29166357421875,-0.29775193333625793,-0.03033418580889702,-0.055584535002708435
1726995917389649700,4.301649658203125,-0.26563555002212524,-0.007985204458236694,-0.021384485065937042
1726995917399636500,4.311636474609375,-0.24406395852565765,0.004836370702832937,0.004564317408949137
1726995917409622800,4.321622802734375,-0.244388610124588,0.039016179740428925,0.031322162598371506
1726995917419609600,4.331609619140625,-0.26647114753723145,0.08116580545902252,0.06649806350469589
1726995917429596700,4.3415966796875,-0.2802407741546631,0.11001742631196976,0.08457480370998383
1726995917439582500,4.35158251953125,-0.2987779378890991,0.09001225978136063,0.06775931268930435
1726995917449569800,4.36156982421875,-0.3148075044155121,0.027679113671183586,0.022948963567614555
1726995917459555600,4.3715556640625,-0.30205464363098145,-0.052724678069353104,-0.04676302894949913
1726995917469542400,4.38154248046875,-0.26357516646385193,-0.09328728169202805,-0.14828592538833618
1726995917479529700,4.39152978515625,-0.20587240159511566,-0.10748221725225449,-0.2683042585849762
1726995917489515500,4.401515625,-0.11876892298460007,-0.06352301687002182,-0.39253032207489014
1726995917499502600,4.411502685546875,-0.036725182086229324,0.011462013237178326,-0.5203242301940918
1726995917509488600,4.421488525390625,0.04440721869468689,0.07646684348583221,-0.6401914954185486
1726995917519475700,4.431475830078125,0.12876302003860474,0.12875232100486755,-0.747126042842865
1726995917529462500,4.441462646484375,0.18904393911361694,0.22926267981529236,-0.8165144324302673
1726995917539448600,4.451448486328125,0.2129817008972168,0.3643719553947449,-0.8360925316810608
1726995917549435600,4.461435546875,0.20402149856090546,0.47096070647239685,-0.8030903339385986
1726995917559421400,4.47142138671875,0.1828804463148117,0.48222407698631287,-0.7464792132377625
1726995917569408800,4.48140869140625,0.16139325499534607,0.4807499945163727,-0.6978211402893066
1726995917579395600,4.4913955078125,0.14206446707248688,0.4511024057865143,-0.6628026366233826
1726995917589381600,4.501381591796875,0.11818310618400574,0.3891109228134155,-0.6265642046928406
1726995917599368400,4.511368408203125,0.09982447326183319,0.29422616958618164,-0.6069015860557556
1726995917609354500,4.5213544921875,0.08703624457120895,0.26007193326950073,-0.6046429872512817
1726995917619341600,4.531341552734375,0.10005490481853485,0.3085326552391052,-0.6146154999732971
1726995917629328400,4.541328369140625,0.13716818392276764,0.3589351177215576,-0.6490262150764465
1726995917639314700,4.551314697265625,0.18581421673297882,0.4034975469112396,-0.6940879225730896
1726995917649301500,4.561301513671875,0.24248336255550385,0.4433160424232483,-0.7047509551048279
1726995917659287800,4.571287841796875,0.2972234785556793,0.43741437792778015,-0.6706721782684326
1726995917669274600,4.581274658203125,0.3478105068206787,0.36651304364204407,-0.6365565657615662
1726995917679261700,4.59126171875,0.3930972218513489,0.2806035280227661,-0.6040728688240051
1726995917689247500,4.60124755859375,0.4440549314022064,0.2016831487417221,-0.5790777802467346
1726995917699234800,4.61123486328125,0.4957299828529358,0.08273883908987045,-0.548934817314148
1726995917709220600,4.621220703125,0.5022408962249756,-0.04562685638666153,-0.5113261938095093
1726995917719207400,4.63120751953125,0.4929935932159424,-0.14593152701854706,-0.4900527596473694
1726995917729194800,4.64119482421875,0.4697905480861664,-0.2129473090171814,-0.48105713725090027
1726995917739180500,4.6511806640625,0.43168991804122925,-0.3145639896392822,-0.4158305525779724
1726995917749167600,4.661167724609375,0.3807329833507538,-0.37334954738616943,-0.3777388334274292
1726995917759153700,4.671153564453125,0.3184664249420166,-0.34394028782844543,-0.31880253553390503
1726995917769140700,4.681140625,0.2763251066207886,-0.2562980651855469,-0.2890230715274811
1726995917779126500,4.69112646484375,0.23140232264995575,-0.14536482095718384,-0.2623975872993469
1726995917789113600,4.701113525390625,0.20735478401184082,-0.021456459537148476,-0.24323585629463196
1726995917799100700,4.7111005859375,0.21961785852909088,0.06334946304559708,-0.253879189491272
1726995917809086500,4.72108642578125,0.2508316934108734,0.022121598944067955,-0.2560214400291443
1726995917819073800,4.73107373046875,0.27902716398239136,-0.07896695286035538,-0.2512323260307312
1726995917829059600,4.7410595703125,0.2673042118549347,-0.1585850864648819,-0.2345268279314041
1726995917839046700,4.751046630859375,0.23654481768608093,-0.2313992977142334,-0.2189350128173828
1726995917849033500,4.761033447265625,0.205662801861763,-0.31322306394577026,-0.21403905749320984
1726995917859019500,4.77101953125,0.17494653165340424,-0.3947589695453644,-0.21702717244625092
1726995917869006600,4.781006591796875,0.1440458744764328,-0.47634944319725037,-0.24810387194156647
1726995917878992600,4.79099267578125,0.1336178183555603,-0.4959605038166046,-0.3058047294616699
1726995917888979700,4.800979736328125,0.14956535398960114,-0.4393464922904968,-0.3770003616809845
1726995917898966500,4.810966552734375,0.17175954580307007,-0.35622408986091614,-0.4522380828857422
1726995917908952800,4.820952880859375,0.19997519254684448,-0.26664999127388,-0.5026211142539978
1726995917918939600,4.830939697265625,0.25223788619041443,-0.15413907170295715,-0.5516156554222107
1726995917928925400,4.840925537109375,0.3200315833091736,-0.05346304923295975,-0.5842537879943848
1726995917938912500,4.85091259765625,0.3851108253002167,0.04471007362008095,-0.6177007555961609
1726995917948899600,4.860899658203125,0.4245501160621643,0.11202919483184814,-0.6396979093551636
1726995917958885600,4.8708857421875,0.4266602396965027,0.17146623134613037,-0.6561391353607178
1726995917968872400,4.88087255859375,0.4083462059497833,0.21009857952594757,-0.6577783226966858
1726995917978858800,4.890858642578125,0.3566366136074066,0.19034036993980408,-0.6244075894355774
1726995917988845600,4.900845458984375,0.3085545599460602,0.17263780534267426,-0.5620205998420715
1726995917998832600,4.91083251953125,0.26555001735687256,0.19117702543735504,-0.5013152360916138
1726995918008818700,4.920818603515625,0.24463538825511932,0.17315036058425903,-0.4018552601337433
1726995918018805500,4.930805419921875,0.18562686443328857,0.2513105869293213,-0.3038347661495209
1726995918028791600,4.94079150390625,0.15859711170196533,0.3975716531276703,-0.1923772245645523
1726995918038778600,4.950778564453125,0.15712782740592957,0.4985228180885315,-0.08841591328382492
1726995918048765700,4.960765625,0.18444280326366425,0.4601821005344391,0.020791269838809967
1726995918058751500,4.97075146484375,0.23728209733963013,0.4045940041542053,0.10329742729663849
1726995918068738800,4.98073876953125,0.2844376266002655,0.35223624110221863,0.14791204035282135
1726995918078724600,4.990724609375,0.30839037895202637,0.3394377529621124,0.152202770113945
1726995918088711400,5.00071142578125,0.33015188574790955,0.41708940267562866,0.15253247320652008
1726995918098698500,5.010698486328125,0.38842007517814636,0.5684592723846436,0.1365291029214859
1726995918108684500,5.0206845703125,0.4596460461616516,0.7050269842147827,0.1271422654390335
1726995918118671600,5.030671630859375,0.5107956528663635,0.7549766302108765,0.10452982038259506
1726995918128657700,5.04065771484375,0.5656953454017639,0.7557452321052551,0.05992986261844635
1726995918138644700,5.050644775390625,0.6332966685295105,0.7993828058242798,0.0008346561808139086
1726995918148631600,5.060631591796875,0.6848083138465881,0.8611505627632141,-0.049923595041036606
1726995918158618000,5.0706181640625,0.7116814255714417,0.8801173567771912,-0.06859845668077469
1726995918168605400,5.08060546875,0.6870099306106567,0.7699876427650452,-0.07752776890993118
1726995918178591200,5.09059130859375,0.6628321409225464,0.627552330493927,-0.06286507844924927
1726995918188578000,5.100578125,0.6596499085426331,0.47351136803627014,-0.04273584485054016
1726995918198565000,5.110565185546875,0.680927574634552,0.26227059960365295,-0.02563132904469967
1726995918208551200,5.12055126953125,0.7446306943893433,0.04172038286924362,-0.020980117842555046
1726995918218538200,5.130538330078125,0.8071479797363281,-0.08314839005470276,-0.03972458094358444
1726995918228524300,5.140524169921875,0.8539698123931885,-0.07165765017271042,-0.0796714648604393
1726995918238511400,5.150511474609375,0.879988968372345,-0.04253523424267769,-0.12404270470142365
1726995918248498200,5.160498291015625,0.8308017253875732,-0.03562140092253685,-0.15096940100193024
1726995918258484200,5.170484130859375,0.7354336977005005,-0.1344812661409378,-0.05386080965399742
1726995918268471300,5.18047119140625,0.6028817296028137,-0.39067763090133667,0.10147152841091156
1726995918278457000,5.19045703125,0.4819351136684418,-0.6937906742095947,0.25386717915534973
1726995918288444200,5.200444091796875,0.3643059730529785,-0.9053231477737427,0.347921758890152
1726995918298431200,5.21043115234375,0.2557288706302643,-0.9656525254249573,0.3835090696811676
1726995918308417300,5.220417236328125,0.1637541949748993,-0.9124050140380859,0.3878431022167206
1726995918318404000,5.230404052734375,0.08044295758008957,-0.7980591654777527,0.37947043776512146
1726995918328390100,5.24039013671875,0.016865845769643784,-0.6725910305976868,0.38714540004730225
1726995918338377200,5.250377197265625,-0.004487141966819763,-0.5900047421455383,0.40060049295425415
1726995918348364000,5.260364013671875,0.011044413782656193,-0.5102353692054749,0.3915707767009735
1726995918358350300,5.270350341796875,0.04439251869916916,-0.4013741910457611,0.34413427114486694
1726995918368337200,5.280337158203125,0.07707882672548294,-0.24458082020282745,0.2801760733127594
1726995918378323200,5.2903232421875,0.07717360556125641,-0.08156950026750565,0.23040933907032013
1726995918388310300,5.300310302734375,0.04132851958274841,0.002459889743477106,0.194894477725029
1726995918398297300,5.31029736328125,-0.04021661356091499,-0.010088836774230003,0.1659279316663742
1726995918408283100,5.320283203125,-0.15464065968990326,-0.03264900669455528,0.14404232800006866
1726995918418270200,5.330270263671875,-0.2945835292339325,0.00016923935618251562,0.11093799024820328
1726995918428256300,5.34025634765625,-0.4509028494358063,0.06647742539644241,0.08965906500816345
1726995918438243000,5.3502431640625,-0.6207104921340942,0.17394942045211792,0.09468643367290497
1726995918448230100,5.360230224609375,-0.779492199420929,0.2874373495578766,0.10983556509017944
1726995918458216200,5.37021630859375,-0.9156029224395752,0.41816285252571106,0.12331648170948029
1726995918468203300,5.380203369140625,-1.0136641263961792,0.5631951689720154,0.12685449421405792
1726995918478189300,5.390189208984375,-1.0486775636672974,0.680130124092102,0.07816695421934128
1726995918488176400,5.40017626953125,-1.0137025117874146,0.7100265026092529,-0.038475774228572845
1726995918498163200,5.4101630859375,-0.9398583173751831,0.5758439898490906,-0.20530018210411072
1726995918508149200,5.420149169921875,-0.8255043029785156,0.30823513865470886,-0.4113108813762665
1726995918518136300,5.43013623046875,-0.6495338082313538,-0.09560835361480713,-0.6115143895149231
1726995918528122000,5.4401220703125,-0.4831661283969879,-0.5461409091949463,-0.7224582433700562
1726995918538109200,5.450109130859375,-0.38327106833457947,-0.7963140606880188,-0.7672111392021179
1726995918548096300,5.46009619140625,-0.39036306738853455,-0.7142607569694519,-0.8099703192710876
1726995918558082300,5.470082275390625,-0.44860976934432983,-0.5239419937133789,-0.8285557627677917
1726995918568069000,5.480069091796875,-0.496902734041214,-0.3568723499774933,-0.8081780672073364
1726995918578055200,5.49005517578125,-0.48429420590400696,-0.1796577423810959,-0.8175402879714966
1726995918588042200,5.500042236328125,-0.42232272028923035,-0.1032646894454956,-0.8300768733024597
1726995918598029000,5.510029052734375,-0.33563438057899475,-0.06927277892827988,-0.8117957711219788
1726995918608015400,5.520015380859375,-0.23077961802482605,-0.03938545286655426,-0.7609562873840332
1726995918618002200,5.530002197265625,-0.13336142897605896,-0.007738297339528799,-0.6882426738739014
1726995918627988200,5.53998828125,-0.05936816334724426,0.023503778502345085,-0.6204151511192322
1726995918637975300,5.549975341796875,-0.012915527448058128,0.05673682689666748,-0.5688453912734985
1726995918647962400,5.55996240234375,0.013116339221596718,0.09630446881055832,-0.5371676087379456
1726995918657948200,5.5699482421875,0.016792206093668938,0.09642741084098816,-0.5369964838027954
1726995918667935200,5.579935302734375,-0.01352149061858654,0.08792926371097565,-0.5721659064292908
1726995918677921300,5.58992138671875,-0.04544810205698013,0.035366546362638474,-0.6245811581611633
1726995918687908000,5.599908203125,-0.04758129268884659,-0.017458586022257805,-0.6852788329124451
1726995918697895200,5.609895263671875,-0.04329482093453407,-0.021879788488149643,-0.7319931387901306
1726995918707881200,5.619881103515625,-0.05320896953344345,0.013290448114275932,-0.7316557168960571
1726995918717868300,5.629868408203125,-0.04113605245947838,0.027152739465236664,-0.6980047821998596
1726995918727854300,5.639854248046875,-0.02615257352590561,0.0004449620028026402,-0.6344454884529114
1726995918737841200,5.649841064453125,-0.01556098647415638,-0.038603734225034714,-0.518025279045105
1726995918747828200,5.659828125,-0.05423913896083832,-0.08272405713796616,-0.3605480492115021
1726995918757814300,5.669814208984375,-0.12371248006820679,-0.12576276063919067,-0.19141188263893127
1726995918767801300,5.67980126953125,-0.18141570687294006,-0.20887841284275055,-0.03770461678504944
1726995918777787100,5.689787109375,-0.2154984325170517,-0.27817872166633606,0.08919892460107803
1726995918787774200,5.699774169921875,-0.225061297416687,-0.27552860975265503,0.21176744997501373
1726995918797761300,5.70976123046875,-0.2159072607755661,-0.16588234901428223,0.33337950706481934
1726995918807747000,5.7197470703125,-0.19320781528949738,-0.04115080088376999,0.4217029809951782
1726995918817734100,5.729734130859375,-0.17391271889209747,0.027680054306983948,0.4506860673427582
1726995918827720200,5.73972021484375,-0.17118990421295166,0.08309298008680344,0.4266127049922943
1726995918837707300,5.749707275390625,-0.17716531455516815,0.10293477028608322,0.3745501935482025
1726995918847694000,5.759694091796875,-0.18480566143989563,0.08293203264474869,0.3406529724597931
1726995918857680400,5.769680419921875,-0.20120729506015778,0.0691194236278534,0.2930901050567627
1726995918867667200,5.779667236328125,-0.22413098812103271,0.06522534787654877,0.24716255068778992
1726995918877653200,5.7896533203125,-0.24464218318462372,0.06999338418245316,0.18371877074241638
1726995918887640300,5.799640380859375,-0.20642422139644623,0.07173562794923782,0.10111869871616364
1726995918897627100,5.809627197265625,-0.12805050611495972,0.12457109242677689,0.02340760827064514
1726995918907613200,5.81961328125,-0.03147096559405327,0.182219460606575,-0.01162174716591835
1726995918917600300,5.829600341796875,0.04653896763920784,0.1721007227897644,-0.009881947189569473
1726995918927586300,5.83958642578125,0.08388234674930573,0.10597524046897888,0.011296574026346207
1726995918937573000,5.849572998046875,0.10285544395446777,0.024855906143784523,0.030845802277326584
1726995918947560200,5.859560302734375,0.12362463772296906,-0.06919015944004059,0.025384990498423576
1726995918957546200,5.869546142578125,0.14927710592746735,-0.1200079619884491,0.03230530023574829
1726995918967533000,5.879532958984375,0.18634271621704102,-0.12428180128335953,0.05506707355380058
1726995918977519400,5.889519287109375,0.21701835095882416,-0.1239679679274559,0.08736681193113327
1726995918987506200,5.899506103515625,0.23543623089790344,-0.16194197535514832,0.1260572224855423
1726995918997493200,5.9094931640625,0.24513205885887146,-0.22286075353622437,0.16690129041671753
1726995919007479300,5.919479248046875,0.25563767552375793,-0.25347086787223816,0.19784189760684967
1726995919017466400,5.92946630859375,0.24345763027668,-0.2941369116306305,0.22591713070869446
1726995919027452200,5.9394521484375,0.22625015676021576,-0.3520958125591278,0.23641690611839294
1726995919037439200,5.949439208984375,0.21525828540325165,-0.40893444418907166,0.2263486683368683
1726995919047426300,5.95942626953125,0.20351773500442505,-0.43709442019462585,0.1949145793914795
1726995919057412000,5.969412109375,0.1920936405658722,-0.41382139921188354,0.14083585143089294
1726995919067399200,5.979399169921875,0.18738117814064026,-0.3673180937767029,0.07420489937067032
1726995919077385200,5.98938525390625,0.1752912402153015,-0.2605248987674713,0.010112865827977657
1726995919087372300,5.999372314453125,0.166777104139328,-0.1583189070224762,-0.04841222986578941
1726995919097359000,6.009359130859375,0.15018564462661743,-0.07310321927070618,-0.0926501452922821
1726995919107345400,6.019345458984375,0.12591439485549927,-0.012582885101437569,-0.10130754858255386
1726995919117332200,6.029332275390625,0.08542285859584808,0.0009688536520116031,-0.09148606657981873
1726995919127318000,6.039318115234375,0.03748835250735283,0.012941360473632812,-0.027864478528499603
1726995919137305300,6.049305419921875,0.0027116339188069105,0.04523799195885658,0.040763501077890396
1726995919147292200,6.059292236328125,0.014583206735551357,0.09633419662714005,0.11995445936918259
1726995919157278500,6.069278564453125,0.039601221680641174,0.16034018993377686,0.19372014701366425
1726995919167265500,6.079265625,0.05661003291606903,0.2017643302679062,0.28139728307724
1726995919177251600,6.08925146484375,0.07826291769742966,0.2175174504518509,0.34386059641838074
1726995919187238400,6.09923828125,0.10303511470556259,0.23361198604106903,0.36998969316482544
1726995919197225500,6.1092255859375,0.12369707971811295,0.24273993074893951,0.3936308026313782
1726995919207211500,6.11921142578125,0.13868267834186554,0.2336215376853943,0.4009201228618622
1726995919217198300,6.1291982421875,0.18454724550247192,0.2693890333175659,0.4110294282436371
1726995919227184600,6.1391845703125,0.2566035985946655,0.46615108847618103,0.39537376165390015
1726995919237171500,6.14917138671875,0.346627414226532,0.6712474822998047,0.3845788240432739
1726995919247158500,6.159158447265625,0.43022456765174866,0.8196976780891418,0.34584954380989075
1726995919257144600,6.16914453125,0.5060673356056213,0.8225236535072327,0.31638315320014954
1726995919267131600,6.179131591796875,0.558398425579071,0.7448054552078247,0.28436902165412903
1726995919277117400,6.189117431640625,0.6283586025238037,0.6424174308776855,0.2682144343852997
1726995919287104300,6.199104248046875,0.718363344669342,0.5987386107444763,0.23059462010860443
1726995919297091600,6.209091552734375,0.7761818766593933,0.6170229911804199,0.1883474439382553
1726995919307077400,6.219077392578125,0.8511652946472168,0.6962690949440002,0.12736929953098297
1726995919317064400,6.229064453125,0.9017587304115295,0.6650007367134094,0.04111257195472717
1726995919327050500,6.239050537109375,0.941546618938446,0.5252207517623901,-0.029332835227251053
1726995919337037600,6.24903759765625,0.9501824975013733,0.3659808933734894,-0.0423278734087944
1726995919347024400,6.2590244140625,0.919576108455658,0.11752288788557053,-0.036975983530282974
1726995919357010400,6.269010498046875,0.8380406498908997,-0.18222832679748535,0.046357594430446625
1726995919366997500,6.27899755859375,0.7086703777313232,-0.48224779963493347,0.20625777542591095
1726995919376983300,6.2889833984375,0.5527526140213013,-0.7491550445556641,0.39642322063446045
1726995919386970600,6.298970703125,0.35624539852142334,-0.9373499751091003,0.5192695260047913
1726995919396957400,6.30895751953125,0.15915754437446594,-1.0505329370498657,0.5808877944946289
1726995919406943500,6.318943603515625,-0.05097145587205887,-1.0171371698379517,0.6404997110366821
1726995919416930600,6.3289306640625,-0.23377348482608795,-0.908523440361023,0.7011885046958923
1726995919426916600,6.33891650390625,-0.33981549739837646,-0.7414263486862183,0.7499802708625793
1726995919436903400,6.3489033203125,-0.3753533661365509,-0.550899863243103,0.7484225034713745
1726995919446889500,6.358889404296875,-0.38296228647232056,-0.3530224561691284,0.7182129621505737
1726995919456876500,6.36887646484375,-0.40283018350601196,-0.20583997666835785,0.6949113011360168
1726995919466863400,6.37886328125,-0.46690264344215393,-0.09382768720388412,0.7012216448783875
1726995919476849700,6.388849609375,-0.5746722221374512,-0.008186539635062218,0.7187380790710449
1726995919486836500,6.39883642578125,-0.7233303785324097,0.06513987481594086,0.7278119921684265
1726995919496822500,6.408822509765625,-0.8808200359344482,0.1418132781982422,0.7085087895393372
1726995919506809600,6.4188095703125,-1.0519975423812866,0.21961991488933563,0.6187642812728882
1726995919516796700,6.428796630859375,-1.2018789052963257,0.28554776310920715,0.46271148324012756
1726995919526782500,6.438782470703125,-1.2663719654083252,0.3226573169231415,0.2730448842048645
1726995919536769300,6.448769287109375,-1.2345216274261475,0.2586853504180908,0.0357501246035099
1726995919546756600,6.458756591796875,-1.0931354761123657,0.09007289260625839,-0.23475700616836548
1726995919556742400,6.468742431640625,-0.8771886229515076,-0.19735771417617798,-0.5052458643913269
1726995919566729500,6.4787294921875,-0.6927891969680786,-0.44713157415390015,-0.7291609644889832
1726995919576715500,6.488715576171875,-0.4985162615776062,-0.6585296988487244,-0.8771688938140869
1726995919586702600,6.49870263671875,-0.32107943296432495,-0.6077373623847961,-0.9883247017860413
1726995919596688400,6.5086884765625,-0.2440815418958664,-0.39388737082481384,-1.100852608680725
1726995919606675500,6.518675537109375,-0.20861463248729706,-0.22568053007125854,-1.122756838798523
1726995919616662500,6.52866259765625,-0.17588569223880768,-0.12033040076494217,-1.0864843130111694
1726995919626648300,6.5386484375,-0.14454934000968933,-0.06123459339141846,-1.0573681592941284
1726995919636635600,6.5486357421875,-0.10348664969205856,-0.04307101294398308,-1.0028828382492065
1726995919646621400,6.558621337890625,-0.051266852766275406,-0.033249273896217346,-0.9241307973861694
1726995919656608500,6.5686083984375,0.015597297810018063,-0.01209787093102932,-0.8512158393859863
1726995919666595600,6.578595703125,0.06519228219985962,0.0072912732139229774,-0.778323233127594
1726995919676581400,6.588581298828125,0.08615756779909134,0.016428418457508087,-0.7075240612030029
1726995919686568400,6.598568359375,0.07941071689128876,0.030733320862054825,-0.653204083442688
1726995919696554500,6.608554443359375,0.05976949632167816,0.051556121557950974,-0.6280931234359741
1726995919706541600,6.61854150390625,0.025744149461388588,0.05717725679278374,-0.603000283241272
1726995919716528400,6.6285283203125,-0.012884384021162987,0.05751781538128853,-0.5764895677566528
1726995919726514700,6.6385146484375,-0.033029865473508835,0.0652598887681961,-0.5620347261428833
1726995919736501500,6.64850146484375,-0.0718507245182991,0.060918111354112625,-0.5575196146965027
1726995919746487300,6.6584873046875,-0.11298244446516037,0.026636570692062378,-0.5259952545166016
1726995919756474400,6.668474365234375,-0.1407991498708725,0.05224180966615677,-0.4703810214996338
1726995919766461400,6.67846142578125,-0.15425583720207214,0.09900665283203125,-0.4029572308063507
1726995919776447500,6.688447509765625,-0.15516962110996246,0.06666461378335953,-0.3316054046154022
1726995919786434300,6.698434326171875,-0.16719591617584229,-0.0011139035923406482,-0.2576534152030945
1726995919796420600,6.708420654296875,-0.19510503113269806,-0.050571780651807785,-0.17830507457256317
1726995919806407400,6.718407470703125,-0.20714198052883148,-0.10569175332784653,-0.09980973601341248
1726995919816394500,6.72839453125,-0.20654818415641785,-0.15003199875354767,-0.0313027985394001
1726995919826380500,6.738380615234375,-0.20458650588989258,-0.16525302827358246,0.032938502728939056
1726995919836367400,6.748367431640625,-0.21004709601402283,-0.17321667075157166,0.07712090760469437
1726995919846353400,6.758353515625,-0.215170219540596,-0.11322522908449173,0.11065968871116638
1726995919856340500,6.768340576171875,-0.22341617941856384,0.012323098257184029,0.15245747566223145
1726995919866327600,6.77832763671875,-0.19830204546451569,0.09305816143751144,0.16179637610912323
1726995919876313300,6.788313232421875,-0.1640121191740036,0.08640166372060776,0.12333773821592331
1726995919886300700,6.79830078125,-0.14243225753307343,0.04181288927793503,0.0684414729475975
1726995919896286500,6.808286376953125,-0.0799049437046051,0.045180730521678925,0.014376634731888771
1726995919906273300,6.818273193359375,0.02835654281079769,0.10105704516172409,-0.019596777856349945
1726995919916260600,6.828260498046875,0.11833945661783218,0.14777019619941711,-0.02472950518131256
1726995919926246400,6.838246337890625,0.19676396250724792,0.15337347984313965,-0.01974007487297058
1726995919936233500,6.8482333984375,0.2383263260126114,0.15892936289310455,-0.01469152420759201
1726995919946219500,6.858219482421875,0.24807855486869812,0.1581767499446869,-0.00703067472204566
1726995919956206600,6.86820654296875,0.23084792494773865,0.13356810808181763,-0.004378168843686581
1726995919966193400,6.878193359375,0.1935223788022995,0.07106824219226837,0.014044513925909996
1726995919976179500,6.888179443359375,0.16151617467403412,-0.0023927688598632812,0.05590930953621864
1726995919986166500,6.89816650390625,0.14629806578159332,-0.10644513368606567,0.10328534990549088
1726995919996152300,6.90815234375,0.13499011099338531,-0.23322097957134247,0.1409439891576767
1726995920006139400,6.918139404296875,0.11361769586801529,-0.33036163449287415,0.17174239456653595
1726995920016126500,6.92812646484375,0.10226038098335266,-0.41927847266197205,0.21264082193374634
1726995920026112500,6.938112548828125,0.11343607306480408,-0.48714300990104675,0.2620781362056732
1726995920036099300,6.948099365234375,0.14705151319503784,-0.5511295199394226,0.30738428235054016
1726995920046085600,6.958085693359375,0.17657878994941711,-0.5907270312309265,0.3425710201263428
1726995920056072400,6.968072509765625,0.19104857742786407,-0.6096256375312805,0.3627825081348419
1726995920066059500,6.9780595703125,0.18591026961803436,-0.6058101058006287,0.36243417859077454
1726995920076045600,6.988045654296875,0.17844291031360626,-0.5667994618415833,0.34056171774864197
1726995920086032400,6.998032470703125,0.17948101460933685,-0.4591132402420044,0.3017994165420532
1726995920096018400,7.008018310546875,0.18689121305942535,-0.3526188135147095,0.24763444066047668
1726995920106005500,7.018005615234375,0.18920576572418213,-0.25654101371765137,0.18039894104003906
1726995920115991600,7.027991455078125,0.18359112739562988,-0.15575823187828064,0.11020995676517487
1726995920125978400,7.037978271484375,0.1699506789445877,-0.05463482066988945,0.04373772442340851
1726995920135965700,7.047965576171875,0.16584523022174835,0.022837704047560692,-0.02817258983850479
1726995920145951500,7.057951416015625,0.1770683228969574,0.08732482045888901,-0.09893597662448883
1726995920155937800,7.067937744140625,0.21205000579357147,0.14745739102363586,-0.16125927865505219
1726995920165923800,7.077923828125,0.259589284658432,0.19635489583015442,-0.20747549831867218
1726995920175910700,7.08791064453125,0.3133814036846161,0.26159101724624634,-0.2506324052810669
1726995920185897700,7.097897705078125,0.3740505874156952,0.37044641375541687,-0.2964009642601013
1726995920195883800,7.1078837890625,0.42827755212783813,0.477754145860672,-0.3420761525630951
1726995920205870800,7.117870849609375,0.46675437688827515,0.6109702587127686,-0.38394635915756226
1726995920215857000,7.12785693359375,0.47918662428855896,0.7135778069496155,-0.4294060468673706
1726995920225843700,7.13784375,0.5037809014320374,0.7762497067451477,-0.4595378637313843
1726995920235830800,7.147830810546875,0.5356353521347046,0.8813121318817139,-0.49421411752700806
1726995920245816800,7.15781689453125,0.582970142364502,1.1450635194778442,-0.4968906342983246
1726995920255804000,7.167803955078125,0.6443246603012085,1.3353415727615356,-0.46234503388404846
1726995920265789700,7.177789794921875,0.7122430205345154,1.3057016134262085,-0.41211754083633423
1726995920275776800,7.18777685546875,0.7872341275215149,1.177919626235962,-0.38834723830223083
1726995920285763800,7.197763916015625,0.9371885061264038,1.078383207321167,-0.3539187014102936
1726995920295749600,7.20774951171875,1.085911512374878,1.0168334245681763,-0.3180263638496399
1726995920305736700,7.21773681640625,1.0743871927261353,0.8484268188476562,-0.3156340718269348
1726995920315722800,7.22772265625,1.0427840948104858,0.7511687278747559,-0.31962111592292786
1726995920325709800,7.237709716796875,0.9617488384246826,0.7128497958183289,-0.33249589800834656
1726995920335696600,7.247696533203125,0.8269386887550354,0.58017897605896,-0.27162063121795654
1726995920345683000,7.257682861328125,0.6598386764526367,0.37120023369789124,-0.14139552414417267
1726995920355669800,7.267669677734375,0.4497438967227936,0.16891013085842133,0.026956651359796524
1726995920365655600,7.277655517578125,0.22349320352077484,-0.09306448698043823,0.22306837141513824
1726995920375643000,7.287642822265625,0.010327070020139217,-0.42966151237487793,0.4678457975387573
1726995920385629700,7.297629638671875,-0.15142641961574554,-0.8170307874679565,0.7122688293457031
1726995920395615700,7.30761572265625,-0.1995837539434433,-1.0864042043685913,0.8782796263694763
1726995920405602800,7.317602783203125,-0.1558583825826645,-0.9795978665351868,0.899836540222168
1726995920415588900,7.3275888671875,-0.0915515273809433,-0.6722628474235535,0.8652523756027222
1726995920425575700,7.33757568359375,-0.07536803185939789,-0.4635844826698303,0.8281334638595581
1726995920435561700,7.347561767578125,-0.13433538377285004,-0.3667120337486267,0.7952932119369507
1726995920445548800,7.357548828125,-0.2584690451622009,-0.28969019651412964,0.7735530138015747
1726995920455535900,7.367535888671875,-0.4088950455188751,-0.2566509246826172,0.7259851098060608
1726995920465522000,7.37752197265625,-0.5515701770782471,-0.22614416480064392,0.658044695854187
1726995920475508700,7.3875087890625,-0.713144838809967,-0.15509305894374847,0.5996339321136475
1726995920485494800,7.397494873046875,-0.872141420841217,-0.08520850539207458,0.5619081258773804
1726995920495481900,7.40748193359375,-1.0638352632522583,0.04219472035765648,0.5280419588088989
1726995920505469000,7.417468994140625,-1.2616665363311768,0.17540045082569122,0.4825453460216522
1726995920515454700,7.427454833984375,-1.4215679168701172,0.27463847398757935,0.40701988339424133
1726995920525441800,7.43744189453125,-1.4864866733551025,0.305522084236145,0.25851669907569885
1726995920535427800,7.447427734375,-1.378564715385437,0.27837395668029785,-0.00951174646615982
1726995920545414700,7.45741455078125,-1.1493394374847412,-0.016225475817918777,-0.3445288836956024
1726995920555401700,7.467401611328125,-0.9360640645027161,-0.429896742105484,-0.630891740322113
1726995920565387800,7.4773876953125,-0.7580663561820984,-0.9095150232315063,-0.7643650770187378
1726995920575374800,7.487374755859375,-0.5791902542114258,-1.1653748750686646,-0.7924580574035645
1726995920585360600,7.497360595703125,-0.4087420701980591,-1.1080468893051147,-0.7524304389953613
1726995920595348000,7.507347900390625,-0.31533926725387573,-0.8191822171211243,-0.6843780875205994
1726995920605334800,7.517334716796875,-0.2664787769317627,-0.5722741484642029,-0.5758556127548218
1726995920615320600,7.527320556640625,-0.23447753489017487,-0.4531952142715454,-0.4569365382194519
1726995920625308000,7.537307861328125,-0.19371917843818665,-0.37151581048965454,-0.37746381759643555
1726995920635293700,7.547293701171875,-0.15580610930919647,-0.27059435844421387,-0.30987027287483215
1726995920645280800,7.55728076171875,-0.11600997298955917,-0.1280425637960434,-0.2565561830997467
1726995920655267800,7.567267822265625,-0.08913982659578323,-0.027853481471538544,-0.2255283147096634
1726995920665254000,7.57725390625,-0.07378963381052017,0.035552654415369034,-0.2222270667552948
1726995920675240700,7.58724072265625,-0.08910077065229416,0.0919661745429039,-0.2366781234741211
1726995920685226800,7.597226806640625,-0.12613709270954132,0.13375836610794067,-0.2555786073207855
1726995920695213800,7.6072138671875,-0.1570894420146942,0.14880722761154175,-0.28044116497039795
1726995920705199600,7.61719970703125,-0.17754438519477844,0.15167251229286194,-0.2887994945049286
1726995920715187000,7.62718701171875,-0.17213965952396393,0.12085136026144028,-0.27851080894470215
1726995920725173800,7.637173828125,-0.14989852905273438,0.07369290292263031,-0.27598509192466736
1726995920735159800,7.647159912109375,-0.11009684205055237,0.02850024402141571,-0.279418021440506
1726995920745146600,7.657146728515625,-0.07358144223690033,-0.048382021486759186,-0.28684476017951965
1726995920755132700,7.667132568359375,-0.05596828833222389,-0.09352400153875351,-0.29300177097320557
1726995920765119700,7.67711962890625,-0.03978052735328674,-0.06848789006471634,-0.3005630075931549
1726995920775106600,7.6871064453125,-0.018185069784522057,-0.006279011256992817,-0.3019917607307434
1726995920785092900,7.6970927734375,0.002867751521989703,0.06387876719236374,-0.30006495118141174
1726995920795079700,7.70707958984375,0.02943989261984825,0.1045345887541771,-0.276634156703949
1726995920805066000,7.71706591796875,0.02636420726776123,0.1511593461036682,-0.24039438366889954
1726995920815052800,7.727052734375,0.011228606104850769,0.16400155425071716,-0.2010180652141571
1726995920825040000,7.737039794921875,0.001222310122102499,0.13912789523601532,-0.1780584156513214
1726995920835025700,7.747025634765625,-0.023886896669864655,0.1159982681274414,-0.1642524003982544
1726995920845012700,7.7570126953125,-0.020178446546196938,0.1141902431845665,-0.17366348206996918
1726995920854998800,7.766998779296875,0.01031937450170517,0.15632636845111847,-0.1947162002325058
1726995920864985600,7.776985595703125,0.04661213606595993,0.2154615968465805,-0.1924959272146225
1726995920874973000,7.786972900390625,0.08079251646995544,0.22417834401130676,-0.16944922506809235
1726995920884958700,7.796958740234375,0.10957782715559006,0.20091883838176727,-0.1292770355939865
1726995920894945800,7.80694580078125,0.1048426702618599,0.13305218517780304,-0.07807160913944244
1726995920904931800,7.816931884765625,0.08258556574583054,0.06695839017629623,-0.04072849825024605
1726995920914918700,7.826918701171875,0.05718482658267021,0.025946538895368576,0.015440253540873528
1726995920924905700,7.83690576171875,0.03293221816420555,-0.013493545353412628,0.08353675156831741
1726995920934891800,7.846891845703125,0.028825106099247932,-0.07935579866170883,0.1608809232711792
1726995920944878800,7.85687890625,0.04067004844546318,-0.15065208077430725,0.23580949008464813
1726995920954864600,7.86686474609375,0.059842366725206375,-0.22028972208499908,0.306887686252594
1726995920964852000,7.87685205078125,0.06915543973445892,-0.2795032560825348,0.358970582485199
1726995920974838800,7.8868388671875,0.0817384123802185,-0.3014225661754608,0.40386760234832764
1726995920984824600,7.896824462890625,0.083913154900074,-0.300666481256485,0.4316888451576233
1726995920994811600,7.906811767578125,0.07179215550422668,-0.30867916345596313,0.4458996653556824
1726995921004797700,7.916797607421875,0.05336494371294975,-0.3194950520992279,0.45371073484420776
1726995921014784800,7.92678466796875,0.024498632177710533,-0.3119550049304962,0.4444332420825958
1726995921024771600,7.936771484375,-0.009174109436571598,-0.2670189440250397,0.42385101318359375
1726995921034758000,7.9467578125,-0.036994874477386475,-0.23083040118217468,0.39295583963394165
1726995921044744700,7.95674462890625,-0.03896242007613182,-0.1946854442358017,0.35214048624038696
1726995921054730800,7.966730712890625,-0.025933271273970604,-0.1623716652393341,0.3208310604095459
1726995921064717800,7.9767177734375,0.00043069288949482143,-0.1366942673921585,0.28756284713745117
1726995921074703600,7.98670361328125,0.018406342715024948,-0.1450006067752838,0.247200608253479
1726995921084690700,7.996690673828125,0.028781484812498093,-0.15569692850112915,0.20603160560131073
1726995921094677800,8.006677734375,0.04052062705159187,-0.15408103168010712,0.1638270616531372
1726995921104663800,8.016663818359374,0.058891378343105316,-0.10479549318552017,0.11767394840717316
1726995921114650600,8.026650634765625,0.07102527469396591,-0.027679404243826866,0.06166420876979828
1726995921124637000,8.036636962890626,0.09392126649618149,0.07277476787567139,0.012346193194389343
1726995921134623700,8.046623779296874,0.13696444034576416,0.2501383125782013,-0.022125279530882835
1726995921144610800,8.05661083984375,0.17328862845897675,0.49654144048690796,-0.04892919585108757
1726995921154596900,8.066596923828126,0.19397035241127014,0.6838510632514954,-0.050656065344810486
1726995921164584200,8.076584228515625,0.19396449625492096,0.7524871230125427,-0.05083929002285004
1726995921174570000,8.086570068359375,0.20876896381378174,0.7287195920944214,-0.03002520650625229
1726995921184557300,8.096557373046876,0.252273291349411,0.6947743892669678,-0.003147520124912262
1726995921194544000,8.106544189453125,0.3420614004135132,0.798180878162384,0.030711572617292404
1726995921204530000,8.116530029296875,0.5163836479187012,0.7821012735366821,0.1088806763291359
1726995921214517000,8.12651708984375,0.7329226136207581,0.7496183514595032,0.21043433248996735
1726995921224503000,8.1365029296875,0.9473920464515686,0.734980583190918,0.266404390335083
1726995921234490000,8.146489990234375,1.0526505708694458,0.7163126468658447,0.29981064796447754
1726995921244477000,8.156476806640624,1.077873945236206,0.6955440044403076,0.2842322289943695
1726995921254463200,8.166463134765625,1.088699460029602,0.5975459814071655,0.23851044476032257
1726995921264450000,8.176449951171875,1.0836747884750366,0.4703424870967865,0.2447821944952011
1726995921274436000,8.18643603515625,1.0404598712921143,0.3253733217716217,0.28336745500564575
1726995921284423200,8.196423095703125,0.9183937907218933,0.20478858053684235,0.34594935178756714
1726995921294409000,8.206408935546875,0.7341715097427368,0.022525880485773087,0.486272394657135
1726995921304396000,8.21639599609375,0.4871150851249695,-0.2685650587081909,0.6852602958679199
1726995921314383000,8.226383056640625,0.20818732678890228,-0.6376147270202637,0.8680993318557739
1726995921324369200,8.236369140625,-0.07009969651699066,-0.9610956311225891,0.9856696724891663
1726995921334356000,8.24635595703125,-0.33551225066185,-1.0588669776916504,1.0405118465423584
1726995921344342000,8.256342041015625,-0.5034967660903931,-0.7024705410003662,1.027707576751709
1726995921354329000,8.2663291015625,-0.5788224935531616,-0.35757967829704285,1.0243656635284424
1726995921364316000,8.27631591796875,-0.5886487364768982,-0.1685703545808792,1.0047272443771362
1726995921374302200,8.28630224609375,-0.6501017212867737,-0.11572244763374329,0.9747140407562256
1726995921384289000,8.2962890625,-0.7302021384239197,-0.09451382607221603,0.9410724639892578
1726995921394275000,8.306275146484374,-0.8537288904190063,-0.04393431544303894,0.8747344613075256
1726995921404262100,8.31626220703125,-0.9815856218338013,0.09119820594787598,0.7745265960693359
1726995921414249200,8.326249267578126,-1.1220015287399292,0.23904824256896973,0.632960855960846
1726995921424235000,8.336235107421874,-1.214289903640747,0.2977328598499298,0.44896838068962097
1726995921434222300,8.346222412109375,-1.2005304098129272,0.3549431264400482,0.14520205557346344
1726995921444208000,8.3562080078125,-1.0785123109817505,0.29160168766975403,-0.25347262620925903
1726995921454195000,8.36619482421875,-0.9265578389167786,0.03930840268731117,-0.6565099358558655
1726995921464182000,8.37618212890625,-0.7937867641448975,-0.35132619738578796,-0.9644342064857483
1726995921474168000,8.38616796875,-0.6514427065849304,-0.7386955618858337,-1.1335124969482422
1726995921484155100,8.396155029296875,-0.5070645213127136,-0.8869950175285339,-1.1838805675506592
1726995921494141200,8.40614111328125,-0.38318705558776855,-0.8225395679473877,-1.181960105895996
1726995921504128300,8.416128173828126,-0.3035236597061157,-0.688769519329071,-1.1353833675384521
1726995921514115000,8.426114990234375,-0.24464891850948334,-0.5271978974342346,-1.0777485370635986
1726995921524101000,8.43610107421875,-0.21221454441547394,-0.3946247398853302,-1.0026572942733765
1726995921534088200,8.446088134765626,-0.17843396961688995,-0.32539570331573486,-0.9126931428909302
1726995921544074000,8.456073974609374,-0.15181061625480652,-0.22219182550907135,-0.8312249183654785
1726995921554061000,8.46606103515625,-0.12915073335170746,-0.05409393459558487,-0.7670960426330566
1726995921564048100,8.476048095703124,-0.11024176329374313,0.09466864168643951,-0.6818488240242004
1726995921574034200,8.4860341796875,-0.11446530371904373,0.1304013729095459,-0.5837347507476807
1726995921584021000,8.49602099609375,-0.13533516228199005,0.08593137562274933,-0.46830105781555176
1726995921594007000,8.506007080078126,-0.1582411378622055,0.03103034198284149,-0.3531067967414856
1726995921603994000,8.515994140625,-0.16102786362171173,-0.012901963666081429,-0.2506334185600281
1726995921613980200,8.525980224609375,-0.14779333770275116,-0.03165255859494209,-0.18378843367099762
1726995921623967200,8.53596728515625,-0.14201533794403076,-0.07918491959571838,-0.1402239054441452
1726995921633954000,8.5459541015625,-0.1450543850660324,-0.11978227645158768,-0.11641454696655273
1726995921643940000,8.555940185546875,-0.14450018107891083,-0.12141692638397217,-0.11100779473781586
1726995921653927200,8.56592724609375,-0.13579979538917542,-0.07730980962514877,-0.1291283816099167
1726995921663913000,8.575912841796875,-0.1190384030342102,-0.003521338803693652,-0.14313793182373047
1726995921673900000,8.585900146484375,-0.1015762984752655,0.06323528289794922,-0.16938793659210205
1726995921683887000,8.59588720703125,-0.08198635280132294,0.09447256475687027,-0.1888154298067093
1726995921693873200,8.605873046875,-0.05498052015900612,0.09634703397750854,-0.20483343303203583
1726995921703860000,8.61585986328125,-0.01404107827693224,0.12350381910800934,-0.22503456473350525
1726995921713846300,8.62584619140625,0.01723596826195717,0.1868680864572525,-0.26026079058647156
1726995921723833000,8.6358330078125,0.017344892024993896,0.2820819616317749,-0.24350976943969727
1726995921733820200,8.645820068359376,0.009446585550904274,0.3333738446235657,-0.23157352209091187
1726995921743806200,8.65580615234375,0.002669373992830515,0.40446773171424866,-0.246041938662529
1726995921753793000,8.66579296875,-0.003442566841840744,0.4477459788322449,-0.2699984014034271
1726995921763779000,8.675779052734375,0.008334997110068798,0.4161055088043213,-0.2932906746864319
1726995921773766100,8.68576611328125,0.042522232979536057,0.3401605188846588,-0.3259853720664978
1726995921783753200,8.695753173828125,0.0883600264787674,0.29501888155937195,-0.3613734841346741
1726995921793739000,8.705739013671876,0.13303814828395844,0.2600592076778412,-0.3855893909931183
1726995921803726000,8.71572607421875,0.17151683568954468,0.1935473084449768,-0.3782992362976074
1726995921813712100,8.725712158203125,0.19912336766719818,0.10860367864370346,-0.31011962890625
1726995921823699000,8.735698974609376,0.20658715069293976,0.02211911790072918,-0.18623416125774384
1726995921833685200,8.745685302734374,0.19146858155727386,-0.08110828697681427,-0.04113912954926491
1726995921843672000,8.755672119140625,0.16209524869918823,-0.21556836366653442,0.09288258105516434
1726995921853659100,8.7656591796875,0.11290787160396576,-0.36628949642181396,0.19358035922050476
1726995921863645200,8.775645263671874,0.06959954649209976,-0.4991692304611206,0.2725422978401184
1726995921873632300,8.78563232421875,0.051194507628679276,-0.580228865146637,0.3380183279514313
1726995921883618000,8.7956181640625,0.06168017536401749,-0.6166220307350159,0.38777071237564087
1726995921893605000,8.805605224609375,0.07842313498258591,-0.6251899003982544,0.4276675581932068
1726995921903592200,8.81559228515625,0.09054531157016754,-0.6014118790626526,0.45205414295196533
1726995921913578000,8.825577880859376,0.09670810401439667,-0.5353263020515442,0.4438726305961609
1726995921923565000,8.83556494140625,0.08618248999118805,-0.45708853006362915,0.4101746082305908
1726995921933551000,8.845551025390625,0.07317231595516205,-0.34654152393341064,0.35752037167549133
1726995921943538200,8.8555380859375,0.07257763296365738,-0.20733040571212769,0.30284246802330017
1726995921953525000,8.86552490234375,0.09579665958881378,-0.0846063494682312,0.24558690190315247
1726995921963511000,8.875510986328125,0.13035011291503906,0.011661862954497337,0.1879126876592636
1726995921973498000,8.885498046875,0.15667982399463654,0.04828402027487755,0.10483373701572418
1726995921983484000,8.89548388671875,0.1751381903886795,0.07262691110372543,0.03309216722846031
1726995921993471200,8.90547119140625,0.1770670861005783,0.02433648519217968,-0.03849531710147858
1726995922003458000,8.9154580078125,0.1828964799642563,0.05354657024145126,-0.12158168852329254
1726995922013444000,8.925444091796875,0.18670472502708435,0.1280241459608078,-0.21311436593532562
1726995922023431200,8.93543115234375,0.19367262721061707,0.17791740596294403,-0.2721092104911804
1726995922033417000,8.9454169921875,0.21578410267829895,0.2506124675273895,-0.31659457087516785
1726995922043404000,8.955404052734375,0.22873187065124512,0.39833295345306396,-0.362839013338089
1726995922053391000,8.96539111328125,0.24179790914058685,0.5805511474609375,-0.3860481083393097
1726995922063377200,8.975377197265624,0.22910740971565247,0.747275173664093,-0.41579562425613403
1726995922073364000,8.985364013671875,0.22932615876197815,0.8407406806945801,-0.3771354854106903
1726995922083350300,8.995350341796875,0.25976502895355225,0.9106156826019287,-0.3100443184375763
1726995922093337000,9.005337158203124,0.347821980714798,1.0458847284317017,-0.2658601403236389
1726995922103323100,9.0153232421875,0.48978257179260254,0.9715508818626404,-0.15084032714366913
1726995922113310200,9.025310302734376,0.6971421837806702,0.8866584897041321,-0.05236317217350006
1726995922123297300,9.03529736328125,0.8378774523735046,0.950999915599823,0.02165433205664158
1726995922133283000,9.045282958984375,0.9056797027587891,0.9466632008552551,0.04588747397065163
1726995922143270000,9.055269775390625,0.9706944227218628,0.8899123072624207,0.08128674328327179
1726995922153256200,9.065256103515624,1.0247942209243774,0.9234253168106079,0.09847219288349152
1726995922163243000,9.075242919921875,1.05230712890625,0.9512814283370972,0.11222448945045471
1726995922173229800,9.085229736328126,1.0138546228408813,0.9092535972595215,0.14636778831481934
1726995922183216000,9.095216064453124,0.8973495364189148,0.6231113076210022,0.28927433490753174
1726995922193203000,9.105202880859375,0.6963526010513306,0.13366350531578064,0.508941113948822
1726995922203189200,9.115189208984376,0.4543714225292206,-0.33492740988731384,0.7594380378723145
1726995922213176000,9.125176025390624,0.18835803866386414,-0.7553948760032654,0.9772089123725891
1726995922223163100,9.1351630859375,-0.08788581192493439,-1.0820316076278687,1.0822596549987793
1726995922233149000,9.14514892578125,-0.3444567024707794,-1.183181643486023,1.1233785152435303
1726995922243136000,9.155135986328125,-0.4936440587043762,-0.9993770122528076,1.153793454170227
1726995922253122000,9.1651220703125,-0.577411949634552,-0.8303989171981812,1.1320782899856567
1726995922263108900,9.17510888671875,-0.5377766489982605,-0.5275130867958069,1.058406114578247
1726995922273095200,9.18509521484375,-0.6112856864929199,-0.2755259573459625,0.9914613962173462
1726995922283082000,9.19508203125,-0.7194917798042297,-0.17543557286262512,0.9630841016769409
1726995922293069000,9.205069091796876,-0.8104543685913086,-0.14000558853149414,0.9107407927513123
1726995922303055000,9.21505517578125,-0.9094390273094177,-0.04824185371398926,0.7976656556129456
1726995922313042000,9.2250419921875,-0.9697391986846924,0.10506626963615417,0.6155771017074585
1726995922323028000,9.235028076171876,-0.9167689085006714,0.1966603696346283,0.33728501200675964
1726995922333015000,9.24501513671875,-0.7848102450370789,0.09693475067615509,0.00753101147711277
1726995922343002000,9.255002197265625,-0.6411364078521729,-0.14639241993427277,-0.33006247878074646
1726995922352988000,9.26498779296875,-0.5210406184196472,-0.5061067342758179,-0.6352869272232056
1726995922362975200,9.274975341796875,-0.42546433210372925,-0.8370303511619568,-0.8344117403030396
1726995922372961000,9.2849609375,-0.3339548408985138,-0.9736747741699219,-0.9238607287406921
1726995922382947800,9.29494775390625,-0.2990594208240509,-0.8797759413719177,-0.9714269042015076
1726995922392935000,9.304934814453125,-0.24904178082942963,-0.6971892714500427,-0.9821915626525879
1726995922402921000,9.3149208984375,-0.20224684476852417,-0.4784231185913086,-0.9464934468269348
1726995922412908000,9.324907958984374,-0.16854025423526764,-0.28980696201324463,-0.9205904006958008
1726995922422894000,9.33489404296875,-0.14397844672203064,-0.13518358767032623,-0.9136478304862976
1726995922432881200,9.344881103515625,-0.12999087572097778,-0.015509056858718395,-0.9008919596672058
1726995922442868000,9.354867919921874,-0.08445429056882858,0.028205400332808495,-0.8607251048088074
1726995922452854000,9.36485400390625,0.0036621023900806904,0.09351443499326706,-0.822812020778656
1726995922462841000,9.374841064453125,0.06951062381267548,0.18873576819896698,-0.7814413905143738
1726995922472827000,9.384826904296874,0.10810664296150208,0.2727285921573639,-0.7576205730438232
1726995922482814000,9.39481396484375,0.107319675385952,0.27028170228004456,-0.7259023189544678
1726995922492801000,9.404801025390626,0.07470248639583588,0.1960562765598297,-0.6972842216491699
1726995922502787000,9.414787109375,0.04547695443034172,0.1063556894659996,-0.6808441877365112
1726995922512774000,9.42477392578125,0.020031306892633438,0.037249669432640076,-0.6773218512535095
1726995922522760000,9.434760009765625,0.020551953464746475,0.006133027840405703,-0.6703033447265625
1726995922532747000,9.4447470703125,0.04325321689248085,-0.017886536195874214,-0.6507168412208557
1726995922542733000,9.454733154296875,0.07075034826993942,-0.00907307118177414,-0.6159263253211975
1726995922552720100,9.46472021484375,0.08465924113988876,0.02672700397670269,-0.569719135761261
1726995922562707000,9.47470703125,0.09695479273796082,0.013140355236828327,-0.514936625957489
1726995922572693000,9.48469287109375,0.1078198105096817,0.006673100404441357,-0.45467042922973633
1726995922582680000,9.49468017578125,0.12087355554103851,0.005837933160364628,-0.38121485710144043
1726995922592665900,9.504665771484374,0.1365370899438858,-0.03932604938745499,-0.2902204096317291
1726995922602653000,9.51465283203125,0.13811127841472626,-0.054958272725343704,-0.20601792633533478
1726995922612640000,9.524639892578126,0.1348886936903,-0.03953275829553604,-0.15554441511631012
1726995922622626000,9.5346259765625,0.1329813301563263,-0.002197636291384697,-0.13134294748306274
1726995922632612900,9.54461279296875,0.1340300738811493,0.04517136514186859,-0.13744942843914032
1726995922642599200,9.55459912109375,0.14784149825572968,0.12481080740690231,-0.19981692731380463
1726995922652586000,9.5645859375,0.1270093470811844,0.2276582270860672,-0.15756195783615112
1726995922662573000,9.574572998046875,0.11524058133363724,0.2120119035243988,-0.12011073529720306
1726995922672559000,9.58455908203125,0.13198637962341309,0.1981748789548874,-0.1285165250301361
1726995922682546200,9.594546142578125,0.1438686102628708,0.20961607992649078,-0.13600826263427734
1726995922692532000,9.604531982421875,0.1369478553533554,0.20907635986804962,-0.10400999337434769
1726995922702519000,9.61451904296875,0.13745199143886566,0.18470284342765808,-0.04500366747379303
1726995922712506000,9.624506103515625,0.1281692385673523,0.08193469792604446,0.0012240370269864798
1726995922722492000,9.634491943359375,0.12005432695150375,0.06414744257926941,0.019153235480189323
1726995922732479000,9.64447900390625,0.12076327204704285,0.049718283116817474,0.04160487651824951
1726995922742465000,9.654465087890625,0.10688047856092453,-0.027909133583307266,0.07429943978786469
1726995922752452000,9.6644521484375,0.06981992721557617,-0.14395596086978912,0.1262194961309433
1726995922762438100,9.674438232421876,0.02040417678654194,-0.2814165949821472,0.17682647705078125
1726995922772425000,9.684425048828125,0.0023256719578057528,-0.3264158070087433,0.20246388018131256
1726995922782412000,9.694412109375,-0.01665254682302475,-0.347171425819397,0.23298344016075134
1726995922792398000,9.704398193359374,-0.011903638951480389,-0.3649921119213104,0.26307758688926697
1726995922802385200,9.71438525390625,-0.026288436725735664,-0.3490038216114044,0.2985982894897461
1726995922812371000,9.724370849609375,-0.020312946289777756,-0.31226646900177,0.34325557947158813
1726995922822358000,9.73435791015625,-0.017173878848552704,-0.2707717716693878,0.38454923033714294
1726995922832345000,9.744344970703125,-0.014564908109605312,-0.25382789969444275,0.43671154975891113
1726995922842331000,9.754330810546875,-0.02089843712747097,-0.23815494775772095,0.4781958758831024
1726995922852318000,9.76431787109375,-0.03360311686992645,-0.20370784401893616,0.4951630234718323
1726995922862304000,9.774303955078125,-0.046073101460933685,-0.1809394210577011,0.48405739665031433
1726995922872291000,9.784291015625,-0.04654984921216965,-0.13142217695713043,0.4508421719074249
1726995922882278000,9.79427783203125,-0.03870604187250137,-0.10332715511322021,0.4257384240627289
1726995922892264200,9.80426416015625,-0.02273852750658989,-0.07671764492988586,0.4209093153476715
1726995922902251000,9.8142509765625,0.0017921144608408213,0.0069540804252028465,0.4058142602443695
1726995922912237000,9.824237060546874,0.03704056516289711,0.12459645420312881,0.3695853352546692
1726995922922224000,9.83422412109375,0.0716046690940857,0.2946789860725403,0.3183879256248474
1726995922932210000,9.8442099609375,0.0974745899438858,0.46315255761146545,0.2681014835834503
1726995922942197000,9.854197021484374,0.11225513368844986,0.5494743585586548,0.24480172991752625
1726995922952184000,9.86418408203125,0.14643560349941254,0.5755201578140259,0.2507086992263794
1726995922962170000,9.874170166015626,0.19337674975395203,0.6005187034606934,0.27958881855010986
1726995922972157000,9.884156982421874,0.26910847425460815,0.6359466910362244,0.31255677342414856
1726995922982143000,9.89414306640625,0.4161868691444397,0.533088743686676,0.4148027300834656
1726995922992130000,9.904130126953126,0.5913504362106323,0.46042823791503906,0.4856237769126892
1726995923002116900,9.914116943359375,0.7831241488456726,0.5497887134552002,0.5324381589889526
1726995923012103200,9.924103271484375,0.9259263277053833,0.6890191435813904,0.5128054022789001
1726995923022090000,9.934090087890626,1.06858229637146,0.843040943145752,0.4950759708881378
1726995923032076000,9.944075927734374,1.151957631111145,0.9082559943199158,0.40594300627708435
1726995923042063000,9.95406298828125,1.1983556747436523,0.8434309363365173,0.33061257004737854
1726995923052050200,9.96405029296875,1.1492609977722168,0.5289980173110962,0.39627978205680847
1726995923062036000,9.974035888671875,1.030348777770996,0.0701233521103859,0.5627646446228027
1726995923072023000,9.98402294921875,0.8520252704620361,-0.2904452383518219,0.7276549935340881
1726995923082009000,9.994009033203126,0.6145948171615601,-0.5247530937194824,0.8834182620048523
1726995923091996000,10.003995849609375,0.3097642660140991,-0.757209300994873,1.003109335899353
1726995923101983000,10.01398291015625,-0.04684523865580559,-1.0393790006637573,1.0612528324127197
1726995923111969000,10.023968994140626,-0.40874379873275757,-1.2623540163040161,1.1164476871490479
1726995923121956000,10.0339560546875,-0.6771787405014038,-1.2089108228683472,1.1350773572921753
1726995923131942100,10.043942138671875,-0.7939438223838806,-0.9153728485107422,1.0063527822494507
1726995923141929000,10.053928955078124,-0.8651466369628906,-0.2597704827785492,0.8527266383171082
1726995923151915000,10.0639150390625,-0.9194993376731873,0.09220340102910995,0.7743949294090271
1726995923161901800,10.07390185546875,-0.9883093237876892,0.08783528208732605,0.6884307861328125
1726995923171889200,10.08388916015625,-1.0526068210601807,-0.0012964577181264758,0.5801961421966553
1726995923181875000,10.093875,-1.105028510093689,-0.035612355917692184,0.4019787311553955
1726995923191861800,10.10386181640625,-1.076588749885559,0.02427482418715954,0.1222260370850563
1726995923201849000,10.11384912109375,-0.9274139404296875,0.04293213039636612,-0.19579587876796722
1726995923211835000,10.1238349609375,-0.7116822600364685,-0.05805053189396858,-0.5085923075675964
1726995923221822000,10.133822021484375,-0.5364113450050354,-0.31258508563041687,-0.7796576023101807
1726995923231808000,10.14380810546875,-0.44789746403694153,-0.6102316975593567,-0.9717689156532288
1726995923241795000,10.153795166015625,-0.4467131495475769,-0.6996222734451294,-1.0557106733322144
1726995923251780900,10.16378076171875,-0.46510156989097595,-0.6530229449272156,-1.083341360092163
1726995923261768000,10.173767822265624,-0.43429625034332275,-0.5804613828659058,-1.0658992528915405
1726995923271755000,10.183755126953125,-0.3706439733505249,-0.4499686360359192,-1.0552127361297607
1726995923281740800,10.19374072265625,-0.30422791838645935,-0.3145490288734436,-1.0415962934494019
1726995923291728100,10.20372802734375,-0.2580694556236267,-0.2018127739429474,-1.0140668153762817
1726995923301714000,10.2137138671875,-0.20448854565620422,-0.103391133248806,-0.9992274045944214
1726995923311701000,10.223700927734376,-0.1356348693370819,0.03523373231291771,-1.0116163492202759
1726995923321688000,10.23368798828125,-0.055865731090307236,0.21532200276851654,-1.026544213294983
1726995923331674000,10.243674072265625,-0.0013309603091329336,0.3289966881275177,-0.999271035194397
1726995923341661000,10.253660888671876,0.00193993397988379,0.3236495852470398,-0.9493780136108398
1726995923351647000,10.26364697265625,-0.05710088834166527,0.2387370765209198,-0.8828746676445007
1726995923361634000,10.273634033203125,-0.1362423151731491,0.11346890032291412,-0.8278561234474182
1726995923371620900,10.283620849609376,-0.18883493542671204,-0.012423309497535229,-0.7759690284729004
1726995923381607200,10.293607177734375,-0.1663711667060852,-0.06540077924728394,-0.7239851951599121
1726995923391594000,10.303593994140625,-0.10048136860132217,-0.07502144575119019,-0.6475825309753418
1726995923401580000,10.313580078125,-0.06046471372246742,-0.1314556896686554,-0.5405287742614746
1726995923411566800,10.32356689453125,-0.047177769243717194,-0.18811945617198944,-0.45321565866470337
1726995923421553000,10.333552978515625,-0.03366702049970627,-0.13520510494709015,-0.40514108538627625
1726995923431540000,10.3435400390625,0.01839696615934372,-0.05919620767235756,-0.4065239131450653
1726995923441526800,10.35352685546875,0.09651999920606613,0.017236247658729553,-0.39477938413619995
1726995923451513000,10.36351318359375,0.16394802927970886,0.10802702605724335,-0.3520677089691162
1726995923461500000,10.3735,0.19209390878677368,0.21708133816719055,-0.3009856343269348
1726995923471486200,10.383486328125,0.1792784482240677,0.24144065380096436,-0.2633714973926544
1726995923481473000,10.39347314453125,0.13156658411026,0.22119982540607452,-0.2788729667663574
1726995923491460000,10.403460205078124,0.09070678055286407,0.25889351963996887,-0.3187054693698883
1726995923501446000,10.41344580078125,0.058867622166872025,0.3446771204471588,-0.2719654142856598
1726995923511433000,10.423432861328125,0.05157545208930969,0.36861732602119446,-0.23251737654209137
1726995923521419000,10.4334189453125,0.08231952041387558,0.3351547122001648,-0.22795218229293823
1726995923531405800,10.44340576171875,0.11433934420347214,0.2777402102947235,-0.21685312688350677
1726995923541393200,10.45339306640625,0.12531982362270355,0.17999181151390076,-0.19874043762683868
1726995923551379000,10.46337890625,0.12119491398334503,0.10616549849510193,-0.16223490238189697
1726995923561366000,10.473365966796875,0.10794728994369507,0.05641471594572067,-0.07381609827280045
1726995923571352000,10.48335205078125,0.10357934981584549,-0.07891907542943954,0.059343867003917694
1726995923581339000,10.4933388671875,0.07482519745826721,-0.24562311172485352,0.1332883983850479
1726995923591326000,10.503325927734375,0.03393819183111191,-0.36224839091300964,0.18810997903347015
1726995923601312000,10.51331201171875,0.010380402207374573,-0.45107918977737427,0.24790886044502258
1726995923611299000,10.523299072265624,0.009676205925643444,-0.4823686480522156,0.3131616711616516
1726995923621284900,10.533284912109375,0.0026654351968318224,-0.4778766930103302,0.37829354405403137
1726995923631272200,10.543272216796876,-0.022074121981859207,-0.45382246375083923,0.42026233673095703
1726995923641258000,10.553258056640624,-0.052997417747974396,-0.4131738543510437,0.4313115179538727
1726995923651244800,10.563244873046875,-0.07841864973306656,-0.39229142665863037,0.4086959958076477
1726995923661231900,10.57323193359375,-0.0897783637046814,-0.3554132878780365,0.369823694229126
1726995923671218000,10.583218017578124,-0.08866958320140839,-0.3234158754348755,0.31468966603279114
1726995923681205000,10.593205078125,-0.05461520701646805,-0.27113428711891174,0.27538782358169556
1726995923691191000,10.60319091796875,-0.00948853138834238,-0.19682474434375763,0.25538310408592224
1726995923701178000,10.61317822265625,0.01744747906923294,-0.17367441952228546,0.24340686202049255
1726995923711165000,10.6231650390625,0.004874162841588259,-0.1852695494890213,0.23742567002773285
1726995923721151000,10.63315087890625,-0.015543760731816292,-0.17447789013385773,0.22537140548229218
1726995923731138000,10.643137939453124,-0.013382241129875183,-0.1397188901901245,0.2064163088798523
1726995923741123800,10.653123779296875,0.018900863826274872,-0.07119974493980408,0.1681394875049591
1726995923751111000,10.66311083984375,0.07717182487249374,0.048200055956840515,0.12410296499729156
1726995923761098000,10.673097900390625,0.12368419766426086,0.15279065072536469,0.08347883820533752
1726995923771084000,10.683083984375,0.1423213928937912,0.2334342747926712,0.047687482088804245
1726995923781070800,10.69307080078125,0.14749298989772797,0.3558216989040375,0.02679179050028324
1726995923791057000,10.703056884765624,0.15694451332092285,0.5228421688079834,-0.004014839883893728
1726995923801044000,10.7130439453125,0.17229710519313812,0.6768061518669128,-0.029510878026485443
1726995923811030800,10.72303076171875,0.1974964737892151,0.733920156955719,-0.05742175132036209
1726995923821017000,10.73301708984375,0.29100728034973145,0.7662541270256042,-0.07131519168615341
1726995923831004000,10.74300390625,0.4608106315135956,0.8003332614898682,-0.05348983407020569
1726995923840990000,10.752989990234376,0.6773501634597778,0.7774210572242737,0.007399614900350571
1726995923850977000,10.76297705078125,0.9559825658798218,0.916002631187439,0.05687876418232918
1726995923860964000,10.772964111328125,1.0708568096160889,0.9917037487030029,0.12797264754772186
1726995923870950000,10.782949951171876,1.1321139335632324,1.0131257772445679,0.17005375027656555
1726995923880937000,10.79293701171875,1.194158911705017,1.0927973985671997,0.18700078129768372
1726995923890923000,10.802923095703125,1.2180231809616089,1.0903799533843994,0.22036594152450562
1726995923900909800,10.812909912109374,1.2058796882629395,0.9860581159591675,0.3157886266708374
1726995923910896000,10.822896240234375,1.0727519989013672,0.48997169733047485,0.4992713928222656
1726995923920883000,10.832883056640625,0.8562420606613159,-0.09221979230642319,0.7377569079399109
1726995923930870000,10.8428701171875,0.604694128036499,-0.4721083343029022,0.9559522867202759
1726995923940856000,10.85285595703125,0.3224776089191437,-0.6865940093994141,1.1308010816574097
1726995923950843100,10.862843017578125,0.044085245579481125,-0.7933491468429565,1.23332941532135
1726995923960829000,10.872828857421876,-0.23919439315795898,-0.9044394493103027,1.2646149396896362
1726995923970816000,10.88281591796875,-0.4672420024871826,-0.8745224475860596,1.3231011629104614
1726995923980803000,10.892802978515626,-0.5998408198356628,-0.8574931025505066,1.3778941631317139
1726995923990788900,10.902788818359374,-0.6493439674377441,-0.8948233723640442,1.3720635175704956
1726995924000776000,10.91277587890625,-0.6948845386505127,-0.845738410949707,1.302616000175476
1726995924010762000,10.922761962890625,-0.770819902420044,-0.5380356311798096,1.1626759767532349
1726995924020749000,10.9327490234375,-0.8227270841598511,-0.28529733419418335,1.0185872316360474
1726995924030736000,10.94273583984375,-0.8756484985351562,-0.17335958778858185,0.8222870826721191
1726995924040722000,10.952721923828125,-0.8849056363105774,-0.09339044988155365,0.5056771636009216
1726995924050709000,10.962708984375,-0.8150967955589294,-0.06464719772338867,0.11726631224155426
1726995924060695000,10.972695068359375,-0.6795791983604431,-0.0845082551240921,-0.28767555952072144
1726995924070682000,10.98268212890625,-0.5078312754631042,-0.12251132726669312,-0.6539670825004578
1726995924080668000,10.99266796875,-0.34273576736450195,-0.28312578797340393,-0.9706728458404541
1726995924090655000,11.002655029296875,-0.29481011629104614,-0.5042121410369873,-1.1709551811218262
1726995924100642000,11.01264208984375,-0.32134586572647095,-0.67256760597229,-1.2688488960266113
1726995924110627800,11.0226279296875,-0.37917855381965637,-0.685484766960144,-1.3637725114822388
1726995924120615000,11.032614990234375,-0.3715406060218811,-0.560701847076416,-1.4218438863754272
1726995924130602000,11.04260205078125,-0.308594673871994,-0.38301369547843933,-1.4186815023422241
1726995924140588000,11.052588134765625,-0.2193170040845871,-0.23837795853614807,-1.3791100978851318
1726995924150574800,11.062574951171875,-0.1364210993051529,-0.10789491981267929,-1.331100344657898
1726995924160560600,11.072560546875,-0.08742000162601471,0.028020301833748817,-1.2899163961410522
1726995924170547700,11.082547607421875,-0.07972955703735352,0.12630492448806763,-1.2359877824783325
1726995924180533800,11.09253369140625,-0.08858483284711838,0.19711969792842865,-1.1850303411483765
1726995924190520800,11.102520751953126,-0.0886649414896965,0.2179352194070816,-1.1810669898986816
1726995924200507600,11.112507568359375,-0.07529747486114502,0.20558853447437286,-1.1177042722702026
1726995924210493400,11.122493408203125,-0.06978598982095718,0.14153774082660675,-1.0454503297805786
1726995924220480800,11.132480712890626,-0.06398136168718338,0.04900567606091499,-0.9518383145332336
1726995924230466600,11.142466552734374,-0.06988634914159775,-0.07336926460266113,-0.8486988544464111
1726995924240453600,11.15245361328125,-0.07046505063772202,-0.20918169617652893,-0.7097228765487671
1726995924250440700,11.162440673828126,-0.066827692091465,-0.22275447845458984,-0.5673593878746033
1726995924260426800,11.1724267578125,-0.09904980659484863,-0.12931640446186066,-0.4082174003124237
1726995924270413600,11.18241357421875,-0.13309794664382935,-0.08696968853473663,-0.2621709108352661
1726995924280399600,11.192399658203126,-0.1628691703081131,-0.09127388894557953,-0.1555778831243515
1726995924290386700,11.20238671875,-0.16848404705524445,-0.10206760466098785,-0.0934731587767601
1726995924300373500,11.21237353515625,-0.15530991554260254,-0.07300159335136414,-0.0627802237868309
1726995924310359800,11.22235986328125,-0.11928264051675797,0.004455873742699623,-0.04012765735387802
1726995924320346600,11.2323466796875,-0.07961512356996536,0.11215543746948242,-0.017899315804243088
1726995924330332700,11.242332763671875,-0.053978316485881805,0.24359434843063354,-0.0034347008913755417
1726995924340319700,11.25231982421875,-0.04359438642859459,0.35645246505737305,-0.0267070010304451
1726995924350306800,11.262306884765625,-0.03942697122693062,0.4068695306777954,-0.06432926654815674
1726995924360292600,11.272292724609375,-0.04949292168021202,0.3995937705039978,-0.012975525110960007
1726995924370279400,11.282279541015624,-0.035841841250658035,0.3433351516723633,-0.030415628105401993
1726995924380265700,11.292265625,0.0023292461410164833,0.3158302903175354,-0.09199164062738419
1726995924390252500,11.30225244140625,0.029157835990190506,0.2818059027194977,-0.141643688082695
1726995924400238800,11.31223876953125,0.029375948011875153,0.21059513092041016,-0.1651945561170578
1726995924410225700,11.3222255859375,0.041299477219581604,0.14871153235435486,-0.17564375698566437
1726995924420212700,11.332212646484376,0.06923949718475342,0.10993216931819916,-0.15826502442359924
1726995924430198800,11.34219873046875,0.09276053309440613,0.040795180946588516,-0.10463695973157883
1726995924440185600,11.352185546875,0.06251181662082672,-0.1067492663860321,-0.010210320353507996
1726995924450171600,11.362171630859375,0.006250247359275818,-0.26141682267189026,0.06916314363479614
1726995924460158500,11.372158447265624,-0.021634381264448166,-0.4081607162952423,0.14379212260246277
1726995924470145800,11.382145751953125,-0.02038060873746872,-0.4756644666194916,0.2080809772014618
1726995924480131600,11.392131591796876,-0.01743115670979023,-0.5253827571868896,0.30160239338874817
1726995924490118700,11.40211865234375,-0.010726213455200195,-0.5314748287200928,0.37183332443237305
1726995924500104700,11.412104736328125,-0.007309910841286182,-0.5039122104644775,0.44917553663253784
1726995924510091500,11.422091552734376,0.008989335969090462,-0.42514392733573914,0.52338045835495
1726995924520078600,11.43207861328125,0.0195626188069582,-0.33190640807151794,0.5541514158248901
1726995924530064600,11.442064697265625,0.034465231001377106,-0.2869948148727417,0.5774168968200684
1726995924540051700,11.4520517578125,0.052092693746089935,-0.2770215570926666,0.5612171292304993
1726995924550037500,11.46203759765625,0.06203479319810867,-0.25652551651000977,0.5177298188209534
1726995924560024800,11.47202490234375,0.07562011480331421,-0.22644191980361938,0.46801769733428955
1726995924570011600,11.48201171875,0.10416651517152786,-0.1816081553697586,0.4320695400238037
1726995924579997400,11.49199755859375,0.13566292822360992,-0.11558999121189117,0.4046783745288849
1726995924589984800,11.50198486328125,0.16826458275318146,-0.009342420846223831,0.37733274698257446
1726995924599970600,11.511970458984376,0.1986323446035385,0.13849018514156342,0.3271643817424774
1726995924609957600,11.52195751953125,0.22896090149879456,0.2662721276283264,0.26094546914100647
1726995924619943700,11.531943603515625,0.24348178505897522,0.35638976097106934,0.17264248430728912
1726995924629930800,11.5419306640625,0.2612995505332947,0.443329393863678,0.0857171043753624
1726995924639917600,11.55191748046875,0.28218165040016174,0.5394940376281738,-0.010579602792859077
1726995924649903600,11.561903564453125,0.30426687002182007,0.6302727460861206,-0.10596384108066559
1726995924659890700,11.571890625,0.3363204002380371,0.7123234272003174,-0.1916166990995407
1726995924669876500,11.58187646484375,0.43369126319885254,0.9396268725395203,-0.24595202505588531
1726995924679863800,11.59186376953125,0.5726739168167114,1.0964709520339966,-0.2273823469877243
1726995924689850600,11.6018505859375,0.770276665687561,1.0982317924499512,-0.2114371508359909
1726995924699836700,11.611836669921875,0.9365218281745911,1.0456264019012451,-0.2264195680618286
1726995924709823500,11.621823486328125,0.9892398118972778,1.0282001495361328,-0.13092082738876343
1726995924719809500,11.6318095703125,1.0121384859085083,1.056793451309204,-0.13820670545101166
1726995924729796600,11.641796630859375,1.1076252460479736,1.2371729612350464,-0.18779195845127106
1726995924739783700,11.65178369140625,1.2180521488189697,1.4067169427871704,-0.1451273262500763
1726995924749769700,11.661769775390624,1.2568323612213135,1.2421098947525024,0.009072350338101387
1726995924759756500,11.671756591796875,1.1763991117477417,0.788541316986084,0.23612387478351593
1726995924769742800,11.681742919921875,0.9868307113647461,0.25438621640205383,0.4837961196899414
1726995924779729700,11.691729736328124,0.7040067315101624,-0.3264255225658417,0.7161508202552795
1726995924789716700,11.701716796875,0.38058358430862427,-0.8816878795623779,0.9361314177513123
1726995924799702500,11.71170263671875,0.06091051921248436,-1.2803106307983398,1.1181409358978271
1726995924809689900,11.72168994140625,-0.20792783796787262,-1.3763599395751953,1.2046864032745361
1726995924819675600,11.731675537109375,-0.4230137765407562,-1.1882342100143433,1.2388482093811035
1726995924829662500,11.741662353515625,-0.5526726841926575,-0.9461358785629272,1.2280011177062988
1726995924839649800,11.75164990234375,-0.5448951721191406,-0.7812369465827942,1.1955169439315796
1726995924849635600,11.761635498046875,-0.6186532974243164,-0.5862153768539429,1.1510182619094849
1726995924859622700,11.77162255859375,-0.751613438129425,-0.28886547684669495,1.1269919872283936
1726995924869608700,11.781608642578124,-0.8699398040771484,-0.10686186701059341,1.0812809467315674
1726995924879595800,11.791595703125,-0.933709979057312,-0.047496285289525986,1.012190580368042
1726995924889581600,11.80158154296875,-0.9927229285240173,0.011817459017038345,0.8950915336608887
1726995924899568600,11.811568603515624,-1.056788682937622,0.04199320450425148,0.7250164747238159
1726995924909555700,11.8215556640625,-1.058045506477356,0.008114094845950603,0.45927372574806213
1726995924919541500,11.83154150390625,-0.9472284913063049,-0.14923477172851562,0.0885624960064888
1726995924929528800,11.84152880859375,-0.7052240371704102,-0.3394670784473419,-0.3359698951244354
1726995924939514600,11.8515146484375,-0.44239160418510437,-0.4836018979549408,-0.7372901439666748
1726995924949501700,11.861501708984376,-0.19630292057991028,-0.6203191876411438,-1.0542364120483398
1726995924959488500,11.871488525390625,-0.07456956058740616,-0.7169682383537292,-1.2564363479614258
1726995924969474600,11.881474609375,-0.1752612292766571,-0.554418683052063,-1.3701120615005493
1726995924979461600,11.891461669921876,-0.33576568961143494,-0.35965296626091003,-1.387025237083435
1726995924989447700,11.90144775390625,-0.45556315779685974,-0.1601923406124115,-1.3794763088226318
1726995924999434800,11.911434814453125,-0.4936053454875946,0.009890442714095116,-1.3665322065353394
1726995925009421600,11.921421630859374,-0.4720395803451538,0.07749544829130173,-1.3430088758468628
1726995925019408000,11.931407958984375,-0.41826021671295166,0.061936456710100174,-1.3030649423599243
1726995925029394700,11.941394775390625,-0.3096097409725189,0.08776849508285522,-1.239045262336731
1726995925039380500,11.95138037109375,-0.17645379900932312,0.11984094232320786,-1.1655458211898804
1726995925049367600,11.961367431640625,-0.07642530649900436,0.15437738597393036,-1.0605335235595703
1726995925059354600,11.971354736328125,-0.025931505486369133,0.19700022041797638,-0.9923444390296936
1726995925069340700,11.981340576171876,-0.014680643565952778,0.2158706784248352,-0.939289927482605
1726995925079327500,11.991327392578125,-0.037870120257139206,0.2038441151380539,-0.8965848088264465
1726995925089313800,12.001313720703125,-0.07061675190925598,0.16688643395900726,-0.8536079525947571
1726995925099300600,12.011300537109374,-0.08162279427051544,0.09187902510166168,-0.7912529706954956
1726995925109286700,12.02128662109375,-0.08284669369459152,0.056122757494449615,-0.6839208006858826
1726995925119273700,12.031273681640625,-0.07391178607940674,0.009318497031927109,-0.5669233798980713
1726995925129260500,12.041260498046874,-0.05993879586458206,-0.054457396268844604,-0.45442673563957214
1726995925139246600,12.05124658203125,-0.05119537189602852,-0.1002722829580307,-0.35337015986442566
1726995925149233700,12.061233642578125,-0.039056893438100815,-0.09129256010055542,-0.25906646251678467
1726995925159219700,12.0712197265625,-0.021618515253067017,-0.05696707218885422,-0.16468244791030884
1726995925169207000,12.08120703125,-0.008825557306408882,0.01918964833021164,-0.09046131372451782
1726995925179194000,12.091194091796876,0.01023015845566988,0.1142708882689476,-0.02195601910352707
1726995925189180200,12.10118017578125,0.022273560985922813,0.20418612658977509,0.03241771459579468
1726995925199167200,12.111167236328125,0.01568596623837948,0.253451406955719,0.0419776625931263
1726995925209153300,12.1211533203125,-0.01018978375941515,0.23436930775642395,-0.039698850363492966
1726995925219140000,12.13114013671875,-0.029925404116511345,0.2320491522550583,-0.14615792036056519
1726995925229127200,12.141127197265625,-0.008536954410374165,0.20169465243816376,-0.1917342245578766
1726995925239113200,12.15111328125,0.06520278006792068,0.1469792127609253,-0.20446625351905823
1726995925249100300,12.161100341796875,0.17243950068950653,0.1694331169128418,-0.211314857006073
1726995925259086000,12.171086181640625,0.23123517632484436,0.23250634968280792,-0.1637239009141922
1726995925269073200,12.1810732421875,0.19449104368686676,0.16595792770385742,-0.0931008830666542
1726995925279060200,12.191060302734375,0.11353494226932526,0.0533088780939579,-0.003967817407101393
1726995925289046000,12.2010458984375,0.010878946632146835,-0.13877737522125244,0.09180541336536407
1726995925299033000,12.211033203125,-0.08711791783571243,-0.31091374158859253,0.15571381151676178
1726995925309019100,12.22101904296875,-0.14637860655784607,-0.43021732568740845,0.19691252708435059
1726995925319006200,12.231006103515625,-0.17947636544704437,-0.5072375535964966,0.22511807084083557
1726995925328993000,12.240992919921876,-0.19019585847854614,-0.580131471157074,0.2578083872795105
1726995925338979300,12.250979248046875,-0.1971278041601181,-0.6098776459693909,0.2919061779975891
1726995925348966100,12.260966064453125,-0.21625910699367523,-0.5852410197257996,0.31838327646255493
1726995925358952000,12.270951904296876,-0.20582403242588043,-0.4564169943332672,0.3479214906692505
1726995925368939300,12.280939208984375,-0.19248005747795105,-0.29686832427978516,0.36099523305892944
1726995925378926000,12.290926025390625,-0.15905125439167023,-0.1946953684091568,0.37837928533554077
1726995925388912000,12.300912109375,-0.11952630430459976,-0.16086862981319427,0.3913595676422119
1726995925398899200,12.310899169921875,-0.05606105178594589,-0.11262280493974686,0.390940397977829
1726995925408885200,12.32088525390625,0.018374063074588776,-0.045998912304639816,0.3973272740840912
