time,seconds_elapsed,z,y,x
1726225707799020800,0.020020751953125,-0.612518310546875,0.7377777099609375,-0.1449432373046875
1726225707809016800,0.030016845703125,-0.6148834228515625,0.753082275390625,-0.11138916015625
1726225707819014000,0.040013916015625,-0.6156768798828125,0.772918701171875,-0.081298828125
1726225707829009700,0.050009765625,-0.6137542724609375,0.7842254638671875,-0.05572509765625
1726225707839007000,0.060007080078125,-0.6128692626953125,0.798858642578125,-0.0345306396484375
1726225707849002800,0.070002685546875,-0.618408203125,0.8172607421875,-0.0165252685546875
1726225707859000000,0.08,-0.6266632080078125,0.8296966552734375,0.006134033203125
1726225707868995800,0.089995849609375,-0.633941650390625,0.8304290771484375,0.017425537109375
1726225707878993000,0.099992919921875,-0.629058837890625,0.8247222900390625,0.003082275390625
1726225707888989000,0.109989013671875,-0.6175384521484375,0.8093414306640625,-0.032318115234375
1726225707898986000,0.119986083984375,-0.621795654296875,0.7890167236328125,-0.077789306640625
1726225707908981800,0.129981689453125,-0.6331634521484375,0.7628021240234375,-0.1291046142578125
1726225707918978000,0.13997802734375,-0.639556884765625,0.7454071044921875,-0.1824798583984375
1726225707928974800,0.149974853515625,-0.6347503662109375,0.732818603515625,-0.238555908203125
1726225707938971000,0.159970947265625,-0.6304931640625,0.7169647216796875,-0.284820556640625
1726225707948968000,0.169968017578125,-0.649261474609375,0.7112884521484375,-0.3167724609375
1726225707958964000,0.1799638671875,-0.67498779296875,0.73101806640625,-0.322418212890625
1726225707968960800,0.189960693359375,-0.6916046142578125,0.736602783203125,-0.2830963134765625
1726225707978957000,0.19995703125,-0.70587158203125,0.7448883056640625,-0.2548828125
1726225707988953900,0.209953857421875,-0.7283782958984375,0.7677459716796875,-0.24578857421875
1726225707998948900,0.219948974609375,-0.7503662109375,0.7911224365234375,-0.202362060546875
1726225708008946000,0.22994580078125,-0.76171875,0.8093109130859375,-0.128997802734375
1726225708018942000,0.23994189453125,-0.783660888671875,0.8043975830078125,-0.056243896484375
1726225708028938800,0.249938720703125,-0.7930145263671875,0.7999725341796875,0.0102691650390625
1726225708038935000,0.25993505859375,-0.7783050537109375,0.831024169921875,0.1004180908203125
1726225708048930800,0.269930908203125,-0.7435455322265625,0.8701171875,0.2250213623046875
1726225708058927900,0.279927978515625,-0.7218780517578125,0.921600341796875,0.3372344970703125
1726225708068924000,0.289923828125,-0.718170166015625,0.9560699462890625,0.4262542724609375
1726225708078921000,0.2999208984375,-0.703704833984375,0.93878173828125,0.48992919921875
1726225708088916700,0.309916748046875,-0.687652587890625,0.897369384765625,0.4908599853515625
1726225708098913800,0.319913818359375,-0.6538848876953125,0.8688507080078125,0.4832916259765625
1726225708108909800,0.329909912109375,-0.662017822265625,0.8260498046875,0.4958038330078125
1726225708118907000,0.339906982421875,-0.6667327880859375,0.8101959228515625,0.4636993408203125
1726225708128903000,0.34990283203125,-0.666717529296875,0.8134918212890625,0.43084716796875
1726225708138899700,0.359899658203125,-0.6527557373046875,0.8230438232421875,0.43548583984375
1726225708148895700,0.369895751953125,-0.6553192138671875,0.7998809814453125,0.4107208251953125
1726225708158892800,0.379892822265625,-0.65411376953125,0.7920989990234375,0.3602142333984375
1726225708168888800,0.389888916015625,-0.6326751708984375,0.7888031005859375,0.3351898193359375
1726225708178886000,0.399885986328125,-0.5794219970703125,0.8031005859375,0.3277130126953125
1726225708188882000,0.4098818359375,-0.583099365234375,0.8264617919921875,0.294921875
1726225708198877700,0.419877685546875,-0.742462158203125,0.8549041748046875,0.1782989501953125
1726225708208875000,0.429875,-0.894622802734375,0.9077301025390625,0.0561676025390625
1726225708218870800,0.439870849609375,-0.9584197998046875,0.916748046875,-0.0316619873046875
1726225708228867800,0.449867919921875,-0.9419097900390625,0.889801025390625,-0.1343841552734375
1726225708238864000,0.45986376953125,-0.890960693359375,0.8136444091796875,-0.208648681640625
1726225708248861000,0.46986083984375,-0.7927703857421875,0.78076171875,-0.289154052734375
1726225708258856700,0.479856689453125,-0.7426300048828125,0.7519378662109375,-0.3678131103515625
1726225708268854000,0.48985400390625,-0.8452606201171875,0.6976470947265625,-0.5225830078125
1726225708278849800,0.499849853515625,-0.9203948974609375,0.68988037109375,-0.6365966796875
1726225708288846800,0.509846923828125,-0.862030029296875,0.6462860107421875,-0.718719482421875
1726225708298843000,0.5198427734375,-0.723052978515625,0.6213531494140625,-0.7499237060546875
1726225708308839700,0.529839599609375,-0.641082763671875,0.60009765625,-0.777008056640625
1726225708318836000,0.5398359375,-0.4873809814453125,0.600738525390625,-0.7830963134765625
1726225708328832800,0.549832763671875,-0.27117919921875,0.590179443359375,-0.7674560546875
1726225708338828800,0.559828857421875,-0.1453704833984375,0.6052703857421875,-0.7537994384765625
1726225708348825000,0.5698251953125,-0.0560150146484375,0.6715240478515625,-0.699462890625
1726225708358822000,0.57982177734375,0.000152587890625,0.794769287109375,-0.553070068359375
1726225708368818000,0.58981787109375,-0.0319671630859375,0.9413604736328125,-0.17205810546875
1726225708378815000,0.59981494140625,-0.122802734375,1.0237274169921875,0.1341094970703125
1726225708388810800,0.609810791015625,-0.2170867919921875,1.129608154296875,0.2147216796875
1726225708398807800,0.619807861328125,-0.44842529296875,1.1467437744140625,0.2539825439453125
1726225708408803800,0.629803955078125,-0.5619049072265625,1.0505218505859375,0.3903350830078125
1726225708418801000,0.63980078125,-0.5628509521484375,0.97686767578125,0.3858489990234375
1726225708428796700,0.649796630859375,-0.5050506591796875,0.8805999755859375,0.4732666015625
1726225708438794000,0.6597939453125,-0.4620513916015625,0.6917266845703125,0.4753265380859375
1726225708448789800,0.669789794921875,-0.461944580078125,0.6243438720703125,0.31719970703125
1726225708458787000,0.679787109375,-0.4046630859375,0.6954803466796875,0.207489013671875
1726225708468782800,0.689782958984375,-0.2974090576171875,0.7315216064453125,0.2212982177734375
1726225708478780000,0.69977978515625,-0.2347564697265625,0.684814453125,0.2310028076171875
1726225708488776000,0.70977587890625,-0.2395477294921875,0.6786041259765625,0.1170654296875
1726225708498772000,0.71977197265625,-0.3407135009765625,0.7803955078125,-0.09320068359375
1726225708508768800,0.729768798828125,-0.512420654296875,1.03765869140625,-0.204315185546875
1726225708518765000,0.73976513671875,-0.78424072265625,1.1521759033203125,-0.0545196533203125
1726225708528761900,0.749761962890625,-0.8471527099609375,1.028717041015625,0.056243896484375
1726225708538758000,0.7597578125,-0.69146728515625,0.901397705078125,-0.0335845947265625
1726225708548755000,0.7697548828125,-0.460357666015625,0.794921875,-0.2332763671875
1726225708558751000,0.7797509765625,-0.292755126953125,0.6901397705078125,-0.4356689453125
1726225708568747800,0.789747802734375,-0.2227020263671875,0.650360107421875,-0.62005615234375
1726225708578743800,0.799743896484375,-0.2833251953125,0.650146484375,-0.7090606689453125
1726225708588740900,0.809740966796875,-0.51580810546875,0.6848602294921875,-0.7031707763671875
1726225708598736600,0.819736572265625,-0.7175445556640625,0.713470458984375,-0.701507568359375
1726225708608734000,0.82973388671875,-0.7282257080078125,0.788360595703125,-0.662384033203125
1726225708618729700,0.839729736328125,-0.5813140869140625,0.94635009765625,-0.54052734375
1726225708628727000,0.84972705078125,-0.2481842041015625,0.9556732177734375,-0.352203369140625
1726225708638722800,0.859722900390625,-0.035888671875,0.9748382568359375,-0.2305450439453125
1726225708648718800,0.86971875,-0.084686279296875,1.0125274658203125,-0.231048583984375
1726225708658716000,0.8797158203125,0.0585174560546875,0.934814453125,-0.21832275390625
1726225708668712000,0.8897119140625,0.102264404296875,0.8062591552734375,-0.2254638671875
1726225708678708700,0.899708740234375,0.223480224609375,0.63958740234375,-0.352294921875
1726225708688705000,0.909705078125,0.3987884521484375,0.7138519287109375,-0.500457763671875
1726225708698701800,0.919701904296875,0.6501312255859375,0.981475830078125,-0.5779266357421875
1726225708708697900,0.92969775390625,1.1212158203125,0.9521331787109375,-0.8524017333984375
1726225708718695000,0.93969482421875,0.8834381103515625,0.9443511962890625,-1.1116943359375
1726225708728691000,0.94969091796875,0.265289306640625,1.3142242431640625,-0.743011474609375
1726225708738687700,0.959687744140625,-0.3730621337890625,1.2380523681640625,-0.450408935546875
1726225708748684000,0.96968408203125,-0.876190185546875,1.0699462890625,-0.426727294921875
1726225708758680800,0.979680908203125,-0.974212646484375,0.98406982421875,-0.6984710693359375
1726225708768676900,0.9896767578125,-0.54736328125,0.9717559814453125,-0.949371337890625
1726225708778674000,0.999673828125,-0.2859344482421875,1.064788818359375,-0.92852783203125
1726225708788670000,1.009669921875,-0.1998748779296875,1.1202239990234375,-0.7429656982421875
1726225708798665700,1.019665771484375,-0.19940185546875,1.061279296875,-0.6011505126953125
1726225708808662800,1.029662841796875,-0.26092529296875,0.9732208251953125,-0.539642333984375
1726225708818658800,1.039658935546875,-0.134674072265625,0.782928466796875,-0.608734130859375
1726225708828655900,1.04965576171875,-0.0352325439453125,0.74127197265625,-0.7073516845703125
1726225708838652000,1.05965185546875,-0.022064208984375,0.906280517578125,-0.68408203125
1726225708848648700,1.069648681640625,-0.107940673828125,0.8724365234375,-0.86669921875
1726225708858645000,1.07964501953125,-0.2517547607421875,0.7378082275390625,-0.73931884765625
1726225708868641800,1.089641845703125,-0.3159027099609375,0.688385009765625,-0.76300048828125
1726225708878637800,1.099637939453125,-0.3951263427734375,0.7283782958984375,-0.7070770263671875
1726225708888635000,1.109634765625,-0.3515472412109375,0.761383056640625,-0.5876617431640625
1726225708898631000,1.119630859375,-0.2717437744140625,0.7420806884765625,-0.4630889892578125
1726225708908627700,1.129627685546875,-0.140289306640625,0.517669677734375,-0.3346405029296875
1726225708918624000,1.1396240234375,-0.0025482177734375,0.4656219482421875,-0.2674713134765625
1726225708928620800,1.149620849609375,-0.0057220458984375,0.5186004638671875,-0.2984771728515625
1726225708938616800,1.159616943359375,-0.0258331298828125,0.5932159423828125,-0.349822998046875
1726225708948612900,1.16961279296875,-0.108245849609375,0.7789306640625,-0.446807861328125
1726225708958610000,1.17960986328125,-0.135284423828125,0.8604583740234375,-0.5911865234375
1726225708968605700,1.189605712890625,-0.108245849609375,0.7935333251953125,-0.6645050048828125
1726225708978603000,1.19960302734375,-0.1087188720703125,0.7491455078125,-0.7515411376953125
1726225708988598800,1.209598876953125,-0.0915374755859375,0.6849212646484375,-0.7980804443359375
1726225708998595800,1.219595947265625,-0.107147216796875,0.6880340576171875,-0.90277099609375
1726225709008592100,1.229592041015625,-0.1147918701171875,0.6653900146484375,-0.920867919921875
1726225709018589000,1.2395888671875,-0.0229949951171875,0.1716461181640625,-0.476318359375
1726225709028585000,1.2495849609375,0.040557861328125,0.1607666015625,-0.3822479248046875
1726225709038582000,1.25958203125,0.124725341796875,0.2587127685546875,-0.40478515625
1726225709048578000,1.269578125,0.21746826171875,0.28399658203125,-0.376312255859375
1726225709058574800,1.279574951171875,0.27789306640625,0.335784912109375,-0.329132080078125
1726225709068571100,1.289571044921875,0.2579803466796875,0.4350128173828125,-0.2881622314453125
1726225709078567000,1.29956689453125,0.2532958984375,0.5352020263671875,-0.3376007080078125
1726225709088564000,1.30956396484375,0.2461090087890625,0.6789703369140625,-0.42022705078125
1726225709098560000,1.31956005859375,0.1362457275390625,0.9065399169921875,-0.684814453125
1726225709108557000,1.32955712890625,-0.161712646484375,1.531158447265625,-0.9705963134765625
1726225709118552800,1.339552734375,0.2507476806640625,2.212005615234375,-0.85223388671875
1726225709128550100,1.349550048828125,0.4338836669921875,2.3946380615234375,-0.4835968017578125
1726225709138546000,1.3595458984375,0.3903350830078125,2.08856201171875,-0.0951690673828125
1726225709148543200,1.369543212890625,0.37322998046875,1.7987060546875,0.12872314453125
1726225709158539000,1.3795390625,0.5941619873046875,1.446563720703125,0.04254150390625
1726225709168536000,1.3895361328125,0.7904205322265625,1.251953125,0.0800628662109375
1726225709178532000,1.399531982421875,0.7501983642578125,1.1639862060546875,0.228851318359375
1726225709188529000,1.40952880859375,0.5831451416015625,1.05731201171875,0.41790771484375
1726225709198525000,1.41952490234375,0.4156494140625,0.907806396484375,0.4233856201171875
1726225709208522000,1.42952197265625,0.395355224609375,0.6740264892578125,0.242523193359375
1726225709218518000,1.43951806640625,0.27264404296875,0.5349273681640625,0.1455078125
1726225709228514000,1.44951416015625,0.1486358642578125,0.5902252197265625,0.1412811279296875
1726225709238511000,1.459510986328125,-0.1374053955078125,0.7332916259765625,0.4940643310546875
1726225709248507100,1.469507080078125,-0.362091064453125,0.8841400146484375,0.73309326171875
1726225709258504000,1.47950390625,-0.43231201171875,0.997650146484375,0.699920654296875
1726225709268500000,1.4895,-0.418487548828125,1.0237274169921875,0.691436767578125
1726225709278497000,1.4994970703125,-0.3611297607421875,0.998809814453125,0.611236572265625
1726225709288492800,1.509492919921875,-0.3078460693359375,0.8870086669921875,0.5708160400390625
1726225709298490000,1.519489990234375,-0.2752838134765625,0.7794342041015625,0.48944091796875
1726225709308486000,1.52948583984375,-0.193359375,0.7383880615234375,0.414215087890625
1726225709318483200,1.539483154296875,-0.0755462646484375,0.749359130859375,0.3899688720703125
1726225709328479000,1.54947900390625,0.06573486328125,0.772613525390625,0.3871002197265625
1726225709338476000,1.55947607421875,0.196990966796875,0.8182830810546875,0.4009857177734375
1726225709348472000,1.56947216796875,0.30584716796875,0.8712005615234375,0.4475555419921875
1726225709358469000,1.57946923828125,0.432037353515625,0.9399871826171875,0.4683380126953125
1726225709368465000,1.58946484375,0.5642547607421875,0.9686126708984375,0.4522705078125
1726225709378461200,1.599461181640625,0.6478271484375,0.94140625,0.4460906982421875
1726225709388458000,1.6094580078125,0.709808349609375,0.9208831787109375,0.433837890625
1726225709398454000,1.6194541015625,0.7503662109375,0.89910888671875,0.3913726806640625
1726225709408451000,1.629451171875,0.793426513671875,0.890716552734375,0.360137939453125
1726225709418447000,1.639447021484375,0.7982025146484375,0.851409912109375,0.349945068359375
1726225709428444000,1.64944384765625,0.7404632568359375,0.8085784912109375,0.3351287841796875
1726225709438440200,1.659440185546875,0.6523590087890625,0.76531982421875,0.3476715087890625
1726225709448437000,1.66943701171875,0.5475616455078125,0.74530029296875,0.385467529296875
1726225709458433000,1.67943310546875,0.463836669921875,0.7565460205078125,0.440521240234375
1726225709468430000,1.68943017578125,0.390594482421875,0.7802276611328125,0.48638916015625
1726225709478425900,1.69942578125,0.3351287841796875,0.812255859375,0.5037689208984375
1726225709488423200,1.709423095703125,0.306427001953125,0.82672119140625,0.490325927734375
1726225709498419000,1.7194189453125,0.27838134765625,0.8277435302734375,0.4423065185546875
1726225709508415000,1.7294150390625,0.25,0.8392181396484375,0.444610595703125
1726225709518412000,1.739412109375,0.2442474365234375,0.840728759765625,0.4329376220703125
1726225709528408000,1.749407958984375,0.2406768798828125,0.8318328857421875,0.4297943115234375
1726225709538404900,1.75940478515625,0.21746826171875,0.80499267578125,0.4219207763671875
1726225709548401200,1.769401123046875,0.206817626953125,0.7786407470703125,0.3975372314453125
1726225709558398000,1.77939794921875,0.1988067626953125,0.7747039794921875,0.412200927734375
1726225709568394000,1.78939404296875,0.173370361328125,0.7574920654296875,0.395172119140625
1726225709578391000,1.79939111328125,0.14337158203125,0.7660675048828125,0.3993988037109375
1726225709588387000,1.809386962890625,0.1249237060546875,0.771728515625,0.401123046875
1726225709598384000,1.819384033203125,0.1194000244140625,0.8096923828125,0.405517578125
1726225709608380200,1.829380126953125,0.1464080810546875,0.8470306396484375,0.4193878173828125
1726225709618377000,1.839376953125,0.171783447265625,0.8668975830078125,0.4218902587890625
1726225709628373000,1.849373046875,0.200408935546875,0.8742523193359375,0.448333740234375
1726225709638369000,1.859369140625,0.2601470947265625,0.9251556396484375,0.504730224609375
1726225709648366000,1.869365966796875,0.2823028564453125,0.931976318359375,0.514984130859375
1726225709658361900,1.87936181640625,0.2304840087890625,0.9023284912109375,0.495147705078125
1726225709668359200,1.889359130859375,0.2057647705078125,0.90411376953125,0.501922607421875
1726225709678355000,1.89935498046875,0.2054901123046875,0.8905181884765625,0.5010223388671875
1726225709688352000,1.90935205078125,0.227996826171875,0.89453125,0.5095062255859375
1726225709698348000,1.91934814453125,0.235107421875,0.9165802001953125,0.53009033203125
1726225709708344800,1.9293447265625,0.268280029296875,0.9355316162109375,0.5266265869140625
1726225709718341000,1.939341064453125,0.2922515869140625,0.9439697265625,0.5213165283203125
1726225709728338000,1.949337890625,0.3104400634765625,0.93707275390625,0.522796630859375
1726225709738334000,1.959333984375,0.316131591796875,0.9192352294921875,0.4902496337890625
1726225709748331000,1.9693310546875,0.306304931640625,0.90155029296875,0.46783447265625
1726225709758327000,1.9793271484375,0.3124237060546875,0.8707122802734375,0.427703857421875
1726225709768323000,1.989322998046875,0.3166961669921875,0.84381103515625,0.425750732421875
1726225709778320100,1.999320068359375,0.3112640380859375,0.8246917724609375,0.42730712890625
1726225709788316000,2.00931591796875,0.3203582763671875,0.8477783203125,0.436676025390625
1726225709798313200,2.019313232421875,0.3307037353515625,0.87640380859375,0.4610137939453125
1726225709808309000,2.02930908203125,0.3271026611328125,0.8698272705078125,0.4663848876953125
1726225709818306000,2.03930615234375,0.3184814453125,0.8620758056640625,0.47454833984375
1726225709828301800,2.0493017578125,0.314300537109375,0.861572265625,0.4686279296875
1726225709838299100,2.059299072265625,0.3104705810546875,0.84930419921875,0.4553375244140625
1726225709848295000,2.069294921875,0.2908172607421875,0.850677490234375,0.4293670654296875
1726225709858292200,2.079292236328125,0.286346435546875,0.8777923583984375,0.4176025390625
1726225709868288000,2.0892880859375,0.2845611572265625,0.9108734130859375,0.4367523193359375
1726225709878285000,2.09928515625,0.2739105224609375,0.9405059814453125,0.4422607421875
1726225709888281000,2.109281005859375,0.2504119873046875,0.9369354248046875,0.4387359619140625
1726225709898278000,2.11927783203125,0.215606689453125,0.9091033935546875,0.4127349853515625
1726225709908274000,2.12927392578125,0.1777191162109375,0.88006591796875,0.3763427734375
1726225709918270200,2.139270263671875,0.185028076171875,0.8622283935546875,0.352203369140625
1726225709928267000,2.14926708984375,0.214447021484375,0.839630126953125,0.3158111572265625
1726225709938263000,2.159262939453125,0.2031097412109375,0.8595733642578125,0.305084228515625
1726225709948260000,2.169260009765625,0.150360107421875,0.9036712646484375,0.3591766357421875
1726225709958256000,2.179256103515625,0.11151123046875,0.923858642578125,0.4337310791015625
1726225709968253200,2.189253173828125,0.087188720703125,0.9071197509765625,0.48944091796875
1726225709978249000,2.1992490234375,0.0664520263671875,0.886810302734375,0.535675048828125
1726225709988246000,2.20924609375,0.060638427734375,0.828887939453125,0.534698486328125
1726225709998242300,2.2192421875,0.052947998046875,0.7938232421875,0.5460205078125
1726225710008239600,2.229239501953125,0.0502777099609375,0.7641143798828125,0.5612335205078125
1726225710018235400,2.2392353515625,0.0574493408203125,0.7380828857421875,0.5709075927734375
1726225710028232400,2.249232421875,0.068023681640625,0.7277374267578125,0.57318115234375
1726225710038228500,2.259228515625,0.0694732666015625,0.740081787109375,0.5999603271484375
1726225710048224500,2.269224609375,0.06805419921875,0.7548370361328125,0.65570068359375
1726225710058221600,2.2792216796875,0.06036376953125,0.7411041259765625,0.697418212890625
1726225710068217600,2.289217529296875,0.0567779541015625,0.718963623046875,0.7284393310546875
1726225710078214400,2.29921435546875,0.05560302734375,0.6894989013671875,0.7366790771484375
1726225710088210700,2.309210693359375,0.06402587890625,0.67437744140625,0.7315673828125
1726225710098207500,2.31920751953125,0.08099365234375,0.691314697265625,0.76287841796875
1726225710108203500,2.32920361328125,0.094940185546875,0.6912994384765625,0.7808837890625
1726225710118200600,2.33920068359375,0.107696533203125,0.708953857421875,0.7841644287109375
1726225710128196400,2.3491962890625,0.1135711669921875,0.7288665771484375,0.8077392578125
1726225710138193400,2.359193359375,0.1201019287109375,0.7357177734375,0.819488525390625
1726225710148189400,2.369189453125,0.1246490478515625,0.7397308349609375,0.808563232421875
1726225710158186500,2.3791865234375,0.131317138671875,0.7384796142578125,0.777069091796875
1726225710168182300,2.389182373046875,0.1414642333984375,0.7574920654296875,0.7563629150390625
1726225710178178600,2.399178466796875,0.1482086181640625,0.7595062255859375,0.7325439453125
1726225710188175400,2.40917529296875,0.1505584716796875,0.7747039794921875,0.6910247802734375
1726225710198171400,2.41917138671875,0.1464996337890625,0.776611328125,0.653594970703125
1726225710208168400,2.42916845703125,0.14697265625,0.782806396484375,0.6479949951171875
1726225710218164500,2.43916455078125,0.1432952880859375,0.7779388427734375,0.6369171142578125
1726225710228161500,2.44916162109375,0.1284027099609375,0.7744140625,0.6354827880859375
1726225710238157600,2.459157470703125,0.1153717041015625,0.763427734375,0.64593505859375
1726225710248154400,2.469154296875,0.1031036376953125,0.7428131103515625,0.6495208740234375
1726225710258150700,2.479150634765625,0.0957794189453125,0.7262420654296875,0.6483154296875
1726225710268147500,2.4891474609375,0.08697509765625,0.7148590087890625,0.645233154296875
1726225710278143500,2.4991435546875,0.07794189453125,0.70794677734375,0.6375579833984375
1726225710288139500,2.509139404296875,0.0639801025390625,0.7079010009765625,0.6255340576171875
1726225710298136600,2.519136474609375,0.0511474609375,0.7126007080078125,0.615142822265625
1726225710308132400,2.52913232421875,0.036712646484375,0.718231201171875,0.60357666015625
1726225710318129700,2.539129638671875,0.025390625,0.7364044189453125,0.5973052978515625
1726225710328125400,2.54912548828125,0.0220794677734375,0.7608184814453125,0.608367919921875
1726225710338122200,2.559122314453125,0.018096923828125,0.791046142578125,0.591033935546875
1726225710348118500,2.569118408203125,0.005950927734375,0.796112060546875,0.5283203125
1726225710358115300,2.579115234375,0.00439453125,0.81549072265625,0.5277099609375
1726225710368111400,2.589111328125,0.00091552734375,0.833465576171875,0.5293121337890625
1726225710378108400,2.5991083984375,-0.0151824951171875,0.8291015625,0.5016326904296875
1726225710388104400,2.6091044921875,-0.0260009765625,0.8287353515625,0.4938507080078125
1726225710398101500,2.6191015625,-0.032257080078125,0.8322296142578125,0.506256103515625
1726225710408097500,2.62909765625,-0.0394287109375,0.8311614990234375,0.5313720703125
1726225710418094300,2.63909423828125,-0.048095703125,0.8334503173828125,0.5705108642578125
1726225710428090600,2.649090576171875,-0.054840087890625,0.8333740234375,0.613922119140625
1726225710438086400,2.65908642578125,-0.0605010986328125,0.8202667236328125,0.6385955810546875
1726225710448083500,2.66908349609375,-0.0562896728515625,0.7969970703125,0.657684326171875
1726225710458079500,2.67907958984375,-0.041900634765625,0.7752227783203125,0.6708831787109375
1726225710468076500,2.68907666015625,-0.023834228515625,0.75634765625,0.6516265869140625
1726225710478072300,2.699072265625,-0.0060577392578125,0.751373291015625,0.6692047119140625
1726225710488069600,2.709069580078125,-0.000396728515625,0.76123046875,0.6915130615234375
1726225710498065400,2.7190654296875,-0.0084228515625,0.7661285400390625,0.7164154052734375
1726225710508062700,2.729062744140625,-0.018707275390625,0.7634429931640625,0.731231689453125
1726225710518058500,2.73905859375,-0.0207977294921875,0.7472381591796875,0.7371826171875
1726225710528055600,2.7490556640625,-0.0101165771484375,0.7344512939453125,0.734375
1726225710538051300,2.75905126953125,0.0035858154296875,0.7086334228515625,0.7252349853515625
1726225710548047600,2.769047607421875,0.0130767822265625,0.6900482177734375,0.7112579345703125
1726225710558044400,2.77904443359375,0.0135345458984375,0.679779052734375,0.699493408203125
1726225710568040400,2.78904052734375,0.0034942626953125,0.6932830810546875,0.7010650634765625
1726225710578037500,2.79903759765625,-0.0161895751953125,0.7155609130859375,0.71649169921875
1726225710588033500,2.809033447265625,-0.0397491455078125,0.7215576171875,0.728729248046875
1726225710598030600,2.819030517578125,-0.063873291015625,0.7158966064453125,0.7334442138671875
1726225710608026600,2.829026611328125,-0.0733489990234375,0.7127685546875,0.743438720703125
1726225710618023400,2.8390234375,-0.070465087890625,0.700286865234375,0.7353515625
1726225710628019500,2.84901953125,-0.078277587890625,0.680877685546875,0.737579345703125
1726225710638016500,2.8590166015625,-0.087158203125,0.67449951171875,0.75048828125
1726225710648012300,2.86901220703125,-0.1053314208984375,0.6749725341796875,0.7418670654296875
1726225710658009600,2.879009521484375,-0.127899169921875,0.667388916015625,0.713653564453125
1726225710668005400,2.88900537109375,-0.14593505859375,0.6865081787109375,0.717498779296875
1726225710678001400,2.89900146484375,-0.1558990478515625,0.710296630859375,0.7473297119140625
1726225710687998500,2.90899853515625,-0.1650848388671875,0.739654541015625,0.7640380859375
1726225710697994500,2.918994384765625,-0.1634063720703125,0.76824951171875,0.7604522705078125
1726225710707991600,2.928991455078125,-0.1509857177734375,0.7760772705078125,0.7469329833984375
1726225710717987600,2.938987548828125,-0.13336181640625,0.76177978515625,0.72467041015625
1726225710727984400,2.948984375,-0.1330718994140625,0.7452239990234375,0.684112548828125
1726225710737980400,2.95898046875,-0.1265716552734375,0.725372314453125,0.65435791015625
1726225710747977500,2.9689775390625,-0.1356964111328125,0.7175445556640625,0.6362762451171875
1726225710757973500,2.978973388671875,-0.1494293212890625,0.703460693359375,0.655242919921875
1726225710767970600,2.988970458984375,-0.1571044921875,0.7017364501953125,0.6848907470703125
1726225710777966600,2.998966552734375,-0.1543121337890625,0.694000244140625,0.70355224609375
1726225710787963400,3.00896337890625,-0.1443328857421875,0.6810760498046875,0.70562744140625
1726225710797959700,3.018959716796875,-0.1296539306640625,0.684661865234375,0.724029541015625
1726225710807956500,3.02895654296875,-0.122589111328125,0.6981048583984375,0.7500152587890625
1726225710817952500,3.038952392578125,-0.12054443359375,0.6927642822265625,0.7384796142578125
1726225710827948500,3.048948486328125,-0.1218414306640625,0.68853759765625,0.7280120849609375
1726225710837945300,3.0589453125,-0.11419677734375,0.6817169189453125,0.7144622802734375
1726225710847941400,3.06894140625,-0.104278564453125,0.688201904296875,0.7454071044921875
1726225710857938400,3.0789384765625,-0.08660888671875,0.7061004638671875,0.8021087646484375
1726225710867934500,3.0889345703125,-0.0709381103515625,0.69952392578125,0.8093414306640625
1726225710877931500,3.098931640625,-0.0675811767578125,0.6637420654296875,0.7816619873046875
1726225710887927600,3.108927490234375,-0.064788818359375,0.64794921875,0.773284912109375
1726225710897924400,3.11892431640625,-0.0675506591796875,0.6463775634765625,0.7735137939453125
1726225710907920600,3.128920654296875,-0.074951171875,0.64697265625,0.7822723388671875
1726225710917917400,3.13891748046875,-0.0743255615234375,0.668701171875,0.787353515625
1726225710927913500,3.14891357421875,-0.069427490234375,0.704986572265625,0.7902984619140625
1726225710937909500,3.158909423828125,-0.051239013671875,0.725433349609375,0.7736053466796875
1726225710947906600,3.168906494140625,-0.028594970703125,0.7432861328125,0.7523651123046875
1726225710957902300,3.17890234375,-0.0099334716796875,0.756256103515625,0.72021484375
1726225710967899600,3.188899658203125,0.00726318359375,0.7773284912109375,0.6869659423828125
1726225710977895400,3.1988955078125,0.0059661865234375,0.7969207763671875,0.6478118896484375
1726225710987892500,3.208892578125,-0.0005340576171875,0.807373046875,0.6208648681640625
1726225710997889800,3.218889892578125,-0.02264404296875,0.816375732421875,0.6019744873046875
1726225711007886600,3.228886474609375,-0.0521392822265625,0.8028564453125,0.56512451171875
1726225711017882600,3.238882568359375,-0.0754852294921875,0.7916259765625,0.5408782958984375
1726225711027879700,3.248879638671875,-0.091766357421875,0.799163818359375,0.52972412109375
1726225711037875700,3.258875732421875,-0.1038970947265625,0.823638916015625,0.5281524658203125
1726225711047872500,3.26887255859375,-0.1102752685546875,0.85687255859375,0.5264739990234375
1726225711057868800,3.278868896484375,-0.1180267333984375,0.8849945068359375,0.5118408203125
1726225711067864600,3.288864501953125,-0.11822509765625,0.9019927978515625,0.49786376953125
1726225711077861600,3.298861572265625,-0.1127471923828125,0.9171905517578125,0.48687744140625
1726225711087857700,3.308857666015625,-0.10418701171875,0.9239501953125,0.4728851318359375
1726225711097854700,3.318854736328125,-0.09771728515625,0.91864013671875,0.4641265869140625
1726225711107850500,3.3288505859375,-0.093353271484375,0.8954620361328125,0.448516845703125
1726225711117847800,3.338847900390625,-0.095489501953125,0.896148681640625,0.4503631591796875
1726225711127843600,3.348843505859375,-0.1002349853515625,0.907470703125,0.4695892333984375
1726225711137840600,3.358840576171875,-0.104278564453125,0.894622802734375,0.4869232177734375
1726225711147836700,3.368836669921875,-0.106475830078125,0.8815460205078125,0.520782470703125
1726225711157833500,3.37883349609375,-0.1085968017578125,0.8488922119140625,0.536041259765625
1726225711167829800,3.388829833984375,-0.10552978515625,0.8296966552734375,0.566680908203125
1726225711177826600,3.39882666015625,-0.101348876953125,0.8041229248046875,0.5838470458984375
1726225711187822600,3.408822509765625,-0.091461181640625,0.7764129638671875,0.5974884033203125
1726225711197819000,3.41881884765625,-0.08441162109375,0.748321533203125,0.6129913330078125
1726225711207815700,3.428815673828125,-0.0716094970703125,0.7348175048828125,0.6410064697265625
1726225711217811700,3.438811767578125,-0.0598297119140625,0.7272186279296875,0.6530609130859375
1726225711227808800,3.448808837890625,-0.048553466796875,0.706817626953125,0.647979736328125
1726225711237804500,3.458804443359375,-0.0224456787109375,0.705810546875,0.6680908203125
1726225711247801600,3.468801513671875,0.014373779296875,0.72747802734375,0.705596923828125
1726225711257797600,3.478797607421875,0.04180908203125,0.7482452392578125,0.718292236328125
1726225711267794700,3.488794677734375,0.0503692626953125,0.755859375,0.695281982421875
1726225711277790500,3.49879052734375,0.0373687744140625,0.7501373291015625,0.6626434326171875
1726225711287787800,3.508787841796875,0.01373291015625,0.7342376708984375,0.644134521484375
1726225711297783600,3.518783447265625,-0.001190185546875,0.7275390625,0.657562255859375
1726225711307779600,3.528779541015625,-0.01971435546875,0.716583251953125,0.6487579345703125
1726225711317776600,3.538776611328125,-0.0378875732421875,0.7083282470703125,0.6290130615234375
1726225711327772700,3.548772705078125,-0.0455780029296875,0.722930908203125,0.6223297119140625
1726225711337769700,3.558769775390625,-0.05078125,0.7604522705078125,0.632568359375
1726225711347765800,3.568765869140625,-0.0620880126953125,0.782135009765625,0.62933349609375
1726225711357762600,3.578762451171875,-0.082366943359375,0.804534912109375,0.6525421142578125
1726225711367758800,3.5887587890625,-0.09735107421875,0.8137359619140625,0.6629180908203125
1726225711377755600,3.598755615234375,-0.1173553466796875,0.7858123779296875,0.6475067138671875
1726225711387751700,3.608751708984375,-0.128173828125,0.766387939453125,0.6395721435546875
1726225711397748700,3.618748779296875,-0.1318359375,0.7535858154296875,0.635284423828125
1726225711407744800,3.628744873046875,-0.1284332275390625,0.727508544921875,0.6247711181640625
1726225711417740500,3.638740478515625,-0.115264892578125,0.69866943359375,0.616546630859375
1726225711427737600,3.648737548828125,-0.0972747802734375,0.665435791015625,0.60247802734375
1726225711437733600,3.658733642578125,-0.0826263427734375,0.64385986328125,0.588165283203125
1726225711447730400,3.66873046875,-0.066070556640625,0.6514129638671875,0.5975494384765625
1726225711457726700,3.678726806640625,-0.0421600341796875,0.6860809326171875,0.6087646484375
1726225711467723500,3.6887236328125,-0.020172119140625,0.751434326171875,0.6456298828125
1726225711477719600,3.698719482421875,0.002838134765625,0.8012847900390625,0.672332763671875
1726225711487716600,3.708716552734375,0.0215606689453125,0.81988525390625,0.669464111328125
1726225711497712600,3.718712646484375,0.031585693359375,0.8233642578125,0.6496429443359375
1726225711507709700,3.728709716796875,0.0283203125,0.7903289794921875,0.6015472412109375
1726225711517705700,3.738705810546875,0.0182037353515625,0.7713470458984375,0.5601043701171875
1726225711527702500,3.74870263671875,0.0036773681640625,0.74822998046875,0.5153350830078125
1726225711537698800,3.75869873046875,-0.014312744140625,0.7420501708984375,0.47613525390625
1726225711547694600,3.768694580078125,-0.0289154052734375,0.747344970703125,0.44854736328125
1726225711557691600,3.778691650390625,-0.0389404296875,0.7649078369140625,0.4360198974609375
1726225711567687700,3.788687744140625,-0.04498291015625,0.7943267822265625,0.4305877685546875
1726225711577684700,3.798684814453125,-0.0531463623046875,0.8333892822265625,0.4381561279296875
1726225711587680500,3.808680419921875,-0.0648956298828125,0.8797607421875,0.453338623046875
1726225711597677800,3.818677734375,-0.076873779296875,0.9139556884765625,0.4691619873046875
1726225711607673600,3.828673583984375,-0.089996337890625,0.920684814453125,0.4813385009765625
1726225711617670700,3.838670654296875,-0.100372314453125,0.8976898193359375,0.4701995849609375
1726225711627666700,3.848666748046875,-0.1054840087890625,0.8681640625,0.4613800048828125
1726225711637663500,3.85866357421875,-0.101348876953125,0.8381195068359375,0.451263427734375
1726225711647659500,3.868659423828125,-0.090911865234375,0.8195037841796875,0.44464111328125
1726225711657656600,3.878656494140625,-0.0816802978515625,0.8083648681640625,0.4507904052734375
1726225711667652600,3.888652587890625,-0.073577880859375,0.814208984375,0.469085693359375
1726225711677648600,3.898648681640625,-0.0704498291015625,0.8436279296875,0.49639892578125
1726225711687645700,3.908645751953125,-0.0714263916015625,0.89263916015625,0.5377044677734375
1726225711697641700,3.918641845703125,-0.0757598876953125,0.92425537109375,0.56939697265625
1726225711707638800,3.928638671875,-0.072113037109375,0.9223785400390625,0.569732666015625
1726225711717634600,3.938634521484375,-0.0659027099609375,0.89044189453125,0.552764892578125
1726225711727631600,3.948631591796875,-0.0551910400390625,0.8385467529296875,0.536376953125
1726225711737627600,3.958627685546875,-0.042694091796875,0.8241424560546875,0.5299530029296875
1726225711747624700,3.968624755859375,-0.0244598388671875,0.84771728515625,0.53564453125
1726225711757620500,3.978620361328125,-0.0095367431640625,0.8998565673828125,0.5646820068359375
1726225711767617800,3.98861767578125,0.0004119873046875,0.9465179443359375,0.6030426025390625
1726225711777613600,3.998613525390625,-0.003021240234375,0.976226806640625,0.6323394775390625
1726225711787609600,4.008609619140625,-0.015625,0.9699249267578125,0.6338958740234375
1726225711797606700,4.018606689453125,-0.0316162109375,0.9523162841796875,0.6357574462890625
1726225711807602700,4.028602783203125,-0.046112060546875,0.9576568603515625,0.6391143798828125
1726225711817599500,4.038599609375,-0.0544281005859375,0.9821014404296875,0.637847900390625
1726225711827595800,4.048595703125,-0.0515899658203125,1.0222930908203125,0.65374755859375
1726225711837592600,4.058592529296875,-0.0559844970703125,1.043487548828125,0.65216064453125
1726225711847588600,4.068588623046875,-0.062347412109375,1.0438995361328125,0.6360015869140625
1726225711857585700,4.078585693359375,-0.064544677734375,1.037689208984375,0.6237335205078125
1726225711867581700,4.088581787109375,-0.061004638671875,1.0429840087890625,0.61175537109375
1726225711877578800,4.098578857421875,-0.0469512939453125,1.0240325927734375,0.563140869140625
1726225711887574800,4.10857470703125,-0.0325927734375,0.9739227294921875,0.5235137939453125
1726225711897570600,4.118570556640625,-0.0175018310546875,0.9272918701171875,0.4937591552734375
1726225711907567600,4.128567626953125,-0.0088043212890625,0.9116668701171875,0.500885009765625
1726225711917563600,4.138563720703125,-0.0142974853515625,0.9128265380859375,0.5156402587890625
1726225711927560400,4.148560546875,-0.0359649658203125,0.88238525390625,0.5170440673828125
1726225711937556700,4.158556640625,-0.06109619140625,0.8276824951171875,0.5064849853515625
1726225711947553500,4.168553466796875,-0.072021484375,0.756988525390625,0.4722900390625
1726225711957549600,4.178549560546875,-0.0760498046875,0.6792449951171875,0.426055908203125
1726225711967546600,4.188546630859375,-0.0786285400390625,0.62353515625,0.4067535400390625
1726225711977542700,4.198542724609375,-0.076507568359375,0.598175048828125,0.4045867919921875
1726225711987539700,4.208539794921875,-0.071929931640625,0.6199493408203125,0.4258880615234375
1726225711997534000,4.218533935546875,-0.069854736328125,0.6561431884765625,0.4543914794921875
1726225712007531300,4.22853125,-0.0665435791015625,0.71588134765625,0.4862060546875
1726225712017527000,4.238527099609375,-0.0606536865234375,0.7881317138671875,0.5298004150390625
1726225712027523000,4.248523193359375,-0.0481109619140625,0.841705322265625,0.5654144287109375
1726225712037520100,4.25852001953125,-0.021270751953125,0.8888702392578125,0.59344482421875
1726225712047516200,4.26851611328125,0.002166748046875,0.9004669189453125,0.6064300537109375
1726225712057513000,4.278512939453125,0.014129638671875,0.8826446533203125,0.5977325439453125
1726225712067509200,4.28850927734375,0.0066375732421875,0.8599853515625,0.5958251953125
1726225712077506000,4.298506103515625,-0.009979248046875,0.855224609375,0.6038360595703125
1726225712087502000,4.308502197265625,-0.034515380859375,0.8804779052734375,0.61834716796875
1726225712097499100,4.3184990234375,-0.0506134033203125,0.9211883544921875,0.6336517333984375
1726225712107495200,4.3284951171875,-0.06085205078125,0.9380645751953125,0.624267578125
1726225712117492200,4.3384921875,-0.0615692138671875,0.9457550048828125,0.6209259033203125
1726225712127488300,4.34848828125,-0.0469512939453125,0.9398651123046875,0.601409912109375
1726225712137484000,4.358484130859375,-0.028411865234375,0.92791748046875,0.5554046630859375
1726225712147481000,4.368481201171875,-0.0101318359375,0.930908203125,0.5287628173828125
1726225712157477000,4.37847705078125,0.007781982421875,0.9475250244140625,0.49932861328125
1726225712167474000,4.388473876953125,0.0254974365234375,0.978485107421875,0.469940185546875
1726225712177470200,4.39847021484375,0.0341033935546875,1.00177001953125,0.442352294921875
1726225712187467000,4.408467041015625,0.03668212890625,0.986541748046875,0.40155029296875
1726225712197463000,4.418463134765625,0.026397705078125,0.9576873779296875,0.3618011474609375
1726225712207460000,4.428460205078125,0.020233154296875,0.9443359375,0.343292236328125
1726225712217456000,4.4384560546875,0.018646240234375,0.96282958984375,0.336700439453125
1726225712227453000,4.448452880859375,0.006103515625,0.979766845703125,0.350006103515625
1726225712237449200,4.45844921875,-0.0196685791015625,0.9490509033203125,0.3511199951171875
1726225712247446000,4.468446044921875,-0.0452728271484375,0.8730316162109375,0.340301513671875
1726225712257442000,4.478442138671875,-0.075347900390625,0.7930755615234375,0.3575286865234375
1726225712267438000,4.48843798828125,-0.0962677001953125,0.7458953857421875,0.3943634033203125
1726225712277435100,4.49843505859375,-0.099639892578125,0.7252349853515625,0.4407196044921875
1726225712287431000,4.508430908203125,-0.1001434326171875,0.7127838134765625,0.4632568359375
1726225712297428200,4.51842822265625,-0.080322265625,0.673553466796875,0.470977783203125
1726225712307424000,4.528424072265625,-0.0540313720703125,0.6363677978515625,0.474151611328125
1726225712317421300,4.53842138671875,-0.016204833984375,0.6375732421875,0.479827880859375
1726225712327417000,4.5484169921875,0.0142822265625,0.669219970703125,0.4920654296875
1726225712337414100,4.5584140625,0.0382080078125,0.7182464599609375,0.490753173828125
1726225712347410200,4.56841015625,0.0513458251953125,0.7701873779296875,0.4813690185546875
1726225712357407000,4.578406982421875,0.056549072265625,0.817596435546875,0.474151611328125
1726225712367403000,4.588403076171875,0.0580291748046875,0.87542724609375,0.472381591796875
1726225712377399300,4.5983994140625,0.0579986572265625,0.9453887939453125,0.4697723388671875
1726225712387396000,4.60839599609375,0.0541839599609375,1.0208892822265625,0.4735107421875
1726225712397392100,4.61839208984375,0.046600341796875,1.0787200927734375,0.462127685546875
1726225712407389200,4.62838916015625,0.0282135009765625,1.099090576171875,0.44476318359375
1726225712417385200,4.63838525390625,0.0030364990234375,1.0887908935546875,0.42315673828125
1726225712427382000,4.648382080078125,-0.0146026611328125,1.0777130126953125,0.3955078125
1726225712437378000,4.6583779296875,-0.0327301025390625,1.07196044921875,0.37689208984375
1726225712447375000,4.668375,-0.0530548095703125,1.0548095703125,0.36260986328125
1726225712457371000,4.678370849609375,-0.078033447265625,1.0138702392578125,0.3461761474609375
1726225712467368200,4.6883681640625,-0.095703125,0.963775634765625,0.3226470947265625
1726225712477364000,4.698364013671875,-0.0954437255859375,0.9381866455078125,0.3072052001953125
1726225712487360000,4.708360107421875,-0.0904388427734375,0.9019012451171875,0.3033599853515625
1726225712497357000,4.718357177734375,-0.08197021484375,0.8461151123046875,0.3023529052734375
1726225712507353000,4.72835302734375,-0.075347900390625,0.791412353515625,0.304107666015625
1726225712517350100,4.73835009765625,-0.0759429931640625,0.750152587890625,0.313812255859375
1726225712527346200,4.74834619140625,-0.0746307373046875,0.741790771484375,0.3282623291015625
1726225712537343000,4.758343017578125,-0.068115234375,0.7525482177734375,0.347900390625
1726225712547339300,4.76833935546875,-0.06103515625,0.7747955322265625,0.3766021728515625
1726225712557336000,4.778336181640625,-0.049102783203125,0.7944183349609375,0.405242919921875
1726225712567332000,4.78833203125,-0.0328216552734375,0.8093109130859375,0.422943115234375
1726225712577329200,4.7983291015625,-0.00726318359375,0.831298828125,0.430419921875
1726225712587325200,4.8083251953125,0.022918701171875,0.8850250244140625,0.4561004638671875
1726225712597321000,4.818321044921875,0.0590362548828125,0.95477294921875,0.4977874755859375
1726225712607318300,4.828318359375,0.093994140625,1.0105133056640625,0.535369873046875
1726225712617314000,4.83831396484375,0.1219482421875,1.027984619140625,0.548858642578125
1726225712627311000,4.84831103515625,0.214263916015625,0.95635986328125,0.53009033203125
1726225712637307100,4.85830712890625,0.3105926513671875,0.85986328125,0.4749603271484375
1726225712647304000,4.868303955078125,0.389129638671875,0.8094940185546875,0.45343017578125
1726225712657300000,4.878300048828125,0.4105987548828125,0.8274078369140625,0.4100189208984375
1726225712667297000,4.888297119140625,0.344940185546875,0.882537841796875,0.33648681640625
1726225712677293000,4.89829296875,0.267547607421875,0.967620849609375,0.3078155517578125
1726225712687290000,4.9082900390625,0.2273712158203125,1.077392578125,0.30413818359375
1726225712697286100,4.9182861328125,0.1881103515625,1.1438751220703125,0.309661865234375
1726225712707283000,4.928282958984375,0.1387786865234375,1.139556884765625,0.2988128662109375
1726225712717279200,4.938279296875,0.0841064453125,1.07293701171875,0.3048248291015625
1726225712727275000,4.94827490234375,0.043121337890625,1.0347900390625,0.3448638916015625
1726225712737272000,4.95827197265625,0.0063323974609375,1.0078582763671875,0.3971099853515625
1726225712747268000,4.96826806640625,-0.0443115234375,0.9518890380859375,0.4423980712890625
1726225712757265200,4.97826513671875,-0.077606201171875,0.8863983154296875,0.4811248779296875
1726225712767261000,4.988260986328125,-0.0940704345703125,0.8645477294921875,0.538787841796875
1726225712777258200,4.99825830078125,-0.0902862548828125,0.872406005859375,0.60260009765625
1726225712787254000,5.00825390625,-0.0716400146484375,0.89599609375,0.6881561279296875
1726225712797251300,5.018251220703125,-0.066619873046875,0.905853271484375,0.776092529296875
1726225712807247000,5.0282470703125,-0.0513153076171875,0.8515625,0.8201904296875
1726225712817244200,5.038244140625,-0.0205078125,0.7767333984375,0.86279296875
1726225712827240000,5.048239990234375,0.0392913818359375,0.712005615234375,0.9058380126953125
1726225712837236200,5.058236328125,0.0966339111328125,0.662017822265625,0.93902587890625
1726225712847233000,5.06823291015625,0.15655517578125,0.58087158203125,0.8936614990234375
1726225712857229000,5.07822900390625,0.17120361328125,0.551177978515625,0.8756561279296875
1726225712867226000,5.08822607421875,0.1456756591796875,0.527801513671875,0.84759521484375
1726225712877222100,5.09822216796875,0.1249542236328125,0.4503021240234375,0.7291412353515625
1726225712887219200,5.10821923828125,0.10467529296875,0.4617767333984375,0.7226104736328125
1726225712897215200,5.11821533203125,0.08441162109375,0.4836883544921875,0.688629150390625
1726225712907212000,5.1282119140625,0.081787109375,0.5058135986328125,0.61322021484375
1726225712917208300,5.138208251953125,0.09503173828125,0.5345458984375,0.5572357177734375
1726225712927205000,5.148205078125,0.11968994140625,0.5899658203125,0.516845703125
1726225712937201000,5.158200927734375,0.1472930908203125,0.657989501953125,0.492462158203125
1726225712947197200,5.168197265625,0.1637115478515625,0.708892822265625,0.45904541015625
1726225712957194000,5.178194091796875,0.1612091064453125,0.737640380859375,0.4661865234375
1726225712967190000,5.18818994140625,0.1311798095703125,0.77301025390625,0.4894866943359375
1726225712977187000,5.19818701171875,0.09112548828125,0.7961883544921875,0.51251220703125
1726225712987183000,5.20818310546875,0.059844970703125,0.81475830078125,0.5229644775390625
1726225712997180200,5.21818017578125,0.0489044189453125,0.8588409423828125,0.542877197265625
1726225713007175700,5.22817578125,0.0516357421875,0.9194183349609375,0.562957763671875
1726225713017172700,5.2381728515625,0.0562896728515625,0.9684906005859375,0.589874267578125
1726225713027168800,5.248168701171875,0.0670013427734375,0.9955902099609375,0.608642578125
1726225713037165800,5.258165771484375,0.079803466796875,1.00457763671875,0.6228179931640625
1726225713047161900,5.268161865234375,0.102691650390625,1.0076751708984375,0.6258087158203125
1726225713057157600,5.27815771484375,0.146240234375,1.012542724609375,0.6284027099609375
1726225713067155000,5.288155029296875,0.2117767333984375,1.0340118408203125,0.6298370361328125
1726225713077150700,5.298150634765625,0.27984619140625,1.0379638671875,0.63775634765625
1726225713087147800,5.308147705078125,0.3235321044921875,0.9831085205078125,0.6325531005859375
1726225713097143800,5.318143798828125,0.31439208984375,0.9105072021484375,0.63189697265625
1726225713107140900,5.328140869140625,0.2767791748046875,0.8580169677734375,0.6392974853515625
1726225713117136600,5.33813671875,0.241943359375,0.815155029296875,0.6432342529296875
1726225713127134000,5.348134033203125,0.226837158203125,0.7920684814453125,0.653778076171875
1726225713137129700,5.358129638671875,0.2283172607421875,0.7786865234375,0.6519317626953125
1726225713147126800,5.368126708984375,0.2275390625,0.7550048828125,0.6282196044921875
1726225713157122800,5.378122802734375,0.22613525390625,0.733306884765625,0.62872314453125
1726225713167118800,5.388118896484375,0.2021636962890625,0.7030029296875,0.61444091796875
1726225713177115600,5.39811572265625,0.192779541015625,0.665069580078125,0.5871429443359375
1726225713187112000,5.40811181640625,0.19781494140625,0.6630706787109375,0.5596923828125
1726225713197108700,5.418108642578125,0.197540283203125,0.6689300537109375,0.5550079345703125
1726225713207104800,5.428104736328125,0.2031707763671875,0.68048095703125,0.538909912109375
1726225713217101800,5.438101806640625,0.19464111328125,0.6647186279296875,0.5324554443359375
1726225713227097900,5.448097900390625,0.1788177490234375,0.6607208251953125,0.52972412109375
1726225713237095000,5.458094970703125,0.165740966796875,0.6744232177734375,0.5306396484375
1726225713247091000,5.468091064453125,0.1557769775390625,0.690338134765625,0.538360595703125
1726225713257087700,5.478087646484375,0.1578216552734375,0.698516845703125,0.5502777099609375
1726225713267083800,5.488083740234375,0.1707916259765625,0.7141571044921875,0.5513763427734375
1726225713277079800,5.498079833984375,0.1878662109375,0.727935791015625,0.5540618896484375
1726225713287076600,5.50807666015625,0.201995849609375,0.7277069091796875,0.5523529052734375
1726225713297073000,5.518072998046875,0.2068328857421875,0.726165771484375,0.5765228271484375
1726225713307069700,5.528069580078125,0.2024993896484375,0.7406768798828125,0.6186676025390625
1726225713317065700,5.538065673828125,0.18994140625,0.74163818359375,0.6314849853515625
1726225713327062800,5.548062744140625,0.172454833984375,0.7413177490234375,0.6547088623046875
1726225713337058800,5.558058837890625,0.15753173828125,0.7659912109375,0.711669921875
1726225713347055600,5.5680556640625,0.1433563232421875,0.7800445556640625,0.7476043701171875
1726225713357052000,5.578052001953125,0.1371917724609375,0.786163330078125,0.76702880859375
1726225713367047700,5.588047607421875,0.1342926025390625,0.7813873291015625,0.7584991455078125
1726225713377044700,5.598044677734375,0.1469879150390625,0.761749267578125,0.745391845703125
1726225713387040800,5.608040771484375,0.17620849609375,0.7364654541015625,0.722442626953125
1726225713397037800,5.618037841796875,0.2198028564453125,0.71600341796875,0.6894683837890625
1726225713407033600,5.62803369140625,0.274871826171875,0.6978302001953125,0.6450653076171875
1726225713417031000,5.638031005859375,0.327789306640625,0.689117431640625,0.6154022216796875
1726225713427026700,5.648026611328125,0.3435211181640625,0.6812744140625,0.618255615234375
1726225713437024000,5.65802392578125,0.3167572021484375,0.6624755859375,0.6026611328125
1726225713447019800,5.668019775390625,0.273895263671875,0.6618804931640625,0.6058349609375
1726225713457016800,5.678016845703125,0.245697021484375,0.684814453125,0.6256256103515625
1726225713467012900,5.688012939453125,0.227813720703125,0.721771240234375,0.643402099609375
1726225713477009000,5.6980087890625,0.2036895751953125,0.7403717041015625,0.640289306640625
1726225713487005700,5.708005615234375,0.1730804443359375,0.7387542724609375,0.6127777099609375
1726225713497002000,5.718001953125,0.1546173095703125,0.74371337890625,0.6040191650390625
1726225713506998800,5.727998779296875,0.1499786376953125,0.7755126953125,0.6259918212890625
1726225713516994800,5.737994873046875,0.155548095703125,0.798126220703125,0.635162353515625
1726225713526992000,5.747991943359375,0.15106201171875,0.800750732421875,0.6342620849609375
1726225713536988000,5.75798779296875,0.1237335205078125,0.8024139404296875,0.6323089599609375
1726225713546984700,5.767984619140625,0.0919342041015625,0.790557861328125,0.6200408935546875
1726225713556980700,5.777980712890625,0.064788818359375,0.77880859375,0.6151123046875
1726225713566977800,5.787977783203125,0.037261962890625,0.772918701171875,0.60601806640625
1726225713576973600,5.7979736328125,0.0072479248046875,0.7813873291015625,0.639007568359375
1726225713586969900,5.807969970703125,-0.0170440673828125,0.7633209228515625,0.6415252685546875
1726225713596966700,5.817966552734375,-0.0336456298828125,0.723968505859375,0.6210479736328125
1726225713606962700,5.827962646484375,-0.0507354736328125,0.6878204345703125,0.609222412109375
1726225713616959700,5.837959716796875,-0.0672454833984375,0.6544189453125,0.6271514892578125
1726225713626955800,5.847955810546875,-0.0616455078125,0.6386566162109375,0.6591796875
1726225713636952800,5.857952880859375,-0.0392608642578125,0.6318817138671875,0.66949462890625
1726225713646948900,5.867948974609375,-0.0048675537109375,0.638427734375,0.6682891845703125
1726225713656945700,5.877945556640625,0.026519775390625,0.6344757080078125,0.6481170654296875
1726225713666942000,5.88794189453125,0.066802978515625,0.6310882568359375,0.635223388671875
1726225713676938800,5.897938720703125,0.1034088134765625,0.63665771484375,0.6200408935546875
1726225713686934800,5.907934814453125,0.1510162353515625,0.6630401611328125,0.60455322265625
1726225713696931800,5.917931884765625,0.19384765625,0.7101898193359375,0.5904388427734375
1726225713706927900,5.927927978515625,0.2353668212890625,0.7484893798828125,0.5762481689453125
1726225713716923600,5.937923583984375,0.2722320556640625,0.7783660888671875,0.548492431640625
1726225713726921000,5.9479208984375,0.296600341796875,0.813262939453125,0.4911956787109375
1726225713736916700,5.957916748046875,0.3228912353515625,0.8521270751953125,0.4207000732421875
1726225713746913800,5.967913818359375,0.34088134765625,0.881072998046875,0.3739013671875
1726225713756909800,5.977909912109375,0.33673095703125,0.8895416259765625,0.3874359130859375
1726225713766906600,5.98790673828125,0.3223876953125,0.8941192626953125,0.41119384765625
1726225713776902700,5.997902587890625,0.2886199951171875,0.899383544921875,0.4359893798828125
1726225713786899700,6.007899658203125,0.249298095703125,0.8957977294921875,0.50714111328125
1726225713796895700,6.017895751953125,0.2005615234375,0.9073944091796875,0.6031494140625
1726225713806891800,6.027891845703125,0.1508941650390625,0.9138641357421875,0.6850738525390625
1726225713816888800,6.037888916015625,0.1163787841796875,0.8981475830078125,0.7329864501953125
1726225713826884900,6.047884765625,0.090423583984375,0.8691253662109375,0.75311279296875
1726225713836882000,6.0578818359375,0.0710296630859375,0.83831787109375,0.7469940185546875
1726225713846877700,6.067877685546875,0.0649261474609375,0.803863525390625,0.7244415283203125
1726225713856874800,6.077874755859375,0.080352783203125,0.7751007080078125,0.6997528076171875
1726225713866870800,6.087870849609375,0.10723876953125,0.76690673828125,0.680450439453125
1726225713876867800,6.097867919921875,0.1282806396484375,0.78057861328125,0.658843994140625
1726225713886863600,6.107863525390625,0.1383514404296875,0.81231689453125,0.646636962890625
1726225713896861000,6.11786083984375,0.1402130126953125,0.8295440673828125,0.625640869140625
1726225713906856700,6.127856689453125,0.157440185546875,0.8161773681640625,0.5861663818359375
1726225713916852700,6.137852783203125,0.169464111328125,0.8000335693359375,0.5587310791015625
1726225713926849800,6.147849853515625,0.1737213134765625,0.794586181640625,0.54119873046875
1726225713936845800,6.157845703125,0.1735382080078125,0.8024444580078125,0.5322723388671875
1726225713946842600,6.167842529296875,0.173614501953125,0.83099365234375,0.527435302734375
1726225713956839000,6.1778388671875,0.170257568359375,0.883575439453125,0.528228759765625
1726225713966835700,6.187835693359375,0.16131591796875,0.90277099609375,0.5157623291015625
1726225713976831700,6.197831787109375,0.1376800537109375,0.89263916015625,0.5081329345703125
1726225713986828800,6.207828857421875,0.116668701171875,0.8740081787109375,0.49859619140625
1726225713996824800,6.217824951171875,0.0877532958984375,0.860565185546875,0.5016632080078125
1726225714006822400,6.227822509765625,0.0590057373046875,0.85638427734375,0.520355224609375
1726225714016818200,6.237818115234375,0.024017333984375,0.868133544921875,0.568634033203125
1726225714026814500,6.247814453125,-0.0066070556640625,0.867584228515625,0.6300201416015625
1726225714036811300,6.257811279296875,-0.0432586669921875,0.8469085693359375,0.6918487548828125
1726225714046807300,6.267807373046875,-0.076141357421875,0.8194427490234375,0.7526092529296875
1726225714056804400,6.277804443359375,-0.0833282470703125,0.7977447509765625,0.7836151123046875
1726225714066800400,6.28780029296875,-0.0393524169921875,0.7962646484375,0.7977142333984375
1726225714076797200,6.297797119140625,0.0297698974609375,0.792755126953125,0.777618408203125
1726225714086793500,6.30779345703125,0.12896728515625,0.7795562744140625,0.752166748046875
1726225714096790300,6.317790283203125,0.2359466552734375,0.78558349609375,0.7591705322265625
1726225714106786300,6.327786376953125,0.30023193359375,0.78692626953125,0.756011962890625
1726225714116782300,6.3377822265625,0.2950897216796875,0.7718963623046875,0.7197113037109375
1726225714126779400,6.347779296875,0.2393646240234375,0.7511749267578125,0.6709747314453125
1726225714136775200,6.357775146484375,0.1688995361328125,0.747833251953125,0.6510467529296875
1726225714146772500,6.3677724609375,0.12823486328125,0.76177978515625,0.64532470703125
1726225714156768300,6.377768310546875,0.11962890625,0.7749786376953125,0.6208038330078125
1726225714166765600,6.387765625,0.127655029296875,0.7954254150390625,0.5853424072265625
1726225714176761300,6.39776123046875,0.134124755859375,0.814422607421875,0.5388031005859375
1726225714186758400,6.40775830078125,0.1390228271484375,0.825286865234375,0.5003662109375
1726225714196754400,6.41775439453125,0.1392974853515625,0.8358612060546875,0.472320556640625
1726225714206751200,6.427751220703125,0.1324615478515625,0.8417205810546875,0.4493865966796875
1726225714216747300,6.437747314453125,0.1188812255859375,0.8345947265625,0.425628662109375
1726225714226743600,6.44774365234375,0.1052398681640625,0.8103485107421875,0.3871612548828125
1726225714236740400,6.457740234375,0.09356689453125,0.7729339599609375,0.342041015625
1726225714246736400,6.467736328125,0.093048095703125,0.7409515380859375,0.3119964599609375
1726225714256733400,6.4777333984375,0.103057861328125,0.73284912109375,0.3083648681640625
1726225714266729500,6.4877294921875,0.11126708984375,0.726776123046875,0.294708251953125
1726225714276726300,6.497726318359375,0.1134490966796875,0.68927001953125,0.275146484375
1726225714286722300,6.507722412109375,0.1114044189453125,0.6475372314453125,0.246612548828125
1726225714296719400,6.51771923828125,0.1033935546875,0.6197967529296875,0.2365570068359375
1726225714306715100,6.527715087890625,0.1103515625,0.615142822265625,0.247314453125
1726225714316712400,6.53771240234375,0.1267242431640625,0.6420745849609375,0.2564849853515625
1726225714326708200,6.547708251953125,0.1382904052734375,0.675140380859375,0.2884521484375
1726225714336704300,6.557704345703125,0.133270263671875,0.705047607421875,0.3259124755859375
1726225714346701300,6.567701416015625,0.119476318359375,0.7414093017578125,0.3531951904296875
1726225714356697300,6.577697265625,0.10247802734375,0.7602081298828125,0.369903564453125
1726225714366694400,6.5876943359375,0.0817718505859375,0.7549591064453125,0.3852386474609375
1726225714376690400,6.5976904296875,0.0679473876953125,0.7454376220703125,0.408599853515625
1726225714386687200,6.607687255859375,0.063568115234375,0.7535858154296875,0.4412994384765625
1726225714396683500,6.61768359375,0.0682220458984375,0.799774169921875,0.50286865234375
1726225714406680300,6.627680419921875,0.0993194580078125,0.9056549072265625,0.5804443359375
1726225714416676400,6.63767626953125,0.1498260498046875,1.0689849853515625,0.6914825439453125
1726225714426673400,6.64767333984375,0.192626953125,1.264892578125,0.8404541015625
1726225714436669400,6.65766943359375,0.2033233642578125,1.4449462890625,1.012603759765625
1726225714446665200,6.667665283203125,0.1484832763671875,1.5462188720703125,1.1392059326171875
1726225714456662500,6.67766259765625,0.0591278076171875,1.51385498046875,1.181732177734375
1726225714466658300,6.687658203125,0.0129852294921875,1.3821563720703125,1.1398468017578125
1726225714476655400,6.6976552734375,0.02008056640625,1.181488037109375,1.0220489501953125
1726225714486651400,6.7076513671875,0.0270843505859375,1.036865234375,0.9641265869140625
1726225714496648200,6.717648193359375,0.073272705078125,0.967498779296875,0.9621429443359375
1726225714506644200,6.727644287109375,0.1304779052734375,0.9479217529296875,0.950531005859375
1726225714516641300,6.737641357421875,0.1941070556640625,0.9293975830078125,0.902008056640625
1726225714526637300,6.74763720703125,0.2356414794921875,0.886383056640625,0.80242919921875
1726225714536633300,6.75763330078125,0.2671966552734375,0.8551788330078125,0.6849212646484375
1726225714546630400,6.76763037109375,0.2713165283203125,0.819091796875,0.5810546875
1726225714556626400,6.77762646484375,0.247161865234375,0.7524871826171875,0.4751434326171875
1726225714566623500,6.78762353515625,0.201202392578125,0.6728363037109375,0.3896026611328125
1726225714576619300,6.797619384765625,0.1513824462890625,0.60467529296875,0.3172760009765625
1726225714586616300,6.8076162109375,0.106353759765625,0.54034423828125,0.278900146484375
1726225714596612400,6.8176123046875,0.09063720703125,0.4900360107421875,0.2314453125
1726225714606609400,6.827609375,0.09161376953125,0.4565887451171875,0.2164306640625
1726225714616605200,6.837605224609375,0.0939788818359375,0.4400787353515625,0.209381103515625
1726225714626601500,6.8476015625,0.087188720703125,0.440948486328125,0.21551513671875
1726225714636598300,6.857598388671875,0.086456298828125,0.446868896484375,0.224456787109375
1726225714646594300,6.86759423828125,0.0868682861328125,0.4484100341796875,0.2383575439453125
1726225714656591400,6.87759130859375,0.08673095703125,0.4591522216796875,0.2594757080078125
1726225714666587400,6.88758740234375,0.089080810546875,0.490509033203125,0.3187255859375
1726225714676584200,6.897584228515625,0.0907135009765625,0.542266845703125,0.3878021240234375
1726225714686580500,6.90758056640625,0.0935211181640625,0.6092071533203125,0.464691162109375
1726225714696577300,6.917577392578125,0.0933685302734375,0.69549560546875,0.5744171142578125
1726225714706573300,6.9275732421875,0.0874481201171875,0.7984161376953125,0.6945037841796875
1726225714716570400,6.9375703125,0.082183837890625,0.8933563232421875,0.795806884765625
1726225714726566400,6.94756640625,0.078460693359375,0.9649810791015625,0.8881988525390625
1726225714736562200,6.957562255859375,0.079010009765625,1.021087646484375,0.9552154541015625
1726225714746559500,6.9675595703125,0.107086181640625,1.06292724609375,0.9774017333984375
1726225714756555300,6.97755517578125,0.137298583984375,1.107757568359375,0.9762725830078125
1726225714766552600,6.987552490234375,0.142608642578125,1.115264892578125,0.9710235595703125
1726225714776548400,6.99754833984375,0.1494140625,1.077484130859375,0.92645263671875
1726225714786545200,7.007545166015625,0.1480865478515625,1.0159912109375,0.790740966796875
1726225714796541400,7.01754150390625,0.1661376953125,0.9770965576171875,0.66876220703125
1726225714806538200,7.027538330078125,0.204986572265625,0.980743408203125,0.5709686279296875
1726225714816534300,7.0375341796875,0.233367919921875,1.000274658203125,0.516204833984375
1726225714826531300,7.04753125,0.2617340087890625,0.9990997314453125,0.45379638671875
1726225714836527400,7.05752734375,0.256134033203125,0.9558258056640625,0.3971099853515625
1726225714846523400,7.0675234375,0.2113800048828125,0.8975372314453125,0.3485870361328125
1726225714856520400,7.0775205078125,0.14898681640625,0.8438720703125,0.313507080078125
1726225714866516200,7.08751611328125,0.08184814453125,0.8095245361328125,0.3167724609375
1726225714876513300,7.09751318359375,0.02337646484375,0.7737274169921875,0.3256072998046875
1726225714886509300,7.10750927734375,-0.0137481689453125,0.728668212890625,0.336669921875
1726225714896506400,7.11750634765625,-0.032073974609375,0.690216064453125,0.3613739013671875
1726225714906502100,7.127502197265625,-0.0294189453125,0.6707000732421875,0.3747711181640625
1726225714916499500,7.13749951171875,-0.0225677490234375,0.650299072265625,0.3830718994140625
1726225714926495200,7.1474951171875,-0.01373291015625,0.63348388671875,0.39996337890625
1726225714936491300,7.1574912109375,-0.0021209716796875,0.6375579833984375,0.4322052001953125
1726225714946488300,7.16748828125,0.0128631591796875,0.6611480712890625,0.482574462890625
1726225714956484400,7.177484375,0.0296783447265625,0.678192138671875,0.5294647216796875
1726225714966481400,7.1874814453125,0.0506439208984375,0.67962646484375,0.5740814208984375
1726225714976477400,7.1974775390625,0.06793212890625,0.669036865234375,0.6202850341796875
1726225714986474200,7.20747412109375,0.091156005859375,0.672637939453125,0.68524169921875
1726225714996470500,7.217470458984375,0.1291351318359375,0.68695068359375,0.7481231689453125
1726225715006467300,7.22746728515625,0.1865386962890625,0.6941375732421875,0.7793121337890625
1726225715016463400,7.23746337890625,0.2425079345703125,0.7059783935546875,0.772552490234375
1726225715026460200,7.247460205078125,0.306304931640625,0.7353363037109375,0.7558746337890625
1726225715036456400,7.25745654296875,0.4516754150390625,0.798004150390625,0.699737548828125
1726225715046452200,7.2674521484375,0.5045166015625,0.8397979736328125,0.6254119873046875
1726225715056449300,7.27744921875,0.4361114501953125,0.8704833984375,0.6114349365234375
1726225715066445300,7.2874453125,0.31524658203125,0.8995361328125,0.6302642822265625
1726225715076442400,7.2974423828125,0.2027740478515625,0.9040069580078125,0.6427154541015625
1726225715086438100,7.307438232421875,0.114349365234375,0.9027862548828125,0.648712158203125
1726225715096435200,7.317435302734375,0.06353759765625,0.923736572265625,0.6366119384765625
1726225715106431200,7.32743115234375,0.0635986328125,0.9542236328125,0.60638427734375
1726225715116428000,7.337427978515625,0.0709991455078125,0.9679107666015625,0.5832366943359375
1726225715126424300,7.34742431640625,0.0768585205078125,0.966888427734375,0.57208251953125
1726225715136420400,7.35742041015625,0.0805206298828125,0.9366607666015625,0.5363006591796875
1726225715146417200,7.367417236328125,0.08843994140625,0.9089508056640625,0.49786376953125
1726225715156413400,7.377413330078125,0.105499267578125,0.90948486328125,0.480010986328125
1726225715166410200,7.38741015625,0.1287841796875,0.9004669189453125,0.4752655029296875
1726225715176406300,7.39740625,0.1570281982421875,0.8704071044921875,0.4608154296875
1726225715186403300,7.4074033203125,0.171966552734375,0.826141357421875,0.4459228515625
1726225715196399000,7.417399169921875,0.180145263671875,0.7886962890625,0.436859130859375
1726225715206396400,7.427396484375,0.1776275634765625,0.77362060546875,0.4534454345703125
1726225715216392200,7.43739208984375,0.1663970947265625,0.7723541259765625,0.4846343994140625
1726225715226388200,7.44738818359375,0.148040771484375,0.7667236328125,0.5170745849609375
1726225715236385300,7.45738525390625,0.12078857421875,0.7620849609375,0.5532379150390625
1726225715246381300,7.46738134765625,0.095947265625,0.7760009765625,0.5853271484375
1726225715256378000,7.477378173828125,0.0843963623046875,0.8027191162109375,0.6046142578125
1726225715266374400,7.48737451171875,0.0944366455078125,0.839691162109375,0.6386566162109375
1726225715276371200,7.49737109375,0.1180267333984375,0.859588623046875,0.6593475341796875
1726225715286367200,7.5073671875,0.1472930908203125,0.8518524169921875,0.6552276611328125
1726225715296364300,7.5173642578125,0.167144775390625,0.828521728515625,0.6291351318359375
1726225715306360300,7.5273603515625,0.1872100830078125,0.8133392333984375,0.607940673828125
1726225715316357000,7.537357177734375,0.2132568359375,0.812835693359375,0.5922088623046875
1726225715326353400,7.547353515625,0.2370147705078125,0.8115234375,0.5636138916015625
1726225715336349200,7.55734912109375,0.23785400390625,0.8106231689453125,0.5580902099609375
1726225715346346200,7.56734619140625,0.2265472412109375,0.818817138671875,0.5518341064453125
1726225715356342300,7.57734228515625,0.210113525390625,0.8419952392578125,0.5417327880859375
1726225715366339300,7.58733935546875,0.185150146484375,0.869659423828125,0.5124053955078125
1726225715376335000,7.597335205078125,0.182525634765625,0.9097900390625,0.526947021484375
1726225715386332200,7.607332275390625,0.1923980712890625,0.9214324951171875,0.518157958984375
1726225715396328200,7.617328125,0.2093505859375,0.90576171875,0.49078369140625
1726225715406325200,7.6273251953125,0.2285308837890625,0.888702392578125,0.483642578125
1726225715416321300,7.6373212890625,0.2362823486328125,0.8494873046875,0.4560089111328125
1726225715426317300,7.6473173828125,0.2396240234375,0.8114013671875,0.440185546875
1726225715436314400,7.657314453125,0.2596282958984375,0.793487548828125,0.4313507080078125
1726225715446310400,7.667310302734375,0.2846221923828125,0.7702789306640625,0.4316864013671875
1726225715456307200,7.67730712890625,0.2941741943359375,0.7480621337890625,0.4514312744140625
1726225715466303200,7.68730322265625,0.303680419921875,0.726287841796875,0.478729248046875
1726225715476300300,7.69730029296875,0.3130340576171875,0.712890625,0.5071868896484375
1726225715486296000,7.707296142578125,0.3106842041015625,0.7094573974609375,0.5371246337890625
1726225715496293400,7.71729345703125,0.296356201171875,0.7020263671875,0.557342529296875
1726225715506289200,7.7272890625,0.264312744140625,0.68902587890625,0.5718994140625
1726225715516285200,7.73728515625,0.2345733642578125,0.702484130859375,0.5909881591796875
1726225715526282200,7.7472822265625,0.21856689453125,0.706695556640625,0.605224609375
1726225715536278300,7.7572783203125,0.20965576171875,0.7022552490234375,0.6074371337890625
1726225715546275000,7.767275146484375,0.22216796875,0.6894378662109375,0.5802459716796875
1726225715556271400,7.777271240234375,0.2439727783203125,0.6941680908203125,0.57275390625
1726225715566268200,7.78726806640625,0.2685394287109375,0.7415771484375,0.5811004638671875
1726225715576264200,7.79726416015625,0.288818359375,0.8122406005859375,0.597900390625
1726225715586261200,7.80726123046875,0.297088623046875,0.87481689453125,0.62908935546875
1726225715596257300,7.81725732421875,0.301025390625,0.910125732421875,0.6427001953125
1726225715606253000,7.827253173828125,0.3110809326171875,0.9307708740234375,0.6466827392578125
1726225715616250400,7.83725048828125,0.29718017578125,0.912933349609375,0.5925140380859375
1726225715626246100,7.84724609375,0.2957305908203125,0.878631591796875,0.5710296630859375
1726225715636243500,7.857243408203125,0.2722320556640625,0.8372802734375,0.5345916748046875
1726225715646239200,7.8672392578125,0.239715576171875,0.8013916015625,0.503143310546875
1726225715656236300,7.877236328125,0.2100372314453125,0.765167236328125,0.4824676513671875
1726225715666232300,7.887232421875,0.18603515625,0.729400634765625,0.447906494140625
1726225715676229000,7.89722900390625,0.1544036865234375,0.7000732421875,0.42572021484375
1726225715686225200,7.90722509765625,0.1442108154296875,0.6954498291015625,0.4239044189453125
1726225715696222200,7.91722216796875,0.139556884765625,0.694366455078125,0.40570068359375
1726225715706218200,7.92721826171875,0.1269378662109375,0.7102508544921875,0.3976898193359375
1726225715716214300,7.93721435546875,0.127044677734375,0.735382080078125,0.39666748046875
1726225715726211300,7.94721142578125,0.12176513671875,0.7635498046875,0.394744873046875
1726225715736207400,7.957207275390625,0.1129302978515625,0.7993011474609375,0.39959716796875
1726225715746204200,7.9672041015625,0.105499267578125,0.832000732421875,0.4130096435546875
1726225715756200200,7.9772001953125,0.0909423828125,0.8566131591796875,0.424163818359375
1726225715766197200,7.987197265625,0.0709075927734375,0.8602142333984375,0.42889404296875
1726225715776193000,7.997193115234375,0.0528564453125,0.8339996337890625,0.4170684814453125
1726225715786190300,8.0071904296875,0.0475006103515625,0.8023223876953125,0.4076080322265625
1726225715796186000,8.01718603515625,0.05743408203125,0.7686767578125,0.4067535400390625
1726225715806182100,8.02718212890625,0.0814056396484375,0.7352294921875,0.4140777587890625
1726225715816179200,8.03717919921875,0.1036834716796875,0.7222747802734375,0.433197021484375
1726225715826175200,8.04717529296875,0.12115478515625,0.744110107421875,0.4692535400390625
1726225715836172300,8.05717236328125,0.13818359375,0.7810516357421875,0.524261474609375
1726225715846168300,8.067168212890625,0.1657562255859375,0.8082427978515625,0.5790863037109375
1726225715856165000,8.0771650390625,0.179168701171875,0.8174285888671875,0.6320648193359375
1726225715866161400,8.087161376953125,0.1841583251953125,0.8021392822265625,0.683258056640625
1726225715876158200,8.097158203125,0.1967926025390625,0.76678466796875,0.6965789794921875
1726225715886154200,8.107154296875,0.2299041748046875,0.7545318603515625,0.72137451171875
1726225715896150300,8.117150390625,0.2599945068359375,0.7503204345703125,0.742523193359375
1726225715906147300,8.127147216796875,0.2969818115234375,0.7510528564453125,0.76397705078125
1726225715916143000,8.13714306640625,0.3219757080078125,0.77020263671875,0.7934722900390625
1726225715926140400,8.147140380859375,0.3385772705078125,0.793426513671875,0.7744598388671875
1726225715936136200,8.15713623046875,0.347900390625,0.8485107421875,0.7497100830078125
1726225715946133200,8.16713330078125,0.3344268798828125,0.887298583984375,0.7080078125
1726225715956129300,8.17712939453125,0.3051300048828125,0.8983001708984375,0.664764404296875
1726225715966126000,8.1871259765625,0.273956298828125,0.873870849609375,0.6122283935546875
1726225715976122000,8.1971220703125,0.2491302490234375,0.837799072265625,0.5641632080078125
1726225715986118400,8.207118408203126,0.2327117919921875,0.8220977783203125,0.53460693359375
1726225715996115200,8.217115234375,0.230712890625,0.8249359130859375,0.52301025390625
1726225716006111700,8.22711181640625,0.2321929931640625,0.8443756103515625,0.53057861328125
1726225716016108500,8.237108642578125,0.2176055908203125,0.86212158203125,0.5322113037109375
1726225716026104600,8.2471044921875,0.196533203125,0.8848114013671875,0.5178680419921875
1726225716036101600,8.2571015625,0.172882080078125,0.8955841064453125,0.501678466796875
1726225716046097400,8.267097412109376,0.1520233154296875,0.903472900390625,0.4846343994140625
1726225716056094500,8.277094482421875,0.1351318359375,0.9099578857421875,0.474090576171875
1726225716066090500,8.287090576171876,0.1115264892578125,0.902984619140625,0.4585723876953125
1726225716076086500,8.29708642578125,0.096221923828125,0.8912506103515625,0.438079833984375
1726225716086083300,8.307083251953125,0.086944580078125,0.884368896484375,0.416351318359375
1726225716096079600,8.31707958984375,0.0867462158203125,0.878173828125,0.399322509765625
1726225716106076400,8.327076416015625,0.0881500244140625,0.87664794921875,0.3826446533203125
1726225716116072400,8.337072509765624,0.0980987548828125,0.8921356201171875,0.38177490234375
1726225716126069500,8.347069580078125,0.1094818115234375,0.92730712890625,0.382904052734375
1726225716136065500,8.3570654296875,0.132659912109375,0.983551025390625,0.396087646484375
1726225716146062600,8.3670625,0.15789794921875,1.036712646484375,0.407257080078125
1726225716156058600,8.37705859375,0.1687164306640625,1.071533203125,0.3971099853515625
1726225716166055400,8.387055419921875,0.173797607421875,1.0770111083984375,0.3936614990234375
1726225716176051700,8.3970517578125,0.165435791015625,1.068756103515625,0.4018707275390625
1726225716186047500,8.407047607421875,0.14813232421875,1.016357421875,0.3973846435546875
1726225716196044500,8.41704443359375,0.138580322265625,0.9528656005859375,0.3693084716796875
1726225716206040600,8.42704052734375,0.1552581787109375,0.9232177734375,0.362518310546875
1726225716216037600,8.43703759765625,0.1773529052734375,0.9074554443359375,0.386932373046875
1726225716226033400,8.447033447265625,0.198028564453125,0.90618896484375,0.4123992919921875
1726225716236030500,8.457030517578126,0.2024993896484375,0.89862060546875,0.4315643310546875
1726225716246026500,8.467026611328125,0.18780517578125,0.8807373046875,0.4490203857421875
1726225716256022500,8.4770224609375,0.16192626953125,0.8586273193359375,0.4699249267578125
1726225716266019600,8.48701953125,0.14227294921875,0.862152099609375,0.5095977783203125
1726225716276015600,8.497015625,0.1228485107421875,0.873321533203125,0.5496063232421875
1726225716286012400,8.507012451171875,0.0990447998046875,0.8646240234375,0.5945281982421875
1726225716296008700,8.5170087890625,0.0764007568359375,0.84820556640625,0.626068115234375
1726225716306005500,8.527005615234375,0.065704345703125,0.8330535888671875,0.6534881591796875
1726225716316001500,8.53700146484375,0.0685577392578125,0.8188323974609375,0.66424560546875
1726225716325998600,8.54699853515625,0.0738067626953125,0.798004150390625,0.6647796630859375
1726225716335994400,8.556994384765625,0.0904388427734375,0.7747650146484375,0.664886474609375
1726225716345990400,8.566990478515624,0.1251068115234375,0.76611328125,0.660491943359375
1726225716355987500,8.576987548828125,0.159027099609375,0.774139404296875,0.6558380126953125
1726225716365983500,8.5869833984375,0.1965789794921875,0.784149169921875,0.6329498291015625
1726225716375980500,8.59698046875,0.23297119140625,0.801513671875,0.603973388671875
1726225716385976600,8.6069765625,0.2578887939453125,0.814910888671875,0.5750885009765625
1726225716395973400,8.616973388671875,0.2503662109375,0.802154541015625,0.5356292724609375
1726225716405969700,8.6269697265625,0.2264862060546875,0.77374267578125,0.4893341064453125
1726225716415966500,8.636966552734375,0.207275390625,0.75762939453125,0.4500885009765625
1726225716425962500,8.64696240234375,0.194854736328125,0.7685089111328125,0.4199981689453125
1726225716435959600,8.65695947265625,0.199249267578125,0.7922210693359375,0.4000701904296875
1726225716445955600,8.66695556640625,0.2119598388671875,0.8336639404296875,0.4034271240234375
1726225716455951400,8.676951416015624,0.2203369140625,0.8807830810546875,0.3988189697265625
1726225716465948700,8.68694873046875,0.2212982177734375,0.92559814453125,0.4014434814453125
1726225716475944400,8.6969443359375,0.2064361572265625,0.970367431640625,0.4168548583984375
1726225716485941500,8.70694140625,0.1754302978515625,1.0063323974609375,0.4383697509765625
1726225716495937500,8.7169375,0.1099395751953125,1.019317626953125,0.460479736328125
1726225716505934600,8.7269345703125,0.0516815185546875,1.021697998046875,0.50909423828125
1726225716515930400,8.736930419921874,0.011993408203125,1.029632568359375,0.5594482421875
1726225716525927400,8.746927490234375,-0.019439697265625,1.0453033447265625,0.610137939453125
1726225716535923500,8.75692333984375,-0.060882568359375,1.031951904296875,0.646759033203125
1726225716545919500,8.76691943359375,-0.086883544921875,1.007659912109375,0.6659698486328125
1726225716555916500,8.77691650390625,-0.088226318359375,0.9954376220703125,0.6789398193359375
1726225716565912600,8.78691259765625,-0.09002685546875,0.979156494140625,0.678436279296875
1726225716575909600,8.79690966796875,-0.094635009765625,0.9486236572265625,0.6689605712890625
1726225716585905700,8.80690576171875,-0.100830078125,0.883758544921875,0.6271209716796875
1726225716595902500,8.81690234375,-0.092926025390625,0.814056396484375,0.5814666748046875
1726225716605898500,8.8268984375,-0.05853271484375,0.7617645263671875,0.55352783203125
1726225716615894500,8.83689453125,-0.0068511962890625,0.7339324951171875,0.5372161865234375
1726225716625891300,8.846891357421875,0.0553741455078125,0.7201080322265625,0.515472412109375
1726225716635887600,8.8568876953125,0.115020751953125,0.70648193359375,0.491485595703125
1726225716645884400,8.866884521484375,0.1646881103515625,0.7117156982421875,0.473388671875
1726225716655880400,8.87688037109375,0.20855712890625,0.7396240234375,0.4507293701171875
1726225716665877500,8.88687744140625,0.2317962646484375,0.7453155517578125,0.41351318359375
1726225716675873500,8.89687353515625,0.223541259765625,0.718109130859375,0.365325927734375
1726225716685870300,8.906870361328124,0.2081298828125,0.6977081298828125,0.330413818359375
1726225716695866600,8.91686669921875,0.1923828125,0.6828765869140625,0.3105316162109375
1726225716705862400,8.9268623046875,0.1700897216796875,0.66461181640625,0.299407958984375
1726225716715859500,8.936859375,0.1456451416015625,0.6403656005859375,0.3009033203125
1726225716725855500,8.94685546875,0.1258697509765625,0.6325225830078125,0.311676025390625
1726225716735852500,8.9568525390625,0.111358642578125,0.6418914794921875,0.33367919921875
1726225716745848300,8.966848388671876,0.0959320068359375,0.646026611328125,0.354217529296875
1726225716755845600,8.976845703125,0.0904083251953125,0.6580657958984375,0.368865966796875
1726225716765841400,8.98684130859375,0.0852203369140625,0.6866455078125,0.3792266845703125
1726225716775838700,8.996838623046875,0.0731201171875,0.7116546630859375,0.3886260986328125
1726225716785834500,9.00683447265625,0.0559539794921875,0.7329559326171875,0.4024505615234375
1726225716795830500,9.01683056640625,0.0463409423828125,0.76708984375,0.4282379150390625
1726225716805827600,9.02682763671875,0.041229248046875,0.804534912109375,0.4551849365234375
1726225716815823600,9.03682373046875,0.0468292236328125,0.8627777099609375,0.49383544921875
1726225716825820400,9.0468203125,0.067779541015625,0.9594573974609375,0.552337646484375
1726225716835816700,9.056816650390624,0.1157073974609375,1.125885009765625,0.6340484619140625
1726225716845813500,9.0668134765625,0.1785888671875,1.3480224609375,0.7471923828125
1726225716855809500,9.0768095703125,0.2095489501953125,1.52801513671875,0.86004638671875
1726225716865806600,9.086806640625,0.1770172119140625,1.583984375,0.914398193359375
1726225716875802600,9.096802734375,0.107635498046875,1.5381011962890625,0.890594482421875
1726225716885798400,9.10679833984375,0.0640716552734375,1.42315673828125,0.835601806640625
1726225716895795500,9.11679541015625,0.061859130859375,1.2463531494140625,0.75360107421875
1726225716905791500,9.12679150390625,0.0721435546875,1.0739593505859375,0.6604156494140625
1726225716915788300,9.136788330078126,0.1069488525390625,0.945831298828125,0.5988006591796875
1726225716925784600,9.14678466796875,0.1644439697265625,0.885467529296875,0.561065673828125
1726225716935781400,9.156781494140626,0.22454833984375,0.84857177734375,0.5225067138671875
1726225716945777400,9.16677734375,0.277740478515625,0.7869873046875,0.47271728515625
1726225716955774500,9.1767744140625,0.298492431640625,0.7102508544921875,0.4109344482421875
1726225716965770500,9.1867705078125,0.2882080078125,0.64495849609375,0.37066650390625
1726225716975766500,9.1967666015625,0.25665283203125,0.5843353271484375,0.34918212890625
1726225716985763600,9.206763671875,0.2359771728515625,0.5348052978515625,0.3381805419921875
1726225716995759400,9.21675927734375,0.210784912109375,0.4972076416015625,0.3336944580078125
1726225717005757000,9.2267568359375,0.2191314697265625,0.4806365966796875,0.344146728515625
1726225717015752700,9.236752685546875,0.38507080078125,0.46856689453125,0.358734130859375
1726225717025750000,9.24675,0.54229736328125,0.4530487060546875,0.3842315673828125
1726225717035745800,9.256745849609375,0.48297119140625,0.4691314697265625,0.4438018798828125
1726225717045742800,9.266742919921874,0.36114501953125,0.4860382080078125,0.4488372802734375
1726225717055739000,9.27673876953125,0.3050537109375,0.5008087158203125,0.4610137939453125
1726225717065735000,9.28673486328125,0.2817840576171875,0.535430908203125,0.4625091552734375
1726225717075731700,9.296731689453125,0.296356201171875,0.5864715576171875,0.4730224609375
1726225717085728000,9.30672802734375,0.3285675048828125,0.639862060546875,0.4813232421875
1726225717095724800,9.316724853515625,0.3657989501953125,0.714996337890625,0.4984283447265625
1726225717105720800,9.326720947265626,0.371795654296875,0.787078857421875,0.5511016845703125
1726225717115718000,9.3367177734375,0.349700927734375,0.85101318359375,0.5968780517578125
1726225717125714000,9.3467138671875,0.3082122802734375,0.9105682373046875,0.6702728271484375
1726225717135709700,9.356709716796875,0.2589111328125,0.9761810302734375,0.7534332275390625
1726225717145707000,9.36670703125,0.2511138916015625,1.0287322998046875,0.8365020751953125
1726225717155702800,9.376702880859375,0.256561279296875,1.0713348388671875,0.86962890625
1726225717165699800,9.386699951171876,0.239166259765625,1.105621337890625,0.9020538330078125
1726225717175696000,9.39669580078125,0.2230224609375,1.131988525390625,0.9152374267578125
1726225717185692700,9.406692626953125,0.212615966796875,1.1156768798828125,0.8795318603515625
1726225717195689000,9.41668896484375,0.1968536376953125,1.0614471435546875,0.8235015869140625
1726225717205685800,9.426685791015625,0.1839599609375,1.0001068115234375,0.762115478515625
1726225717215681800,9.436681884765624,0.1847991943359375,0.94476318359375,0.7002105712890625
1726225717225678000,9.446677978515625,0.18841552734375,0.884521484375,0.6461181640625
1726225717235675000,9.4566748046875,0.198883056640625,0.84271240234375,0.592193603515625
1726225717245671000,9.4666708984375,0.204193115234375,0.828704833984375,0.5451202392578125
1726225717255668000,9.47666796875,0.2400665283203125,0.819244384765625,0.482818603515625
1726225717265663700,9.486663818359375,0.267669677734375,0.798065185546875,0.441070556640625
1726225717275660800,9.496660888671874,0.2733612060546875,0.756866455078125,0.4030609130859375
1726225717285656800,9.50665673828125,0.2696533203125,0.7001800537109375,0.3542022705078125
1726225717295654000,9.51665380859375,0.2518463134765625,0.6731109619140625,0.3191680908203125
1726225717305649700,9.526649658203125,0.23724365234375,0.6941375732421875,0.3077545166015625
1726225717315646000,9.53664599609375,0.2276763916015625,0.719146728515625,0.306671142578125
1726225717325642800,9.546642822265625,0.221649169921875,0.7427215576171875,0.3114013671875
1726225717335638800,9.556638671875,0.200592041015625,0.7632904052734375,0.3166656494140625
1726225717345635800,9.5666357421875,0.163604736328125,0.776763916015625,0.3192596435546875
1726225717355631900,9.5766318359375,0.1282958984375,0.7878570556640625,0.3210296630859375
1726225717365629000,9.58662890625,0.0982513427734375,0.816192626953125,0.3343048095703125
1726225717375625000,9.596625,0.06622314453125,0.8405609130859375,0.3533935546875
1726225717385621800,9.606621826171875,0.0417938232421875,0.8669891357421875,0.377685546875
1726225717395618000,9.6166181640625,0.0255279541015625,0.891204833984375,0.412322998046875
1726225717405613800,9.62661376953125,0.006866455078125,0.91754150390625,0.4422149658203125
1726225717415611000,9.63661083984375,-0.0151519775390625,0.9476470947265625,0.469390869140625
1726225717425607000,9.64660693359375,-0.042572021484375,0.951690673828125,0.483734130859375
1726225717435604000,9.65660400390625,-0.0643157958984375,0.944549560546875,0.5041656494140625
1726225717445599700,9.666599853515624,-0.0643157958984375,0.95098876953125,0.5298614501953125
1726225717455596800,9.6765966796875,-0.04473876953125,0.9739532470703125,0.564483642578125
1726225717465592800,9.6865927734375,-0.0076904296875,0.9845733642578125,0.586822509765625
1726225717475589600,9.696589599609375,0.0340728759765625,0.9785919189453125,0.6027679443359375
1726225717485586000,9.7065859375,0.07379150390625,0.9698333740234375,0.6185760498046875
1726225717495582000,9.71658203125,0.1099395751953125,0.9580535888671875,0.626495361328125
1726225717505578800,9.726578857421876,0.1458587646484375,0.935546875,0.61700439453125
1726225717515575000,9.736574951171875,0.179931640625,0.8968505859375,0.5989227294921875
1726225717525571800,9.74657177734375,0.2094573974609375,0.8484954833984375,0.5763092041015625
1726225717535568000,9.75656787109375,0.2447509765625,0.7967071533203125,0.5435638427734375
1726225717545565000,9.76656494140625,0.2852935791015625,0.75616455078125,0.5154571533203125
1726225717555560700,9.776560791015624,0.3204345703125,0.7430267333984375,0.4899139404296875
1726225717565556700,9.786556640625,0.3446807861328125,0.749298095703125,0.4703521728515625
1726225717575553800,9.7965537109375,0.3461761474609375,0.7510986328125,0.4539337158203125
1726225717585549800,9.8065498046875,0.3355712890625,0.744354248046875,0.427337646484375
1726225717595547000,9.816546875,0.3273773193359375,0.7347564697265625,0.3956451416015625
1726225717605543000,9.82654296875,0.3136749267578125,0.7215423583984375,0.3665771484375
1726225717615539700,9.836539794921874,0.28619384765625,0.7194976806640625,0.34100341796875
1726225717625536000,9.846535888671875,0.2543182373046875,0.7340850830078125,0.3194580078125
1726225717635532800,9.85653271484375,0.2371978759765625,0.77410888671875,0.3179168701171875
1726225717645528800,9.86652880859375,0.3030853271484375,0.7734222412109375,0.3643646240234375
1726225717655524900,9.87652490234375,0.368011474609375,0.733856201171875,0.4367218017578125
1726225717665522000,9.88652197265625,0.4150390625,0.7100372314453125,0.4651031494140625
1726225717675517700,9.896517578125,0.4137115478515625,0.7002105712890625,0.4691314697265625
1726225717685515000,9.906514892578125,0.3802337646484375,0.7013092041015625,0.4581298828125
1726225717695510800,9.9165107421875,0.3365020751953125,0.727569580078125,0.462432861328125
1726225717705507800,9.9265078125,0.288330078125,0.7711639404296875,0.4818115234375
1726225717715503900,9.93650390625,0.2442474365234375,0.8057098388671875,0.52099609375
1726225717725501000,9.9465009765625,0.1894989013671875,0.7997894287109375,0.5492095947265625
1726225717735496700,9.95649658203125,0.1497650146484375,0.7808837890625,0.578826904296875
1726225717745493000,9.966492919921874,0.1351165771484375,0.7851104736328125,0.6036224365234375
1726225717755489800,9.97648974609375,0.1279754638671875,0.80718994140625,0.6273956298828125
1726225717765485800,9.98648583984375,0.1182708740234375,0.8353118896484375,0.6599273681640625
1726225717775483000,9.99648291015625,0.098297119140625,0.85272216796875,0.6929931640625
1726225717785479000,10.00647900390625,0.0714569091796875,0.8824920654296875,0.71844482421875
1726225717795476000,10.01647607421875,0.05352783203125,0.9287567138671875,0.733917236328125
1726225717805472000,10.026471923828124,0.04107666015625,0.9585723876953125,0.7233123779296875
1726225717815467800,10.0364677734375,0.0342254638671875,0.946868896484375,0.6869964599609375
1726225717825465000,10.046465087890626,0.0495758056640625,0.921478271484375,0.6476593017578125
1726225717835460900,10.0564609375,0.075042724609375,0.898590087890625,0.615234375
1726225717845458000,10.0664580078125,0.1121978759765625,0.879058837890625,0.5875244140625
1726225717855454000,10.076453857421875,0.1481475830078125,0.8648529052734375,0.5671234130859375
1726225717865450800,10.08645068359375,0.1699371337890625,0.845245361328125,0.548065185546875
1726225717875446800,10.09644677734375,0.19464111328125,0.8270111083984375,0.5219268798828125
1726225717885443800,10.10644384765625,0.2118072509765625,0.8308868408203125,0.497833251953125
1726225717895440000,10.11643994140625,0.222686767578125,0.8502960205078125,0.4815521240234375
1726225717905436000,10.126435791015625,0.228607177734375,0.8582000732421875,0.45751953125
1726225717915433000,10.136432861328124,0.225311279296875,0.8350830078125,0.4269561767578125
1726225717925429000,10.146428955078125,0.205108642578125,0.7921600341796875,0.3948516845703125
1726225717935425800,10.15642578125,0.181427001953125,0.7537078857421875,0.3778228759765625
1726225717945421800,10.166421875,0.1625518798828125,0.739501953125,0.3782958984375
1726225717955419000,10.1764189453125,0.1681060791015625,0.7537384033203125,0.3952484130859375
1726225717965414700,10.18641455078125,0.1673431396484375,0.7785797119140625,0.4194183349609375
1726225717975411000,10.196410888671876,0.15625,0.7991790771484375,0.43670654296875
1726225717985407700,10.20640771484375,0.1556243896484375,0.8133697509765625,0.4426116943359375
1726225717995403800,10.21640380859375,0.1638336181640625,0.831085205078125,0.4503631591796875
1726225718005400000,10.226400146484375,0.1826934814453125,0.842620849609375,0.465362548828125
1726225718015396000,10.23639599609375,0.2058563232421875,0.848785400390625,0.46343994140625
1726225718025393200,10.24639306640625,0.228607177734375,0.8599700927734375,0.4552154541015625
1726225718035389200,10.25638916015625,0.2518768310546875,0.8907928466796875,0.46673583984375
1726225718045386200,10.26638623046875,0.25848388671875,0.9328155517578125,0.4904937744140625
1726225718055382300,10.27638232421875,0.2484588623046875,0.965301513671875,0.5209808349609375
1726225718065378300,10.28637841796875,0.219970703125,0.9745330810546875,0.53912353515625
1726225718075375400,10.296375244140625,0.182373046875,0.96343994140625,0.5458984375
1726225718085371100,10.30637109375,0.1595306396484375,0.955596923828125,0.5396575927734375
1726225718095368200,10.3163681640625,0.1550445556640625,0.95672607421875,0.5449066162109375
1726225718105364200,10.3263642578125,0.1508636474609375,0.96087646484375,0.5584564208984375
1726225718115361300,10.336361328125,0.149566650390625,0.9630126953125,0.569061279296875
1726225718125357000,10.346357177734374,0.147308349609375,0.9686126708984375,0.580902099609375
1726225718135354400,10.356354248046875,0.1361236572265625,0.9617462158203125,0.5847930908203125
1726225718145350100,10.36635009765625,0.134613037109375,0.9373321533203125,0.58026123046875
1726225718155346200,10.37634619140625,0.13580322265625,0.912078857421875,0.5782318115234375
1726225718165343200,10.38634326171875,0.13525390625,0.89892578125,0.575592041015625
1726225718175339300,10.39633935546875,0.1419219970703125,0.90594482421875,0.584014892578125
1726225718185336300,10.40633642578125,0.16339111328125,0.9295654296875,0.5992431640625
1726225718195332400,10.416332275390625,0.18255615234375,0.9409332275390625,0.60601806640625
1726225718205329200,10.4263291015625,0.1788787841796875,0.9157257080078125,0.6028289794921875
1726225718215325200,10.4363251953125,0.16015625,0.8698272705078125,0.585235595703125
1726225718225321200,10.4463212890625,0.142913818359375,0.8268890380859375,0.557952880859375
1726225718235318300,10.456318359375,0.1350860595703125,0.7957916259765625,0.543212890625
1726225718245314000,10.46631396484375,0.134429931640625,0.7601776123046875,0.525848388671875
1726225718255311400,10.476311279296874,0.1385040283203125,0.724365234375,0.5072479248046875
1726225718265307100,10.48630712890625,0.1536102294921875,0.7104034423828125,0.4925994873046875
1726225718275304200,10.49630419921875,0.1744384765625,0.7248382568359375,0.490142822265625
1726225718285300200,10.50630029296875,0.191436767578125,0.7552337646484375,0.484893798828125
1726225718295296300,10.516296142578126,0.202362060546875,0.78289794921875,0.482757568359375
1726225718305293300,10.526293212890625,0.1919403076171875,0.8002777099609375,0.487335205078125
1726225718315289300,10.536289306640626,0.1655731201171875,0.805328369140625,0.4882049560546875
1726225718325286100,10.5462861328125,0.1476593017578125,0.8184967041015625,0.4869232177734375
1726225718335282400,10.556282470703126,0.139984130859375,0.8430328369140625,0.48809814453125
1726225718345279200,10.566279296875,0.139373779296875,0.8604278564453125,0.484466552734375
1726225718355275300,10.576275146484376,0.14007568359375,0.85845947265625,0.4771575927734375
1726225718365272300,10.586272216796875,0.1386871337890625,0.8630523681640625,0.47265625
1726225718375268000,10.59626806640625,0.14495849609375,0.88433837890625,0.475250244140625
1726225718385264000,10.60626416015625,0.1520538330078125,0.9010467529296875,0.479766845703125
1726225718395261200,10.61626123046875,0.1481781005859375,0.911773681640625,0.4923858642578125
1726225718405257200,10.62625732421875,0.1352081298828125,0.9305877685546875,0.505401611328125
1726225718415254000,10.63625390625,0.1194610595703125,0.93878173828125,0.5160369873046875
1726225718425250300,10.646250244140624,0.1134796142578125,0.9247283935546875,0.51861572265625
1726225718435247000,10.6562470703125,0.116180419921875,0.90777587890625,0.5251312255859375
1726225718445243100,10.6662431640625,0.119537353515625,0.896942138671875,0.5371246337890625
1726225718455240200,10.676240234375,0.11865234375,0.8910064697265625,0.551483154296875
1726225718465236200,10.686236328125,0.1154022216796875,0.8697509765625,0.55743408203125
1726225718475232000,10.69623193359375,0.1113128662109375,0.8417816162109375,0.55853271484375
1726225718485229300,10.706229248046874,0.1127166748046875,0.8403167724609375,0.569580078125
1726225718495225000,10.71622509765625,0.116790771484375,0.836883544921875,0.5723114013671875
1726225718505222400,10.726222412109376,0.120574951171875,0.82269287109375,0.56707763671875
1726225718515218200,10.73621826171875,0.1266021728515625,0.8253021240234375,0.563232421875
1726225718525215200,10.74621533203125,0.12994384765625,0.8298187255859375,0.574554443359375
1726225718535211300,10.756211181640625,0.1223297119140625,0.8168792724609375,0.596649169921875
1726225718545207300,10.766207275390625,0.1062164306640625,0.8062591552734375,0.619598388671875
1726225718555204000,10.7762041015625,0.0880584716796875,0.7964935302734375,0.6311492919921875
1726225718565200400,10.786200439453125,0.06915283203125,0.7620697021484375,0.628692626953125
1726225718575197200,10.796197265625,0.0557098388671875,0.7071990966796875,0.61517333984375
1726225718585193200,10.806193115234375,0.052825927734375,0.646820068359375,0.5843505859375
1726225718595190300,10.816190185546875,0.077056884765625,0.6036529541015625,0.5433807373046875
1726225718605186300,10.826186279296875,0.1138153076171875,0.589691162109375,0.5142059326171875
1726225718615183000,10.83618310546875,0.157745361328125,0.589080810546875,0.4944915771484375
1726225718625179400,10.846179443359375,0.1980133056640625,0.59088134765625,0.48175048828125
1726225718635175200,10.856175048828124,0.2293853759765625,0.615966796875,0.4647064208984375
1726225718645172200,10.866172119140625,0.2352142333984375,0.6511383056640625,0.448211669921875
1726225718655168300,10.876168212890626,0.21490478515625,0.6704254150390625,0.4330291748046875
1726225718665165300,10.886165283203125,0.182830810546875,0.6818695068359375,0.4219512939453125
1726225718675161000,10.8961611328125,0.1450653076171875,0.685028076171875,0.4100341796875
1726225718685158100,10.906158203125,0.117218017578125,0.7042083740234375,0.397735595703125
1726225718695154200,10.916154296875,0.1028594970703125,0.723724365234375,0.3821563720703125
1726225718705150200,10.926150146484375,0.099700927734375,0.7519989013671875,0.376251220703125
1726225718715147300,10.936147216796876,0.1038055419921875,0.796875,0.386871337890625
1726225718725143300,10.946143310546875,0.1156005859375,0.8596954345703125,0.4069976806640625
1726225718735140400,10.956140380859376,0.122802734375,0.93603515625,0.436859130859375
1726225718745136400,10.966136474609375,0.1223297119140625,0.99432373046875,0.4597625732421875
1726225718755133200,10.97613330078125,0.099945068359375,1.0178375244140625,0.4770965576171875
1726225718765129200,10.986129150390624,0.072357177734375,1.0168914794921875,0.4951171875
1726225718775126300,10.996126220703125,0.05560302734375,1.020843505859375,0.5204925537109375
1726225718785122000,11.0061220703125,0.0588836669921875,1.0307464599609375,0.5465087890625
1726225718795118300,11.016118408203125,0.083648681640625,1.0341339111328125,0.5706787109375
1726225718805115100,11.026115234375,0.1177825927734375,1.0316009521484375,0.59246826171875
1726225718815111200,11.036111083984375,0.1444854736328125,1.0006561279296875,0.5908050537109375
1726225718825108200,11.046108154296874,0.1709747314453125,0.95208740234375,0.5770263671875
1726225718835104300,11.056104248046875,0.2005462646484375,0.917877197265625,0.567291259765625
1726225718845101000,11.06610107421875,0.220184326171875,0.897186279296875,0.5756683349609375
1726225718855097300,11.076097412109375,0.2407684326171875,0.87762451171875,0.587188720703125
1726225718865093000,11.086093017578126,0.250579833984375,0.8489532470703125,0.6002655029296875
1726225718875090200,11.096090087890625,0.240936279296875,0.830963134765625,0.629364013671875
1726225718885086200,11.106086181640626,0.2383880615234375,0.8260345458984375,0.6547393798828125
1726225718895083300,11.116083251953125,0.22589111328125,0.8044891357421875,0.654296875
1726225718905079000,11.1260791015625,0.2108917236328125,0.768798828125,0.641632080078125
1726225718915076400,11.136076416015625,0.19317626953125,0.7361297607421875,0.634979248046875
1726225718925072100,11.146072021484375,0.214385986328125,0.7301483154296875,0.6183624267578125
1726225718935068200,11.156068115234374,0.33526611328125,0.758209228515625,0.582550048828125
1726225718945065200,11.166065185546875,0.4146881103515625,0.76324462890625,0.563751220703125
1726225718955061200,11.176061279296874,0.4376983642578125,0.748504638671875,0.5107269287109375
1726225718965058300,11.186058349609375,0.3967437744140625,0.7248077392578125,0.497894287109375
1726225718975054300,11.196054443359374,0.3248291015625,0.68829345703125,0.492584228515625
1726225718985051100,11.206051025390625,0.278228759765625,0.6838531494140625,0.481201171875
1726225718995047400,11.21604736328125,0.2668609619140625,0.7057952880859375,0.4688262939453125
1726225719005044500,11.22604443359375,0.2719268798828125,0.7396240234375,0.4660491943359375
1726225719015040500,11.23604052734375,0.270294189453125,0.7930755615234375,0.4667205810546875
1726225719025036300,11.246036376953125,0.268035888671875,0.8420867919921875,0.466461181640625
1726225719035033300,11.256033447265626,0.25726318359375,0.8542327880859375,0.447235107421875
1726225719045029400,11.266029296875,0.2384033203125,0.825347900390625,0.426788330078125
1726225719055026200,11.276026123046876,0.227294921875,0.80377197265625,0.4261474609375
1726225719065022500,11.2860224609375,0.236114501953125,0.8021240234375,0.431671142578125
1726225719075019300,11.296019287109376,0.2291259765625,0.8202667236328125,0.4451446533203125
1726225719085015300,11.306015380859375,0.224761962890625,0.8523712158203125,0.4813385009765625
1726225719095011600,11.316011474609375,0.2124786376953125,0.8876800537109375,0.508209228515625
1726225719105008400,11.32600830078125,0.1896209716796875,0.9156341552734375,0.527862548828125
1726225719115004400,11.33600439453125,0.1654815673828125,0.9340362548828125,0.5554351806640625
1726225719125001500,11.34600146484375,0.13885498046875,0.932861328125,0.5759429931640625
1726225719134997200,11.355997314453125,0.112823486328125,0.9085540771484375,0.5982818603515625
1726225719144994600,11.36599462890625,0.1009674072265625,0.8805084228515625,0.6134490966796875
1726225719154990300,11.375990234375,0.095367431640625,0.859588623046875,0.6294403076171875
1726225719164986400,11.385986328125,0.1073455810546875,0.86346435546875,0.6478271484375
1726225719174983400,11.3959833984375,0.11566162109375,0.8920745849609375,0.6718597412109375
1726225719184979500,11.4059794921875,0.11962890625,0.9189453125,0.6891326904296875
1726225719194976300,11.415976318359375,0.122100830078125,0.93341064453125,0.7015533447265625
1726225719204972500,11.42597265625,0.1205291748046875,0.9171142578125,0.68682861328125
1726225719214969300,11.43596923828125,0.117340087890625,0.85943603515625,0.6520538330078125
1726225719224965400,11.44596533203125,0.121795654296875,0.7953948974609375,0.609039306640625
1726225719234961400,11.45596142578125,0.130950927734375,0.73095703125,0.5602264404296875
1726225719244958500,11.46595849609375,0.15191650390625,0.6849212646484375,0.52130126953125
1726225719254954200,11.475954345703125,0.17169189453125,0.6735076904296875,0.4979095458984375
1726225719264951600,11.48595166015625,0.1980438232421875,0.7031707763671875,0.4978485107421875
1726225719274947300,11.495947265625,0.2158660888671875,0.7701263427734375,0.5233154296875
1726225719284944400,11.5059443359375,0.2287750244140625,0.827880859375,0.5315704345703125
1726225719294940400,11.5159404296875,0.24139404296875,0.837799072265625,0.5167236328125
1726225719304937500,11.5259375,0.25396728515625,0.8126068115234375,0.4992218017578125
1726225719314933200,11.535933349609374,0.2621917724609375,0.7644195556640625,0.4695892333984375
1726225719324929500,11.545929443359375,0.288543701171875,0.7210235595703125,0.43304443359375
1726225719334926300,11.55592626953125,0.337554931640625,0.6884918212890625,0.414337158203125
1726225719344922400,11.56592236328125,0.3961181640625,0.6831207275390625,0.4143829345703125
1726225719354919400,11.57591943359375,0.44073486328125,0.687286376953125,0.4059906005859375
1726225719364915500,11.58591552734375,0.4430389404296875,0.6881103515625,0.4058380126953125
1726225719374912500,11.59591259765625,0.4023284912109375,0.7177886962890625,0.4235992431640625
1726225719384908500,11.605908447265625,0.348876953125,0.7642822265625,0.4682769775390625
1726225719394904300,11.615904296875,0.2969970703125,0.81036376953125,0.5030059814453125
1726225719404901600,11.625901611328125,0.2557830810546875,0.848846435546875,0.5483245849609375
1726225719414897400,11.6358974609375,0.21502685546875,0.87188720703125,0.59423828125
1726225719424894200,11.645894287109375,0.1762847900390625,0.87249755859375,0.6337127685546875
1726225719434890500,11.655890380859375,0.1422119140625,0.8664093017578125,0.666107177734375
1726225719444887300,11.66588720703125,0.1112823486328125,0.879852294921875,0.679840087890625
1726225719454883300,11.67588330078125,0.09765625,0.900299072265625,0.6904296875
1726225719464879600,11.685879638671874,0.0917816162109375,0.9115142822265625,0.68011474609375
1726225719474876400,11.69587646484375,0.0975799560546875,0.9046630859375,0.6549835205078125
1726225719484872400,11.70587255859375,0.1138458251953125,0.889862060546875,0.6204833984375
1726225719494869500,11.715869384765625,0.1309814453125,0.8665618896484375,0.571807861328125
1726225719504865300,11.725865234375,0.1475830078125,0.8227081298828125,0.521575927734375
1726225719514862300,11.7358623046875,0.16156005859375,0.773284912109375,0.47662353515625
1726225719524858400,11.7458583984375,0.1681060791015625,0.743194580078125,0.4338836669921875
1726225719534854400,11.7558544921875,0.17755126953125,0.741058349609375,0.40283203125
1726225719544851200,11.765851318359376,0.1912841796875,0.7456207275390625,0.386444091796875
1726225719554847500,11.775847412109375,0.195648193359375,0.741790771484375,0.3626556396484375
1726225719564844300,11.78584423828125,0.1868438720703125,0.724151611328125,0.3360137939453125
1726225719574840300,11.79584033203125,0.16510009765625,0.72125244140625,0.323699951171875
1726225719584837400,11.80583740234375,0.145843505859375,0.7317962646484375,0.3215484619140625
1726225719594833400,11.81583349609375,0.141082763671875,0.75018310546875,0.3381500244140625
1726225719604830500,11.82583056640625,0.1399993896484375,0.777984619140625,0.3679656982421875
1726225719614826500,11.835826416015625,0.1379241943359375,0.809417724609375,0.3999481201171875
1726225719624822300,11.845822265625,0.1259002685546875,0.8416595458984375,0.42535400390625
1726225719634819600,11.855819580078125,0.116485595703125,0.882476806640625,0.4422607421875
1726225719644815400,11.8658154296875,0.119293212890625,0.9247589111328125,0.463409423828125
1726225719654812400,11.8758125,0.1351165771484375,0.9590606689453125,0.485992431640625
1726225719664808400,11.885808349609375,0.16131591796875,0.9778289794921875,0.5030975341796875
1726225719674805500,11.895805419921874,0.1883697509765625,0.96484375,0.4960479736328125
1726225719684801300,11.90580126953125,0.2064208984375,0.91949462890625,0.4821319580078125
1726225719694797600,11.915797607421876,0.2292022705078125,0.876434326171875,0.4942626953125
1726225719704794400,11.92579443359375,0.2606964111328125,0.8460235595703125,0.51629638671875
1726225719714790400,11.935790283203126,0.28863525390625,0.8271484375,0.54754638671875
1726225719724787500,11.945787353515625,0.2961273193359375,0.8263397216796875,0.579681396484375
1726225719734783500,11.955783447265626,0.299346923828125,0.8333587646484375,0.599273681640625
1726225719744780300,11.9657802734375,0.2998809814453125,0.841064453125,0.593994140625
1726225719754776600,11.975776611328126,0.290618896484375,0.8526458740234375,0.577911376953125
1726225719764772400,11.9857724609375,0.27825927734375,0.86126708984375,0.55914306640625
1726225719774769400,11.995769287109376,0.2628326416015625,0.8657989501953125,0.5422515869140625
1726225719784765400,12.005765380859375,0.2434234619140625,0.881134033203125,0.5392913818359375
1726225719794762500,12.015762451171875,0.2310333251953125,0.8997802734375,0.5460205078125
1726225719804758300,12.02575830078125,0.215728759765625,0.9158935546875,0.552032470703125
1726225719814755300,12.03575537109375,0.19342041015625,0.9091644287109375,0.54693603515625
1726225719824751400,12.04575146484375,0.1718902587890625,0.893402099609375,0.525726318359375
1726225719834747400,12.055747314453125,0.155242919921875,0.884063720703125,0.5074462890625
1726225719844744400,12.065744384765624,0.14691162109375,0.8700103759765625,0.49755859375
1726225719854740500,12.075740478515625,0.1470794677734375,0.84869384765625,0.487548828125
1726225719864737500,12.085737548828124,0.1562042236328125,0.8359222412109375,0.4822235107421875
1726225719874733600,12.095733642578125,0.16717529296875,0.8329315185546875,0.4832916259765625
1726225719884730400,12.10573046875,0.1740570068359375,0.825286865234375,0.4907379150390625
1726225719894726400,12.115726318359375,0.1704254150390625,0.8053741455078125,0.4921722412109375
1726225719904722400,12.125722412109376,0.1638641357421875,0.7852325439453125,0.491485595703125
1726225719914719200,12.13571923828125,0.1597747802734375,0.7699737548828125,0.485687255859375
1726225719924715500,12.145715576171876,0.165771484375,0.7711181640625,0.4836273193359375
1726225719934712300,12.15571240234375,0.17401123046875,0.7826690673828125,0.4899444580078125
1726225719944708400,12.165708251953125,0.1871337890625,0.80120849609375,0.5068817138671875
1726225719954705400,12.175705322265625,0.19451904296875,0.8321685791015625,0.523193359375
1726225719964701400,12.185701416015625,0.193389892578125,0.8592071533203125,0.53009033203125
1726225719974697500,12.195697509765624,0.1882476806640625,0.8623199462890625,0.5350189208984375
1726225719984694500,12.205694580078125,0.1757049560546875,0.853424072265625,0.539642333984375
1726225719994690300,12.215690185546874,0.1601715087890625,0.8415679931640625,0.540863037109375
1726225720004687400,12.225687255859375,0.1652374267578125,0.8544464111328125,0.5545196533203125
1726225720014683100,12.23568310546875,0.186279296875,0.8987274169921875,0.577178955078125
1726225720024680200,12.24568017578125,0.211517333984375,0.9445037841796875,0.593658447265625
1726225720034676000,12.255676025390626,0.224639892578125,0.9669342041015625,0.598724365234375
1726225720044672000,12.265672119140625,0.2275390625,0.9698638916015625,0.5877685546875
1726225720054669000,12.2756689453125,0.2193603515625,0.94720458984375,0.563507080078125
1726225720064665000,12.2856650390625,0.20074462890625,0.9024200439453125,0.5340576171875
1726225720074662000,12.295661865234376,0.190643310546875,0.865875244140625,0.5002593994140625
1726225720084658000,12.305657958984375,0.187530517578125,0.8541412353515625,0.4815673828125
1726225720094655000,12.315655029296876,0.190032958984375,0.8463134765625,0.4805908203125
1726225720104651000,12.325651123046875,0.1958770751953125,0.8504638671875,0.4883880615234375
1726225720114646800,12.335646728515625,0.19268798828125,0.8476104736328125,0.47906494140625
1726225720124644000,12.34564404296875,0.1889190673828125,0.8404388427734375,0.4595794677734375
1726225720134639900,12.355639892578125,0.184844970703125,0.83746337890625,0.4523162841796875
1726225720144637200,12.36563720703125,0.1708831787109375,0.81817626953125,0.4417266845703125
1726225720154633000,12.375633056640625,0.1489105224609375,0.785797119140625,0.4320220947265625
1726225720164630000,12.385630126953124,0.127685546875,0.7734832763671875,0.4326019287109375
1726225720174626000,12.3956259765625,0.1269683837890625,0.78143310546875,0.4335479736328125
1726225720184622000,12.4056220703125,0.1471405029296875,0.8120880126953125,0.4417572021484375
1726225720194619000,12.415618896484375,0.158477783203125,0.8550872802734375,0.4633331298828125
1726225720204615200,12.425615234375,0.1597747802734375,0.8755645751953125,0.4798583984375
1726225720214612000,12.435612060546875,0.1389312744140625,0.851287841796875,0.4797515869140625
1726225720224608000,12.44560791015625,0.1070709228515625,0.826751708984375,0.4784088134765625
1726225720234605000,12.45560498046875,0.079376220703125,0.807830810546875,0.486968994140625
1726225720244601000,12.46560107421875,0.05963134765625,0.7743988037109375,0.4979705810546875
1726225720254598100,12.47559814453125,0.06097412109375,0.7581939697265625,0.5224456787109375
1726225720264594200,12.48559423828125,0.0873565673828125,0.7661895751953125,0.5533447265625
1726225720274590000,12.49558984375,0.12725830078125,0.7955322265625,0.5742034912109375
1726225720284587300,12.505587158203125,0.1730804443359375,0.84576416015625,0.5968017578125
1726225720294583000,12.5155830078125,0.205596923828125,0.884796142578125,0.6180572509765625
1726225720304580000,12.525580078125,0.213287353515625,0.886871337890625,0.6171417236328125
1726225720314576000,12.535575927734374,0.2042694091796875,0.8587188720703125,0.5978851318359375
1726225720324573000,12.545572998046875,0.1943511962890625,0.8289031982421875,0.577728271484375
1726225720334569000,12.55556884765625,0.183074951171875,0.7968597412109375,0.5644378662109375
1726225720344565000,12.56556494140625,0.18145751953125,0.763519287109375,0.5589141845703125
1726225720354562000,12.57556201171875,0.1977386474609375,0.7386016845703125,0.557525634765625
1726225720364558000,12.58555810546875,0.2234954833984375,0.73443603515625,0.561279296875
1726225720374555100,12.59555517578125,0.250091552734375,0.7607269287109375,0.5592803955078125
1726225720384551200,12.60555126953125,0.25469970703125,0.789093017578125,0.560028076171875
1726225720394548000,12.6155478515625,0.2367401123046875,0.7793121337890625,0.54620361328125
1726225720404544000,12.6255439453125,0.204986572265625,0.75750732421875,0.5139923095703125
1726225720414540000,12.6355400390625,0.185333251953125,0.7422027587890625,0.4901580810546875
1726225720424536800,12.645536865234375,0.1763916015625,0.716461181640625,0.466094970703125
1726225720434533000,12.655533203125,0.1821746826171875,0.6956634521484375,0.4487762451171875
1726225720444530000,12.665530029296875,0.198577880859375,0.704681396484375,0.4369964599609375
1726225720454526000,12.67552587890625,0.2322845458984375,0.762237548828125,0.42364501953125
1726225720464523000,12.68552294921875,0.275390625,0.8549346923828125,0.4201507568359375
1726225720474519000,12.69551904296875,0.2977752685546875,0.9277496337890625,0.4231719970703125
1726225720484515000,12.70551513671875,0.270111083984375,0.9395599365234375,0.43463134765625
1726225720494512000,12.71551220703125,0.2069091796875,0.8990325927734375,0.43585205078125
1726225720504508000,12.7255078125,0.1534271240234375,0.8695526123046875,0.4375
1726225720514505000,12.7355048828125,0.1324462890625,0.8800201416015625,0.4698486328125
1726225720524501000,12.7455009765625,0.140228271484375,0.9005889892578125,0.511383056640625
1726225720534498000,12.755498046875,0.1651153564453125,0.9226531982421875,0.543731689453125
1726225720544493800,12.765493896484376,0.18975830078125,0.9582672119140625,0.5653839111328125
1726225720554490000,12.775489990234375,0.2030181884765625,0.9844970703125,0.566009521484375
1726225720564487000,12.78548681640625,0.197357177734375,0.978424072265625,0.5588836669921875
1726225720574483000,12.79548291015625,0.169036865234375,0.9362335205078125,0.5525665283203125
1726225720584480000,12.80547998046875,0.1477508544921875,0.89239501953125,0.5429840087890625
1726225720594476000,12.81547607421875,0.1459197998046875,0.836151123046875,0.5284271240234375
1726225720604473000,12.82547314453125,0.1562652587890625,0.764801025390625,0.514404296875
1726225720614469000,12.83546923828125,0.175750732421875,0.704620361328125,0.496551513671875
1726225720624465000,12.84546484375,0.2026519775390625,0.6750335693359375,0.46240234375
1726225720634462200,12.855462158203125,0.25238037109375,0.7015380859375,0.4350433349609375
1726225720644458000,12.8654580078125,0.296478271484375,0.74847412109375,0.4364776611328125
1726225720654455000,12.875455078125,0.3050384521484375,0.7679595947265625,0.4426727294921875
1726225720664451000,12.885451171875,0.282562255859375,0.768524169921875,0.4391021728515625
1726225720674448100,12.8954482421875,0.2588043212890625,0.7773590087890625,0.4355010986328125
1726225720684444000,12.90544384765625,0.2349090576171875,0.7899017333984375,0.43603515625
1726225720694440200,12.915440185546874,0.2195281982421875,0.803466796875,0.444091796875
1726225720704437000,12.92543701171875,0.209259033203125,0.8114776611328125,0.4632720947265625
1726225720714433000,12.93543310546875,0.2025909423828125,0.8325653076171875,0.4857635498046875
1726225720724430000,12.94543017578125,0.221160888671875,0.89630126953125,0.5115509033203125
1726225720734426000,12.955426025390626,0.2314453125,0.959228515625,0.53558349609375
1726225720744423000,12.9654228515625,0.216705322265625,0.9814300537109375,0.547576904296875
1726225720754419200,12.975419189453126,0.187713623046875,0.9704437255859375,0.5460205078125
1726225720764415000,12.9854150390625,0.1632537841796875,0.94122314453125,0.532928466796875
1726225720774412000,12.995412109375,0.1498565673828125,0.90185546875,0.510955810546875
1726225720784408000,13.005407958984375,0.168609619140625,0.90008544921875,0.4951019287109375
1726225720794404900,13.01540478515625,0.213226318359375,0.9166259765625,0.481353759765625
1726225720804401000,13.02540087890625,0.25823974609375,0.934051513671875,0.4727783203125
1726225720814398000,13.03539794921875,0.302581787109375,0.966888427734375,0.4733734130859375
1726225720824394000,13.04539404296875,0.3312530517578125,1.0146636962890625,0.4740447998046875
1726225720834390000,13.05539013671875,0.3260040283203125,1.032012939453125,0.4632568359375
1726225720844387000,13.065386962890624,0.292022705078125,0.9762420654296875,0.459442138671875
1726225720854383000,13.075383056640625,0.2653961181640625,0.9035491943359375,0.438385009765625
1726225720864380200,13.085380126953124,0.2564849853515625,0.8519134521484375,0.418304443359375
1726225720874376000,13.0953759765625,0.2708740234375,0.8134613037109375,0.4309539794921875
1726225720884373000,13.105373046875,0.3070831298828125,0.783447265625,0.4401092529296875
1726225720894369000,13.115369140625,0.332305908203125,0.758575439453125,0.4337615966796875
