time,seconds_elapsed,z,y,x
1.73E+18,0.026268799,0.37335985,0.216548409,0.917598975
1.73E+18,0.036265869,0.353873059,0.405396326,1.221741789
1.73E+18,0.046261719,0.356282458,0.510933506,1.456263223
1.73E+18,0.056257813,0.354172334,0.632787031,1.662841442
1.73E+18,0.066254883,0.303366861,0.788472098,1.81341808
1.73E+18,0.076250977,0.198187992,0.911108298,2.008124221
1.73E+18,0.086248047,0.113194418,0.906053353,2.11754102
1.73E+18,0.096243896,0.124019178,0.833171072,1.962506087
1.73E+18,0.106240723,0.229144856,0.661419251,1.570825714
1.73E+18,0.116236816,0.188913968,0.429887793,1.074686457
1.73E+18,0.126233887,0.04594459,0.140976743,0.51311275
1.73E+18,0.136229736,-0.041731356,-0.065889645,-0.07546616
1.73E+18,0.146227051,-0.022394203,-0.216915489,-0.691310532
1.73E+18,0.1562229,0.007850129,-0.406653048,-1.224907852
1.73E+18,0.166219727,-0.162860658,-0.509717116,-1.617149366
1.73E+18,0.17621582,-0.446612718,-0.367566069,-1.78257929
1.73E+18,0.186212891,-0.630182402,-0.304642872,-1.480720349
1.73E+18,0.19620874,-0.779525406,-0.282916778,-1.240756724
1.73E+18,0.206205078,-1.011809729,-0.069416066,-1.204511252
1.73E+18,0.216200684,-1.233735155,0.142173259,-0.89223109
1.73E+18,0.226196777,-1.356054544,0.325320918,-0.238462719
1.73E+18,0.236193848,-1.541893926,0.316640184,0.418201227
1.73E+18,0.246189941,-1.643633468,0.251025848,0.989401717
1.73E+18,0.256186768,-1.488216697,0.536524459,1.734508502
1.73E+18,0.266182861,-1.121083758,0.929728827,2.839589804
1.73E+18,0.276179688,-0.831668266,1.449015151,3.845280758
1.73E+18,0.286175781,-0.752031835,1.872775401,4.61545323
1.73E+18,0.296172852,-0.589467529,1.781528027,5.120539179
1.73E+18,0.306168945,-0.395981432,1.391541452,5.056370951
1.73E+18,0.316166016,-0.032460839,1.137459724,4.722734624
1.73E+18,0.326161865,-0.055379357,0.71836162,4.697869355
1.73E+18,0.336157715,-0.1105138,0.564348286,4.197012714
1.73E+18,0.346155029,-0.106684013,0.578907557,3.64595178
1.73E+18,0.356150879,0.001909633,0.712099053,3.476111638
1.73E+18,0.366147949,-0.007419336,0.514285155,3.107848819
1.73E+18,0.376144043,-0.042143444,0.410527843,2.41209066
1.73E+18,0.386141113,0.096183077,0.374469272,1.955652276
1.73E+18,0.396136719,0.556027617,0.501920179,1.682918454
1.73E+18,0.406133789,0.633115532,0.71649758,1.299336193
1.73E+18,0.416129883,-0.824537099,0.97293084,0.119391811
1.73E+18,0.426126709,-2.455633742,1.459631238,-1.226412411
1.73E+18,0.436123047,-3.191896345,1.659710158,-2.176573931
1.73E+18,0.446119629,-3.124218647,1.437953075,-3.299209011
1.73E+18,0.456115723,-2.619526081,0.778589002,-4.101110792
1.73E+18,0.466112793,-1.69323132,0.433361022,-4.935348032
1.73E+18,0.476108887,-0.966302362,0.22668168,-5.663900207
1.73E+18,0.48610498,-1.805549539,-0.30481706,-7.060197913
1.73E+18,0.496102051,-2.583240131,-0.323606516,-8.203832526
1.73E+18,0.506097656,-2.125007118,-0.716796271,-8.894621665
1.73E+18,0.516094971,-0.6399521,-0.91603231,-9.141729462
1.73E+18,0.52609082,0.257036487,-1.13143038,-9.180240687
1.73E+18,0.536087891,1.699219746,-1.089342466,-9.101369395
1.73E+18,0.546083984,3.925068581,-1.176505201,-8.677364231
1.73E+18,0.556081055,5.278790882,-1.097313591,-8.317478779
1.73E+18,0.56607666,6.183919521,-0.535493363,-7.482294029
1.73E+18,0.576073975,6.769061004,0.536753592,-5.997585633
1.73E+18,0.586069824,6.537795503,1.971659554,-2.050783944
1.73E+18,0.596066895,5.546575558,2.762973598,1.488752265
1.73E+18,0.606062988,4.684605092,3.721901632,2.989495119
1.73E+18,0.616059814,2.326702241,4.039668774,3.467481757
1.73E+18,0.626055664,0.97669633,3.207334737,5.301598926
1.73E+18,0.636052002,0.748460991,2.347068153,5.652833454
1.73E+18,0.646048828,1.226932489,1.628044269,6.686951461
1.73E+18,0.656044922,1.59802907,-0.260867443,7.152374677
1.73E+18,0.666041992,1.59029117,-1.143834519,5.841042488
1.73E+18,0.676037842,1.937895816,-0.565839401,4.700562832
1.73E+18,0.686034912,2.902257565,-0.146277187,4.793525193
1.73E+18,0.696030762,3.467751514,-0.62943246,5.052692555
1.73E+18,0.706027832,3.357674352,-0.882563171,4.161436374
1.73E+18,0.716023926,2.284013439,-0.160459442,2.265411614
1.73E+18,0.726020996,0.553673162,2.115404008,0.90787823
1.73E+18,0.736016602,-2.348842177,3.510331011,2.276796055
1.73E+18,0.746013916,-3.465924298,2.344164248,3.580453179
1.73E+18,0.756009766,-2.283500813,0.977568437,2.981044686
1.73E+18,0.766006836,-0.156365158,-0.12775252,1.091623563
1.73E+18,0.77600293,1.458020296,-1.253548693,-0.873853795
1.73E+18,0.785999023,2.10675133,-1.798466887,-2.698173793
1.73E+18,0.795995605,1.617570222,-1.917395464,-3.69129402
1.73E+18,0.805991943,-0.76343761,-1.621135221,-3.575520399
1.73E+18,0.81598877,-2.95023746,-1.399367031,-3.517944409
1.73E+18,0.825984863,-3.478409102,-0.768791831,-3.069585432
1.73E+18,0.835981934,-2.250834223,0.771758864,-1.972680421
1.73E+18,0.845978027,0.749141666,1.057846673,-0.0749775
1.73E+18,0.855975098,3.19144071,1.061679383,1.211684359
1.73E+18,0.865970947,2.595554546,1.507124226,1.323543144
1.73E+18,0.875967773,3.746368841,0.755403357,1.336963767
1.73E+18,0.885963867,4.139368626,-0.480191747,1.386615102
1.73E+18,0.895960938,4.933886142,-2.219343106,0.301126388
1.73E+18,0.905956787,6.504511658,-1.993704212,-1.186845101
1.73E+18,0.915954102,8.273374265,0.674852149,-1.790640139
1.73E+18,0.925949707,12.64427932,0.719123837,-4.038730031
1.73E+18,0.935945801,10.78082003,0.138485511,-6.909787572
1.73E+18,0.945942871,4.201003829,3.824298761,-3.545293311
1.73E+18,0.955938965,-2.665404035,3.679481124,-0.138998429
1.73E+18,0.965935791,-8.283127597,2.022059954,0.649239861
1.73E+18,0.975931885,-10.28180317,1.250816638,-1.55623634
1.73E+18,0.985928711,-6.54469403,1.136291264,-4.009854066
1.73E+18,0.995924805,-3.608251287,2.136282545,-3.894672274
1.73E+18,1.005921875,-2.789455362,3.033850394,-1.841181993
1.73E+18,1.015917969,-2.552321846,2.690986804,-0.120055535
1.73E+18,1.025915039,-3.296376126,2.136674175,0.881565393
1.73E+18,1.035910889,-2.148214975,0.481997919,0.544735238
1.73E+18,1.045907715,-1.142963655,-0.064020929,-0.29006022
1.73E+18,1.055904053,-0.851920707,1.725540183,0.167518128
1.73E+18,1.065900879,-1.669984884,1.916158031,-1.425267781
1.73E+18,1.075896973,-3.104600339,0.728319535,-0.179341837
1.73E+18,1.085892822,-3.760920221,0.373125457,-0.033866614
1.73E+18,1.095889648,-4.541019628,0.852470231,0.467384872
1.73E+18,1.105885742,-4.110685261,1.453113819,1.848413113
1.73E+18,1.115882813,-3.156100224,1.578779011,3.171741446
1.73E+18,1.125878906,-1.785842968,-0.401663569,4.501889979
1.73E+18,1.135875732,-0.152186119,-1.115541906,5.389633184
1.73E+18,1.145871826,0.083355744,-0.58822016,5.170049937
1.73E+18,1.155868652,-0.009571546,0.060196402,4.69922983
1.73E+18,1.165864746,-0.740051474,1.7959324,3.814048585
1.73E+18,1.175861816,-1.108060026,2.787431747,2.341981644
1.73E+18,1.18585791,-0.81457217,2.101993907,1.529616628
1.73E+18,1.19585498,-0.807464968,1.629471087,0.581239799
1.73E+18,1.20585083,-0.574234889,0.837488935,0.081229253
1.73E+18,1.2158479,-0.612776509,0.705002373,-0.972154595
1.73E+18,1.225843994,-0.658324793,0.630922406,-1.539718336
1.73E+18,1.235840088,0.163878895,-3.982299704,2.302187393
1.73E+18,1.245837158,0.885652297,-5.129122883,3.761390761
1.73E+18,1.255833008,1.541700449,-4.1618508,3.128094027
1.73E+18,1.265830322,2.356672432,-4.271391955,3.160015352
1.73E+18,1.275825928,2.817696537,-4.092476819,3.216265647
1.73E+18,1.285822998,2.404821254,-3.602678455,3.229847598
1.73E+18,1.295819092,2.004703161,-2.928828177,2.287884143
1.73E+18,1.305815918,1.715387037,-2.094980813,0.87632077
1.73E+18,1.315812012,0.468334063,-0.277722132,-2.108666224
1.73E+18,1.325809082,-2.630616215,4.871181557,-5.949030569
1.73E+18,1.335804932,0.387412925,11.68085631,-6.173917767
1.73E+18,1.345802002,2.709552389,14.22598503,-3.32504634
1.73E+18,1.355798096,2.355855855,11.13352053,-0.533181359
1.73E+18,1.365794189,1.99345243,8.407185354,1.378518304
1.73E+18,1.37579126,4.217756519,4.852171151,-0.276756283
1.73E+18,1.385786865,6.51991264,2.839858685,-0.952200041
1.73E+18,1.395783936,6.640142948,2.012740337,-0.371257032
1.73E+18,1.405780029,5.19550645,1.292329383,0.749553754
1.73E+18,1.4157771,3.216089706,0.1517261,0.506362253
1.73E+18,1.425772949,2.85172331,-1.804405629,-1.875883012
1.73E+18,1.435770264,1.306566436,-3.067524115,-3.316289033
1.73E+18,1.445765869,-0.166221367,-2.521431617,-3.89212785
1.73E+18,1.455762939,-3.286981398,-1.00519411,-0.881273132
1.73E+18,1.465759033,-6.113729548,0.605537205,1.995037507
1.73E+18,1.475756104,-7.405824538,1.895637806,1.873383889
1.73E+18,1.485751953,-7.747771012,2.29879892,1.99695883
1.73E+18,1.495749023,-7.555867215,2.181331647,1.437463245
1.73E+18,1.505744873,-7.222250178,1.20941203,1.150413021
1.73E+18,1.515740967,-7.059789917,0.086035777,0.517736757
1.73E+18,1.525738037,-6.309682913,-0.40638183,-0.187455293
1.73E+18,1.535734131,-5.135204834,-0.410524921,-0.490875345
1.73E+18,1.545731201,-3.588178221,-0.289026201,-0.485404805
1.73E+18,1.555727051,-2.120810835,0.023294366,-0.362124755
1.73E+18,1.565723877,-0.854608997,0.421983888,0.172869134
1.73E+18,1.575719971,0.431609502,0.981816157,0.529651359
1.73E+18,1.585717041,1.850583736,1.258171093,0.505122482
1.73E+18,1.595712891,2.766498849,0.946941828,0.543496636
1.73E+18,1.605710205,3.450070019,0.672059303,0.522095829
1.73E+18,1.615705811,3.912644276,0.396093075,0.257455881
1.73E+18,1.625703125,4.379772543,0.293790054,-0.112535077
1.73E+18,1.635698975,4.54485643,-0.089272275,-0.141805595
1.73E+18,1.645696045,4.06800318,-0.522445665,-0.334008667
1.73E+18,1.655692139,3.244680717,-0.938911082,-0.265465585
1.73E+18,1.665688232,2.214985787,-1.167840833,0.039698973
1.73E+18,1.675684814,1.346813545,-1.050616137,0.532697302
1.73E+18,1.685680908,0.598702391,-0.803327138,0.946236018
1.73E+18,1.695677979,0.006026128,-0.450121603,1.075925351
1.73E+18,1.705674072,-0.313885917,-0.228737444,0.91486882
1.73E+18,1.715671143,-0.605956307,-0.181782216,0.355881769
1.73E+18,1.725667236,-0.891419263,-0.00894903,0.246753578
1.73E+18,1.735663818,-1.032040909,0.034686113,0.08222031
1.73E+18,1.745660156,-1.01415863,0.039686698,-0.017973464
1.73E+18,1.755656982,-1.250210197,-0.198265149,-0.148135675
1.73E+18,1.765653076,-1.359044958,-0.432379025,-0.457249262
1.73E+18,1.775650146,-1.399186122,-0.477647907,-0.424036729
1.73E+18,1.785645996,-1.611980731,-0.583735123,-0.595991963
1.73E+18,1.795641846,-1.8455171,-0.550975594,-0.637729748
1.73E+18,1.805638916,-2.028879278,-0.473600678,-0.655464142
1.73E+18,1.81563501,-2.041046102,-0.150972652,-0.676267276
1.73E+18,1.82563208,-1.773074672,0.249211492,-0.546248858
1.73E+18,1.835628174,-1.431049579,0.454684965,-0.561291236
1.73E+18,1.845625,-1.132077738,0.500658781,-0.410874465
1.73E+18,1.855621094,-0.501630841,0.973680782,0.116986503
1.73E+18,1.86561792,-0.081136022,1.15954413,0.243318635
1.73E+18,1.875614014,-0.54275254,0.83901746,-0.023178339
1.73E+18,1.885611084,-0.760462686,0.865547155,-0.006012977
1.73E+18,1.895607178,-0.778684572,0.753674926,-0.017675357
1.73E+18,1.905604004,-0.530678948,0.743481449,0.001411036
1.73E+18,1.915600098,-0.394475995,0.960930021,0.205821263
1.73E+18,1.925595947,-0.055271221,1.143131339,0.181633163
1.73E+18,1.935593018,0.289696063,1.234305064,0.06529168
1.73E+18,1.945589111,0.516795676,1.204073592,0.079051325
1.73E+18,1.955586182,0.690354254,1.0313275,-0.288810512
1.73E+18,1.965581787,0.669782591,0.874348885,-0.555333789
1.73E+18,1.975578857,0.793609169,0.581076718,-0.972997476
1.73E+18,1.985574951,0.92613168,0.310570509,-1.09713765
1.73E+18,1.995572021,0.943591056,0.113514151,-1.093279221
1.73E+18,2.005568115,1.098473721,0.281437353,-1.064341296
1.73E+18,2.015564941,1.278027009,0.604426614,-0.857203689
1.73E+18,2.025561035,1.306731271,0.593234773,-0.836702753
1.73E+18,2.035557861,1.253872226,0.521547255,-0.794276985
1.73E+18,2.045553955,1.224096681,0.542492428,-0.890565861
1.73E+18,2.055551025,1.211489275,0.465048538,-1.046784012
1.73E+18,2.065547119,1.018716148,0.482347463,-1.349503807
1.73E+18,2.075542969,0.935137847,0.767431648,-1.543822848
1.73E+18,2.085540039,0.910182708,1.122657876,-1.426935422
1.73E+18,2.095535889,0.797869165,1.463962545,-1.383204416
1.73E+18,2.105532959,0.561377453,1.53064188,-1.457649124
1.73E+18,2.115529053,0.204921976,1.310260761,-1.721959401
1.73E+18,2.125526123,-0.205242002,1.04550917,-2.151830243
1.73E+18,2.135521973,-0.187642194,0.922939021,-2.424960956
1.73E+18,2.145519287,0.094492347,0.717079179,-2.846467874
1.73E+18,2.155514893,0.068065528,0.911389453,-3.061442165
1.73E+18,2.165512207,-0.421187915,1.372127142,-2.671071559
1.73E+18,2.175508057,-0.813658854,1.650250256,-1.943543467
1.73E+18,2.18550415,-1.064504085,1.544661053,-1.435253753
1.73E+18,2.195501221,-1.267372928,1.395086577,-0.975991981
1.73E+18,2.20549707,-1.325327835,0.876480637,-0.986579426
1.73E+18,2.215493896,-1.369557145,0.527766568,-0.941670025
1.73E+18,2.225490479,-1.390315417,0.269983647,-0.812156341
1.73E+18,2.235487549,-1.304196931,0.014174071,-0.762652597
1.73E+18,2.245483398,-1.160541324,-0.08301263,-0.742977006
1.73E+18,2.255480713,-1.109207589,0.004736381,-0.557445667
1.73E+18,2.265476318,-1.076058037,0.188906953,-0.051484688
1.73E+18,2.275473389,-1.101184441,0.093099724,0.360924731
1.73E+18,2.285469482,-1.09368824,-0.102861824,0.644206251
1.73E+18,2.295466553,-1.051558387,-0.376858798,0.750725428
1.73E+18,2.305462402,-0.929719037,-0.551481205,0.636959348
1.73E+18,2.315459717,-0.694029582,-0.389060108,0.899638225
1.73E+18,2.325455322,-0.503674475,-0.364583254,1.087916817
1.73E+18,2.335451416,-0.301206468,-0.223521755,1.0852362
1.73E+18,2.345448486,-0.183951231,-0.004015665,1.28893448
1.73E+18,2.35544458,-0.065720134,0.080223291,1.410846457
1.73E+18,2.365441406,0.049044674,0.148702369,1.315692723
1.73E+18,2.375437744,0.163937274,0.134262924,0.973461002
1.73E+18,2.385434326,0.332807986,0.331400531,0.74530691
1.73E+18,2.39543042,0.457580029,0.380029829,0.474286322
1.73E+18,2.40542749,0.542465394,0.552083847,0.071849431
1.73E+18,2.415423584,0.56363115,0.603614713,-0.370666373
1.73E+18,2.425420654,0.611748992,0.690931762,-0.471816132
1.73E+18,2.435416504,0.627407019,0.678160543,-0.60188862
1.73E+18,2.445412354,0.529609565,0.662063979,-0.663612378
1.73E+18,2.455409424,0.417026996,0.587455605,-0.592009031
1.73E+18,2.465405518,0.314897213,0.405126277,-0.56979603
1.73E+18,2.475402344,0.264039059,0.260170109,-0.601733721
1.73E+18,2.485398682,0.194620143,0.16424539,-0.645922407
1.73E+18,2.495395508,0.133866034,0.118469143,-0.733468589
1.73E+18,2.505391357,0.024510026,0.124284551,-0.872647927
1.73E+18,2.515388428,-0.091469529,0.181952312,-0.998337669
1.73E+18,2.525384521,-0.201662463,0.258644506,-1.141341533
1.73E+18,2.535381592,-0.299628186,0.433316598,-1.216743688
1.73E+18,2.545377686,-0.327359183,0.689628862,-1.17037006
1.73E+18,2.555374512,-0.303411321,1.005975032,-1.257461483
1.73E+18,2.565370361,-0.402455048,1.104642327,-1.902116647
1.73E+18,2.575367432,-0.387361451,1.258899407,-1.988540546
1.73E+18,2.585363525,-0.36629298,1.476255041,-1.946174984
1.73E+18,2.595359375,-0.469637656,1.454972599,-2.219733567
1.73E+18,2.605356689,-0.537245759,1.431328104,-2.322885313
1.73E+18,2.615352295,-0.545445432,1.461588217,-2.219583929
1.73E+18,2.625349365,-0.551141014,1.450326234,-1.990964558
1.73E+18,2.635345459,-0.576606294,1.470689223,-1.616171461
1.73E+18,2.645342285,-0.589648147,1.474734115,-1.184683247
1.73E+18,2.655338623,-0.59376435,1.34887603,-0.909054288
1.73E+18,2.665335449,-0.502373183,1.132678919,-0.718518857
1.73E+18,2.675331299,-0.303092154,0.899617182,-0.550529604
1.73E+18,2.685328369,-0.064807111,0.723883014,-0.737888159
1.73E+18,2.695324463,0.189897133,0.629210926,-0.597514642
1.73E+18,2.705321533,0.329271154,0.730077777,-0.375659944
1.73E+18,2.715317627,0.31771512,0.769406748,-0.109226098
1.73E+18,2.725313232,0.277457928,0.768349348,0.046230421
1.73E+18,2.735310547,0.297463811,0.60617258,0.115183545
1.73E+18,2.745306396,0.439084076,0.48260816,0.11028116
1.73E+18,2.755303467,0.625646512,0.244279881,0.03123042
1.73E+18,2.765299561,0.764177688,0.046554246,-0.106322194
1.73E+18,2.775296631,0.826627934,-0.06728373,-0.220339033
1.73E+18,2.785292236,0.764866255,0.03196341,-0.225605576
1.73E+18,2.795289551,0.597937325,0.262710441,-0.086773444
1.73E+18,2.8052854,0.385095953,0.338819867,0.055010524
1.73E+18,2.815282471,0.147900405,0.304430691,0.096935357
1.73E+18,2.825278564,0.035164252,0.255099381,0.197464938
1.73E+18,2.835275391,0.065528995,0.160661102,0.106061497
1.73E+18,2.84527124,-0.007424013,-0.025271804,0.140864515
1.73E+18,2.855267578,-0.120247916,-0.106629068,0.218507142
1.73E+18,2.865264404,-0.283850259,-0.075813658,0.188994047
1.73E+18,2.875260498,-0.54977842,-0.157377258,-0.113017307
1.73E+18,2.885257568,-0.735204034,0.015808979,-0.122136433
1.73E+18,2.895253662,-0.878505347,0.255826526,0.142366151
1.73E+18,2.905250732,-0.980039722,0.53788698,0.343830973
1.73E+18,2.915246582,-0.997964744,0.835414467,0.301427417
1.73E+18,2.925243408,-0.903141849,0.96242289,0.169489721
1.73E+18,2.935239502,-0.72410864,0.855861043,-0.027853637
1.73E+18,2.945236572,-0.726377096,0.709262953,-0.474884288
1.73E+18,2.955232422,-0.662553224,0.533152352,-0.78296824
1.73E+18,2.965228516,-0.73872987,0.465353658,-1.002891094
1.73E+18,2.975225342,-0.86779581,0.325617271,-0.84898765
1.73E+18,2.985221436,-0.947239203,0.300111074,-0.561932457
1.73E+18,2.995218506,-0.914282252,0.244890122,-0.356516852
1.73E+18,3.0052146,-0.814223795,0.107782329,-0.326257322
1.73E+18,3.015211426,-0.64653674,0.111070265,-0.193175132
1.73E+18,3.02520752,-0.554046599,0.292695245,0.080284666
1.73E+18,3.035204346,-0.512270308,0.259363468,-0.002462591
1.73E+18,3.045200439,-0.520193502,0.239320213,-0.141100662
1.73E+18,3.05519751,-0.447119425,0.177545601,-0.284770297
1.73E+18,3.065193604,-0.345792702,0.225142634,-0.056353171
1.73E+18,3.075190674,-0.168722755,0.396934787,0.500911294
1.73E+18,3.085186523,0.02655651,0.390057302,0.665343731
1.73E+18,3.095182373,0.083507208,0.046113516,0.387445074
1.73E+18,3.105179688,0.138756802,-0.134503163,0.278486102
1.73E+18,3.115175537,0.143429981,-0.133145903,0.270904853
1.73E+18,3.125172607,0.087121234,-0.143460961,0.349258259
1.73E+18,3.135168457,0.101670642,0.057155719,0.388826884
1.73E+18,3.145165283,0.142429864,0.427201915,0.422371426
1.73E+18,3.155161377,0.302451573,0.659295683,0.261409295
1.73E+18,3.165158447,0.506800864,0.84490418,0.044402036
1.73E+18,3.175154541,0.674099869,1.000546577,-0.273538709
1.73E+18,3.185151367,0.839793047,1.201616846,-0.614118571
1.73E+18,3.195147705,0.825749324,1.420701496,-1.015289972
1.73E+18,3.205144287,0.729253017,1.54962832,-1.319449445
1.73E+18,3.215140381,0.502590041,1.657277963,-1.51523739
1.73E+18,3.225137695,0.188110177,1.556054553,-1.866681761
1.73E+18,3.235134521,-0.092039401,1.443440566,-2.139969125
1.73E+18,3.245130615,-0.277313624,1.499094064,-2.273888935
1.73E+18,3.255127686,-0.420102312,1.718643993,-2.296050498
1.73E+18,3.265123535,-0.499453496,2.062569074,-2.312579608
1.73E+18,3.275120361,-0.580230257,2.354203996,-2.457480831
1.73E+18,3.285116699,-0.601368943,2.534578099,-2.608381002
1.73E+18,3.295113525,-0.568518265,2.69692204,-2.707704715
1.73E+18,3.305109619,-0.493849649,2.769236165,-2.857105587
1.73E+18,3.315106689,-0.436236285,2.742507148,-2.920337412
1.73E+18,3.325102539,-0.400245519,2.485654201,-3.085738402
1.73E+18,3.335098389,-0.413048375,2.461983988,-3.083573917
1.73E+18,3.345095703,-0.460949359,2.562891755,-2.895414568
1.73E+18,3.355091553,-0.510211622,2.45072142,-2.709481662
1.73E+18,3.365088867,-0.544700751,2.293855034,-2.374158989
1.73E+18,3.375084717,-0.570640152,1.974451815,-2.177607074
1.73E+18,3.385081543,-0.535344967,1.735300529,-1.881737875
1.73E+18,3.395077637,-0.497185552,1.470190626,-1.670174269
1.73E+18,3.405074707,-0.410856929,1.183423018,-1.506743702
1.73E+18,3.415070557,-0.330012255,0.884042012,-1.353825762
1.73E+18,3.425067627,-0.228624047,0.696315793,-1.064575689
1.73E+18,3.435063721,-0.087312373,0.630333793,-0.87524788
1.73E+18,3.445060303,-0.00157704,0.386840678,-0.944361748
1.73E+18,3.455056641,0.24485801,0.354808294,-0.739499101
1.73E+18,3.465052734,0.610285861,0.524663341,-0.368898779
1.73E+18,3.475049561,0.90306988,0.724637632,-0.201872233
1.73E+18,3.485045898,1.041242087,0.81207743,-0.393725762
1.73E+18,3.495042725,0.936662426,0.767041188,-0.685898444
1.73E+18,3.505038574,0.704081166,0.590097644,-0.905892025
1.73E+18,3.515035645,0.552248098,0.494080571,-0.742607004
1.73E+18,3.525031494,0.387360318,0.368302567,-0.792605837
1.73E+18,3.535028809,0.216423321,0.242828513,-0.945294061
1.73E+18,3.545024658,0.15867307,0.33038697,-1.011003089
1.73E+18,3.555021729,0.145906089,0.647349225,-0.882855432
1.73E+18,3.565017578,0.064779711,0.85486151,-0.882961815
1.73E+18,3.575014648,-0.106475923,1.030406293,-0.642880555
1.73E+18,3.585010498,-0.255334944,1.126674126,-0.458134229
1.73E+18,3.595006836,-0.440060812,0.835464736,-0.56206865
1.73E+18,3.605003662,-0.571943636,0.589666851,-0.621678193
1.73E+18,3.614999512,-0.619951442,0.439064786,-0.622189649
1.73E+18,3.624996582,-0.621555516,0.157180859,-0.680545977
1.73E+18,3.634992676,-0.523734536,-0.154884857,-0.735505063
1.73E+18,3.644989502,-0.385247345,-0.51485974,-0.827267401
1.73E+18,3.65498584,-0.258400834,-0.785910139,-0.95872462
1.73E+18,3.664982666,-0.142524557,-0.773083391,-0.854046102
1.73E+18,3.674978516,0.05993629,-0.504096938,-0.729607821
1.73E+18,3.684975586,0.232252759,0.075340195,-0.360450684
1.73E+18,3.69497168,0.435355411,0.593716419,-0.03056465
1.73E+18,3.704967529,0.579452879,0.764760383,-0.005422025
1.73E+18,3.714964844,0.659350044,0.816714443,-0.143048873
1.73E+18,3.724960693,0.605211042,0.479420762,-0.587670709
1.73E+18,3.73495752,0.48489828,0.264222599,-0.970131565
1.73E+18,3.744953613,0.313852014,-0.000321487,-1.379258894
1.73E+18,3.754950439,0.142130041,-0.091255557,-1.743791294
1.73E+18,3.764946777,-0.021250293,-0.08639292,-2.009509684
1.73E+18,3.774943604,-0.120189957,0.047323477,-2.109835852
1.73E+18,3.784939697,-0.190710203,0.293383227,-2.136042307
1.73E+18,3.794936523,-0.26603869,0.631616818,-2.046670079
1.73E+18,3.804932617,-0.386824896,1.052042955,-1.859366469
1.73E+18,3.814929688,-0.506537902,1.375215171,-1.662881774
1.73E+18,3.824925781,-0.65366323,1.444838743,-1.472389597
1.73E+18,3.834921631,-0.777810419,1.201722645,-1.51265205
1.73E+18,3.844918701,-0.852888749,0.863033126,-1.559420231
1.73E+18,3.854914551,-0.841322814,0.524827007,-1.604672162
1.73E+18,3.864911621,-0.729058955,0.278936184,-1.607420584
1.73E+18,3.874907471,-0.651960518,0.11509236,-1.501778189
1.73E+18,3.884904785,-0.578750321,0.100010526,-1.273052435
1.73E+18,3.894900635,-0.542661939,0.301238617,-0.950579308
1.73E+18,3.904897949,-0.551948238,0.731084908,-0.49794543
1.73E+18,3.914893555,-0.606314619,1.032472578,-0.097641459
1.73E+18,3.924890625,-0.598652122,1.004770332,0.017265608
1.73E+18,3.934886719,-0.559267621,0.689699589,-0.079722356
1.73E+18,3.944883545,-0.476460743,0.13308862,-0.188217218
1.73E+18,3.954879639,-0.370063731,-0.101752402,-0.202514623
1.73E+18,3.964875732,-0.205467043,0.028325931,-0.110700847
1.73E+18,3.974872559,-0.062977553,0.500401006,0.212252173
1.73E+18,3.984868652,0.023615856,0.927875308,0.637074499
1.73E+18,3.994865723,-0.00376432,1.228804128,1.014939844
1.73E+18,4.004861816,-0.140794957,1.165402208,1.101163837
1.73E+18,4.014858887,-0.306711495,0.957032429,1.156732579
1.73E+18,4.024854492,-0.466043979,0.951186041,1.234298634
1.73E+18,4.034851563,-0.55722121,1.146490587,1.263065294
1.73E+18,4.044847412,-0.524361728,1.49908062,1.448958453
1.73E+18,4.054844727,-0.543262828,1.723461623,1.516684374
1.73E+18,4.064840576,-0.594336597,1.71376382,1.413881587
1.73E+18,4.074836426,-0.592903934,1.626541464,1.322367378
1.73E+18,4.084833496,-0.545965657,1.650131014,1.289760117
1.73E+18,4.09482959,-0.396260249,1.476393572,0.880593917
1.73E+18,4.10482666,-0.238321265,0.989160675,0.529118275
1.73E+18,4.114822754,-0.073662599,0.468914566,0.25415041
1.73E+18,4.12481958,0.051954059,0.251194775,0.359628262
1.73E+18,4.134815918,0.04188861,0.244828163,0.560552108
1.73E+18,4.1448125,-0.133514736,-0.047583004,0.647656976
1.73E+18,4.154808594,-0.361605699,-0.581603372,0.617976416
1.73E+18,4.164805664,-0.468219569,-1.275908994,0.368253467
1.73E+18,4.174801758,-0.474378092,-2.078466316,-0.056095981
1.73E+18,4.184797607,-0.466581739,-2.677681333,-0.216480312
1.73E+18,4.194794922,-0.400675179,-3.001253362,-0.207374338
1.73E+18,4.204790527,-0.318624599,-2.863656909,0.030274434
1.73E+18,4.214787598,-0.248593031,-2.535098324,0.368253467
1.73E+18,4.224782227,-0.184817638,-2.010375361,0.715508569
1.73E+18,4.234779297,-0.110223877,-1.300543084,1.166727319
1.73E+18,4.244774902,-0.001636734,-0.770860454,1.57594028
1.73E+18,4.254771973,0.262701746,-0.300452435,1.868664167
1.73E+18,4.264768066,0.484773229,-0.143729256,2.053405817
1.73E+18,4.274765137,0.606998437,-0.30127661,1.971469292
1.73E+18,4.284760986,0.521270228,-0.540736524,1.948712686
1.73E+18,4.294758301,0.333263402,-0.607247516,2.019544464
1.73E+18,4.304753906,0.05198387,-0.394431864,2.145885071
1.73E+18,4.31475,-0.141085501,0.001747136,2.303645191
1.73E+18,4.32474707,-0.284641702,0.200980253,2.210507473
1.73E+18,4.334743164,-0.333459801,0.296299991,2.156246014
1.73E+18,4.344740234,-0.218138857,0.258980607,1.985370392
1.73E+18,4.354736084,-0.05077738,0.136685183,1.514752821
1.73E+18,4.36473291,0.136642531,0.158048874,1.239055765
1.73E+18,4.374729248,0.322058081,0.309778481,0.946261152
1.73E+18,4.384726074,0.518503649,0.598321282,0.644718584
1.73E+18,4.394722168,0.625203444,0.862422301,0.370167776
1.73E+18,4.404719238,0.67678867,0.75993574,-0.016380349
1.73E+18,4.414715088,0.613175737,0.482788193,-0.417091732
1.73E+18,4.424710938,0.55858669,0.320522578,-0.631790714
1.73E+18,4.434708252,0.565320346,0.46561494,-0.712183224
1.73E+18,4.444704102,0.469391536,0.670157854,-0.600436667
1.73E+18,4.454700928,0.231448456,0.436900302,-0.544784923
1.73E+18,4.464697266,-0.02868132,-0.277736745,-0.681283059
1.73E+18,4.474693848,-0.315254246,-1.073234796,-0.549301523
1.73E+18,4.484689941,-0.567110115,-1.576201269,-0.222750186
1.73E+18,4.494687012,-0.612224099,-1.799334902,0.216244165
1.73E+18,4.504683105,-0.676166739,-1.902520551,0.465763408
1.73E+18,4.514680176,-0.516378912,-2.246117131,0.522247804
1.73E+18,4.52467627,-0.309568638,-2.629139128,0.534844836
1.73E+18,4.534672119,0.014099819,-2.661130595,0.546430059
1.73E+18,4.544669189,0.278481992,-2.353436519,0.642009618
1.73E+18,4.554665039,0.468733949,-1.882296678,0.61589201
1.73E+18,4.564662109,0.547803394,-1.349191088,0.483025217
1.73E+18,4.574658203,0.532010781,-0.85604692,0.357656962
1.73E+18,4.584655273,0.483841501,-0.292103708,0.298894684
1.73E+18,4.594650879,0.410137967,0.400624289,0.23741058
1.73E+18,4.604648193,0.316111776,1.169673894,0.229658358
1.73E+18,4.614644043,0.195431423,1.800606237,0.090703476
1.73E+18,4.624641357,-0.014263503,2.077282075,-0.127410867
1.73E+18,4.634637207,-0.304298552,2.03409526,-0.379845997
1.73E+18,4.644633057,-0.502921501,1.939046155,-0.717533937
1.73E+18,4.654630127,-0.675564681,1.91494281,-0.966840414
1.73E+18,4.664626221,-0.857833804,1.792903992,-1.163152383
1.73E+18,4.674623047,-1.049721819,1.449406197,-1.352684775
1.73E+18,4.684619141,-1.199216799,0.970010569,-1.631705715
1.73E+18,4.694616211,-1.140704989,0.708760848,-1.827764293
1.73E+18,4.704612061,-1.026690487,0.391617976,-1.904137923
1.73E+18,4.714609131,-0.869434225,-0.116961077,-1.943832805
1.73E+18,4.724605225,-0.734212685,-0.656301762,-1.956473091
1.73E+18,4.734602051,-0.682714553,-1.064148988,-1.900451928
1.73E+18,4.744598145,-0.624611908,-1.177380231,-1.779810702
1.73E+18,4.754595215,-0.533906386,-1.069215624,-1.611678826
1.73E+18,4.76459082,-0.453297894,-0.859246593,-1.366208858
1.73E+18,4.774587158,-0.330742322,-0.636829,-1.104658693
1.73E+18,4.784583984,-0.184848015,-0.476205892,-0.933276291
1.73E+18,4.794580078,0.03910393,-0.273663796,-0.876526229
1.73E+18,4.804577148,0.30665012,0.221509246,-0.682201343
1.73E+18,4.814572998,0.63253744,0.924977833,-0.291825476
1.73E+18,4.824570068,0.974153075,1.505045666,0.062920274
1.73E+18,4.834566162,1.220534313,1.770337356,0.215558813
1.73E+18,4.844562988,2.045760563,1.186715045,0.037980479
1.73E+18,4.854559326,3.032177492,0.243177473,-0.507746109
1.73E+18,4.864556152,3.799030464,-0.312530995,-0.838876005
1.73E+18,4.874552246,4.108793748,-0.164940387,-1.192042378
1.73E+18,4.884547852,3.45249257,0.361413976,-2.004454155
1.73E+18,4.894545166,2.562008542,1.17569973,-2.362422374
1.73E+18,4.904541016,2.022487824,2.278544067,-2.461640873
1.73E+18,4.91453833,1.564154858,3.056666621,-2.45245102
1.73E+18,4.92453418,1.014668041,3.132657974,-2.586690564
1.73E+18,4.93453125,0.466025311,2.544022219,-2.612517663
1.73E+18,4.9445271,0.012790471,2.143544061,-2.28625508
1.73E+18,4.954523926,-0.33005613,1.931116531,-1.828351153
1.73E+18,4.96452002,-0.807163939,1.448129601,-1.399233176
1.73E+18,4.97451709,-1.146276652,0.79539576,-1.064837555
1.73E+18,4.984513184,-1.285621994,0.544588523,-0.54197045
1.73E+18,4.994509033,-1.265340254,0.607041765,0.06350012
1.73E+18,5.004506104,-1.062592991,0.851544348,0.828476192
1.73E+18,5.014502197,-0.987524014,1.02479839,1.683411936
1.73E+18,5.024499268,-0.847693518,0.60784139,2.117543358
1.73E+18,5.034495117,-0.56272273,-0.090749361,2.460516253
1.73E+18,5.044492188,0.016415676,-0.696395288,2.810709747
1.73E+18,5.054488037,0.610307452,-1.114695519,3.122513597
1.73E+18,5.064485107,1.198764379,-1.85389476,2.694225056
1.73E+18,5.074480957,1.438783096,-2.22886789,2.390639584
1.73E+18,5.084478271,1.183044248,-2.329621344,2.237678389
1.73E+18,5.094474121,0.961186626,-3.114569944,1.030661145
1.73E+18,5.104469971,0.760284115,-3.104655868,0.879773833
1.73E+18,5.114467041,0.525404478,-2.881855413,0.642423459
1.73E+18,5.124463135,0.449039105,-2.670731367,-0.079298578
1.73E+18,5.134459961,0.532103136,-2.394635375,-0.665764003
1.73E+18,5.144456299,0.735284114,-1.886165044,-1.085870991
1.73E+18,5.154453125,0.961021791,-1.218790684,-1.333722885
1.73E+18,5.164448975,1.054485599,-0.670220397,-1.673093956
1.73E+18,5.174446045,0.976529157,-0.377380776,-1.641121778
1.73E+18,5.184442139,0.594964958,-0.031042204,-1.416087864
1.73E+18,5.194439209,0.09585801,0.234539408,-1.191626198
1.73E+18,5.204435303,-0.336035643,0.428183912,-1.085764023
1.73E+18,5.214431152,-0.576830751,0.829620101,-0.90674075
1.73E+18,5.224427734,-0.641681116,1.441928993,-0.708425917
1.73E+18,5.234423584,-0.701562169,1.94499425,-0.437052278
1.73E+18,5.244420898,-0.702370855,2.239380516,-0.224029705
1.73E+18,5.254416748,-0.665592592,2.348137828,-0.070776833
1.73E+18,5.264413818,-0.542333292,2.382995206,0.014458733
1.73E+18,5.274409912,-0.203364518,2.413566286,0.047344519
1.73E+18,5.284406494,0.379876246,2.600756498,0.072369655
1.73E+18,5.294402832,1.010054994,2.687251125,0.171819625
1.73E+18,5.304399658,1.439134978,2.203407286,0.156473587
1.73E+18,5.314395752,1.384543994,1.474250131,0.140600311
1.73E+18,5.32439209,1.019465943,0.942894014,0.245141466
1.73E+18,5.334388916,0.629818975,0.49871583,0.267560803
1.73E+18,5.344384766,0.462404892,0.238062906,0.393835067
1.73E+18,5.354381836,0.443195164,0.111948217,0.406494642
1.73E+18,5.364377686,0.425610262,-0.113994628,0.174386261
1.73E+18,5.374374756,0.407331239,-0.327658421,0.186774033
1.73E+18,5.38437085,0.191734724,-0.600718407,0.047591188
1.73E+18,5.39436792,0.05609905,-0.988206151,-0.183579036
1.73E+18,5.404363525,0.105575029,-1.04572895,-0.494692566
1.73E+18,5.41436084,0.09341595,-0.975467665,-0.546025863
1.73E+18,5.424356689,0.141485569,-0.856593448,-0.712276747
1.73E+18,5.434352783,0.056140697,-0.973832173,-0.781506351
1.73E+18,5.444349854,-0.117832599,-1.039205101,-0.832276169
1.73E+18,5.454345703,-0.271509395,-0.890561769,-0.835156108
1.73E+18,5.464342773,-0.39329117,-0.725121031,-0.771326318
1.73E+18,5.474338867,-0.411373939,-0.626349692,-0.675932345
1.73E+18,5.484335693,-0.289774389,-0.476371896,-0.647584203
1.73E+18,5.494332031,-0.145900171,-0.324525384,-0.645653527
1.73E+18,5.504328857,-0.018213702,-0.282971723,-0.665818948
1.73E+18,5.514324707,0.034382454,-0.309203896,-0.490027496
1.73E+18,5.524321777,-0.025853403,-0.156881584,-0.093534608
1.73E+18,5.534317871,-0.152193133,-0.098145901,0.075042089
1.73E+18,5.544313721,-0.350826239,-0.119992992,0.214842774
1.73E+18,5.554310791,-0.507480443,0.132532155,0.778366884
1.73E+18,5.564306641,-0.650611442,0.290253112,1.133562132
1.73E+18,5.574303467,-0.735463854,0.381014164,1.364163031
1.73E+18,5.584299805,-0.757096863,0.349399129,1.26002695
1.73E+18,5.594296631,-0.646698798,0.187794608,1.143238307
1.73E+18,5.604292725,-0.366058002,-0.071565353,0.910078955
1.73E+18,5.614289795,0.045563481,-0.255175369,0.61236559
1.73E+18,5.624285645,0.559616581,-0.449738741,0.171062085
1.73E+18,5.634282715,1.085319494,-0.541342673,-0.149249481
1.73E+18,5.644278809,1.274888126,-0.611671178,-0.13865093
1.73E+18,5.654274658,1.052220358,-0.78372052,-0.25956922
1.73E+18,5.664271973,0.624547172,-0.83406013,-0.27674072
1.73E+18,5.674267822,0.338083954,-0.625346068,-0.0655968
1.73E+18,5.684264648,0.155487499,-0.286260828,0.092059275
1.73E+18,5.694260742,-0.0571791,-0.059629416,0.115134446
1.73E+18,5.704257813,-0.364757149,-0.063364511,-0.124648708
1.73E+18,5.714253662,-0.574245995,-0.05812661,-0.27277357
1.73E+18,5.724250977,-0.634920536,0.237951847,-0.055896659
1.73E+18,5.734246826,-0.593466244,0.476059761,0.057253335
1.73E+18,5.744243896,-0.613169308,0.521738394,0.051223991
1.73E+18,5.754239746,-0.871905584,0.542290768,0.043053544
1.73E+18,5.76423584,-1.198635785,0.444240143,-0.060939914
1.73E+18,5.774232666,-1.479289001,0.321782223,-0.120781512
1.73E+18,5.784229004,-1.756812396,0.252823253,-0.220763981
1.73E+18,5.79422583,-2.052089328,0.339018604,0.067181439
1.73E+18,5.80422168,-2.297514433,0.203979435,0.134137837
1.73E+18,5.81421875,-2.435994975,-0.157395378,-0.053835635
1.73E+18,5.824214844,-2.56437118,-0.526135752,-0.239497323
1.73E+18,5.834211914,-2.685940919,-0.848454566,-0.089422497
1.73E+18,5.844207764,-2.595426536,-1.039562244,0.185621356
1.73E+18,5.854204834,-2.310347465,-1.09898357,0.296121712
1.73E+18,5.864200684,-1.88650129,-1.049664536,0.269120892
1.73E+18,5.874196777,-1.47698277,-1.064938677,0.067338675
1.73E+18,5.884193604,-0.988441713,-1.110446629,-0.106021749
1.73E+18,5.894189941,-0.510608951,-1.068268698,-0.27903906
1.73E+18,5.904186768,0.058332947,-0.828217833,-0.459652232
1.73E+18,5.914182617,0.598392594,-0.376593425,-0.647228813
1.73E+18,5.924179688,1.124727668,0.035536008,-0.792503546
1.73E+18,5.934175781,1.608424208,0.334505511,-1.08131172
1.73E+18,5.944172607,1.980281836,0.68299337,-1.640683971
1.73E+18,5.954168945,2.345236261,1.061026472,-2.354932895
1.73E+18,5.964165771,2.630178992,1.376947694,-2.876727403
1.73E+18,5.974161621,2.690826645,1.477576645,-2.819108157
1.73E+18,5.984157715,2.606694072,1.501347981,-2.555771109
1.73E+18,5.994154785,2.321166819,1.571095471,-2.36898071
1.73E+18,6.004150635,1.956733787,1.530764629,-1.706318765
1.73E+18,6.014147949,1.484358268,1.626846,-0.782594731
1.73E+18,6.024143799,0.986588779,1.71983408,0.054449968
1.73E+18,6.034141113,0.634551191,1.597450394,0.558220158
1.73E+18,6.044136719,0.380498031,1.321667705,0.787381381
1.73E+18,6.054133789,0.214221391,1.026215271,0.72534958
1.73E+18,6.064129883,0.162437464,0.696786917,0.530297548
1.73E+18,6.074126709,0.33368718,0.407096115,0.260811329
1.73E+18,6.084122803,0.617123014,0.30838089,0.072390113
1.73E+18,6.094118896,0.868100346,0.415991954,-0.152182612
1.73E+18,6.104115723,0.998300259,0.723226011,-0.282692906
1.73E+18,6.114111816,1.028458082,0.938686041,-0.471292401
1.73E+18,6.124108887,1.175768119,0.836061533,-0.858032541
1.73E+18,6.13410498,1.296047527,0.666916095,-1.146907935
1.73E+18,6.144101807,1.324016899,0.600326777,-1.324506728
1.73E+18,6.154097656,1.295318043,0.650896688,-1.415630768
1.73E+18,6.164094727,1.281243925,0.896236892,-1.475096518
1.73E+18,6.174090576,1.214995383,1.407359784,-1.452667244
1.73E+18,6.184087891,1.122007303,1.653960801,-1.575966876
1.73E+18,6.19408374,0.85249595,1.568478566,-1.642563209
1.73E+18,6.20407959,0.616408728,1.384409116,-1.733752131
1.73E+18,6.21407666,0.297850143,1.25385206,-1.71106859
1.73E+18,6.224073486,0.002930866,1.175753506,-1.551857102
1.73E+18,6.234070313,-0.368097984,1.271532094,-1.091356729
1.73E+18,6.244066406,-0.702740273,1.279649934,-0.484302689
1.73E+18,6.254063477,-1.095287711,1.088804121,0.13787527
1.73E+18,6.26405957,-1.464760418,0.820197608,0.765534875
1.73E+18,6.274056152,-1.637922689,0.568538139,1.124177048
1.73E+18,6.284052246,-1.310853466,0.524122074,1.310454822
1.73E+18,6.29404834,-0.702144061,0.4777917,1.177776536
1.73E+18,6.304045166,0.190637138,0.328742125,0.935250806
1.73E+18,6.314041504,1.231307051,0.343096814,1.011533835
1.73E+18,6.324038086,1.910575263,0.339592605,1.059375198
1.73E+18,6.33403418,1.926953566,0.179765616,0.784956784
1.73E+18,6.34403125,1.408154149,-0.056527358,0.320242008
1.73E+18,6.354027344,0.687403587,-0.142144618,0.130113404
1.73E+18,6.364024414,0.211086052,-0.04425649,0.105540103
1.73E+18,6.374020508,0.065685063,0.071363693,-0.071132807
1.73E+18,6.384017334,0.100011695,0.219402045,-0.370886738
1.73E+18,6.394013428,0.131313865,0.406415732,-0.785430246
1.73E+18,6.404009277,0.154169986,0.481046902,-1.145690961
1.73E+18,6.414006348,0.127645698,0.569244826,-1.393525319
1.73E+18,6.424002441,0.034626054,0.622858342,-1.586632063
1.73E+18,6.433999512,-0.122489046,0.541989154,-1.77511816
1.73E+18,6.443995117,-0.283566766,0.302858911,-2.102632205
1.73E+18,6.453992432,-0.425634812,-0.069981883,-2.507572603
1.73E+18,6.463988281,-0.449339512,-0.438977108,-2.791405327
1.73E+18,6.473985596,-0.352447995,-0.581798018,-2.808275798
1.73E+18,6.483981445,-0.246737211,-0.652936085,-2.880018261
1.73E+18,6.493978516,-0.212138191,-1.003188616,-3.043710694
1.73E+18,6.503974121,-0.226090875,-1.461359669,-3.269191182
1.73E+18,6.513970459,-0.289502002,-1.773512479,-3.37880891
1.73E+18,6.523967285,-0.246145821,-1.893045451,-3.238236071
1.73E+18,6.533963379,-0.105017395,-1.680991431,-3.10692206
1.73E+18,6.543960449,0.010960808,-1.380177178,-2.779306308
1.73E+18,6.553956299,-0.041629649,-1.132203118,-2.35810568
1.73E+18,6.563953369,-0.193159935,-0.805507404,-2.027232973
1.73E+18,6.573949463,-0.385794822,-0.615559418,-1.786239274
1.73E+18,6.583946289,-0.622195495,-0.670303984,-1.590703842
1.73E+18,6.593942383,-0.798835671,-0.810835906,-1.314005208
1.73E+18,6.603938477,-0.878218274,-0.806792183,-0.946661257
1.73E+18,6.613935059,-0.874634132,-0.44886488,-0.314437705
1.73E+18,6.623931396,-0.626376141,0.487298364,0.492967057
1.73E+18,6.633928223,-0.178379714,1.985192405,1.603796548
1.73E+18,6.643924316,0.221738379,3.851533974,3.080200057
1.73E+18,6.653921387,0.30539749,5.650199014,4.827173196
1.73E+18,6.66391748,-0.224635415,6.767614897,6.193008252
1.73E+18,6.673914551,-1.179275543,6.637046735,6.735752024
1.73E+18,6.6839104,-1.751646245,5.441038961,6.450266857
1.73E+18,6.693907227,-1.716814148,3.511124207,5.324069701
1.73E+18,6.70390332,-1.629348922,1.971905638,4.672414011
1.73E+18,6.713899414,-1.136520981,1.178174596,4.611601523
1.73E+18,6.723896484,-0.505271535,0.936493499,4.551781553
1.73E+18,6.73389209,0.230489694,0.765755824,4.118590335
1.73E+18,6.743889404,0.734495886,0.348986456,3.19266616
1.73E+18,6.753885254,1.14365434,0.014708324,2.018576788
1.73E+18,6.763882568,1.272570497,-0.316958164,0.976162369
1.73E+18,6.773878418,1.129012213,-0.938124315,-0.085109017
1.73E+18,6.783875488,0.721909084,-1.723449932,-0.950471463
1.73E+18,6.793871338,0.273585617,-2.397448679,-1.688830454
1.73E+18,6.803867432,-0.15601123,-3.038360565,-2.095518281
1.73E+18,6.813864258,-0.316694106,-3.565462531,-2.560326288
1.73E+18,6.823860596,-0.302830124,-3.90434728,-2.763075889
1.73E+18,6.833857422,-0.239663327,-4.10258671,-2.822116107
1.73E+18,6.843853271,-0.286830883,-4.114318649,-2.780478859
1.73E+18,6.853850342,-0.293743292,-4.057181049,-2.68157191
1.73E+18,6.863846436,-0.279771027,-4.04122594,-2.539948686
1.73E+18,6.873843506,-0.291609861,-3.965589976,-2.354729189
1.73E+18,6.883839355,-0.291862447,-3.693042617,-1.812106121
1.73E+18,6.893836426,-0.304599033,-3.205551945,-1.09913087
1.73E+18,6.903832031,-0.327263285,-2.565669403,-0.382359441
1.73E+18,6.913828369,-0.37701545,-1.742146449,0.672499741
1.73E+18,6.923825195,-0.51363692,-0.731258511,1.856224956
1.73E+18,6.933821289,-0.647977586,0.248532862,2.855693383
1.73E+18,6.943818359,-0.791241709,1.006931894,3.740584997
1.73E+18,6.953814453,-0.886359641,1.618439406,4.41868475
1.73E+18,6.963811279,-0.751038001,2.078868467,4.632575045
1.73E+18,6.973807373,-0.488453379,2.558503749,4.631574344
1.73E+18,6.983804199,-0.464611608,2.71262522,4.53906674
1.73E+18,6.993800537,-0.428852897,2.41173907,4.196335838
1.73E+18,7.003796387,-0.424848045,1.84252464,2.887656208
1.73E+18,7.013793457,-0.250251357,1.420489314,1.601377212
1.73E+18,7.023789307,0.197772689,1.443303204,0.558250553
1.73E+18,7.033786377,0.561295182,1.641718575,-0.070264792
1.73E+18,7.043782227,0.923015009,1.688650422,-0.687600571
1.73E+18,7.053779541,1.000901528,1.317625152,-1.326470722
1.73E+18,7.063775391,0.661242872,0.768766696,-1.829543578
1.73E+18,7.073772461,0.123468705,0.235742939,-2.267871282
1.73E+18,7.083768311,-0.48370823,-0.090823596,-2.301030625
1.73E+18,7.093765137,-1.011088283,-0.432628616,-2.248469832
1.73E+18,7.10376123,-1.333909494,-0.853092162,-2.166409388
1.73E+18,7.113757568,-1.459519448,-1.244918228,-1.966881087
1.73E+18,7.123754395,-1.374658999,-1.454086463,-1.835151481
1.73E+18,7.133750244,-1.219373306,-1.639326711,-1.770855242
1.73E+18,7.143747314,-1.067898258,-1.829258916,-1.621108333
1.73E+18,7.153743408,-0.902646759,-1.831041123,-1.335928871
1.73E+18,7.163740479,-0.714180535,-1.6119366,-0.84697631
1.73E+18,7.173736328,-0.516393525,-1.439362942,-0.385523166
1.73E+18,7.183733398,-0.287599967,-1.407768949,0.07277999
1.73E+18,7.193729248,-0.097049338,-1.510796777,0.504222026
1.73E+18,7.203725342,0.133739777,-1.501866452,1.125998418
1.73E+18,7.213722168,0.485120435,-1.359821787,1.769009322
1.73E+18,7.223718262,1.056549108,-1.284016897,2.116909736
1.73E+18,7.233715332,1.622669006,-1.173010345,2.076184343
1.73E+18,7.243711182,2.224177102,-0.92559275,1.920200585
1.73E+18,7.253708008,3.583448854,-0.333431744,1.452782395
1.73E+18,7.263704346,4.280751904,0.111106505,0.682104897
1.73E+18,7.273701172,3.651694123,0.41996378,0.475526677
1.73E+18,7.283697266,2.428676761,0.725735364,0.639241322
1.73E+18,7.293694336,1.21095283,0.797391902,0.797134128
1.73E+18,7.303690186,0.250679373,0.792201933,0.844907687
1.73E+18,7.313686035,-0.371267262,0.970899042,0.771828422
1.73E+18,7.32368335,-0.452556575,1.279651688,0.474912345
1.73E+18,7.333679199,-0.408490638,1.444051976,0.232988672
1.73E+18,7.34367627,-0.383539883,1.455282395,0.137301269
1.73E+18,7.353672363,-0.370035089,1.19064537,-0.172960612
1.73E+18,7.363669434,-0.321023002,0.892728592,-0.573660304
1.73E+18,7.373665039,-0.173695356,0.862471401,-0.756226948
1.73E+18,7.383662109,0.041559652,0.805550659,-0.800113436
1.73E+18,7.393658203,0.314099998,0.526104772,-0.925565862
1.73E+18,7.403654297,0.47714288,0.094772041,-1.061446743
1.73E+18,7.413651367,0.541993392,-0.295894917,-1.15976391
1.73E+18,7.423647217,0.515254731,-0.471058008,-1.018809963
1.73E+18,7.433644287,0.382686335,-0.498612954,-0.714846306
1.73E+18,7.443640381,0.181326873,-0.53580842,-0.376869904
1.73E+18,7.453637207,-0.112017629,-0.594865005,-0.033934418
1.73E+18,7.463633301,-0.410097051,-0.480174796,0.305133286
1.73E+18,7.473630371,-0.594948591,-0.221686356,0.50530573
1.73E+18,7.483625977,-0.577348783,0.13275252,0.822430482
1.73E+18,7.493623291,-0.406470677,0.381662399,1.047177395
1.73E+18,7.503619141,-0.166359606,0.351483534,1.038138349
1.73E+18,7.513615234,-0.013621698,0.145537183,0.780403943
1.73E+18,7.523612305,0.135676883,-0.004881342,0.537321163
1.73E+18,7.533608154,0.340194224,0.005560557,0.390308062
1.73E+18,7.54360498,0.555541294,0.0190899,0.07721125
1.73E+18,7.553601318,0.568184649,0.031193011,-0.010479893
1.73E+18,7.563598145,0.428720064,0.104397948,-0.106512748
1.73E+18,7.573594238,0.253093448,0.349113297,-0.201065593
1.73E+18,7.583590088,-0.020772447,0.628156449,-0.513853193
1.73E+18,7.593587158,-0.119851683,1.042325279,-0.444916435
1.73E+18,7.603583008,-0.096904523,1.225853462,-0.463840331
1.73E+18,7.613580322,-0.032591479,1.103050089,-0.747949534
1.73E+18,7.623576172,0.069608374,0.969003438,-0.819198076
1.73E+18,7.633573486,0.05196122,0.641695729,-1.048102109
1.73E+18,7.643569336,0.015683015,0.251226339,-1.235507425
1.73E+18,7.653566162,0.133131436,0.082806294,-1.313366326
1.73E+18,7.663562256,0.352794032,-0.121183663,-1.331235744
1.73E+18,7.673559326,0.428412313,-0.33617549,-1.178121404
1.73E+18,7.683555176,0.475310697,-0.545447186,-0.893224851
1.73E+18,7.693551514,0.538166966,-0.677206603,-0.629728228
1.73E+18,7.70354834,0.470600035,-0.706952922,-0.303894099
1.73E+18,7.713544189,0.285728328,-0.744714205,-0.081140406
1.73E+18,7.72354126,-0.056564476,-0.882528685,0.07049334
1.73E+18,7.733537354,-0.409884577,-0.776961109,0.260493349
1.73E+18,7.74353418,-0.599491495,-0.689686145,0.423166376
1.73E+18,7.753530518,-0.74538962,-0.725407447,0.488053566
1.73E+18,7.763527344,-0.697917967,-0.847804577,0.248022575
1.73E+18,7.773523193,-0.546645163,-0.834665694,0.165438399
1.73E+18,7.783519287,-0.362573667,-0.4258014,0.270823605
1.73E+18,7.793516113,-0.226883633,0.247622762,0.458520013
1.73E+18,7.803512207,-0.19483079,0.899398571,0.799893072
1.73E+18,7.813509277,-0.245170692,1.268206164,0.99672205
1.73E+18,7.823505127,-0.194848034,1.51092771,1.08752285
1.73E+18,7.833502197,-0.349818815,1.384776196,0.64353522
1.73E+18,7.843498291,-0.431556311,1.070781558,0.374508435
1.73E+18,7.853495117,-0.646705959,0.666955843,0.081437928
1.73E+18,7.863491455,-1.00705026,0.321774624,-0.246692203
1.73E+18,7.873488281,-1.329849258,-0.036277767,-0.441529715
1.73E+18,7.883484131,-1.586856811,-0.373636329,-0.754061295
1.73E+18,7.893480225,-1.907743839,-0.687742026,-1.006899745
1.73E+18,7.903477295,-2.046072405,-0.755218064,-1.012134723
1.73E+18,7.913473145,-2.079124488,-0.768117293,-1.170974455
1.73E+18,7.923470459,-2.18690331,-0.64929276,-1.27134797
1.73E+18,7.933466064,-2.182860757,-0.415040937,-1.279809508
1.73E+18,7.943463135,-2.211580655,-0.14550328,-1.289485099
1.73E+18,7.953459229,-2.273041963,0.177370829,-1.258167001
1.73E+18,7.963455322,-2.321770338,0.495292285,-1.124967906
1.73E+18,7.973452148,-2.438233402,0.729450585,-1.000420905
1.73E+18,7.983448486,-2.588979551,0.778015586,-0.933266938
1.73E+18,7.993445068,-2.705114698,0.531560115,-1.027480761
1.73E+18,8.003441162,-2.71188843,0.166382402,-1.132951891
1.73E+18,8.013438232,-2.539562025,-0.1805366,-1.13638245
1.73E+18,8.023434326,-2.213462231,-0.573285625,-1.066357896
1.73E+18,8.033431396,-1.884759269,-0.784652248,-0.883721694
1.73E+18,8.04342749,-1.592740609,-0.667124185,-0.537281415
1.73E+18,8.053424072,-1.313222241,-0.35708793,0.001328034
1.73E+18,8.063420166,-0.936385363,-0.117771808,0.579008679
1.73E+18,8.07341626,-0.684851565,-0.057094345,1.113311955
1.73E+18,8.083413086,-0.521141889,-0.209893627,1.679514929
1.73E+18,8.093409424,-0.332071269,-0.603855536,1.841934857
1.73E+18,8.10340625,0.08817615,-0.787476658,2.082915112
1.73E+18,8.1134021,0.49177814,-0.859717718,2.31626268
1.73E+18,8.12339917,0.958869582,-0.887103738,2.493635848
1.73E+18,8.133395264,1.337723937,-0.728145348,2.788267029
1.73E+18,8.14339209,1.608163365,-0.523383823,2.637410697
1.73E+18,8.153388428,1.808475509,-0.028591888,2.353670328
1.73E+18,8.163384033,1.786502162,0.41760465,1.949649382
1.73E+18,8.173381104,1.59744791,0.558549829,1.483114989
1.73E+18,8.183377197,1.33009578,0.368935604,0.938872503
1.73E+18,8.193374268,1.12388128,0.035629532,0.403254053
1.73E+18,8.203370117,0.984991865,-0.121059744,0.048023149
1.73E+18,8.213367432,0.964249521,-0.091890348,-0.142855396
1.73E+18,8.223363281,0.99734515,0.122848966,-0.122393038
1.73E+18,8.233360352,0.877075095,0.319680282,-0.135310972
1.73E+18,8.243356445,0.68038801,0.57143386,-0.30909576
1.73E+18,8.253352539,0.442101962,0.719964964,-0.505852842
1.73E+18,8.263349609,0.236034615,0.826910842,-0.716463678
1.73E+18,8.273345703,0.08740122,0.917617534,-0.855959242
1.73E+18,8.283342773,-0.126566671,0.889177621,-1.036753032
1.73E+18,8.293338623,-0.255071397,0.788819889,-1.258866674
1.73E+18,8.303335449,-0.325432562,0.725817782,-1.495693316
1.73E+18,8.313331543,-0.294149973,0.66452657,-1.687968869
1.73E+18,8.323328613,-0.233502466,0.64192077,-1.860847648
1.73E+18,8.333324463,-0.089753409,0.75727675,-1.895277741
1.73E+18,8.343321777,0.068463734,1.068496662,-1.873986531
1.73E+18,8.353317383,0.336641208,1.581545553,-1.766799245
1.73E+18,8.363313477,0.636627267,2.109070129,-1.61455292
1.73E+18,8.373310547,0.784328934,2.469228552,-1.684557015
1.73E+18,8.383306641,0.869761558,2.533297996,-1.712427018
1.73E+18,8.393303467,0.805971588,2.457214289,-1.617072794
1.73E+18,8.403299561,0.666611048,1.991814453,-1.60138598
1.73E+18,8.413296387,0.551809707,1.314847504,-1.847124827
1.73E+18,8.42329248,0.725868708,0.971496423,-1.924381085
1.73E+18,8.433289551,0.96145083,0.778880094,-1.679966764
1.73E+18,8.443285645,1.194595569,0.735327368,-1.387415897
1.73E+18,8.45328125,1.286405253,0.65325991,-1.169982522
1.73E+18,8.463278564,1.168684956,0.475433738,-0.953299088
1.73E+18,8.473274414,0.921653,0.213987034,-0.737986358
1.73E+18,8.483271729,0.720582292,0.194046654,-0.315434315
1.73E+18,8.493267578,0.536537392,0.289988908,0.120953946
1.73E+18,8.503264648,0.311877499,0.198978266,0.605017565
1.73E+18,8.513260254,0.070333254,0.000817746,0.970616718
1.73E+18,8.523256592,-0.06880641,-0.16283377,1.284607849
1.73E+18,8.533253418,-0.08079152,-0.326450215,1.454845757
1.73E+18,8.543249512,-0.059448214,-0.538528785,1.511819106
1.73E+18,8.553246582,0.045000002,-0.79809742,1.556014221
1.73E+18,8.563242676,0.328952553,-0.926214682,1.561622709
1.73E+18,8.573239502,0.621162133,-0.883206146,1.567052333
1.73E+18,8.583235596,0.940086555,-0.802952459,1.409884334
1.73E+18,8.593232422,1.238323652,-0.649405573,1.154478078
1.73E+18,8.60322876,1.440366127,-0.509866754,0.893930076
1.73E+18,8.613224609,1.330956343,-0.609854484,0.551082561
1.73E+18,8.62322168,1.016268608,-0.873678439,0.120067226
1.73E+18,8.633217529,0.734267192,-1.063355207,-0.261538767
1.73E+18,8.643214355,0.508892794,-0.975713749,-0.553778961
1.73E+18,8.653210449,0.453544563,-0.7462854,-0.762701697
1.73E+18,8.66320752,0.492565052,-0.353289706,-0.73404785
1.73E+18,8.673203613,0.487961212,0.124815882,-0.752460582
1.73E+18,8.683200684,0.428819433,0.58227148,-0.752951872
1.73E+18,8.693196533,0.194644474,1.045031031,-0.605970044
1.73E+18,8.703193359,-0.173476452,1.440951672,-0.395438703
1.73E+18,8.713189453,-0.893496653,1.61685126,-0.195242586
1.73E+18,8.723185547,-1.558910235,1.668210276,0.25641514
1.73E+18,8.733182617,-2.026002846,1.740756456,0.739818834
1.73E+18,8.743178223,-2.357442394,1.91056708,1.248428282
1.73E+18,8.753175537,-2.755577642,1.824493309,1.615241194
1.73E+18,8.763171387,-3.047300827,1.579509079,1.826547319
1.73E+18,8.773168701,-3.064739453,1.44456694,1.963692228
1.73E+18,8.783164551,-3.057436144,1.291216453,1.987573455
1.73E+18,8.7931604,-3.110278384,1.002809846,1.92185975
1.73E+18,8.803157471,-3.180909671,0.395507384,1.594274394
1.73E+18,8.813153564,-3.173384829,-0.311619141,1.157461186
1.73E+18,8.823150391,-2.899142064,-0.87280341,0.916930428
1.73E+18,8.833146729,-2.432466217,-1.194751637,0.805988758
1.73E+18,8.843143555,-1.859401687,-1.357154614,0.672344258
1.73E+18,8.853139404,-1.298059451,-1.525664091,0.488374761
1.73E+18,8.863136475,-0.826706552,-1.522556773,0.352805722
1.73E+18,8.873132568,-0.420612307,-1.275860479,0.18228432
1.73E+18,8.883128418,-0.200659058,-1.168352874,-0.130379361
1.73E+18,8.893125732,-0.295070157,-1.427674842,-0.574769726
1.73E+18,8.903121582,-0.487199872,-1.634526617,-0.926110929
1.73E+18,8.913118408,-0.663159958,-1.779086479,-1.113063533
1.73E+18,8.923114502,-0.873387639,-1.936851275,-1.234879941
1.73E+18,8.933111328,-1.107589486,-2.185861692,-1.241538814
1.73E+18,8.943107422,-1.285233872,-2.29382347,-1.161445579
1.73E+18,8.953104492,-1.379637372,-2.209731228,-0.980940836
1.73E+18,8.963100586,-1.489691153,-2.17016611,-0.790111098
1.73E+18,8.973096436,-1.511008082,-2.071161546,-0.663918375
1.73E+18,8.983093506,-1.508109876,-1.802816314,-0.572059298
1.73E+18,8.9930896,-1.588770244,-1.55816117,-0.489293045
1.73E+18,9.00308667,-1.729676698,-1.358655666,-0.369413158
1.73E+18,9.01308252,-1.829726679,-1.035768697,-0.130332599
1.73E+18,9.02307959,-1.887908965,-0.668731036,0.135443659
1.73E+18,9.033075439,-1.859433105,-0.136501643,0.497055203
1.73E+18,9.04307251,-1.702016684,0.749027392,1.055729535
1.73E+18,9.053068359,-1.29286159,2.289336095,1.827829175
1.73E+18,9.063064697,-0.709416974,4.445671833,2.910902644
1.73E+18,9.073061523,-0.395058471,6.33473143,4.060697825
1.73E+18,9.083057373,-0.676543171,7.067012854,4.670889578
1.73E+18,9.093054443,-1.361020642,6.721272833,4.47712291
1.73E+18,9.103050537,-1.797740326,5.706490225,3.922006855
1.73E+18,9.113047607,-1.756096649,4.002943848,3.122407214
1.73E+18,9.123043701,-1.532052916,2.270119353,2.139072761
1.73E+18,9.133040527,-1.039267937,0.910511501,1.440072843
1.73E+18,9.143036377,-0.261354788,0.227551449,1.014060431
1.73E+18,9.153032471,0.548994649,-0.159177001,0.616119097
1.73E+18,9.163029541,1.330239573,-0.734691408,0.086839787
1.73E+18,9.173025391,1.788490852,-1.519896614,-0.537713377
1.73E+18,9.183022705,1.948598412,-2.158231342,-1.004303007
1.73E+18,9.193018311,1.806962913,-2.771051106,-1.254364978
1.73E+18,9.203015381,1.76168234,-3.284159618,-1.380278008
1.73E+18,9.213011475,1.635506276,-3.682067049,-1.448532044
1.73E+18,9.223007568,1.723995876,-3.871045899,-1.358534378
1.73E+18,9.233004883,3.225042243,-3.968585651,-1.21514619
1.73E+18,9.243000977,4.943424371,-4.145191926,-1.029949197
1.73E+18,9.252998047,4.584165527,-4.022404335,-0.39745092
1.73E+18,9.262993896,3.258269975,-3.833186416,-0.322680049
1.73E+18,9.272990723,2.543714176,-3.697420101,-0.217199566
1.73E+18,9.282986816,2.16473824,-3.381356841,-0.181098033
1.73E+18,9.292983887,2.153423065,-2.888689059,-0.08476415
1.73E+18,9.302979736,2.331910331,-2.372181552,0.029620647
1.73E+18,9.312977051,2.556978147,-1.654056663,0.175815709
1.73E+18,9.322972656,2.52815888,-0.927442762,0.710586895
1.73E+18,9.33296875,2.164588456,-0.280030409,1.180838262
1.73E+18,9.34296582,1.597017994,0.308695947,1.908792471
1.73E+18,9.352961914,0.942174614,0.973764368,2.713211788
1.73E+18,9.362958984,0.676747753,1.515601547,3.601412089
1.73E+18,9.372954834,0.638919835,1.973167036,3.944066419
1.73E+18,9.38295166,0.444702208,2.33910638,4.258365593
1.73E+18,9.392947998,0.276590205,2.64460207,4.381289669
1.73E+18,9.402943848,0.227771668,2.546623342,4.056042693
1.73E+18,9.412940918,0.174617731,2.06345521,3.463545002
1.73E+18,9.422937012,0.135946932,1.444516671,2.83611716
1.73E+18,9.432933838,0.239976485,0.887824453,2.198033191
1.73E+18,9.442929688,0.381231022,0.298603007,1.634181749
1.73E+18,9.452927002,0.551614476,-0.145951609,1.082052309
1.73E+18,9.462922852,0.658930503,-0.305320333,0.587014291
1.73E+18,9.472919922,1.008246338,-0.37025487,-0.046340019
1.73E+18,9.482916016,1.31120301,-0.539720625,-0.521289188
1.73E+18,9.492911865,1.317546388,-0.897348068,-0.892181479
1.73E+18,9.502908691,1.207429186,-1.413259947,-1.410439045
1.73E+18,9.512905029,0.900765622,-1.714485705,-1.793115589
1.73E+18,9.522901855,0.603262831,-1.499008724,-1.966481275
1.73E+18,9.532897949,0.338695656,-1.200495733,-1.985450763
1.73E+18,9.54289502,0.117857149,-0.91143563,-1.969118053
1.73E+18,9.552890869,-0.215321498,-0.660893182,-1.925649498
1.73E+18,9.562887939,-0.707797702,-0.469536497,-1.904230278
1.73E+18,9.572883789,-1.186727028,-0.321181334,-1.917393711
1.73E+18,9.582879883,-1.582653222,-0.02959785,-1.812885873
1.73E+18,9.592876953,-1.973999687,0.260348972,-1.636605177
1.73E+18,9.602872803,-2.271044944,0.540306316,-1.439631237
1.73E+18,9.612869629,-2.468205639,0.808576144,-1.111089019
1.73E+18,9.622865967,-2.66078865,1.068998182,-0.835587485
1.73E+18,9.632862793,-2.877408955,1.385547765,-0.576218756
1.73E+18,9.642858887,-3.137833039,1.481426306,-0.443588401
1.73E+18,9.652855957,-3.378509927,1.40387428,-0.253539292
1.73E+18,9.662851807,-3.412132795,1.446551392,-0.017758944
1.73E+18,9.672847656,-3.254941122,1.661684673,0.338336467
1.73E+18,9.682844971,-2.929381719,1.785279489,0.591351443
1.73E+18,9.69284082,-2.549829152,1.725425032,0.783748577
1.73E+18,9.702837891,-2.17703395,1.630828347,0.95835754
1.73E+18,9.71283374,-1.840911652,1.517441037,1.090948732
1.73E+18,9.722830811,-1.495442264,1.301325175,1.04828974
1.73E+18,9.73282666,-1.14669137,0.922358591,0.899327844
1.73E+18,9.742823975,-0.82160163,0.426518024,0.709478641
1.73E+18,9.752819824,-0.447457352,-0.105799047,0.399191041
1.73E+18,9.762815918,0.024833997,-0.540690347,0.101003044
1.73E+18,9.772812744,0.451960508,-0.728769617,-0.167005503
1.73E+18,9.782808838,0.792811881,-0.682481913,-0.385160762
1.73E+18,9.792805908,0.904378405,-0.669063629,-0.571235707
1.73E+18,9.802802002,0.872060921,-0.715847592,-0.845235019
1.73E+18,9.812798828,0.864013369,-0.819545867,-1.181650747
1.73E+18,9.822795166,0.809972859,-0.946470119,-1.513180457
1.73E+18,9.832790771,0.614380291,-0.994098716,-1.782078062
1.73E+18,9.842787842,0.360617565,-0.865138574,-2.031595259
1.73E+18,9.852783936,0.144858845,-0.503150013,-2.070812587
1.73E+18,9.862780762,0.730832395,-0.46632981,-1.626366107
1.73E+18,9.872776855,1.416029851,-0.864335441,-0.877944864
1.73E+18,9.882773926,1.937803315,-1.163601881,-0.499025626
1.73E+18,9.892769775,2.028990045,-1.283347035,-0.429769135
1.73E+18,9.902766602,1.760638092,-1.319113345,-0.520152001
1.73E+18,9.912762939,1.351383775,-1.088848545,-0.491499323
1.73E+18,9.922759033,0.873848535,-0.684031481,-0.314803616
1.73E+18,9.932755859,0.417212143,-0.322259193,0.065404492
1.73E+18,9.942751709,-0.145886581,-0.322355639,0.370758143
1.73E+18,9.952748779,-0.594116232,-0.512916789,0.666013593
1.73E+18,9.962744629,-0.783636495,-0.501882185,0.923474443
1.73E+18,9.972741943,-0.856363877,-0.299360548,1.140980883
1.73E+18,9.982737793,-0.938573959,-0.009082301,1.438091022
1.73E+18,9.992733643,-1.080119295,0.164547588,1.766420474
1.73E+18,10.00273071,-1.308935211,0.438241195,1.996222917
1.73E+18,10.01272681,-1.449855109,0.884946852,2.140636649
1.73E+18,10.02272388,-1.543864057,1.222614042,2.060309897
1.73E+18,10.03271997,-1.586175113,1.15387719,1.711968169
1.73E+18,10.0427168,-1.425743581,0.895332637,1.3034768
1.73E+18,10.05271313,-1.156119124,0.671089582,0.970145009
1.73E+18,10.06270972,-0.775773945,0.474245405,0.684779084
1.73E+18,10.07270581,-0.381232337,0.335841728,0.459179354
1.73E+18,10.0827019,-0.11190277,0.150273564,0.280567584
1.73E+18,10.09269897,0.175420864,-0.056434419,0.011392916
1.73E+18,10.10269482,0.410797454,-0.046910804,-0.245852245
1.73E+18,10.11269214,0.581844633,0.130376438,-0.420653516
1.73E+18,10.12268774,0.699614104,0.239542916,-0.651983899
1.73E+18,10.13268481,0.72688205,0.055223875,-0.973922774
1.73E+18,10.14268091,0.60052946,-0.347806891,-1.305192956
1.73E+18,10.15267773,0.39545127,-0.738072867,-1.519265915
1.73E+18,10.16267383,0.245499048,-0.909827026,-1.553029653
1.73E+18,10.17266992,0.321614465,-0.800851103,-1.423520645
1.73E+18,10.18266675,0.397549704,-0.553374472,-1.210752923
1.73E+18,10.19266284,0.342086614,-0.334363472,-1.041983334
1.73E+18,10.20265991,0.364589537,-0.1864052,-0.987353333
1.73E+18,10.21265601,0.492458523,-0.026127544,-0.939475145
1.73E+18,10.22265308,0.686706764,0.105811906,-0.79625793
1.73E+18,10.23264819,0.930519101,0.164127317,-0.787551476
1.73E+18,10.24264404,1.153593697,0.259754514,-0.882014305
1.73E+18,10.25264136,1.391568779,0.543060583,-0.790668732
1.73E+18,10.26263721,1.45824899,0.94404143,-0.552318241
1.73E+18,10.27263452,1.381211343,1.279573362,-0.2504121
1.73E+18,10.28263013,1.106291847,1.389018656,-0.039935705
1.73E+18,10.2926272,0.734324329,1.297095574,0.040424365
1.73E+18,10.30262329,0.490778607,1.192269172,0.004817045
1.73E+18,10.31262012,0.45061377,1.180130991,0.042998599
1.73E+18,10.32261621,0.4277274,1.205582243,0.197567814
1.73E+18,10.3326123,0.429193381,1.219834055,0.324614231
1.73E+18,10.34260913,0.421091907,1.253480304,0.451411642
1.73E+18,10.35260522,0.30879685,1.198551613,0.539607812
1.73E+18,10.36260229,0.259209739,0.970896119,0.524015691
1.73E+18,10.37259839,0.254125568,0.69220485,0.523860208
1.73E+18,10.38259546,0.240701365,0.541001897,0.522388966
1.73E+18,10.39259106,0.287353299,0.568066429,0.601955255
1.73E+18,10.40258716,0.498545661,0.766634361,0.782357415
1.73E+18,10.41258423,0.720536772,0.895251973,0.878227188
1.73E+18,10.42258032,0.71019658,0.681216423,0.887338131
1.73E+18,10.43257715,0.542764815,0.228743874,0.757394823
1.73E+18,10.44257349,0.356498731,-0.225177121,0.516754175
1.73E+18,10.45257007,0.259006325,-0.550532526,0.371081384
1.73E+18,10.46256616,0.250993846,-0.902247531,0.237085586
1.73E+18,10.47256323,0.27425884,-1.270209321,0.072813892
1.73E+18,10.48255933,0.41496378,-1.456122353,-0.064033204
1.73E+18,10.49255518,0.626505759,-1.357730368,-0.090171269
1.73E+18,10.50255249,0.781188956,-1.072599421,-0.120451549
1.73E+18,10.5125481,0.890233779,-0.799253605,-0.131295015
1.73E+18,10.52254517,0.780765689,-0.62141282,-0.065615505
1.73E+18,10.53254126,0.497948353,-0.57465516,-0.034710371
1.73E+18,10.54253833,0.258649767,-0.450296375,-0.033656186
1.73E+18,10.55253418,0.135592566,-0.223586053,-0.007328735
1.73E+18,10.56253027,0.088383071,-0.035975569,-0.026165538
1.73E+18,10.5725271,0.068172788,-0.042981648,-0.075928809
1.73E+18,10.58252319,0.02333879,-0.026215222,-0.116247375
1.73E+18,10.59252026,0.049707741,0.172744923,-0.089441786
1.73E+18,10.60251636,0.101182931,0.337870603,-0.034131402
1.73E+18,10.61251343,0.05355258,0.433904043,0.103054716
1.73E+18,10.62250928,-0.099910135,0.60946227,0.247123288
1.73E+18,10.6325061,-0.285993555,0.723168144,0.369335709
1.73E+18,10.64250244,-0.382539036,0.589125,0.415968281
1.73E+18,10.65249829,-0.389850381,0.42199967,0.485098223
1.73E+18,10.66249536,-0.375615081,0.308246449,0.611724077
1.73E+18,10.67249097,-0.394253,0.245315654,0.769120624
1.73E+18,10.68248804,-0.45239437,0.059084642,0.84831428
1.73E+18,10.69248413,-0.509659833,-0.22675007,0.869945974
1.73E+18,10.7024812,-0.524840013,-0.286268426,0.979632384
1.73E+18,10.71247729,-0.499837381,-0.29322073,1.028943527
1.73E+18,10.72247339,-0.485190578,-0.435384637,0.996780502
1.73E+18,10.73247021,-0.439816336,-0.427533339,0.952648223
1.73E+18,10.74246631,-0.426104767,-0.372628613,1.0577777
1.73E+18,10.75246313,-0.522148874,-0.485734183,1.277094112
1.73E+18,10.76245923,-0.708555097,-0.59210723,1.502445421
1.73E+18,10.7724563,-0.91269016,-0.667404171,1.630127505
1.73E+18,10.78245215,-1.112847845,-0.960172481,1.618464248
1.73E+18,10.79244946,-1.268791417,-1.479944543,1.488792451
1.73E+18,10.80244507,-1.326147043,-2.062131267,1.19310007
1.73E+18,10.81244116,-1.111548014,-2.510342068,0.771831929
1.73E+18,10.82243823,-0.759273038,-2.664552386,0.458593078
1.73E+18,10.83243433,-0.329849209,-2.662826878,0.236847393
1.73E+18,10.8424314,0.052932257,-2.656873522,0.090130353
1.73E+18,10.85242725,0.351981546,-2.41414847,-0.099085228
1.73E+18,10.86242407,0.420758292,-2.036640852,-0.287098448
1.73E+18,10.87242017,0.208661747,-1.814238457,-0.48857496
1.73E+18,10.88241626,-0.13178309,-1.645503938,-0.617544746
1.73E+18,10.89241333,-0.553375056,-1.593814083,-0.78439009
1.73E+18,10.90240894,-0.869085996,-1.391580615,-0.955358066
1.73E+18,10.91240625,-1.034518405,-1.163369825,-1.155323297
1.73E+18,10.9224021,-1.07842389,-0.864281665,-1.279361765
1.73E+18,10.93239941,-1.034509198,-0.411654802,-1.252587155
1.73E+18,10.94239526,-0.915241014,0.188276839,-1.107917987
1.73E+18,10.95239233,-0.819971691,0.969161258,-0.864421366
1.73E+18,10.96238818,-0.800100577,1.601791638,-0.660071344
1.73E+18,10.97238428,-0.991341088,1.88343182,-0.512839632
1.73E+18,10.9823811,-1.247703036,1.896207715,-0.367915029
1.73E+18,10.99237744,-1.402276927,1.938939772,-0.163711137
1.73E+18,11.00237427,-1.349750037,2.043654531,0.07131284
1.73E+18,11.01237036,-1.070498065,2.089176511,0.292127674
1.73E+18,11.02236719,-0.669129826,2.067308962,0.500382886
1.73E+18,11.03236328,-0.327804406,1.808241262,0.495533693
1.73E+18,11.04235913,-0.002798545,1.327550334,0.34432431
1.73E+18,11.0523562,0.362364993,0.955980874,0.21975042
1.73E+18,11.06235229,0.654195876,0.740164871,0.278353416
1.73E+18,11.07234888,0.916979236,0.537777674,0.392079748
1.73E+18,11.08234521,1.110028111,0.258040695,0.50439446
1.73E+18,11.09234204,1.08823845,0.043731005,0.772623956
1.73E+18,11.10233813,1.127592921,6.90E-05,1.028073466
1.73E+18,11.11233521,1.068177513,-0.178677236,1.040914828
1.73E+18,11.1223313,0.971907854,-0.522220624,0.916183702
1.73E+18,11.13232715,0.838911661,-0.851427444,0.831402309
1.73E+18,11.14232422,0.978863737,-0.961964625,0.676206486
1.73E+18,11.15232007,2.115168446,-0.701982732,0.312807474
1.73E+18,11.16231738,2.976739683,-0.59779229,0.134936294
1.73E+18,11.17231323,3.207316032,-0.730063164,-0.361909651
1.73E+18,11.1823103,2.813002242,-0.930388753,-0.547969982
1.73E+18,11.19230615,2.019834095,-1.288413086,-0.56552902
1.73E+18,11.20230225,1.437590817,-1.379124454,-0.684419603
1.73E+18,11.21229907,1.202877075,-1.163726384,-0.797325267
1.73E+18,11.22229541,1.177686374,-0.849160084,-0.839274065
1.73E+18,11.23229248,1.117389726,-0.339419586,-0.817612268
1.73E+18,11.24228833,1.073387941,0.180221543,-0.816507522
1.73E+18,11.25228516,0.952721726,0.354138432,-0.981309961
1.73E+18,11.26228149,0.773918672,0.099343002,-1.1983973
1.73E+18,11.27227734,0.643827481,-0.154255327,-1.19960726
1.73E+18,11.28227441,0.72697455,-0.188627552,-1.150244386
1.73E+18,11.29227051,0.665849781,-0.049001639,-1.022071595
1.73E+18,11.30226733,0.589553454,0.246967513,-0.654116819
1.73E+18,11.31226318,0.447758819,0.587662526,-0.350776847
1.73E+18,11.3222605,0.181886699,0.868612972,-0.127279641
1.73E+18,11.33225635,-0.110508393,1.061828436,0.152617496
1.73E+18,11.34225244,-0.443218399,1.075540151,0.389095764
1.73E+18,11.35224951,-0.787402423,0.848462749,0.639001083
1.73E+18,11.36224536,-0.978028163,0.581571223,0.823500742
1.73E+18,11.37224243,-1.088652146,0.352563146,0.994067736
1.73E+18,11.38223853,-1.021297396,0.347895738,1.195531389
1.73E+18,11.39223535,-0.957464391,0.603317776,1.45086341
1.73E+18,11.40223169,-0.932153424,0.880719589,1.642027202
1.73E+18,11.41222852,-0.912707258,1.034555814,1.794565203
1.73E+18,11.42222437,-0.933228068,0.922481925,1.700888556
1.73E+18,11.43222046,-0.984528923,0.378936189,1.376193076
1.73E+18,11.44221729,-0.948288859,-0.246052151,0.967647931
1.73E+18,11.45221338,-0.860482857,-0.886722045,0.496249732
1.73E+18,11.46221045,-0.654621262,-1.371512225,0.091117026
1.73E+18,11.4722063,-0.432608304,-1.530937648,-0.16498481
1.73E+18,11.48220313,-0.161712219,-1.293736327,-0.20364275
1.73E+18,11.49219946,0.05638532,-0.678226009,0.005132687
1.73E+18,11.50219556,0.16681904,-0.06147066,0.16290099
1.73E+18,11.51219238,0.257836113,0.096781627,0.004065934
1.73E+18,11.52218823,0.312953604,-0.105019294,-0.12250176
1.73E+18,11.5321853,0.325465295,-0.547497104,-0.400214539
1.73E+18,11.54218115,0.495867455,-0.992343397,-0.726766461
1.73E+18,11.55217847,0.909228476,-1.323828098,-0.937734439
1.73E+18,11.56217432,1.466767958,-1.404274092,-0.926568902
1.73E+18,11.57217041,1.895854664,-1.368245917,-0.993410149
1.73E+18,11.58216748,1.981261057,-1.362162797,-1.000184173
1.73E+18,11.59216333,1.600204661,-1.117018409,-0.866630274
1.73E+18,11.6021604,1.080997539,-0.665982614,-0.422419357
1.73E+18,11.61215649,0.555831217,-0.220366506,-0.065316814
1.73E+18,11.62215332,0.121074065,0.179907654,0.368429992
1.73E+18,11.63214966,-0.298830386,0.428513582,0.829572755
1.73E+18,11.64214648,-0.708457189,0.452671287,1.239056642
1.73E+18,11.65214233,-1.081832237,0.403932683,1.563084014
1.73E+18,11.66213843,-1.424143161,0.519660418,1.71758484
1.73E+18,11.6721355,-1.609445952,0.740372961,1.836604602
1.73E+18,11.68213135,-1.697496868,0.869423119,1.765611496
1.73E+18,11.69212866,-1.67058548,0.831612736,1.52370419
1.73E+18,11.70212427,-1.522947526,0.692806323,1.197093816
1.73E+18,11.71212134,-1.349326697,0.475529016,0.721518623
1.73E+18,11.72211743,-1.169762157,0.080285251,0.221782803
1.73E+18,11.73211353,-1.016050143,-0.410528428,-0.243109668
1.73E+18,11.74211035,-0.919244258,-0.730326783,-0.691729634
1.73E+18,11.75210645,-0.80757895,-0.784592627,-1.023068205
1.73E+18,11.76210327,-0.643547495,-0.72816113,-1.212791151
1.73E+18,11.77209937,-0.560190289,-0.763472097,-1.447421745
1.73E+18,11.78209644,-0.591934504,-0.922578956,-1.732545093
1.73E+18,11.79209253,-0.770454503,-0.982453871,-1.873265231
1.73E+18,11.80208813,-0.942941068,-0.884721226,-1.922689479
1.73E+18,11.81208521,-0.989526878,-0.71919398,-1.800072569
1.73E+18,11.8220813,-0.97227413,-0.448552746,-1.523217283
1.73E+18,11.83207837,-0.960157576,-0.141302322,-1.221172026
1.73E+18,11.84207446,-1.035354709,0.16460078,-0.978303765
1.73E+18,11.85207129,-1.115714633,0.569907673,-0.822927326
1.73E+18,11.86206763,-1.070419447,0.976491748,-0.630371202
1.73E+18,11.87206348,-0.907991627,1.323754449,-0.415238505
1.73E+18,11.8820603,-0.62587579,1.527192032,-0.229620657
1.73E+18,11.8920564,-0.331090734,1.443071148,-0.27074937
1.73E+18,11.90205347,-0.122769909,1.021713284,-0.423271005
1.73E+18,11.91204932,0.114962888,0.565119855,-0.33766076
1.73E+18,11.92204663,0.436976874,0.254176421,-0.126646604
1.73E+18,11.93204224,0.777506468,0.04132336,0.155589206
1.73E+18,11.94203931,0.923781755,0.006078443,0.465642997
1.73E+18,11.9520354,1.014413482,0.068832129,0.670774524
1.73E+18,11.96203149,1.084922896,0.131522686,0.630522009
1.73E+18,11.97202832,1.046356142,0.245709037,0.484620084
1.73E+18,11.98202441,0.963508347,0.333115518,0.293208455
1.73E+18,11.99202124,0.833252028,0.359785498,0.117969961
1.73E+18,12.00201733,0.657171969,0.499012767,0.073285016
1.73E+18,12.0120144,0.540025599,0.674365242,0.121704472
1.73E+18,12.0220105,0.403227749,0.841769389,0.197016026
1.73E+18,12.0320061,0.188803931,0.805848181,0.162901574
1.73E+18,12.04200342,-0.01589768,0.647343964,-0.015882629
1.73E+18,12.05199927,-0.183586781,0.545298717,-0.212234053
1.73E+18,12.06199658,-0.253898773,0.416007736,-0.305329685
1.73E+18,12.07199243,-0.255738994,0.194524793,-0.399551691
1.73E+18,12.0819895,-0.158534173,0.047596448,-0.44928106
1.73E+18,12.09198535,-0.025599867,0.010949849,-0.446091909
1.73E+18,12.10198145,0.079863226,-0.068230071,-0.358539297
1.73E+18,12.11197827,0.065396309,-0.263485517,-0.315023396
1.73E+18,12.12197461,0.003170301,-0.47401978,-0.305009952
1.73E+18,12.13197144,-0.039809448,-0.642594724,-0.348871305
1.73E+18,12.14196753,0.008837825,-0.669310297,-0.350338455
1.73E+18,12.1519646,0.080804306,-0.574552869,-0.29277474
1.73E+18,12.16196045,0.202789202,-0.418157023,-0.112913847
1.73E+18,12.1719563,0.271607448,-0.140005268,0.073386139
1.73E+18,12.18195361,0.255475667,0.144388597,0.164219671
1.73E+18,12.19194946,0.19245354,0.196093065,0.23631051
1.73E+18,12.20194629,0.051280252,0.115035661,0.310481077
1.73E+18,12.21194238,-0.127241063,-0.034493221,0.344300344
1.73E+18,12.22193921,-0.126216835,0.049953825,0.481307599
1.73E+18,12.23193506,0.044958063,0.442040003,0.71754855
1.73E+18,12.24193115,0.279557969,0.897601751,0.927601752
1.73E+18,12.25192822,0.404265714,1.140841183,1.009900096
1.73E+18,12.26192407,0.419174676,1.180077799,0.950341115
1.73E+18,12.2719209,0.316916078,0.991302363,0.742927322
1.73E+18,12.28191724,0.118129828,0.563992312,0.483947008
1.73E+18,12.29191406,-0.032175592,0.173014972,0.147310038
1.73E+18,12.30191016,-0.076396134,0.027862405,-0.029637013
1.73E+18,12.31190601,-0.073345953,-0.051584641,-0.055452423
1.73E+18,12.32190283,-0.020176234,-0.020901918,0.037551147
1.73E+18,12.33189893,-0.053098845,-0.036223991,-0.027612522
1.73E+18,12.341896,-0.112926268,-0.11979367,-0.204168528
1.73E+18,12.35189209,-0.158860482,-0.145532507,-0.283243526
1.73E+18,12.36188892,-0.317922917,-0.297130597,-0.359897142
1.73E+18,12.37188501,-0.546974688,-0.629919367,-0.46689212
1.73E+18,12.3818811,-0.784761261,-0.772897513,-0.446081972
1.73E+18,12.39187793,-0.839725024,-0.720478174,-0.42732408
1.73E+18,12.40187402,-0.674177172,-0.452737923,-0.354314081
1.73E+18,12.41187109,-0.566455633,-0.037671851,-0.138172791
1.73E+18,12.4218667,-0.56353054,0.22277649,0.050295186
1.73E+18,12.43186401,-0.780466633,0.021714404,0.088200262
1.73E+18,12.44185986,-1.119511394,-0.249836931,0.086245036
1.73E+18,12.45185596,-1.416899765,-0.424755691,0.164774383
1.73E+18,12.46185303,-1.626187828,-0.752169197,0.285742357
1.73E+18,12.47184912,-1.642650302,-0.951168506,0.53054217
1.73E+18,12.48184619,-1.404811853,-0.90554365,0.842701993
1.73E+18,12.49184204,-1.000580187,-0.662549132,1.080619354
1.73E+18,12.50183887,-0.549877277,-0.198503634,1.316337158
1.73E+18,12.51183521,-0.218889858,0.202410578,1.565828344
1.73E+18,12.52183105,-0.134057027,0.272561973,1.618270771
1.73E+18,12.53182813,-0.25006431,0.002926117,1.469546191
1.73E+18,12.54182373,-0.391309056,-0.28466216,1.28759534
1.73E+18,12.55182104,-0.520588054,-0.599877864,1.159810087
1.73E+18,12.56181689,-0.58190177,-0.928891207,1.105533722
1.73E+18,12.57181421,-0.421288307,-1.191117664,1.086487077
1.73E+18,12.58181006,-0.157731186,-1.272009064,1.126728194
1.73E+18,12.59180591,0.140044431,-1.052497713,1.103835979
1.73E+18,12.60180298,0.239926654,-0.752749628,1.109853924
1.73E+18,12.61179907,0.10210633,-0.804225548,0.994563411
1.73E+18,12.6217959,-0.190318866,-1.017916229,0.664347122
1.73E+18,12.63179224,-0.397494759,-1.159013968,0.416490843
1.73E+18,12.64178906,-0.505069291,-1.394260648,0.157179397
1.73E+18,12.65178491,-0.482456477,-1.610001832,-0.02562544
1.73E+18,12.66178101,-0.321214944,-1.558337696,-0.163287359
1.73E+18,12.67177808,-0.030284079,-1.054164185,-0.315281755
1.73E+18,12.68177393,0.392043361,-0.150024557,-0.37302638
1.73E+18,12.69177124,0.621213498,0.63597969,-0.368918653
1.73E+18,12.70176709,0.380318291,0.846029384,-0.265405963
1.73E+18,12.71176392,-0.263736277,0.506492309,-0.252936358
1.73E+18,12.72176001,-0.831378051,0.186752406,-0.280940509
1.73E+18,12.73175684,-1.083397294,0.262469033,-0.020040041
1.73E+18,12.74175293,-1.005908542,0.475946949,0.373768138
1.73E+18,12.75174927,-0.733471219,0.67500354,0.676205025
1.73E+18,12.76174609,-0.441216996,1.008726961,0.890154065
1.73E+18,12.77174194,-0.260147312,1.308840373,0.905088599
1.73E+18,12.78173901,-0.272900411,1.295368312,0.830204915
1.73E+18,12.79173511,-0.522239037,0.906218772,0.76334584
1.73E+18,12.80173218,-0.756399821,0.483542226,0.661954673
1.73E+18,12.81172803,-0.778550132,-0.045491585,0.521673804
1.73E+18,12.82172388,-0.674202453,-0.750119864,0.37994332
1.73E+18,12.83172095,-0.442058708,-1.366636143,0.19624621
1.73E+18,12.84171704,-0.145872114,-1.703873125,-0.127704297
1.73E+18,12.85171387,0.364798796,-1.524542394,-0.433998443
1.73E+18,12.86171021,0.867642081,-1.072919739,-0.447084427
1.73E+18,12.87170605,1.014980468,-0.843407219,-0.378580507
1.73E+18,12.88170288,0.816262461,-0.830708481,-0.405768374
1.73E+18,12.89169897,0.547168895,-0.756218765,-0.434709806
1.73E+18,12.90169604,0.290600026,-0.630359512,-0.429183152
1.73E+18,12.91169189,0.095807814,-0.498982372,-0.36019934
1.73E+18,12.92168921,-0.007230536,-0.40413142,-0.175811617
1.73E+18,12.93168481,-0.107653735,-0.232231716,0.035955695
1.73E+18,12.94168213,0.045869479,0.352463192,0.281141
1.73E+18,12.95167798,0.169548757,1.003074634,0.523821337
1.73E+18,12.96167407,0.048468117,1.275298753,0.657817428
1.73E+18,12.9716709,-0.233168266,1.208814064,0.652336366
1.73E+18,12.98166724,-0.494348867,0.939555225,0.526816135
1.73E+18,12.99166382,-0.640056145,0.558947888,0.300759016
1.73E+18,13.00165991,-0.498960745,0.482378443,0.139361417
1.73E+18,13.01165601,-0.052644087,0.649352966,-0.016354338
1.73E+18,13.02165308,0.409754813,0.812776519,-0.115961252
1.73E+18,13.03164893,0.856177561,1.111488832,-0.125483698
1.73E+18,13.04164624,1.161308217,1.588752123,-0.117716571
1.73E+18,13.05164185,1.137206479,1.829427258,-0.215804313
1.73E+18,13.06163916,0.778979171,1.365974465,-0.265239959
1.73E+18,13.07163501,0.443144749,0.656000149,-0.437269427
1.73E+18,13.0816311,0.284778772,0.140975574,-0.664005176
1.73E+18,13.09162817,0.346567558,-0.250343711,-0.565038606
1.73E+18,13.10162402,0.674585315,-0.540697361,-0.457425496
1.73E+18,13.11162085,0.929220586,-0.78751056,-0.49838499
1.73E+18,13.12161719,1.181367839,-0.904067732,-0.635604427
1.73E+18,13.13161401,1.356592304,-0.975392846,-0.761162359
1.73E+18,13.14161011,1.49703304,-0.890797331,-0.612962971
1.73E+18,13.1516062,1.297170101,-1.075784481,-0.40454117
1.73E+18,13.16160303,0.989831706,-1.333145377,-0.300434899
1.73E+18,13.17159888,0.664519556,-1.596961733,-0.373307243
1.73E+18,13.18159595,0.400630134,-1.627366809,-0.200856334
1.73E+18,13.19159204,0.151686061,-1.440672855,0.206536426
1.73E+18,13.20158887,-0.00164689,-1.235643034,0.509066251
1.73E+18,13.21158521,-0.109164431,-0.863450475,0.781298261
1.73E+18,13.22158105,-0.238034995,-0.493414216,0.967715444
1.73E+18,13.23157813,-0.432464365,-0.174767369,1.144595859
1.73E+18,13.24157422,-0.613550416,0.14573592,1.163747427
1.73E+18,13.25157129,-0.779719468,0.310239669,1.098503385
1.73E+18,13.26156714,-0.958466554,0.285498027,0.902043825
1.73E+18,13.27156421,-1.050266593,0.032919104,0.520109916
1.73E+18,13.28156006,-1.093430028,-0.24958091,0.234149532
1.73E+18,13.29155615,-0.967411784,-0.372469623,0.011464228
1.73E+18,13.30155298,-0.803958129,-0.37803661,-0.171201785
1.73E+18,13.31154907,-0.821781078,-0.518450458,-0.317347455
1.73E+18,13.32154614,-0.840064046,-0.489186369,-0.417673623
1.73E+18,13.33154199,-0.78851243,-0.309625921,-0.332210678
1.73E+18,13.34153906,-0.688857878,0.007464929,-0.108007955
1.73E+18,13.35153516,-0.586481792,0.390571097,0.171906719
1.73E+18,13.36153101,-0.72894059,0.551346181,0.343499549
1.73E+18,13.37152832,-1.062751396,0.437196655,0.442838168
1.73E+18,13.38152393,-1.309976975,0.135453596,0.330493645
1.73E+18,13.391521,-1.345813428,-0.212130008,0.220892576
1.73E+18,13.40151709,-1.28685212,-0.618690701,0.099595808
1.73E+18,13.41151416,-1.251983052,-0.979718893,-0.169997378
1.73E+18,13.42151001,-1.156065932,-1.204987199,-0.418704428
1.73E+18,13.43150635,-0.983897055,-1.277433427,-0.555038313
1.73E+18,13.44150293,-0.782725371,-1.244164779,-0.53662149
1.73E+18,13.45149902,-0.736589059,-1.276668288,-0.424082906
1.73E+18,13.46149609,-0.740942285,-1.347963007,-0.45662587
1.73E+18,13.47149219,-0.616416911,-1.134838143,-0.336311976
1.73E+18,13.48148926,-0.235279121,-0.49837973,0.109762982
1.73E+18,13.49148535,0.24021497,0.167566644,0.550915973
1.73E+18,13.50148096,0.601532207,0.457922047,0.896105375
1.73E+18,13.51147803,0.755630736,0.403348745,1.088680787
1.73E+18,13.52147412,0.792119515,0.259064778,1.232967093
1.73E+18,13.53147119,0.816502992,0.162969379,1.388396724
1.73E+18,13.54146704,0.835238233,0.008193828,1.56122085
1.73E+18,13.55146411,0.891938026,-0.154081139,1.654439232
1.73E+18,13.56145996,1.038991166,0.050121583,1.621816481
1.73E+18,13.57145605,1.269346567,0.617030075,1.557016677
1.73E+18,13.58145313,1.45216514,0.965449544,1.478566532
1.73E+18,13.59144922,1.610910618,1.002229415,1.23444418
1.73E+18,13.60144629,1.634431632,1.132101996,0.842266525
1.73E+18,13.61144214,1.63055859,1.193155892,0.537649079
1.73E+18,13.62143896,1.43727123,1.043245901,0.41386371
1.73E+18,13.63143506,1.149390838,0.805294638,0.186626733
1.73E+18,13.64143115,0.77140289,0.621264351,-0.116416887
1.73E+18,13.65142798,0.415364762,0.433649191,-0.388069636
1.73E+18,13.66142407,0.103609866,0.202281983,-0.564596708
1.73E+18,13.6714209,-0.200931884,-0.137437463,-0.769532128
1.73E+18,13.68141699,-0.384734938,-0.456363712,-0.944269394
1.73E+18,13.69141406,-0.518648757,-0.794056036,-1.180206978
1.73E+18,13.70141016,-0.606055968,-1.13433487,-1.262023969
1.73E+18,13.71140625,-0.641156362,-1.231452012,-1.405289407
1.73E+18,13.72140332,-0.584545271,-1.216446167,-1.428066764
1.73E+18,13.73139893,-0.483285329,-1.295774555,-1.330636317
1.73E+18,13.741396,-0.435569346,-1.359436003,-1.272443364
1.73E+18,13.75139209,-0.392274978,-1.263869012,-1.162521684
1.73E+18,13.76138916,-0.224212222,-0.962156348,-1.00020054
1.73E+18,13.77138501,-0.099901951,-0.678579061,-0.860484026
1.73E+18,13.7813811,0.031661213,-0.582937835,-0.749161248
1.73E+18,13.79137793,0.202093767,-0.428631071,-0.632355069
1.73E+18,13.80137402,0.35630467,-0.058874214,-0.503152643
1.73E+18,13.81137109,0.563842674,0.487241081,-0.350104062
1.73E+18,13.82136719,0.799377962,1.007121279,-0.055521688
1.73E+18,13.83136426,0.884451762,1.470496331,0.306942966
1.73E+18,13.84136011,0.81353742,1.831781712,0.576194206
1.73E+18,13.85135596,0.68140274,2.023846253,0.829238409
1.73E+18,13.86135327,0.661012278,2.22417301,1.057524894
1.73E+18,13.87134912,0.716497434,2.387747954,1.148973051
1.73E+18,13.88134619,0.745074855,2.398198621,1.350798231
1.73E+18,13.89134204,0.737397891,2.120424467,1.288451957
1.73E+18,13.90133813,0.73605086,1.775121083,1.146040213
1.73E+18,13.91133496,0.758871764,1.468904093,1.028805872
1.73E+18,13.9213313,0.730953829,0.955378232,0.975208137
1.73E+18,13.93132813,0.638756315,0.167843707,0.808511262
1.73E+18,13.94132397,0.499836212,-0.460168365,0.634280777
1.73E+18,13.95132104,0.180925891,-0.891454918,0.626536739
1.73E+18,13.96131714,-0.008532851,-1.31882576,0.560900191
1.73E+18,13.97131299,-0.09750322,-1.778292699,0.527784688
1.73E+18,13.9813103,-0.085516722,-2.179274715,0.543402528
1.73E+18,13.99130615,0.028487259,-2.465698624,0.436753587
1.73E+18,14.00130322,0.130163672,-2.619269476,0.224464881
1.73E+18,14.01129907,0.366447294,-2.625162625,0.156257606
1.73E+18,14.02129614,0.775899179,-2.495131055,0.060072484
1.73E+18,14.03129199,1.244696109,-2.318501399,-0.102058691
1.73E+18,14.04128833,1.780786707,-2.116020679,-0.368135978
1.73E+18,14.05128516,1.97072768,-1.658295031,-0.422976406
1.73E+18,14.06128101,1.705300528,-1.146105387,-0.515587177
1.73E+18,14.07127808,1.453483967,-0.608782471,-0.658562693
1.73E+18,14.08127417,1.102140719,-0.103000356,-0.750039784
1.73E+18,14.09127124,0.543431608,0.085952775,-0.780682467
1.73E+18,14.10126733,0.038464171,0.123864865,-0.700752314
1.73E+18,14.11126294,-0.387680636,0.282638545,-0.521989738
1.73E+18,14.12126001,-0.722837304,0.45568099,-0.268297885
1.73E+18,14.1312561,-1.020120169,0.630076019,0.042348903
1.73E+18,14.14125293,-1.255540452,0.802128283,0.41301966
1.73E+18,14.15124927,-1.289775753,1.014742275,0.660996058
1.73E+18,14.16124609,-1.207008476,1.148332415,0.864779385
1.73E+18,14.17124194,-1.125129965,1.322443366,1.050172778
1.73E+18,14.18123828,-1.092994851,1.202883505,1.111207092
1.73E+18,14.19123511,-1.054206271,0.762443339,1.092368536
1.73E+18,14.2012312,-0.946821563,0.466811456,0.971761504
1.73E+18,14.21122827,-0.736495389,0.250236744,0.972095558
1.73E+18,14.22122412,-0.413802919,0.001806757,1.067634784
1.73E+18,14.23121997,0.035451691,-0.11548925,1.077906588
1.73E+18,14.2412168,0.535603545,-0.208320679,0.943824865
1.73E+18,14.25121289,0.818525876,-0.490309236,0.775709355
1.73E+18,14.26120996,0.849173528,-0.765117526,0.660990797
1.73E+18,14.27120605,0.773606538,-0.945919499,0.646285395
1.73E+18,14.28120313,0.636859834,-1.050837087,0.585748509
1.73E+18,14.29119897,0.409792953,-0.981307623,0.510457413
1.73E+18,14.30119507,0.148113171,-0.92101419,0.459769429
1.73E+18,14.31119214,-0.008447656,-0.840107593,0.429574489
1.73E+18,14.32118799,-0.313764336,-0.986448493,0.285984057
1.73E+18,14.33118506,-0.60414239,-1.513559812,-0.078670217
1.73E+18,14.34118091,-0.866941824,-2.055550136,-0.485607342
1.73E+18,14.35117798,-0.988440252,-2.400317513,-0.761758571
1.73E+18,14.36117383,-0.960039941,-2.332666118,-0.805482854
1.73E+18,14.37117017,-0.652570759,-1.915795043,-0.742714556
1.73E+18,14.38116699,-0.411485875,-1.610747682,-0.638716129
1.73E+18,14.39116284,-0.542963552,-1.763024987,-0.582199876
1.73E+18,14.40115991,-0.827158095,-1.854160717,-0.574979862
1.73E+18,14.41115601,-0.897235548,-1.3323288,-0.284683495
1.73E+18,14.42115283,-0.782654937,-0.448176898,0.278381473
1.73E+18,14.43114917,-0.638108518,0.579952682,0.926900034
1.73E+18,14.44114478,-0.494001953,1.476770589,1.354272921
1.73E+18,14.45114185,-0.360913187,2.03004803,1.439007844
1.73E+18,14.46113794,-0.322877032,2.282297867,1.311254156
1.73E+18,14.47113501,-0.186757959,2.491886374,1.076650742
1.73E+18,14.48113086,0.094734924,2.82186827,0.77349314
1.73E+18,14.4911272,0.275791748,3.101846072,0.498269547
1.73E+18,14.50112402,0.338620545,3.310266704,0.327308001
1.73E+18,14.51111987,0.191472712,3.291771262,-0.107030342
1.73E+18,14.52111694,-0.122588853,2.994609101,-0.550796146
1.73E+18,14.53111304,-0.423067299,2.433895957,-0.944464332
1.73E+18,14.54111011,-0.617036212,1.776848929,-1.166230768
1.73E+18,14.5511062,-0.770362733,1.150575226,-1.320578741
1.73E+18,14.56110181,-0.857196821,0.514114475,-1.427028361
1.73E+18,14.57109912,-0.826878401,-0.059894789,-1.458570623
1.73E+18,14.58109497,-0.712218588,-0.3692945,-1.525096521
1.73E+18,14.59109204,-0.482406208,-0.564665097,-1.606048126
1.73E+18,14.60108813,-0.296163213,-0.820780961,-1.597778018
1.73E+18,14.61108398,-0.237400351,-1.091102462,-1.489372589
1.73E+18,14.62108081,-0.327631241,-1.31086691,-1.231301498
1.73E+18,14.63107715,-0.461623824,-1.466539702,-0.896110051
1.73E+18,14.64107397,-0.534416819,-1.676710393,-0.478949053
1.73E+18,14.65107007,-0.322756621,-1.954281718,-0.148326813
1.73E+18,14.66106714,0.274368438,-2.062397225,0.098882107
1.73E+18,14.67106299,0.80219901,-1.914557026,0.252829683
1.73E+18,14.68105884,1.213718641,-1.711212382,0.379513112
1.73E+18,14.69105591,1.473089562,-1.329026252,0.970209014
1.73E+18,14.701052,1.66687289,-0.640498044,1.861990972
1.73E+18,14.71104883,1.714153696,0.17554186,2.544059921
1.73E+18,14.72104517,1.472689165,1.032515833,2.999131547
1.73E+18,14.73104175,0.985413744,1.555440221,3.385452585
1.73E+18,14.74103784,0.533101207,1.641259725,3.640271981
1.73E+18,14.75103418,0.209611742,1.220923604,3.195832808
1.73E+18,14.76103101,0.116949825,0.674199823,2.477222181
1.73E+18,14.7710271,0.119868927,0.162613405,1.876788144
1.73E+18,14.78102417,0.103867202,-0.183918059,1.314808049
1.73E+18,14.79101978,0.098633393,-0.386860552,0.823538443
1.73E+18,14.80101587,0.096720399,-0.667335782,0.099719727
1.73E+18,14.81101294,0.072053867,-0.899337196,-0.549817948
1.73E+18,14.82100903,0.144437989,-0.864022722,-0.808583743
1.73E+18,14.8310061,0.151240363,-0.973616484,-1.118417169
1.73E+18,14.84100195,-0.01795432,-1.130198208,-1.248280105
1.73E+18,14.85099878,-0.165784875,-1.182408872,-1.212000293
1.73E+18,14.86099512,-0.371041782,-0.933990576,-1.117369998
1.73E+18,14.87099097,-0.552101675,-0.639603141,-1.182556172
1.73E+18,14.88098804,-0.57124126,-0.584144289,-1.177482522
1.73E+18,14.89098389,-0.772459998,-0.695323275,-1.065724567
1.73E+18,14.90098096,-1.037769808,-0.716892132,-0.95836777
1.73E+18,14.91097681,-1.145859303,-0.663674921,-0.976552246
1.73E+18,14.9209729,-1.142348665,-0.535565259,-0.957928794
1.73E+18,14.93096997,-1.153005376,-0.339753933,-0.91728231
1.73E+18,14.94096606,-1.144403551,-0.123843822,-0.920268048
1.73E+18,14.95096289,-1.208889175,0.065539517,-0.924208895
1.73E+18,14.96095898,-1.212296938,0.22709143,-0.835994897
1.73E+18,14.97095581,-1.205416531,0.463619967,-0.6963193
1.73E+18,14.98095215,-1.25454618,0.692884649,-0.582168897
1.73E+18,14.990948,-1.191904723,0.955204045,-0.529814148
1.73E+18,15.00094507,-1.282944007,1.053944405,-0.512713668
1.73E+18,15.01094092,-1.528931277,0.826694569,-0.415246981
1.73E+18,15.02093799,-1.673938298,0.597467296,-0.389431864
1.73E+18,15.03093384,-1.55139533,0.740755238,-0.38296939
1.73E+18,15.04093115,-1.246426587,1.11931558,-0.180848735
1.73E+18,15.050927,-1.075050321,1.504353008,0.111814654
1.73E+18,15.06092285,-1.108246196,1.701766508,0.560456539
1.73E+18,15.07091992,-1.320560913,1.803949702,1.138161734
1.73E+18,15.08091602,-1.533315483,1.621810343,1.385090669
1.73E+18,15.09091309,-1.868461045,1.117622804,1.575498966
1.73E+18,15.10090918,-2.185082232,0.362591788,1.623347052
1.73E+18,15.11090479,-2.21443809,-0.238687176,1.713945606
1.73E+18,15.12090186,-1.854215078,-0.361911989,1.859894877
1.73E+18,15.13089795,-1.221874914,-0.310902517,1.951837248
1.73E+18,15.14089502,-0.747284056,-0.40880175,2.018865542
1.73E+18,15.15089087,-0.476460451,-0.765335553,1.761417259
1.73E+18,15.16088818,-0.285972658,-1.133775482,1.373628779
1.73E+18,15.17088379,-0.294272577,-1.434131471,1.046253558
1.73E+18,15.18087988,-0.291033449,-1.844222092,0.831133721
1.73E+18,15.19087695,-0.106379477,-2.246736724,0.499382477
1.73E+18,15.20087305,0.08724486,-2.319749938,-0.042066579
1.73E+18,15.21087012,0.408042164,-1.918131377,-0.327347748
1.73E+18,15.22086621,0.853775176,-0.975329133,-0.527787318
1.73E+18,15.23086182,1.416596983,-0.101101244,-0.706749508
1.73E+18,15.24085889,2.076614843,0.346474766,-0.61024173
1.73E+18,15.25085474,2.552778942,0.012630349,-0.50225248
1.73E+18,15.26085181,2.387617606,-0.717653764,-0.549604013
1.73E+18,15.2708479,1.778078033,-1.531425139,-0.262311212
1.73E+18,15.28084497,1.166755084,-1.950533179,0.180881468
1.73E+18,15.29084082,0.768132782,-1.762169831,0.557654049
1.73E+18,15.30083691,0.491499761,-1.122839078,0.836845669
1.73E+18,15.31083398,0.413282987,-0.231713829,0.815821585
1.73E+18,15.32083008,0.405384927,0.608995821,0.690987583
1.73E+18,15.3308269,0.245322668,1.191755962,0.583321282
1.73E+18,15.34082275,-0.041798137,1.390422093,0.420182976
1.73E+18,15.35081885,-0.36539837,1.430441384,0.371875457
1.73E+18,15.36081567,-0.683444913,1.595280648,0.453525274
1.73E+18,15.37081177,-1.043863448,1.64501937,0.555046497
1.73E+18,15.38080884,-1.417936415,1.482978211,0.744393887
1.73E+18,15.39080469,-1.674718342,1.321152742,0.506742777
1.73E+18,15.40080176,-1.451238088,1.41197926,0.184658064
1.73E+18,15.41079785,-1.12819359,1.410778068,0.054217036
1.73E+18,15.42079395,-0.911172011,1.094479245,-0.255816297
1.73E+18,15.43079102,-0.633357525,0.680338471,-0.844220874
1.73E+18,15.44078711,-0.513456887,0.359826999,-1.291023561
1.73E+18,15.45078369,-0.595743249,0.033551556,-1.487028364
1.73E+18,15.46077979,-0.584862081,-0.375379373,-1.77138628
1.73E+18,15.47077588,-0.670611881,-0.63524553,-1.803089578
1.73E+18,15.48077271,-0.84149101,-0.627774171,-1.827290538
1.73E+18,15.49076904,-0.786250915,-0.386145097,-1.831177024
1.73E+18,15.50076587,-0.716122025,-0.01191957,-1.745927429
1.73E+18,15.51076172,-0.550706275,0.286677007,-1.642031001
1.73E+18,15.52075879,-0.489118565,0.329947409,-1.453127848
1.73E+18,15.53075488,-0.616443945,0.357769482,-1.283364278
1.73E+18,15.54075098,-0.831432119,0.334337169,-1.179256546
1.73E+18,15.55074805,-0.937385772,0.205332603,-1.083543424
1.73E+18,15.56074365,-0.886005129,0.063423548,-0.933200595
1.73E+18,15.57074072,-0.75726769,0.077110128,-0.556682573
1.73E+18,15.58073682,-0.501127859,0.286267842,-0.361405793
1.73E+18,15.59073291,-0.115637134,0.556935379,-0.288650061
1.73E+18,15.60072974,0.102004477,0.729901251,-0.094268475
1.73E+18,15.61072583,0.200857942,0.800350168,-0.007893676
1.73E+18,15.62072266,0.312545023,0.866264363,0.059451137
1.73E+18,15.63071875,0.439689933,0.858240631,0.177773857
1.73E+18,15.64071582,0.429226406,0.665077189,0.305903101
1.73E+18,15.65071191,0.407232893,0.49763388,0.38233986
1.73E+18,15.66070776,0.534317305,0.560864535,0.500833553
1.73E+18,15.67070508,0.619747225,0.673447543,0.642383712
1.73E+18,15.68070068,0.671340926,0.746418671,0.876856484
1.73E+18,15.690698,0.559099864,0.734650492,1.081728776
1.73E+18,15.70069385,0.233686299,0.500202269,1.261524495
1.73E+18,15.71068994,-0.151981829,0.157618081,1.271183427
1.73E+18,15.72068701,-0.626548137,-0.226820212,1.13768418
1.73E+18,15.73068286,-1.046979388,-0.795416803,0.904243965
1.73E+18,15.74067969,-1.336097505,-1.409452372,0.761388861
1.73E+18,15.75067603,-1.417955704,-1.827664924,0.669246
1.73E+18,15.76067285,-1.322742787,-1.936839,0.494879613
1.73E+18,15.77066895,-0.885824365,-1.670588695,0.336185135
1.73E+18,15.78066479,-0.385873295,-1.191759469,0.322642055
1.73E+18,15.79066187,-0.031959611,-0.719570412,0.542846648
1.73E+18,15.80065771,0.100618429,-0.596919599,0.517654631
1.73E+18,15.81065503,0.001938275,-0.619201573,0.345246101
1.73E+18,15.82065088,-0.041210255,-0.471744821,0.367314725
1.73E+18,15.83064673,0.022713498,-0.501106524,0.408240317
1.73E+18,15.8406438,0.104435211,-0.639911184,0.499198645
1.73E+18,15.85063989,0.22658275,-0.535355415,0.68781889
1.73E+18,15.86063672,0.413424149,-0.058309566,0.906288623
1.73E+18,15.87063306,0.508475738,0.411527376,1.032011682
1.73E+18,15.88062891,0.408849535,0.516223429,0.983462463
1.73E+18,15.89062598,0.11992168,0.280802562,0.807998052
1.73E+18,15.90062183,-0.143935008,-0.003474983,0.52380234
1.73E+18,15.9106189,-0.292619987,-0.292186711,0.335040348
1.73E+18,15.92061475,-0.328158918,-0.545070169,0.26733547
1.73E+18,15.93061182,-0.292749751,-0.884749868,0.158439627
1.73E+18,15.94060791,-0.218593797,-1.061733159,0.065714289
1.73E+18,15.95060376,-0.035180181,-0.835692699,0.062061612
1.73E+18,15.96060083,0.159304281,-0.507605239,0.159288645
1.73E+18,15.97059692,0.246710323,-0.451879844,0.072551149
1.73E+18,15.98059399,0.166432087,-0.55457508,-0.129452602
1.73E+18,15.99059009,-0.059478756,-0.546525629,-0.201715874
1.73E+18,16.00058569,-0.218030172,-0.447367335,-0.090383451
1.73E+18,16.01058276,-0.3151894,-0.603344079,-0.086021164
1.73E+18,16.02057886,-0.375361253,-0.971170845,-0.115006143
1.73E+18,16.03057568,-0.409373559,-1.138768468,0.013704408
1.73E+18,16.04057202,-0.384254169,-0.984788451,0.164069157
1.73E+18,16.05056885,-0.337135859,-0.57763213,0.363867507
1.73E+18,16.0605647,-0.306317527,-0.261471839,0.470236754
1.73E+18,16.07056104,-0.245056126,-0.052434536,0.467118038
1.73E+18,16.08055786,-0.15170798,0.10685294,0.445062858
1.73E+18,16.09055396,0.040261868,0.311318697,0.524467234
1.73E+18,16.10055103,0.255332167,0.639154228,0.817378752
1.73E+18,16.11054663,0.365929408,1.009741106,1.248599839
1.73E+18,16.12054272,0.465253705,1.528963717,1.757189997
1.73E+18,16.13053979,0.464362894,2.045603327,2.289793776
1.73E+18,16.14053589,0.361711205,2.129871509,2.59819074
1.73E+18,16.15053271,0.109635264,1.51800627,2.387011164
1.73E+18,16.16052905,-0.146927906,0.826781663,1.929289316
1.73E+18,16.1705249,-0.114441203,0.403425902,1.560162281
1.73E+18,16.18052173,0.013611469,0.050884384,1.287143505
1.73E+18,16.19051782,0.085235274,-0.563374472,0.915851985
1.73E+18,16.20051489,0.008274492,-1.29174603,0.441169358
1.73E+18,16.21051074,-0.102843412,-1.944454736,-0.155416479
1.73E+18,16.22050806,-0.101162034,-2.345621461,-0.673593381
1.73E+18,16.23050439,0.104496147,-2.273435346,-0.993575569
1.73E+18,16.24050049,0.353196475,-1.942535751,-1.008912546
1.73E+18,16.25049731,0.416354942,-1.662166319,-0.966368997
1.73E+18,16.26049365,0.287995396,-1.430864578,-1.001717666
1.73E+18,16.27049048,0.034788259,-1.351443251,-1.022646473
1.73E+18,16.28048657,-0.289158303,-1.285502752,-0.976943291
1.73E+18,16.29048242,-0.576450519,-1.248718205,-1.002287283
1.73E+18,16.30047949,-0.746648388,-1.14580845,-0.954472808
1.73E+18,16.31047534,-0.812347187,-0.840876824,-0.897747297
1.73E+18,16.32047266,-0.708785544,-0.336760596,-0.880946092
1.73E+18,16.33046851,-0.555073677,0.198050045,-0.87523882
1.73E+18,16.34046436,-0.514869092,0.644141369,-0.811985076
1.73E+18,16.35046143,-0.560559999,1.025943468,-0.715943453
1.73E+18,16.36045752,-0.561065026,1.506764745,-0.479218518
1.73E+18,16.37045459,-0.629967298,2.013624718,-0.15703619
1.73E+18,16.38045068,-0.747649236,2.264576332,0.069573595
1.73E+18,16.39044751,-0.82311788,2.329583934,0.139569214
1.73E+18,16.4004436,-0.704990974,2.617369195,0.13533786
1.73E+18,16.41043945,-0.399338633,2.965832504,0.215747906
1.73E+18,16.42043652,-0.067886518,3.208273479,0.396932156
1.73E+18,16.43043262,0.144898008,3.326526934,0.563597175
1.73E+18,16.44042944,0.268890591,3.19099209,0.49710138
1.73E+18,16.45042529,0.334571708,2.758717109,0.428745637
1.73E+18,16.46042139,0.189692843,1.86539289,0.225199333
1.73E+18,16.47041846,0.009917291,0.915758754,-0.01541355
1.73E+18,16.48041455,-0.015234686,0.26039515,-0.249684078
1.73E+18,16.49041162,0.17071181,0.001595745,-0.358923621
1.73E+18,16.50040771,0.356334919,-0.193653856,-0.493435844
1.73E+18,16.51040332,0.411094245,-0.854337778,-0.740918905
1.73E+18,16.52040039,0.318899069,-1.721395338,-1.097233804
1.73E+18,16.53039648,0.211642809,-2.325202358,-1.150129236
1.73E+18,16.54039331,0.217136876,-2.656353298,-1.140816048
1.73E+18,16.55038965,0.278487271,-2.999227993,-0.990564697
1.73E+18,16.56038647,0.448121076,-3.271177971,-1.074731465
1.73E+18,16.57038232,0.733129274,-3.316299554,-1.237422319
1.73E+18,16.58037866,1.089835072,-3.139887925,-1.23046154
1.73E+18,16.59037549,1.460941152,-2.813092843,-1.062799035
1.73E+18,16.60037158,1.546197176,-2.365184825,-0.617593554
1.73E+18,16.61036865,1.23738111,-1.862683631,-0.112949503
1.73E+18,16.62036426,0.701710053,-1.493950856,0.21252456
1.73E+18,16.63036035,0.252710148,-1.257293141,0.581504295
1.73E+18,16.64035742,-0.113654436,-1.07597562,0.992603217
1.73E+18,16.65035352,-0.288467106,-1.052869469,1.155699729
1.73E+18,16.66035034,-0.250967688,-0.952055225,1.352291392
1.73E+18,16.67034668,-0.146044109,-0.416353188,1.569053444
1.73E+18,16.68034253,0.101229693,0.615484014,1.858041358
1.73E+18,16.69033936,0.263606805,1.697808126,2.12154178
1.73E+18,16.70033545,0.139054104,2.475136315,2.148888052
1.73E+18,16.71033252,-0.309788418,2.67352772,1.987037448
1.73E+18,16.72032837,-0.941715179,2.188124961,1.646156557
1.73E+18,16.73032446,-1.430133341,1.459239024,1.109597026
1.73E+18,16.74032129,-1.763612431,0.609198066,0.287919993
1.73E+18,16.75031738,-1.778260258,-0.193866037,-0.497490964
1.73E+18,16.76031445,-1.446808727,-0.540435495,-0.891984495
1.73E+18,16.77031055,-1.005639662,-0.49685179,-1.167234684
1.73E+18,16.78030762,-0.569353547,-0.225750537,-1.384770058
1.73E+18,16.79030347,-0.199677354,0.020885552,-1.482839387
1.73E+18,16.80029932,0.03727613,0.131347329,-1.551579454
1.73E+18,16.81029663,0.069385086,0.065154317,-1.57200411
1.73E+18,16.82029248,-0.020907325,-0.010078911,-1.53951083
1.73E+18,16.83028955,-0.170323833,-0.205254862,-1.408240366
1.73E+18,16.8402854,-0.351285673,-0.703803518,-1.17403472
1.73E+18,16.85028149,-0.40334933,-1.196999708,-0.931796281
1.73E+18,16.86027832,-0.409580333,-1.393502523,-0.705845545
1.73E+18,16.87027466,-0.386695132,-1.312329968,-0.382934903
1.73E+18,16.88027148,-0.37685646,-1.046473631,-0.036845337
1.73E+18,16.89026733,-0.457993943,-0.547629791,0.421830743
1.73E+18,16.90026343,-0.645131841,-0.104453477,0.793254072
1.73E+18,16.9102605,-0.908000687,0.375189403,1.178645136
1.73E+18,16.92025635,-1.174732346,0.803503663,1.555312211
1.73E+18,16.93025366,-1.356890848,1.072397177,1.857316551
1.73E+18,16.94024951,-1.391662887,1.114410856,2.045160843
1.73E+18,16.95024536,-1.301634533,0.968058266,2.159132091
1.73E+18,16.96024243,-1.127863043,0.825746475,2.150010919
1.73E+18,16.97023853,-0.814736274,0.696151542,2.040439076
1.73E+18,16.98023535,-0.525193795,0.578428249,1.891957948
1.73E+18,16.99023169,-0.323174846,0.358932096,1.568343834
1.73E+18,17.00022852,-0.25901334,0.060329089,1.089081769
1.73E+18,17.01022437,-0.321341786,-0.325377617,0.537847817
1.73E+18,17.02022046,-0.276985927,-0.772116591,0.024776129
1.73E+18,17.03021753,-0.040368543,-1.03265378,-0.371620897
1.73E+18,17.04021338,0.329636736,-1.019299793,-0.62353668
1.73E+18,17.05021069,0.718343354,-0.763155871,-0.780854025
1.73E+18,17.0602063,1.013677861,-0.540668135,-0.95945498
1.73E+18,17.07020239,1.070938941,-0.549853312,-1.141373974
1.73E+18,17.08019946,0.977415292,-0.801437378,-1.35133716
1.73E+18,17.09019556,0.853970991,-0.976927216,-1.492229439
1.73E+18,17.10019263,0.723588853,-0.966117653,-1.337640058
1.73E+18,17.11018872,0.584605915,-0.849551129,-1.160110824
1.73E+18,17.12018433,0.507771681,-0.504655157,-1.092656413
1.73E+18,17.13018164,0.689911917,0.066841832,-0.912005247
1.73E+18,17.14017749,0.85856431,0.609715368,-0.591319295
1.73E+18,17.15017456,0.88515538,1.037809847,-0.38149581
1.73E+18,17.16017065,0.722877052,1.114135547,-0.389205069
1.73E+18,17.1701665,0.506902059,1.238749184,-0.254339795
1.73E+18,17.18016333,0.250599732,1.301044604,-0.10454174
1.73E+18,17.19015967,0.052678282,1.25910925,-0.046640463
1.73E+18,17.20015649,-0.036855274,1.343527071,0.089493224
1.73E+18,17.21015259,-0.012113486,1.765140956,0.363635744
1.73E+18,17.22014819,-0.026475188,2.066434518,0.616334786
1.73E+18,17.23014551,-0.021464959,2.01625799,0.837664876
1.73E+18,17.2401416,-0.071476506,1.782372077,0.812823865
1.73E+18,17.25013867,-0.144018156,1.447325299,0.638453971
1.73E+18,17.26013452,-0.12824761,1.031509286,0.389293624
1.73E+18,17.27013159,-0.084748514,0.413773109,-0.035409752
1.73E+18,17.28012744,-0.02757292,-0.213713478,-0.361238912
1.73E+18,17.29012354,0.076418931,-0.686912005,-0.583066722
1.73E+18,17.30012061,0.174001645,-1.024488593,-0.547863015
1.73E+18,17.3101167,0.267445653,-1.362704065,-0.541933917
1.73E+18,17.32011377,0.364608388,-1.75898068,-0.862398043
1.73E+18,17.33010986,0.42927273,-2.111218247,-0.893709127
1.73E+18,17.34010547,0.482154425,-2.248527115,-1.079303595
1.73E+18,17.35010254,0.666138535,-2.234379347,-1.258010641
1.73E+18,17.36009863,0.836980401,-1.993122029,-1.298304366
1.73E+18,17.37009546,0.90188425,-1.445397546,-1.048496076
1.73E+18,17.3800918,0.851456378,-0.784620684,-0.694462858
1.73E+18,17.39008765,0.659369918,-0.112825584,-0.249231366
1.73E+18,17.40008447,0.42973684,0.658532882,0.273172213
1.73E+18,17.41008081,0.226035492,1.540088923,0.889567497
1.73E+18,17.42007764,0.024137539,2.390746551,1.365973003
1.73E+18,17.43007373,-0.194097508,2.829309818,1.586529479
1.73E+18,17.44006958,-0.500578701,2.847217231,1.577709044
1.73E+18,17.45006641,-0.732850311,2.660369548,1.429446528
1.73E+18,17.4600625,-0.840674725,2.422190906,1.273292382
1.73E+18,17.47005957,-0.793010619,2.244801372,1.238321314
1.73E+18,17.48005566,-0.896848448,2.03661338,1.284964407
1.73E+18,17.49005176,-1.069862544,1.765939997,1.212721301
1.73E+18,17.50004858,-1.035195573,1.536806248,1.044601407
1.73E+18,17.51004468,-0.84468323,1.2004139,0.965227134
1.73E+18,17.5200415,-0.659319357,0.6168214,0.691591102
1.73E+18,17.5300376,-0.458053565,0.063856094,0.266760593
1.73E+18,17.54003467,-0.319493527,-0.385253117,-0.063774261
1.73E+18,17.55003052,-0.248776754,-0.869188142,-0.290745572
1.73E+18,17.56002661,-0.248712457,-1.417750829,-0.458161701
1.73E+18,17.57002344,-0.370777432,-2.008716488,-0.600258096
1.73E+18,17.58001953,-0.588892944,-2.558963768,-0.766123781
1.73E+18,17.5900166,-0.746726568,-3.054186495,-0.863104146
1.73E+18,17.6000127,-0.738569273,-3.507190375,-0.786808841
1.73E+18,17.61000854,-0.645762248,-3.793251296,-0.717910077
1.73E+18,17.62000562,-0.463688356,-3.717945003,-0.540905159
1.73E+18,17.63000146,-0.219710088,-3.312238296,-0.255288474
1.73E+18,17.63999878,0.050198594,-2.645688112,0.199540868
1.73E+18,17.64999463,0.24346608,-1.885195907,0.878949365
1.73E+18,17.65999048,0.231142167,-1.471271407,1.412821556
1.73E+18,17.66998755,-0.054439008,-1.422258077,1.699386335
1.73E+18,17.67998364,-0.438379727,-1.550652987,1.770740676
1.73E+18,17.68998047,-0.655361267,-1.664406792,1.774781183
1.73E+18,17.69997681,-0.412032987,-1.367207221,1.851848933
1.73E+18,17.70997266,0.156076551,-0.601090747,2.218008935
1.73E+18,17.71996948,0.698715109,0.264833424,2.445644847
1.73E+18,17.72996533,0.96804526,0.944558148,2.406536826
1.73E+18,17.73996265,0.677263448,0.906792773,2.086265592
1.73E+18,17.7499585,0.062696841,0.385769834,1.631185198
1.73E+18,17.75995459,-0.463904775,0.189023858,1.33330086
1.73E+18,17.76995166,-0.67348729,0.470302221,1.296264092
1.73E+18,17.77994751,-0.562372894,0.925685689,1.333884505
1.73E+18,17.78994458,-0.403732776,1.355748254,1.262648823
1.73E+18,17.79994067,-0.323115225,1.583226054,1.084912959
1.73E+18,17.80993652,-0.363147522,1.63411336,0.780209297
1.73E+18,17.81993384,-0.458038805,1.650761713,0.426231901
1.73E+18,17.82992944,-0.604394465,1.244305064,0.110408878
1.73E+18,17.83992651,-0.892265943,0.490196423,-0.204456697
1.73E+18,17.84992261,-1.113081654,-0.102679453,-0.595009381
1.73E+18,17.8599187,-1.052013291,-0.431336238,-1.021359356
1.73E+18,17.86991553,-0.745265702,-0.405645332,-1.198155308
1.73E+18,17.87991187,-0.259099995,-0.093865448,-1.176457271
1.73E+18,17.88990845,0.299720613,0.338694779,-1.124770922
1.73E+18,17.89990454,0.649878451,0.574134936,-1.015767527
1.73E+18,17.90990161,0.564760666,0.324751594,-0.92519849
1.73E+18,17.91989771,0.21721301,-0.043438744,-0.907111337
1.73E+18,17.92989355,-0.160575177,-0.258038942,-0.868040141
1.73E+18,17.93989087,-0.348836965,-0.199373987,-0.735886756
1.73E+18,17.94988647,-0.32915962,-0.003458031,-0.602845482
1.73E+18,17.95988354,-0.165157829,0.098919224,-0.621930706
1.73E+18,17.96987964,0.005044278,0.085003511,-0.652145812
1.73E+18,17.97987573,0.072936495,0.142511113,-0.530482256
1.73E+18,17.98987256,0.048289691,0.150025726,-0.398168712
1.73E+18,17.99986865,-0.132248224,-0.141895027,-0.383674323
1.73E+18,18.00986548,-0.350278396,-0.655538377,-0.448600092
1.73E+18,18.01986157,-0.346659036,-1.010140335,-0.655888505
1.73E+18,18.02985767,0.148710552,-0.948317792,-0.983906992
1.73E+18,18.03985474,0.822969265,-0.623296734,-1.240050914
1.73E+18,18.04985034,1.228206747,-0.364487392,-1.141674711
1.73E+18,18.05984766,1.141104802,-0.261482945,-0.987138229
1.73E+18,18.06984351,0.857002614,-0.257817992,-0.898756181
1.73E+18,18.0798396,0.696225484,-0.294548179,-0.767387225
1.73E+18,18.08983667,0.741380677,-0.33270986,-0.694361152
1.73E+18,18.09983252,0.905749255,-0.215552384,-0.52190206
1.73E+18,18.10982959,0.947011532,0.264834009,-0.354857979
1.73E+18,18.11982568,0.856421599,0.924372269,-0.022291327
1.73E+18,18.12982153,0.670034666,1.656954722,0.361453724
1.73E+18,18.13981885,0.393811832,2.187136534,0.771071466
1.73E+18,18.1498147,0.108622872,2.559146139,1.067819201
1.73E+18,18.15981177,-0.16313436,2.629128022,1.135793836
1.73E+18,18.16980762,-0.6312512,2.082878287,1.085091238
1.73E+18,18.17980371,-1.174400338,0.942013139,0.908362799
1.73E+18,18.18980054,-1.457096167,-0.133477327,0.45631695
1.73E+18,18.19979688,-1.47291216,-0.801689892,0.093816932
1.73E+18,18.2097937,-1.272129037,-1.151781679,-0.069479779
1.73E+18,18.21978955,-1.0563351,-1.316739601,-0.140619016
1.73E+18,18.22978564,-0.900755246,-1.421477741,-0.194392691
1.73E+18,18.23978247,-0.821828425,-1.497926774,-0.285808992
1.73E+18,18.24977832,-0.76127751,-1.43212773,-0.186080205
1.73E+18,18.25977539,-0.69792352,-1.115246138,0.036309915
1.73E+18,18.26977124,-0.710111094,-0.889067731,0.229441501
1.73E+18,18.27976733,-0.765518362,-0.997611692,0.265853123
1.73E+18,18.28976416,-0.755499219,-1.15478846,0.310561448
1.73E+18,18.2997605,-0.660641837,-1.035695632,0.452388086
1.73E+18,18.30975732,-0.546550179,-0.803343504,0.530552107
1.73E+18,18.31975317,-0.455979827,-0.639859746,0.531194204
1.73E+18,18.32974927,-0.381633173,-0.393546898,0.634972851
1.73E+18,18.33974634,-0.245544056,-0.209538238,0.606055384
1.73E+18,18.34974219,-0.050573711,0.000314473,0.540756398
1.73E+18,18.3597395,0.121368664,0.278998728,0.499196599
1.73E+18,18.36973535,0.261463217,0.518596004,0.4930863
1.73E+18,18.3797312,0.455209573,0.730327368,0.470573147
1.73E+18,18.38972827,0.554197186,0.834646405,0.420072209
1.73E+18,18.39972437,0.440895509,0.815145586,0.346194195
1.73E+18,18.40972119,0.219208422,0.575434912,0.203486683
1.73E+18,18.41971753,-0.028685412,0.152393624,-0.136608611
1.73E+18,18.42971313,0.029517186,-0.210258369,-0.38175826
1.73E+18,18.43971021,0.192087921,-0.568556843,-0.550014348
1.73E+18,18.4497063,0.227234346,-0.934701355,-0.806144825
1.73E+18,18.45970337,0.232887549,-1.271719141,-1.07873807
1.73E+18,18.46969922,0.176613143,-1.442570798,-1.234488019
1.73E+18,18.47969531,0.143779818,-1.691386569,-1.380389944
1.73E+18,18.48969214,0.048934127,-2.000736011,-1.418022924
1.73E+18,18.49968823,-0.051339727,-2.051399446,-1.352993403
1.73E+18,18.5096853,-0.13266338,-1.824658144,-1.080036878
1.73E+18,18.5196814,-0.190883953,-1.259286945,-0.637257747
1.73E+18,18.529677,-0.236665899,-0.552513471,-0.042817397
1.73E+18,18.53967432,-0.411131654,-0.018574937,0.485824492
1.73E+18,18.54967017,-0.612000264,0.468375637,1.009325219
1.73E+18,18.55966748,-0.827909936,0.958139514,1.600221027
1.73E+18,18.56966333,-0.947587578,1.275803195,2.200613856
1.73E+18,18.57966016,-0.857860838,1.630443732,2.678505509
1.73E+18,18.58965625,-0.585651332,2.172601813,3.291345438
1.73E+18,18.59965234,-0.386812913,2.657882992,4.052716471
1.73E+18,18.60964917,-0.379035557,2.87059986,4.564243852
1.73E+18,18.61964526,-0.457795206,2.816832029,4.856825407
1.73E+18,18.62964233,-0.497195635,2.214384607,4.703913896
1.73E+18,18.63963843,-0.395074984,1.270844696,4.11133028
1.73E+18,18.64963403,-0.125023533,0.220118669,2.845622655
1.73E+18,18.65963135,0.254959388,-0.736212334,1.437951029
1.73E+18,18.6696272,0.649719754,-1.513952611,0.272291924
1.73E+18,18.67962427,0.919185075,-2.11312145,-0.747686791
1.73E+18,18.68962036,0.99675829,-2.313587324,-1.432747615
1.73E+18,18.69961621,0.914721812,-2.240465973,-1.938359342
1.73E+18,18.70961328,0.634310149,-2.218901207,-2.270737193
1.73E+18,18.71960938,0.268958395,-2.271736725,-2.455493456
1.73E+18,18.7296062,0.078286186,-2.463661565,-2.528952368
1.73E+18,18.73960254,-0.033141368,-2.547261055,-2.623740776
1.73E+18,18.74959839,0.075881463,-2.47465233,-2.64332109
1.73E+18,18.75959497,0.133587802,-2.374178863,-2.613704827
1.73E+18,18.76959131,0.012667758,-2.330515662,-2.571460554
1.73E+18,18.77958813,-0.094786946,-2.174749931,-2.351731469
1.73E+18,18.78958423,-0.223867208,-1.873691347,-2.136975496
1.73E+18,18.79958057,-0.259115047,-1.457769536,-1.776132598
1.73E+18,18.80957739,-0.227938695,-0.915479937,-1.415823076
1.73E+18,18.81957324,-0.193326816,-0.21417525,-1.018927744
1.73E+18,18.82957031,-0.221094528,0.509203906,-0.567804271
1.73E+18,18.83956641,-0.286753287,1.232144671,-0.061868135
1.73E+18,18.84956226,-0.449250665,1.856995648,0.454730265
1.73E+18,18.85955933,-0.664692282,2.536585347,1.016139575
1.73E+18,18.86955518,-0.780411688,3.32159883,1.638764693
1.73E+18,18.879552,-0.780781105,4.135252131,2.276440373
1.73E+18,18.88954834,-0.632478404,4.926765497,2.838649601
1.73E+18,18.89954443,-0.291015913,5.600832048,3.22331878
1.73E+18,18.90954126,0.02942001,6.077121527,3.33550256
1.73E+18,18.91953735,0.112449006,5.965622223,3.160037856
1.73E+18,18.92953418,-0.017736878,4.983166014,2.585273975
1.73E+18,18.93953027,-0.012685294,3.760064481,1.909070411
1.73E+18,18.94952637,0.111398474,2.581659584,1.275005908
1.73E+18,18.95952319,0.118236942,1.277660806,0.674822631
1.73E+18,18.96951929,0.207605662,-0.199076465,0.239770002
1.73E+18,18.97951611,0.479646095,-1.503181041,0.072089961
1.73E+18,18.98951221,0.680438425,-2.424588031,-0.225919464
1.73E+18,18.9995083,0.820076174,-3.128970225,-0.978751801
1.73E+18,19.00950537,1.041959222,-3.808929342,-1.533354646
1.73E+18,19.01950146,1.264795333,-4.30220678,-1.844848991
1.73E+18,19.02949854,1.504126798,-4.591049441,-2.095812296
1.73E+18,19.03949414,1.749208643,-4.771857844,-2.403520693
1.73E+18,19.04949023,1.815453678,-4.924880414,-2.726962958
1.73E+18,19.0594873,1.741404253,-4.934803257,-2.907444028
1.73E+18,19.0694834,1.731965393,-4.584064989,-3.001997166
1.73E+18,19.07947925,1.610431602,-3.862701264,-2.753362889
1.73E+18,19.08947632,1.437724965,-3.114185913,-2.412619068
1.73E+18,19.09947241,1.273319123,-2.355469486,-2.094958309
1.73E+18,19.10946924,1.07668216,-1.688402584,-1.47999715
1.73E+18,19.11946533,0.709673725,-0.897216551,-0.615216011
1.73E+18,19.12946143,0.262454859,-0.022828502,-0.040781215
1.73E+18,19.13945801,-0.069199355,1.150347847,0.611556612
1.73E+18,19.1494541,-0.328589273,2.69209272,1.658789536
1.73E+18,19.15945117,-0.551261133,4.217209699,2.63588451
1.73E+18,19.16944727,-0.794840172,5.298976761,3.39331762
1.73E+18,19.17944336,-1.299115097,5.622471049,3.828136147
1.73E+18,19.18944043,-1.957030432,5.197945075,3.975484763
1.73E+18,19.19943628,-2.359476384,4.291363899,3.777957573
1.73E+18,19.20943335,-2.328233689,3.341594739,3.339916577
1.73E+18,19.2194292,-1.943881028,2.523186937,2.876758675
1.73E+18,19.22942529,-1.509996567,1.612459747,2.382334112
1.73E+18,19.23942261,-1.026877534,0.602505875,1.652988449
1.73E+18,19.24941846,-0.446959339,-0.151640176,0.894801306
1.73E+18,19.25941528,0.018801731,-0.662297788,0.401302627
1.73E+18,19.26941162,0.269697231,-1.182573708,0.091727851
1.73E+18,19.27940747,0.424378089,-1.719571045,-0.268673733
1.73E+18,19.28940454,0.395761067,-2.265390571,-0.665156392
1.73E+18,19.29940039,0.255967104,-2.699218042,-0.981248587
1.73E+18,19.30939746,0.268425603,-2.981861848,-1.107466444
1.73E+18,19.31939331,0.255717805,-3.125360218,-1.140878592
1.73E+18,19.32938965,0.084023999,-3.244248463,-1.12174193
1.73E+18,19.33938647,-0.157432788,-3.260827842,-1.248683426
1.73E+18,19.34938257,-0.340882645,-3.021880555,-1.365493111
1.73E+18,19.35937964,-0.374932214,-2.799388727,-1.364869134
1.73E+18,19.36937549,-0.499172341,-2.800469508,-1.14315209
1.73E+18,19.37937134,-0.845012901,-3.048299775,-0.879142549
1.73E+18,19.38936865,-1.021882064,-2.924946951,-0.412027142
1.73E+18,19.3993645,-0.96330128,-2.057382612,0.428761127
1.73E+18,19.40936182,-0.707391898,-0.725504478,1.587772757
1.73E+18,19.41935742,-0.373311919,0.526664159,2.376240472
1.73E+18,19.42935352,-0.157900551,1.450186533,2.64712399
1.73E+18,19.43935034,-0.006645868,2.012216605,2.52720231
1.73E+18,19.44934668,0.212691003,2.167456267,2.111832872
1.73E+18,19.45934351,0.359502005,1.828120267,1.620134227
1.73E+18,19.46933936,0.403477779,1.433246504,1.217771278
1.73E+18,19.47933545,0.584662321,1.343155315,0.90185444
1.73E+18,19.48933252,0.994680754,1.605753527,0.845830647
1.73E+18,19.49932837,1.41037051,1.965329766,0.905549203
1.73E+18,19.50932568,1.729597933,2.315951715,0.947498
1.73E+18,19.51932129,1.66402393,2.417129531,1.115492514
1.73E+18,19.52931738,0.992210856,2.102591873,1.286161216
1.73E+18,19.53931445,0.073587653,1.303024964,1.293459556
1.73E+18,19.54931055,-0.582002454,0.141256729,0.936007761
1.73E+18,19.55930762,-0.803968943,-0.999706034,0.395650008
1.73E+18,19.56930371,-0.674784929,-1.850084846,-0.162464352
1.73E+18,19.57929932,-0.332748584,-2.364547696,-0.663883888
1.73E+18,19.58929663,0.18517405,-2.556504684,-1.146784601
1.73E+18,19.59929248,0.810622117,-2.373452887,-1.431530348
1.73E+18,19.60928955,1.252243456,-1.915565911,-1.468900878
1.73E+18,19.61928564,1.4127859,-1.370758192,-1.341848616
1.73E+18,19.62928149,1.143075664,-1.013422425,-1.17460609
1.73E+18,19.63927832,0.57728434,-0.956787515,-1.010630456
1.73E+18,19.64927466,-0.0202455,-0.950361865,-0.614252719
1.73E+18,19.65927051,-0.538911793,-1.077525772,-0.307590908
1.73E+18,19.66926758,-0.812726542,-1.126820841,-0.124336866
1.73E+18,19.67926367,-0.69844053,-0.797869457,0.119316115
1.73E+18,19.6892605,-0.373829659,-0.176962833,0.379771471
1.73E+18,19.69925635,0.094088297,0.554583263,0.579779371
1.73E+18,19.70925269,0.654250821,1.463320156,0.861959652
1.73E+18,19.71924951,0.965168097,2.158112684,1.239855684
1.73E+18,19.72924561,0.763294403,2.017764887,1.428586988
1.73E+18,19.73924268,0.180504013,1.311518652,1.259976388
1.73E+18,19.74923853,-0.401646325,0.566243306,0.89443598
1.73E+18,19.75923438,-0.731796856,-0.14984394,0.592742606
1.73E+18,19.76923169,-0.777262284,-0.815048555,0.336752121
1.73E+18,19.77922754,-0.755508717,-1.294696112,0.000424655
1.73E+18,19.78922461,-0.557224864,-1.444977859,-0.285400119
1.73E+18,19.79922046,-0.252652573,-1.256223466,-0.304996216
1.73E+18,19.80921655,0.005638298,-1.004926984,-0.029313773
1.73E+18,19.81921338,0.217002729,-0.797474905,0.458855236
1.73E+18,19.82920972,0.2127062,-0.528293807,0.768615598
1.73E+18,19.83920654,0.197487735,-0.110597971,1.009592053
1.73E+18,19.84920239,0.368433499,0.394175259,1.329189333
1.73E+18,19.85919849,0.535409045,0.774449418,1.554606693
1.73E+18,19.86919556,0.360983476,0.729949767,1.45936265
1.73E+18,19.87919141,-0.130950147,0.224905318,0.942429611
1.73E+18,19.88918872,-0.538459227,-0.249594354,0.341637262
1.73E+18,19.89918433,-0.737620009,-0.498419477,-0.088891459
1.73E+18,19.90918042,-0.816510444,-0.924017464,-0.443410707
1.73E+18,19.91917749,-0.92992172,-1.404792563,-0.784249805
1.73E+18,19.92917358,-0.889838423,-1.59292561,-1.177784135
1.73E+18,19.93917065,-0.712209235,-1.363145963,-1.334757196
1.73E+18,19.94916675,-0.379639953,-0.696249157,-1.273815529
1.73E+18,19.95916235,-0.017902883,0.048543958,-1.20199474
1.73E+18,19.96915942,0.178585466,0.651788084,-1.240142099
1.73E+18,19.97915552,0.155007899,0.778121969,-1.272557053
1.73E+18,19.98915161,-0.079467066,0.685380557,-1.443511293
1.73E+18,19.99914844,-0.304734788,0.380669881,-1.496984233
1.73E+18,20.00914453,-0.249927824,-0.04686755,-1.591654859
1.73E+18,20.01914136,0.034465603,-0.38597091,-1.70177323
1.73E+18,20.02913745,0.372109265,-0.469096937,-1.816089345
1.73E+18,20.03913354,0.827280552,-0.218124865,-1.767756691
1.73E+18,20.04913062,1.111607489,-0.009583821,-1.286079967
1.73E+18,20.05912622,1.271707743,0.321909649,-0.790113728
1.73E+18,20.06912354,1.275247023,0.785127464,-0.371866981
1.73E+18,20.07911938,0.943552478,1.066189554,-0.025759003
1.73E+18,20.08911548,0.542441867,1.247937868,0.573478225
1.73E+18,20.09911255,0.057142568,1.399127962,1.056966383
1.73E+18,20.10910864,-0.265498026,1.332556764,1.303371586
1.73E+18,20.11910571,-0.408518842,1.093061194,1.455062615
1.73E+18,20.12910156,-0.409265861,0.856670021,1.660809352
1.73E+18,20.13909741,-0.399746922,0.667616937,1.799988982
1.73E+18,20.14909473,-0.409208577,0.554165914,1.841715662
1.73E+18,20.15909058,-0.443747391,0.387548534,1.856437138
1.73E+18,20.16908765,-0.440868329,0.231834825,2.027804343
1.73E+18,20.1790835,-0.458247626,0.014672668,1.965154702
1.73E+18,20.18907959,-0.639408787,-0.305778014,1.79505854
1.73E+18,20.19907642,-0.851821704,-0.664694912,1.509509368
1.73E+18,20.20907275,-1.00469376,-1.112407115,1.105319495
1.73E+18,20.21906836,-1.062939028,-1.633032579,0.67569503
1.73E+18,20.22906543,-1.045562069,-2.082672536,0.259298002
1.73E+18,20.23906128,-0.923502646,-2.321751925,0.053643327
1.73E+18,20.24905859,-0.749463153,-2.399614333,-0.169138131
1.73E+18,20.25905444,-0.655360097,-2.432990533,-0.441065897
1.73E+18,20.26905054,-0.653585489,-2.554404497,-0.662387804
1.73E+18,20.27904761,-0.63064885,-2.481849548,-0.744959412
1.73E+18,20.28904346,-0.592506166,-2.263628238,-0.920267464
1.73E+18,20.29904053,-0.506533226,-1.996810362,-0.92061087
1.73E+18,20.30903662,-0.360864818,-1.712132419,-0.653092737
1.73E+18,20.31903247,-0.306861425,-1.437626912,-0.454421638
1.73E+18,20.32902954,-0.36036096,-1.310797936,-0.467505576
1.73E+18,20.33902539,-0.372529537,-1.297143505,-0.505680116
1.73E+18,20.34902246,-0.429823203,-1.26237322,-0.557046438
1.73E+18,20.35901831,-0.418532871,-1.025354855,-0.392222371
1.73E+18,20.36901465,-0.485696774,-0.585723082,-0.072361472
1.73E+18,20.37901147,-0.583683978,0.026447277,0.480777145
1.73E+18,20.38900732,-0.728657681,0.692950116,0.878146524
1.73E+18,20.39900439,-0.841198019,1.452204303,1.255942018
1.73E+18,20.40900049,-0.994892204,2.139729471,1.562980846
1.73E+18,20.41899634,-1.182877951,2.537460961,1.683572095
1.73E+18,20.42899365,-1.339832015,2.497336456,1.441219383
1.73E+18,20.43898926,-1.386988027,2.05766026,1.026246251
1.73E+18,20.44898535,-1.097838784,1.812668431,0.705752314
1.73E+18,20.45898242,-0.705294049,1.805449001,0.473562099
1.73E+18,20.46897852,-0.303942323,1.824572804,0.145906016
1.73E+18,20.47897559,-0.13340397,1.661432744,-0.228933551
1.73E+18,20.48897168,-0.139166625,1.051100122,-0.659229048
1.73E+18,20.49896729,-0.036856443,0.600327946,-0.896069719
1.73E+18,20.5089646,0.167068631,0.515952796,-0.860417391
1.73E+18,20.51896045,0.278640708,0.470757563,-0.765543643
1.73E+18,20.52895752,0.176980223,0.172164493,-0.828371855
1.73E+18,20.53895361,0.000219342,-0.239350608,-0.963845616
1.73E+18,20.54894946,-0.154518069,-0.539095771,-0.923617066
1.73E+18,20.55894629,-0.169146314,-0.705908966,-0.848537276
1.73E+18,20.56894263,-0.043642889,-0.814868522,-0.764990977
1.73E+18,20.57893945,-0.059063599,-0.769954445,-0.578570872
1.73E+18,20.58893555,-0.077850132,-0.479776152,-0.401923973
1.73E+18,20.59893164,0.001145663,-0.123251117,-0.162567812
1.73E+18,20.60892847,-0.020599867,0.02061258,0.03596534
1.73E+18,20.61892432,-0.141318688,-0.169257666,0.108618196
1.73E+18,20.62892065,-0.254587048,-0.49030456,-0.092000238
1.73E+18,20.63891748,-0.175502405,-0.636482379,-0.188190914
1.73E+18,20.64891357,0.01131386,-0.568621141,-0.120684189
1.73E+18,20.65891064,0.250654384,-0.272737914,0.04610241
