time,seconds_elapsed,z,y,x
1726225707799020800,0.020020751953125,0.01786448433995247,-0.022246183827519417,-0.08168527483940125
1726225707809016800,0.030016845703125,0.08612237125635147,-0.045096371322870255,-0.10527076572179794
1726225707819014000,0.040013916015625,0.17516382038593292,-0.0707511380314827,-0.12363751977682114
1726225707829009700,0.050009765625,0.26676857471466064,-0.1064835637807846,-0.14533428847789764
1726225707839007000,0.060007080078125,0.3741355240345001,-0.13484729826450348,-0.15967461466789246
1726225707849002800,0.070002685546875,0.5066608190536499,-0.17865923047065735,-0.16443341970443726
1726225707859000000,0.08,0.6640839576721191,-0.21056443452835083,-0.16257479786872864
1726225707868995800,0.089995849609375,0.8257783651351929,-0.20926161110401154,-0.15752410888671875
1726225707878993000,0.099992919921875,0.9532817006111145,-0.2136417031288147,-0.16844093799591064
1726225707888989000,0.109989013671875,1.0386937856674194,-0.22656522691249847,-0.19392339885234833
1726225707898986000,0.119986083984375,1.082426905632019,-0.23653317987918854,-0.20834174752235413
1726225707908981800,0.129981689453125,1.0832226276397705,-0.2103457748889923,-0.2132134735584259
1726225707918978000,0.13997802734375,1.046636939048767,-0.17079490423202515,-0.2148238867521286
1726225707928974800,0.149974853515625,0.9673022031784058,-0.1473332643508911,-0.24163872003555298
1726225707938971000,0.159970947265625,0.8553543090820312,-0.11450500786304474,-0.2626790404319763
1726225707948968000,0.169968017578125,0.7428627014160156,0.006388657260686159,-0.274142324924469
1726225707958964000,0.1799638671875,0.6639817357063293,0.1951226145029068,-0.2752440869808197
1726225707968960800,0.189960693359375,0.5996645092964172,0.3075743317604065,-0.2674468755722046
1726225707978957000,0.19995703125,0.5087998509407043,0.344634085893631,-0.21755602955818176
1726225707988953900,0.209953857421875,0.4264354705810547,0.3407527804374695,-0.1297082006931305
1726225707998948900,0.219948974609375,0.40538185834884644,0.3643457293510437,-0.01906477101147175
1726225708008946000,0.22994580078125,0.44632449746131897,0.4698532521724701,0.09596168249845505
1726225708018942000,0.23994189453125,0.49840474128723145,0.6242002248764038,0.21383611857891083
1726225708028938800,0.249938720703125,0.5714821219444275,0.7363243699073792,0.3400143086910248
1726225708038935000,0.25993505859375,0.7290722727775574,0.7495325803756714,0.43791714310646057
1726225708048930800,0.269930908203125,0.9768685102462769,0.6542220115661621,0.4979506731033325
1726225708058927900,0.279927978515625,1.2972103357315063,0.5547777414321899,0.523686945438385
1726225708068924000,0.289923828125,1.6508032083511353,0.4618925452232361,0.5081346035003662
1726225708078921000,0.2999208984375,2.027773141860962,0.3823327124118805,0.46437060832977295
1726225708088916700,0.309916748046875,2.335801362991333,0.21819624304771423,0.36943957209587097
1726225708098913800,0.319913818359375,2.655374526977539,0.0542571134865284,0.24564065039157867
1726225708108909800,0.329909912109375,2.9175033569335938,-0.1707613617181778,0.12244495749473572
1726225708118907000,0.339906982421875,3.1360819339752197,-0.42461279034614563,-0.01600506529211998
1726225708128903000,0.34990283203125,3.349788188934326,-0.8097668886184692,-0.14536944031715393
1726225708138899700,0.359899658203125,3.5945489406585693,-1.1460418701171875,-0.3310985565185547
1726225708148895700,0.369895751953125,3.781259775161743,-1.386224389076233,-0.5393431186676025
1726225708158892800,0.379892822265625,3.9288272857666016,-1.5646017789840698,-0.7410243153572083
1726225708168888800,0.389888916015625,4.048498153686523,-1.8666462898254395,-0.93239426612854
1726225708178886000,0.399885986328125,4.195258617401123,-2.5059726238250732,-1.1556028127670288
1726225708188882000,0.4098818359375,4.279843807220459,-3.1640493869781494,-1.3165949583053589
1726225708198877700,0.419877685546875,4.278649806976318,-3.445772409439087,-1.305247187614441
1726225708208875000,0.429875,4.281277179718018,-3.4808268547058105,-1.1801263093948364
1726225708218870800,0.439870849609375,4.162256717681885,-3.504851818084717,-0.9877957105636597
1726225708228867800,0.449867919921875,3.9813199043273926,-3.5839202404022217,-0.7759774923324585
1726225708238864000,0.45986376953125,3.7177951335906982,-3.6084401607513428,-0.5976242423057556
1726225708248861000,0.46986083984375,3.387478828430176,-3.8297648429870605,-0.519951581954956
1726225708258856700,0.479856689453125,2.9601686000823975,-4.06956672668457,-0.3980541527271271
1726225708268854000,0.48985400390625,2.4125916957855225,-3.928067445755005,-0.17280958592891693
1726225708278849800,0.499849853515625,1.787011742591858,-3.6650407314300537,0.10747799277305603
1726225708288846800,0.509846923828125,1.1101632118225098,-3.5132575035095215,0.2864903509616852
1726225708298843000,0.5198427734375,0.4452568292617798,-3.1655030250549316,0.4202955663204193
1726225708308839700,0.529839599609375,-0.25561127066612244,-2.792595863342285,0.5081026554107666
1726225708318836000,0.5398359375,-0.9239683151245117,-2.590904474258423,0.40915021300315857
1726225708328832800,0.549832763671875,-1.5953831672668457,-2.4213287830352783,0.15450622141361237
1726225708338828800,0.559828857421875,-2.219475746154785,-2.1579864025115967,-0.17993700504302979
1726225708348825000,0.5698251953125,-2.771927833557129,-2.0064542293548584,-0.4864676594734192
1726225708358822000,0.57982177734375,-3.0060207843780518,-1.9658507108688354,-0.7760182619094849
1726225708368818000,0.58981787109375,-3.027702808380127,-1.9734662771224976,-0.9537341594696045
1726225708378815000,0.59981494140625,-2.939591884613037,-2.0477092266082764,-1.0846322774887085
1726225708388810800,0.609810791015625,-2.938263416290283,-2.3673648834228516,-0.9773052930831909
1726225708398807800,0.619807861328125,-2.680415153503418,-2.6461095809936523,-0.7058314085006714
1726225708408803800,0.629803955078125,-2.3609161376953125,-2.6138148307800293,-0.47656282782554626
1726225708418801000,0.63980078125,-2.013725996017456,-2.4022810459136963,-0.38558071851730347
1726225708428796700,0.649796630859375,-1.4714542627334595,-1.9578518867492676,-0.37891483306884766
1726225708438794000,0.6597939453125,-0.9854910373687744,-1.1839993000030518,-0.6239075064659119
1726225708448789800,0.669789794921875,-0.6924325227737427,-0.6048943996429443,-0.8165534138679504
1726225708458787000,0.679787109375,-0.5840157866477966,-0.38019153475761414,-1.09050714969635
1726225708468782800,0.689782958984375,-0.5295314788818359,-0.511521577835083,-1.4362678527832031
1726225708478780000,0.69977978515625,-0.4366436302661896,-0.7451716661453247,-1.8071284294128418
1726225708488776000,0.70977587890625,-0.3769398331642151,-0.7501541376113892,-2.1239383220672607
1726225708498772000,0.71977197265625,-0.4847579002380371,-0.6243075132369995,-2.3699963092803955
1726225708508768800,0.729768798828125,-0.6064448952674866,-0.3834669589996338,-2.435389518737793
1726225708518765000,0.73976513671875,-0.46653762459754944,-0.12849672138690948,-2.110011100769043
1726225708528761900,0.749761962890625,-0.224394753575325,-0.28607863187789917,-1.7175253629684448
1726225708538758000,0.7597578125,-0.07187418639659882,-0.5236600041389465,-1.4732239246368408
1726225708548755000,0.7697548828125,0.026577016338706017,-0.5930612087249756,-1.4398995637893677
1726225708558751000,0.7797509765625,-0.029641248285770416,-0.5208735466003418,-1.5676630735397339
1726225708568747800,0.789747802734375,-0.2915855050086975,-0.49076998233795166,-1.7781527042388916
1726225708578743800,0.799743896484375,-0.6328709125518799,-0.4999887943267822,-1.8089807033538818
1726225708588740900,0.809740966796875,-0.9749651551246643,-0.3546965718269348,-1.6628758907318115
1726225708598736600,0.819736572265625,-1.184489130973816,0.24196548759937286,-1.4015172719955444
1726225708608734000,0.82973388671875,-1.2350518703460693,1.0274161100387573,-1.2423827648162842
1726225708618729700,0.839729736328125,-1.169264554977417,1.83012056350708,-1.406636118888855
1726225708628727000,0.84972705078125,-0.9668323993682861,2.4401791095733643,-1.9103642702102661
1726225708638722800,0.859722900390625,-0.7941842079162598,2.490551471710205,-2.2764081954956055
1726225708648718800,0.86971875,-0.7052127718925476,2.4113001823425293,-2.5331871509552
1726225708658716000,0.8797158203125,-0.6427278518676758,1.955501914024353,-2.648108959197998
1726225708668712000,0.8897119140625,-0.6806491017341614,1.3437011241912842,-2.666154146194458
1726225708678708700,0.899708740234375,-0.8363257646560669,0.5884779095649719,-2.8941173553466797
1726225708688705000,0.909705078125,-1.112396001815796,0.045700374990701675,-3.383358955383301
1726225708698701800,0.919701904296875,-1.5113120079040527,-0.17164845764636993,-4.621715545654297
1726225708708697900,0.92969775390625,-2.1277916431427,-0.21974940598011017,-6.140178680419922
1726225708718695000,0.93969482421875,-2.5496199131011963,-0.36608371138572693,-6.97401237487793
1726225708728691000,0.94969091796875,-2.554241418838501,-0.06540963053703308,-6.807582855224609
1726225708738687700,0.959687744140625,-2.2942235469818115,0.4855251610279083,-5.690885543823242
1726225708748684000,0.96968408203125,-2.2353434562683105,1.080805778503418,-4.021006107330322
1726225708758680800,0.979680908203125,-2.5652782917022705,1.6726853847503662,-2.757600784301758
1726225708768676900,0.9896767578125,-2.978623628616333,2.046764612197876,-2.17985200881958
1726225708778674000,0.999673828125,-3.240847110748291,2.3330869674682617,-1.8766247034072876
1726225708788670000,1.009669921875,-3.2000222206115723,2.3878114223480225,-1.714076280593872
1726225708798665700,1.019665771484375,-2.956639051437378,2.172001361846924,-1.4657056331634521
1726225708808662800,1.029662841796875,-2.764930009841919,1.8775402307510376,-1.3865606784820557
1726225708818658800,1.039658935546875,-2.7419943809509277,1.6830791234970093,-1.609633207321167
1726225708828655900,1.04965576171875,-2.618489980697632,1.591723918914795,-1.9063266515731812
1726225708838652000,1.05965185546875,-2.748161554336548,1.729110598564148,-2.1065480709075928
1726225708848648700,1.069648681640625,-2.7291083335876465,1.677022933959961,-2.138012647628784
1726225708858645000,1.07964501953125,-2.704866886138916,1.8403539657592773,-2.0660290718078613
1726225708868641800,1.089641845703125,-2.6930973529815674,2.3149354457855225,-1.8536312580108643
1726225708878637800,1.099637939453125,-2.4376375675201416,2.784736156463623,-1.4953948259353638
1726225708888635000,1.109634765625,-1.9838981628417969,3.037642002105713,-1.0246213674545288
1726225708898631000,1.119630859375,-1.5269463062286377,2.9345593452453613,-0.596459686756134
1726225708908627700,1.129627685546875,-1.044464111328125,2.52825927734375,-0.4157916009426117
1726225708918624000,1.1396240234375,-0.6073770523071289,1.9597680568695068,-0.3403485119342804
1726225708928620800,1.149620849609375,-0.1410021334886551,1.2351493835449219,-0.2319147288799286
1726225708938616800,1.159616943359375,0.2785285711288452,0.5831198692321777,-0.08023758232593536
1726225708948612900,1.16961279296875,0.582042932510376,0.12184920907020569,0.1299329698085785
1726225708958610000,1.17960986328125,0.8539977073669434,-0.07877577096223831,0.3170008659362793
1726225708968605700,1.189605712890625,1.004196286201477,-0.0453813299536705,0.44148924946784973
1726225708978603000,1.19960302734375,1.137655258178711,0.2743513882160187,0.444975346326828
1726225708988598800,1.209598876953125,1.2520062923431396,0.6016786694526672,0.412030428647995
1726225708998595800,1.219595947265625,1.2116879224777222,0.875164806842804,0.38336923718452454
1726225709008592100,1.229592041015625,1.7138240337371826,0.5785046219825745,0.20792444050312042
1726225709018589000,1.2395888671875,2.622610330581665,0.08526589721441269,-0.07881411910057068
1726225709028585000,1.2495849609375,3.341508388519287,-0.5229987502098083,-0.3240688741207123
1726225709038582000,1.25958203125,4.110774517059326,-1.3523449897766113,-0.5174990892410278
1726225709048578000,1.269578125,4.903814792633057,-2.397169351577759,-0.6385117769241333
1726225709058574800,1.279574951171875,5.856259346008301,-3.418226957321167,-0.6697181463241577
1726225709068571100,1.289571044921875,6.780555248260498,-4.423812389373779,-0.5306742787361145
1726225709078567000,1.29956689453125,7.396183967590332,-5.173307418823242,-0.4220673441886902
1726225709088564000,1.30956396484375,7.713558197021484,-5.597641944885254,-0.2866687774658203
1726225709098560000,1.31956005859375,7.468833923339844,-6.463728904724121,0.26995956897735596
1726225709108557000,1.32955712890625,7.334712028503418,-7.971070289611816,0.9861469864845276
1726225709118552800,1.339552734375,7.326743125915527,-9.973150253295898,1.2203067541122437
1726225709128550100,1.349550048828125,6.396730899810791,-12.403830528259277,1.230282187461853
1726225709138546000,1.3595458984375,6.694703102111816,-13.958778381347656,1.3986996412277222
1726225709148543200,1.369543212890625,6.935320854187012,-14.03780746459961,1.5044060945510864
1726225709158539000,1.3795390625,7.244724273681641,-12.12041187286377,1.281320571899414
1726225709168536000,1.3895361328125,7.451364994049072,-8.484630584716797,0.6024222373962402
1726225709178532000,1.399531982421875,7.568119525909424,-4.487779140472412,-0.3862616717815399
1726225709188529000,1.40952880859375,7.477298736572266,-1.5762062072753906,-1.4078601598739624
1726225709198525000,1.41952490234375,6.837528705596924,0.13797837495803833,-2.49733567237854
1726225709208522000,1.42952197265625,5.539508819580078,0.832801342010498,-3.462822675704956
1726225709218518000,1.43951806640625,3.3984904289245605,0.6563016772270203,-4.3553009033203125
1726225709228514000,1.44951416015625,1.3304308652877808,0.7270709276199341,-4.749263763427734
1726225709238511000,1.459510986328125,0.1626080870628357,1.661871314048767,-4.514758110046387
1726225709248507100,1.469507080078125,-0.5095282196998596,2.8784196376800537,-3.845965623855591
1726225709258504000,1.47950390625,-0.6813103556632996,3.7630155086517334,-2.961618661880493
1726225709268500000,1.4895,-0.4981671869754791,4.0096306800842285,-2.016216993331909
1726225709278497000,1.4994970703125,-0.17342132329940796,3.6850805282592773,-1.1076611280441284
1726225709288492800,1.509492919921875,0.1278863251209259,2.917219638824463,-0.16762948036193848
1726225709298490000,1.519489990234375,0.3059902787208557,1.9153954982757568,0.7741247415542603
1726225709308486000,1.52948583984375,0.28710874915122986,1.0986762046813965,1.6336642503738403
1726225709318483200,1.539483154296875,0.13440467417240143,0.7156100273132324,2.274534225463867
1726225709328479000,1.54947900390625,-0.10655014216899872,0.7922152876853943,2.671292781829834
1726225709338476000,1.55947607421875,-0.2544056475162506,1.3355510234832764,2.7999179363250732
1726225709348472000,1.56947216796875,-0.2762118875980377,2.2157137393951416,2.6277577877044678
1726225709358469000,1.57946923828125,-0.2189674973487854,2.767451047897339,2.291485548019409
1726225709368465000,1.58946484375,-0.17556969821453094,2.8405559062957764,1.951695203781128
1726225709378461200,1.599461181640625,-0.11192413419485092,2.471881151199341,1.6884417533874512
1726225709388458000,1.6094580078125,-0.04336931183934212,1.9457135200500488,1.4602413177490234
1726225709398454000,1.6194541015625,0.010115484707057476,1.3991528749465942,1.19735848903656
1726225709408451000,1.629451171875,0.13679566979408264,0.8775855898857117,0.8636090755462646
1726225709418447000,1.639447021484375,0.2298385202884674,0.4575539827346802,0.5049864649772644
1726225709428444000,1.64944384765625,0.2868504226207733,0.1396910548210144,0.1633005142211914
1726225709438440200,1.659440185546875,0.32536157965660095,-0.09309639036655426,-0.11103544384241104
1726225709448437000,1.66943701171875,0.3872039020061493,-0.2894584536552429,-0.30063092708587646
1726225709458433000,1.67943310546875,0.5050511956214905,-0.45718857645988464,-0.41712212562561035
1726225709468430000,1.68943017578125,0.6548632979393005,-0.5655630230903625,-0.4667424261569977
1726225709478425900,1.69942578125,0.7560093998908997,-0.6110130548477173,-0.4836084842681885
1726225709488423200,1.709423095703125,0.7696969509124756,-0.5817129611968994,-0.4778781533241272
1726225709498419000,1.7194189453125,0.743055522441864,-0.49214816093444824,-0.45515260100364685
1726225709508415000,1.7294150390625,0.7186902165412903,-0.3710622191429138,-0.3952104449272156
1726225709518412000,1.739412109375,0.7192438840866089,-0.31081193685531616,-0.322782039642334
1726225709528408000,1.749407958984375,0.7219417095184326,-0.3120468556880951,-0.18280497193336487
1726225709538404900,1.75940478515625,0.7151298522949219,-0.284745991230011,0.0030429279431700706
1726225709548401200,1.769401123046875,0.6946653127670288,-0.2112099826335907,0.17954473197460175
1726225709558398000,1.77939794921875,0.6837639212608337,-0.055806007236242294,0.3639015257358551
1726225709568394000,1.78939404296875,0.6982872486114502,0.14474652707576752,0.5397409796714783
1726225709578391000,1.79939111328125,0.7101255059242249,0.37844130396842957,0.7244428992271423
1726225709588387000,1.809386962890625,0.7048100829124451,0.5945821404457092,0.8906846046447754
1726225709598384000,1.819384033203125,0.6839069724082947,0.6959668397903442,1.04081130027771
1726225709608380200,1.829380126953125,0.6635721325874329,0.7166798114776611,1.1368584632873535
1726225709618377000,1.839376953125,0.6902612447738647,0.687471330165863,1.2179666757583618
1726225709628373000,1.849373046875,0.7923391461372375,0.6187193989753723,1.2209839820861816
1726225709638369000,1.859369140625,0.9017804265022278,0.5738534331321716,1.1458120346069336
1726225709648366000,1.869365966796875,0.9035176038742065,0.7118778824806213,1.1133009195327759
1726225709658361900,1.87936181640625,0.8371551036834717,0.9583840370178223,1.1169308423995972
1726225709668359200,1.889359130859375,0.7361070513725281,1.178080677986145,1.1594185829162598
1726225709678355000,1.89935498046875,0.629418671131134,1.2602338790893555,1.2097609043121338
1726225709688352000,1.90935205078125,0.6034142374992371,1.2084226608276367,1.2771306037902832
1726225709698348000,1.91934814453125,0.6343705654144287,1.081533432006836,1.339301347732544
1726225709708344800,1.9293447265625,0.6818922758102417,0.8941049575805664,1.36440110206604
1726225709718341000,1.939341064453125,0.7759281992912292,0.7538011074066162,1.371823787689209
1726225709728338000,1.949337890625,0.8109722137451172,0.6376739740371704,1.3553545475006104
1726225709738334000,1.959333984375,0.789911687374115,0.5781357884407043,1.350724697113037
1726225709748331000,1.9693310546875,0.6965604424476624,0.537670910358429,1.356576919555664
1726225709758327000,1.9793271484375,0.5989702343940735,0.5003765225410461,1.3373279571533203
1726225709768323000,1.989322998046875,0.5611187219619751,0.4859645664691925,1.301361083984375
1726225709778320100,1.999320068359375,0.5498594045639038,0.47661370038986206,1.236276388168335
1726225709788316000,2.00931591796875,0.5846503973007202,0.45970314741134644,1.13041090965271
1726225709798313200,2.019313232421875,0.6309076547622681,0.47197845578193665,0.9767100811004639
1726225709808309000,2.02930908203125,0.6794512271881104,0.4900205731391907,0.8115858435630798
1726225709818306000,2.03930615234375,0.7147279977798462,0.5114116072654724,0.6393730640411377
1726225709828301800,2.0493017578125,0.7449274063110352,0.5087002515792847,0.4519759714603424
1726225709838299100,2.059299072265625,0.7366468906402588,0.48225879669189453,0.2757128179073334
1726225709848295000,2.069294921875,0.6886149048805237,0.4114016592502594,0.13599485158920288
1726225709858292200,2.079292236328125,0.6465651988983154,0.3153955042362213,-0.007692008279263973
1726225709868288000,2.0892880859375,0.6196795105934143,0.2319730520248413,-0.13589711487293243
1726225709878285000,2.09928515625,0.6301308274269104,0.1454663872718811,-0.22737111151218414
1726225709888281000,2.109281005859375,0.6337084770202637,0.01635606959462166,-0.27209410071372986
1726225709898278000,2.11927783203125,0.6312666535377502,-0.028601817786693573,-0.2294377237558365
1726225709908274000,2.12927392578125,0.651089608669281,-0.10009676963090897,-0.20775052905082703
1726225709918270200,2.139270263671875,0.6638306975364685,-0.3277549743652344,-0.2512524724006653
1726225709928267000,2.14926708984375,0.6143225431442261,-0.6275160908699036,-0.3976661264896393
1726225709938263000,2.159262939453125,0.46790409088134766,-0.7855491638183594,-0.5068722367286682
1726225709948260000,2.169260009765625,0.3607635200023651,-0.7382005453109741,-0.5086131691932678
1726225709958256000,2.179256103515625,0.3220757842063904,-0.6701200604438782,-0.4553201198577881
1726225709968253200,2.189253173828125,0.34951698780059814,-0.5689316391944885,-0.35982581973075867
1726225709978249000,2.1992490234375,0.389948308467865,-0.4965045750141144,-0.25660860538482666
1726225709988246000,2.20924609375,0.405979186296463,-0.41922444105148315,-0.13960503041744232
1726225709998242300,2.2192421875,0.3915885388851166,-0.3089756965637207,0.004226436838507652
1726225710008239600,2.229239501953125,0.3589208722114563,-0.22846859693527222,0.14146791398525238
1726225710018235400,2.2392353515625,0.3352791965007782,-0.20369933545589447,0.23562344908714294
1726225710028232400,2.249232421875,0.28987815976142883,-0.21502122282981873,0.3103299140930176
1726225710038228500,2.259228515625,0.25747600197792053,-0.23772095143795013,0.3583488166332245
1726225710048224500,2.269224609375,0.2701827585697174,-0.23963922262191772,0.40647855401039124
1726225710058221600,2.2792216796875,0.3035220503807068,-0.2410949021577835,0.4601859748363495
1726225710068217600,2.289217529296875,0.3446316719055176,-0.23421995341777802,0.5272715091705322
1726225710078214400,2.29921435546875,0.3134026527404785,-0.23881204426288605,0.6049500703811646
1726225710088210700,2.309210693359375,0.26380208134651184,-0.22928857803344727,0.6608575582504272
1726225710098207500,2.31920751953125,0.2607130706310272,-0.2117450088262558,0.682838499546051
1726225710108203500,2.32920361328125,0.264129638671875,-0.19009937345981598,0.6776895523071289
1726225710118200600,2.33920068359375,0.25950026512145996,-0.14752528071403503,0.6748588681221008
1726225710128196400,2.3491962890625,0.2704107165336609,-0.14084979891777039,0.6789242029190063
1726225710138193400,2.359193359375,0.30334362387657166,-0.15296317636966705,0.6840617060661316
1726225710148189400,2.369189453125,0.3355007767677307,-0.1932605355978012,0.6844526529312134
1726225710158186500,2.3791865234375,0.36884939670562744,-0.21953102946281433,0.657878577709198
1726225710168182300,2.389182373046875,0.4197472035884857,-0.2380027025938034,0.6117653846740723
1726225710178178600,2.399178466796875,0.47388580441474915,-0.2646620273590088,0.5677241683006287
1726225710188175400,2.40917529296875,0.43452003598213196,-0.2503531277179718,0.5395433902740479
1726225710198171400,2.41917138671875,0.40327343344688416,-0.19467493891716003,0.4941684305667877
1726225710208168400,2.42916845703125,0.39169827103614807,-0.13324806094169617,0.4323034882545471
1726225710218164500,2.43916455078125,0.36909228563308716,-0.09185535460710526,0.3789997696876526
1726225710228161500,2.44916162109375,0.3576428294181824,-0.06417632102966309,0.34362074732780457
1726225710238157600,2.459157470703125,0.34313178062438965,-0.04945649951696396,0.3153134882450104
1726225710248154400,2.469154296875,0.32303744554519653,-0.01853666640818119,0.28990638256073
1726225710258150700,2.479150634765625,0.31387776136398315,-0.006764961872249842,0.26589134335517883
1726225710268147500,2.4891474609375,0.3116995692253113,-0.019770508632063866,0.24570749700069427
1726225710278143500,2.4991435546875,0.31034907698631287,-0.0524086132645607,0.22569811344146729
1726225710288139500,2.509139404296875,0.30720043182373047,-0.08647869527339935,0.2027299404144287
1726225710298136600,2.519136474609375,0.2888064980506897,-0.11562380194664001,0.18173624575138092
1726225710308132400,2.52913232421875,0.25760623812675476,-0.15117353200912476,0.17001114785671234
1726225710318129700,2.539129638671875,0.2323560118675232,-0.19434364140033722,0.16195695102214813
1726225710328125400,2.54912548828125,0.31739526987075806,-0.3054123818874359,0.13892246782779694
1726225710338122200,2.559122314453125,0.24672482907772064,-0.33511993288993835,0.14663071930408478
1726225710348118500,2.569118408203125,0.116317018866539,-0.3768916130065918,0.14773912727832794
1726225710358115300,2.579115234375,0.08911735564470291,-0.44682303071022034,0.12213470041751862
1726225710368111400,2.589111328125,0.05970913544297218,-0.5225257873535156,0.11542858928442001
1726225710378108400,2.5991083984375,0.009908556938171387,-0.5873862504959106,0.13785719871520996
1726225710388104400,2.6091044921875,-0.017535584047436714,-0.6241525411605835,0.15689587593078613
1726225710398101500,2.6191015625,-0.04097699373960495,-0.6319087147712708,0.16544675827026367
1726225710408097500,2.62909765625,-0.07080946117639542,-0.6339277029037476,0.16558390855789185
1726225710418094300,2.63909423828125,-0.08169113099575043,-0.6452690362930298,0.16096438467502594
1726225710428090600,2.649090576171875,-0.07665988802909851,-0.6689413189888,0.16302993893623352
1726225710438086400,2.65908642578125,-0.08281125873327255,-0.6799148917198181,0.18738454580307007
1726225710448083500,2.66908349609375,-0.02364993467926979,-0.7109217643737793,0.21879439055919647
1726225710458079500,2.67907958984375,-0.028566131368279457,-0.7202130556106567,0.24539457261562347
1726225710468076500,2.68907666015625,-0.0567367821931839,-0.7508358955383301,0.22601501643657684
1726225710478072300,2.699072265625,-0.0701625794172287,-0.7762185335159302,0.1572902947664261
1726225710488069600,2.709069580078125,-0.0672440156340599,-0.7964518666267395,0.07688812166452408
1726225710498065400,2.7190654296875,-0.04953053593635559,-0.7975009083747864,0.016685236245393753
1726225710508062700,2.729062744140625,-0.02882285974919796,-0.7866543531417847,-0.01564207673072815
1726225710518058500,2.73905859375,-0.010239055380225182,-0.7625452876091003,-0.0390709713101387
1726225710528055600,2.7490556640625,0.00830799713730812,-0.7499828934669495,-0.0829731822013855
1726225710538051300,2.75905126953125,0.021827533841133118,-0.7510873079299927,-0.15279540419578552
1726225710548047600,2.769047607421875,0.031386151909828186,-0.7595929503440857,-0.2474777102470398
1726225710558044400,2.77904443359375,0.03870238736271858,-0.7601314187049866,-0.3592441976070404
1726225710568040400,2.78904052734375,0.04988127201795578,-0.7437010407447815,-0.4753423035144806
1726225710578037500,2.79903759765625,0.08544778823852539,-0.7218034863471985,-0.5754318833351135
1726225710588033500,2.809033447265625,0.1123955175280571,-0.6788557171821594,-0.6227495670318604
1726225710598030600,2.819030517578125,0.12025610357522964,-0.6116300821304321,-0.6270532608032227
1726225710608026600,2.829026611328125,0.11194943636655807,-0.5682477355003357,-0.6364052295684814
1726225710618023400,2.8390234375,0.13211382925510406,-0.4968124330043793,-0.6581970453262329
1726225710628019500,2.84901953125,0.16135454177856445,-0.4593638479709625,-0.6833604574203491
1726225710638016500,2.8590166015625,0.26764634251594543,-0.4548492729663849,-0.710709810256958
1726225710648012300,2.86901220703125,0.20552518963813782,-0.38284990191459656,-0.7014592885971069
1726225710658009600,2.879009521484375,0.12035118043422699,-0.3185625374317169,-0.6792749166488647
1726225710668005400,2.88900537109375,0.10619328171014786,-0.2655640244483948,-0.6331998109817505
1726225710678001400,2.89900146484375,0.12683731317520142,-0.24016067385673523,-0.5767179131507874
1726225710687998500,2.90899853515625,0.1477431207895279,-0.23336029052734375,-0.5098819136619568
1726225710697994500,2.918994384765625,0.17814762890338898,-0.2103087604045868,-0.44525229930877686
1726225710707991600,2.928991455078125,0.32281693816185,-0.24725958704948425,-0.41158968210220337
1726225710717987600,2.938987548828125,0.3545663356781006,-0.2425479292869568,-0.38183632493019104
1726225710727984400,2.948984375,0.3254457414150238,-0.2861337661743164,-0.3659084737300873
1726225710737980400,2.95898046875,0.21042194962501526,-0.30421873927116394,-0.3404041826725006
1726225710747977500,2.9689775390625,0.0771818682551384,-0.30268317461013794,-0.3048296868801117
1726225710757973500,2.978973388671875,0.022236330434679985,-0.31006917357444763,-0.23383645713329315
1726225710767970600,2.988970458984375,0.03429672122001648,-0.31806957721710205,-0.15424789488315582
1726225710777966600,2.998966552734375,0.05227359011769295,-0.3014613091945648,-0.09263858944177628
1726225710787963400,3.00896337890625,0.039031021296978,-0.25804033875465393,-0.06828877329826355
1726225710797959700,3.018959716796875,0.1427651345729828,-0.2705707848072052,-0.06726052612066269
1726225710807956500,3.02895654296875,0.2506181001663208,-0.2674461007118225,-0.07276342064142227
1726225710817952500,3.038952392578125,0.27710697054862976,-0.19600732624530792,-0.0773395299911499
1726225710827948500,3.048948486328125,0.19963455200195312,-0.13526540994644165,-0.056465405970811844
1726225710837945300,3.0589453125,0.03443547338247299,-0.11687468737363815,-0.0006977482116781175
1726225710847941400,3.06894140625,-0.013078517280519009,-0.136604443192482,0.06308522820472717
1726225710857938400,3.0789384765625,0.059303004294633865,-0.1871565729379654,0.1061038002371788
1726225710867934500,3.0889345703125,0.0911131352186203,-0.20364873111248016,0.12533368170261383
1726225710877931500,3.098931640625,0.08594207465648651,-0.2038567215204239,0.12436030060052872
1726225710887927600,3.108927490234375,0.09252620488405228,-0.21061742305755615,0.1148056760430336
1726225710897924400,3.11892431640625,0.1091374084353447,-0.18320125341415405,0.10547848790884018
1726225710907920600,3.128920654296875,0.12163002789020538,-0.1164507120847702,0.1099691092967987
1726225710917917400,3.13891748046875,0.14884167909622192,0.02279559336602688,0.11599371582269669
1726225710927913500,3.14891357421875,0.16992725431919098,0.19194839894771576,0.11398196220397949
1726225710937909500,3.158909423828125,0.18978644907474518,0.31149131059646606,0.10213115811347961
1726225710947906600,3.168906494140625,0.21015030145645142,0.35121554136276245,0.08323390036821365
1726225710957902300,3.17890234375,0.22628507018089294,0.3201327323913574,0.04367051646113396
1726225710967899600,3.188899658203125,0.21858826279640198,0.2779296338558197,-0.024764468893408775
1726225710977895400,3.1988955078125,0.2042740434408188,0.26513925194740295,-0.11775379627943039
1726225710987892500,3.208892578125,0.1979205310344696,0.26290538907051086,-0.22821693122386932
1726225710997889800,3.218889892578125,0.18345291912555695,0.22068338096141815,-0.31089529395103455
1726225711007886600,3.228886474609375,0.15019695460796356,0.1421627402305603,-0.34536537528038025
1726225711017882600,3.238882568359375,0.12983176112174988,0.04243827238678932,-0.3411634564399719
1726225711027879700,3.248879638671875,0.12538695335388184,-0.04549584537744522,-0.3073461055755615
1726225711037875700,3.258875732421875,0.13402757048606873,-0.08269301801919937,-0.25737056136131287
1726225711047872500,3.26887255859375,0.1257973462343216,-0.0515872947871685,-0.20867517590522766
1726225711057868800,3.278868896484375,0.08243122696876526,0.011426292359828949,-0.152777299284935
1726225711067864600,3.288864501953125,0.032768599689006805,0.06508206576108932,-0.10173701494932175
1726225711077861600,3.298861572265625,-0.017184846103191376,0.08957675099372864,-0.0644194707274437
1726225711087857700,3.308857666015625,-0.050148386508226395,0.0967411920428276,-0.041315216571092606
1726225711097854700,3.318854736328125,-0.0864374190568924,0.07920107990503311,-0.026459570974111557
1726225711107850500,3.3288505859375,-0.12143561989068985,0.07203318178653717,-0.011288074776530266
1726225711117847800,3.338847900390625,-0.15383270382881165,0.08615672588348389,-0.0017379788914695382
1726225711127843600,3.348843505859375,-0.19327412545681,0.10630433261394501,0.010125071741640568
1726225711137840600,3.358840576171875,-0.22493351995944977,0.1217312291264534,0.024467792361974716
1726225711147836700,3.368836669921875,-0.25194409489631653,0.11415586620569229,0.04701384902000427
1726225711157833500,3.37883349609375,-0.27036651968955994,0.09141353517770767,0.07794300466775894
1726225711167829800,3.388829833984375,-0.2689718008041382,0.0759432315826416,0.10655360668897629
1726225711177826600,3.39882666015625,-0.2676474153995514,0.08925158530473709,0.12179301679134369
1726225711187822600,3.408822509765625,-0.27971792221069336,0.12016475945711136,0.12282072752714157
1726225711197819000,3.41881884765625,-0.2786848843097687,0.1494576632976532,0.11633966118097305
1726225711207815700,3.428815673828125,-0.22872479259967804,0.1215762346982956,0.10329123586416245
1726225711217811700,3.438811767578125,-0.2274150401353836,0.09204976260662079,0.0913887694478035
1726225711227808800,3.448808837890625,-0.23845678567886353,0.05139527842402458,0.06306232511997223
1726225711237804500,3.458804443359375,-0.18894381821155548,-0.083917535841465,0.010083526372909546
1726225711247801600,3.468801513671875,-0.09934096783399582,-0.24866122007369995,-0.0853191614151001
1726225711257797600,3.478797607421875,-0.03399764746427536,-0.3897496163845062,-0.21862314641475677
1726225711267794700,3.488794677734375,-0.06255871802568436,-0.44647708535194397,-0.37266623973846436
1726225711277790500,3.49879052734375,-0.21855391561985016,-0.4474712610244751,-0.5104145407676697
1726225711287787800,3.508787841796875,-0.31624823808670044,-0.5124712586402893,-0.6068510413169861
1726225711297783600,3.518783447265625,-0.33020907640457153,-0.6868875622749329,-0.6478323340415955
1726225711307779600,3.528779541015625,-0.3182211220264435,-0.8612293004989624,-0.6452652812004089
1726225711317776600,3.538776611328125,-0.3438867926597595,-0.9727102518081665,-0.6167068481445312
1726225711327772700,3.548772705078125,-0.355286180973053,-1.0110297203063965,-0.5916803479194641
1726225711337769700,3.558769775390625,-0.4118030071258545,-0.9332557916641235,-0.5731370449066162
1726225711347765800,3.568765869140625,-0.4751761257648468,-0.7950169444084167,-0.5562927722930908
1726225711357762600,3.578762451171875,-0.48693156242370605,-0.6433536410331726,-0.5199283957481384
1726225711367758800,3.5887587890625,-0.48593926429748535,-0.4977474808692932,-0.46519964933395386
1726225711377755600,3.598755615234375,-0.4902368187904358,-0.349077045917511,-0.39651671051979065
1726225711387751700,3.608751708984375,-0.48787033557891846,-0.18346942961215973,-0.32278844714164734
1726225711397748700,3.618748779296875,-0.48498693108558655,0.00469568558037281,-0.2538706362247467
1726225711407744800,3.628744873046875,-0.48068779706954956,0.17823924124240875,-0.19025543332099915
1726225711417740500,3.638740478515625,-0.47342774271965027,0.3117903769016266,-0.13319294154644012
1726225711427737600,3.648737548828125,-0.47184476256370544,0.38726863265037537,-0.08399050682783127
1726225711437733600,3.658733642578125,-0.4584522545337677,0.44083836674690247,-0.04164091870188713
1726225711447730400,3.66873046875,-0.4433279037475586,0.4637194573879242,-0.0280968826264143
1726225711457726700,3.678726806640625,-0.4282562732696533,0.4726567566394806,-0.049614157527685165
1726225711467723500,3.6887236328125,-0.3989473879337311,0.45112404227256775,-0.11835753917694092
1726225711477719600,3.698719482421875,-0.3731914162635803,0.3652868866920471,-0.22697748243808746
1726225711487716600,3.708716552734375,-0.35071301460266113,0.21647505462169647,-0.3591856062412262
1726225711497712600,3.718712646484375,-0.3470791280269623,0.011840946972370148,-0.49181661009788513
1726225711507709700,3.728709716796875,-0.3374400734901428,-0.23209847509860992,-0.6044909358024597
1726225711517705700,3.738705810546875,-0.3313419818878174,-0.459320992231369,-0.6872279047966003
1726225711527702500,3.74870263671875,-0.33792105317115784,-0.6415959596633911,-0.7367813587188721
1726225711537698800,3.75869873046875,-0.3628029525279999,-0.7665498852729797,-0.7500563859939575
1726225711547694600,3.768694580078125,-0.3925075829029083,-0.8294740319252014,-0.7469897866249084
1726225711557691600,3.778691650390625,-0.42109158635139465,-0.8417873978614807,-0.7417218089103699
1726225711567687700,3.788687744140625,-0.4585678279399872,-0.8228179812431335,-0.7395656704902649
1726225711577684700,3.798684814453125,-0.49865320324897766,-0.7646062970161438,-0.7364026308059692
1726225711587680500,3.808680419921875,-0.5457198023796082,-0.6857733130455017,-0.7291548848152161
1726225711597677800,3.818677734375,-0.5828972458839417,-0.5963265299797058,-0.7035698890686035
1726225711607673600,3.828673583984375,-0.6276500821113586,-0.5228877067565918,-0.6554393768310547
1726225711617670700,3.838670654296875,-0.6802669167518616,-0.48914358019828796,-0.5805991888046265
1726225711627666700,3.848666748046875,-0.7173975110054016,-0.47540539503097534,-0.49994775652885437
1726225711637663500,3.85866357421875,-0.7452366352081299,-0.44756391644477844,-0.42433130741119385
1726225711647659500,3.868659423828125,-0.7796478867530823,-0.3826557695865631,-0.35554423928260803
1726225711657656600,3.878656494140625,-0.8088963031768799,-0.30174174904823303,-0.29226407408714294
1726225711667652600,3.888652587890625,-0.8315025568008423,-0.21692299842834473,-0.23986905813217163
1726225711677648600,3.898648681640625,-0.8391602039337158,-0.12006675451993942,-0.19246159493923187
1726225711687645700,3.908645751953125,-0.8110566735267639,-0.0016519587952643633,-0.1501615345478058
1726225711697641700,3.918641845703125,-0.7711041569709778,0.11801638454198837,-0.11099442839622498
1726225711707638800,3.928638671875,-0.7601553797721863,0.204129159450531,-0.0842653438448906
1726225711717634600,3.938634521484375,-0.7636358737945557,0.23731587827205658,-0.06248042359948158
1726225711727631600,3.948631591796875,-0.7593742609024048,0.21462760865688324,-0.047088947147130966
1726225711737627600,3.958627685546875,-0.7498787641525269,0.1610080599784851,-0.04856647178530693
1726225711747624700,3.968624755859375,-0.7305485010147095,0.1126682236790657,-0.0767672136425972
1726225711757620500,3.978620361328125,-0.6947079300880432,0.07637040317058563,-0.12735022604465485
1726225711767617800,3.98861767578125,-0.6392931342124939,0.03421789035201073,-0.18744073808193207
1726225711777613600,3.998613525390625,-0.5866509675979614,-0.030047114938497543,-0.24015028774738312
1726225711787609600,4.008609619140625,-0.5505480766296387,-0.15185824036598206,-0.2650095522403717
1726225711797606700,4.018606689453125,-0.5253926515579224,-0.2982966899871826,-0.26514458656311035
1726225711807602700,4.028602783203125,-0.5290201902389526,-0.4400724470615387,-0.2429516613483429
1726225711817599500,4.038599609375,-0.5399020910263062,-0.5593485236167908,-0.21888494491577148
1726225711827595800,4.048595703125,-0.5421498417854309,-0.6208041310310364,-0.19318543374538422
1726225711837592600,4.058592529296875,-0.5526943206787109,-0.6390427947044373,-0.16480280458927155
1726225711847588600,4.068588623046875,-0.5745139122009277,-0.6415469646453857,-0.13998372852802277
1726225711857585700,4.078585693359375,-0.5487784147262573,-0.6532358527183533,-0.12563595175743103
1726225711867581700,4.088581787109375,-0.5431026816368103,-0.6943641304969788,-0.13138093054294586
1726225711877578800,4.098578857421875,-0.5785312652587891,-0.783944308757782,-0.1733587384223938
1726225711887574800,4.10857470703125,-0.6264165043830872,-0.9083520174026489,-0.2390192449092865
1726225711897570600,4.118570556640625,-0.645632266998291,-1.051276683807373,-0.3273504376411438
1726225711907567600,4.128567626953125,-0.6420087814331055,-1.2119611501693726,-0.4189879298210144
1726225711917563600,4.138563720703125,-0.6201831102371216,-1.3537251949310303,-0.4779402017593384
1726225711927560400,4.148560546875,-0.5707569718360901,-1.4476640224456787,-0.4895574450492859
1726225711937556700,4.158556640625,-0.5301096439361572,-1.4899834394454956,-0.44999805092811584
1726225711947553500,4.168553466796875,-0.5270827412605286,-1.5078407526016235,-0.3860779404640198
1726225711957549600,4.178549560546875,-0.5504354238510132,-1.5023384094238281,-0.30225467681884766
1726225711967546600,4.188546630859375,-0.5660325288772583,-1.4632879495620728,-0.20923630893230438
1726225711977542700,4.198542724609375,-0.5624159574508667,-1.3663067817687988,-0.12811243534088135
1726225711987539700,4.208539794921875,-0.529373824596405,-1.2048121690750122,-0.07012049853801727
1726225711997534000,4.218533935546875,-0.48042812943458557,-0.9767260551452637,-0.037085581570863724
1726225712007531300,4.22853125,-0.42516380548477173,-0.7239677906036377,-0.03855458274483681
1726225712017527000,4.238527099609375,-0.33999085426330566,-0.49448162317276,-0.06999985873699188
1726225712027523000,4.248523193359375,-0.2470414787530899,-0.3520440459251404,-0.14994075894355774
1726225712037520100,4.25852001953125,-0.14385969936847687,-0.32465559244155884,-0.27541878819465637
1726225712047516200,4.26851611328125,-0.0720030888915062,-0.3738657236099243,-0.42987680435180664
1726225712057513000,4.278512939453125,-0.020411532372236252,-0.48136237263679504,-0.5547031760215759
1726225712067509200,4.28850927734375,0.028896097093820572,-0.5928676128387451,-0.6403424143791199
1726225712077506000,4.298506103515625,0.08001281321048737,-0.6597001552581787,-0.671188473701477
1726225712087502000,4.308502197265625,0.14991599321365356,-0.6619015336036682,-0.6663857698440552
1726225712097499100,4.3184990234375,0.19459398090839386,-0.6349655389785767,-0.6233964562416077
1726225712107495200,4.3284951171875,0.20844775438308716,-0.6229352355003357,-0.559263288974762
1726225712117492200,4.3384921875,0.22615110874176025,-0.6623185873031616,-0.4885108172893524
1726225712127488300,4.34848828125,0.1881328821182251,-0.7547081708908081,-0.423576295375824
1726225712137484000,4.358484130859375,0.14390523731708527,-0.8636729717254639,-0.37303295731544495
1726225712147481000,4.368481201171875,0.11342322826385498,-0.9727174639701843,-0.3353164792060852
1726225712157477000,4.37847705078125,0.10310933738946915,-1.0693236589431763,-0.32293492555618286
1726225712167474000,4.388473876953125,0.10569660365581512,-1.148693561553955,-0.3263232409954071
1726225712177470200,4.39847021484375,0.1074574813246727,-1.2229975461959839,-0.3378238379955292
1726225712187467000,4.408467041015625,0.09275417029857635,-1.2813011407852173,-0.3423791825771332
1726225712197463000,4.418463134765625,0.06672497093677521,-1.290960431098938,-0.34114161133766174
1726225712207460000,4.428460205078125,0.036732181906700134,-1.2493796348571777,-0.3503827750682831
1726225712217456000,4.4384560546875,0.03717586398124695,-1.128611445426941,-0.37283989787101746
1726225712227453000,4.448452880859375,0.09026837348937988,-0.9439590573310852,-0.3743176758289337
1726225712237449200,4.45844921875,0.09560881555080414,-0.7056007981300354,-0.3499923646450043
1726225712247446000,4.468446044921875,0.0901607871055603,-0.4286826550960541,-0.289007306098938
1726225712257442000,4.478442138671875,0.10045816749334335,-0.10685320943593979,-0.1902943104505539
1726225712267438000,4.48843798828125,0.14524240791797638,0.23417973518371582,-0.08655566722154617
1726225712277435100,4.49843505859375,0.1895422339439392,0.6115952134132385,0.02076200395822525
1726225712287431000,4.508430908203125,0.21320894360542297,0.9567984342575073,0.09972099959850311
1726225712297428200,4.51842822265625,0.23335416615009308,1.209006905555725,0.149470716714859
1726225712307424000,4.528424072265625,0.2601516842842102,1.3397763967514038,0.14828108251094818
1726225712317421300,4.53842138671875,0.3258095383644104,1.368659496307373,0.10622604191303253
1726225712327417000,4.5484169921875,0.4058244824409485,1.341306447982788,0.031388282775878906
1726225712337414100,4.5584140625,0.4458805322647095,1.3020706176757812,-0.07236314564943314
1726225712347410200,4.56841015625,0.44997408986091614,1.2196494340896606,-0.18805299699306488
1726225712357407000,4.578406982421875,0.457048237323761,1.0519286394119263,-0.2961927652359009
1726225712367403000,4.588403076171875,0.4788299798965454,0.8052864074707031,-0.3930934965610504
1726225712377399300,4.5983994140625,0.5135725140571594,0.5363590121269226,-0.4758695960044861
1726225712387396000,4.60839599609375,0.5504506230354309,0.2647443115711212,-0.5474921464920044
1726225712397392100,4.61839208984375,0.5864608287811279,-0.010382333770394325,-0.5949946641921997
1726225712407389200,4.62838916015625,0.6106995940208435,-0.29133811593055725,-0.5959523320198059
1726225712417385200,4.63838525390625,0.6145632863044739,-0.5703255534172058,-0.5543755888938904
1726225712427382000,4.648382080078125,0.5962886810302734,-0.8153930902481079,-0.47421151399612427
1726225712437378000,4.6583779296875,0.557091474533081,-1.0028231143951416,-0.36863183975219727
1726225712447375000,4.668375,0.526983380317688,-1.130319356918335,-0.21854645013809204
1726225712457371000,4.678370849609375,0.4752642512321472,-1.1753251552581787,-0.039325833320617676
1726225712467368200,4.6883681640625,0.3954261541366577,-1.1295243501663208,0.13991636037826538
1726225712477364000,4.698364013671875,0.32435277104377747,-0.9908921718597412,0.2911359667778015
1726225712487360000,4.708360107421875,0.2807222008705139,-0.7804443836212158,0.40447503328323364
1726225712497357000,4.718357177734375,0.2576102316379547,-0.5339630246162415,0.47516706585884094
1726225712507353000,4.72835302734375,0.2558040916919708,-0.2715170085430145,0.5209087133407593
1726225712517350100,4.73835009765625,0.26164573431015015,-0.004548945464193821,0.5483896136283875
1726225712527346200,4.74834619140625,0.2627972662448883,0.2745751142501831,0.5593924522399902
1726225712537343000,4.758343017578125,0.2534264028072357,0.5527129769325256,0.5518181324005127
1726225712547339300,4.76833935546875,0.24886254966259003,0.8031949996948242,0.5344468951225281
1726225712557336000,4.778336181640625,0.2510146498680115,0.9902719259262085,0.5073079466819763
1726225712567332000,4.78833203125,0.2436094582080841,1.0813499689102173,0.4733997881412506
1726225712577329200,4.7983291015625,0.2263236790895462,1.0778172016143799,0.42497923970222473
1726225712587325200,4.8083251953125,0.2266579121351242,0.9776858687400818,0.3596993088722229
1726225712597321000,4.818321044921875,0.2538687586784363,0.7576637268066406,0.2745540738105774
1726225712607318300,4.828318359375,0.3060435354709625,0.4457170367240906,0.18714912235736847
1726225712617314000,4.83831396484375,0.3710015118122101,0.0557122640311718,0.0665460005402565
1726225712627311000,4.84831103515625,0.4137369990348816,-0.3661588132381439,-0.16436071693897247
1726225712637307100,4.85830712890625,0.44069430232048035,-0.7312169671058655,-0.4928959906101227
1726225712647304000,4.868303955078125,0.526159942150116,-0.7703534364700317,-0.9239224791526794
1726225712657300000,4.878300048828125,0.5349071025848389,-0.574876606464386,-1.2833034992218018
1726225712667297000,4.888297119140625,0.49531519412994385,-0.3811313807964325,-1.497493863105774
1726225712677293000,4.89829296875,0.46874696016311646,-0.3506088852882385,-1.5720280408859253
1726225712687290000,4.9082900390625,0.49377909302711487,-0.5437855124473572,-1.5413936376571655
1726225712697286100,4.9182861328125,0.5214669108390808,-0.7914257049560547,-1.3995417356491089
1726225712707283000,4.928282958984375,0.49775147438049316,-1.0101505517959595,-1.1705727577209473
1726225712717279200,4.938279296875,0.4845469892024994,-1.0536298751831055,-0.8802732825279236
1726225712727275000,4.94827490234375,0.4653937816619873,-0.8605855703353882,-0.5616758465766907
1726225712737272000,4.95827197265625,0.4251915216445923,-0.5142174959182739,-0.20898491144180298
1726225712747268000,4.96826806640625,0.36345571279525757,-0.13654346764087677,0.17016427218914032
1726225712757265200,4.97826513671875,0.3336613178253174,0.3102497458457947,0.5430465340614319
1726225712767261000,4.988260986328125,0.3452759087085724,0.8024773001670837,0.8707908391952515
1726225712777258200,4.99825830078125,0.37887832522392273,1.2598419189453125,1.1325428485870361
1726225712787254000,5.00825390625,0.541329562664032,1.6219902038574219,1.33781898021698
1726225712797251300,5.018251220703125,0.7174297571182251,1.8534029722213745,1.5074048042297363
1726225712807247000,5.0282470703125,0.8411096334457397,1.8911415338516235,1.616272211074829
1726225712817244200,5.038244140625,0.9360350966453552,1.8210370540618896,1.6248339414596558
1726225712827240000,5.048239990234375,0.9913550615310669,1.651853084564209,1.5092793703079224
1726225712837236200,5.058236328125,0.7977752089500427,1.4399099349975586,1.2771213054656982
1726225712847233000,5.06823291015625,0.4769876003265381,1.1995631456375122,0.9651730060577393
1726225712857229000,5.07822900390625,0.41324669122695923,0.9893462061882019,0.703316330909729
1726225712867226000,5.08822607421875,0.13302916288375854,0.7800899744033813,0.4753364324569702
1726225712877222100,5.09822216796875,-0.07656960934400558,0.6462682485580444,0.28886669874191284
1726225712887219200,5.10821923828125,-0.08186743408441544,0.5497427582740784,0.1597856730222702
1726225712897215200,5.11821533203125,-0.015735553577542305,0.4665488004684448,0.062263373285532
1726225712907212000,5.1282119140625,0.04537120833992958,0.39051929116249084,-0.029581326991319656
1726225712917208300,5.138208251953125,0.07528543472290039,0.3807777166366577,-0.14106550812721252
1726225712927205000,5.148205078125,0.07591447234153748,0.4636251926422119,-0.2953996956348419
1726225712937201000,5.158200927734375,0.03952663764357567,0.5625128746032715,-0.48451927304267883
1726225712947197200,5.168197265625,0.011544536799192429,0.6484591960906982,-0.683966875076294
1726225712957194000,5.178194091796875,0.04033277556300163,0.7044167518615723,-0.8335584998130798
1726225712967190000,5.18818994140625,0.10537675768136978,0.6980696320533752,-0.8906939625740051
1726225712977187000,5.19818701171875,0.16675889492034912,0.6633694767951965,-0.8532626628875732
1726225712987183000,5.20818310546875,0.16983777284622192,0.687404215335846,-0.7521664500236511
1726225712997180200,5.21818017578125,0.10745774954557419,0.8042096495628357,-0.6354078650474548
1726225713007175700,5.22817578125,0.034153975546360016,0.9874143600463867,-0.4876839220523834
1726225713017172700,5.2381728515625,-0.006742857396602631,1.1776788234710693,-0.3147747218608856
1726225713027168800,5.248168701171875,-0.00749227125197649,1.3250558376312256,-0.11963425576686859
1726225713037165800,5.258165771484375,0.011938151903450489,1.4081575870513916,0.1076902449131012
1726225713047161900,5.268161865234375,0.03098747693002224,1.4403208494186401,0.32389017939567566
1726225713057157600,5.27815771484375,0.03574494644999504,1.4370558261871338,0.4792605936527252
1726225713067155000,5.288155029296875,0.032276712357997894,1.408584713935852,0.5413585901260376
1726225713077150700,5.298150634765625,0.03846057504415512,1.2827975749969482,0.5196000337600708
1726225713087147800,5.308147705078125,0.04469769820570946,1.1018788814544678,0.4696476459503174
1726225713097143800,5.318143798828125,0.06253635138273239,0.9346848726272583,0.440082311630249
1726225713107140900,5.328140869140625,0.06228547915816307,0.8363502621650696,0.45313897728919983
1726225713117136600,5.33813671875,0.07538024336099625,0.8217769265174866,0.4775007963180542
1726225713127134000,5.348134033203125,0.0859050527215004,0.8473696708679199,0.48516324162483215
1726225713137129700,5.358129638671875,0.07810971885919571,0.8332969546318054,0.4692593812942505
1726225713147126800,5.368126708984375,0.10344516485929489,0.7565417289733887,0.4351746439933777
1726225713157122800,5.378122802734375,0.141010120511055,0.6495575308799744,0.40074288845062256
1726225713167118800,5.388118896484375,0.18579329550266266,0.5539044737815857,0.37952175736427307
1726225713177115600,5.39811572265625,0.19831416010856628,0.49097558856010437,0.35127946734428406
1726225713187112000,5.40811181640625,0.2058066874742508,0.4862774908542633,0.3104260563850403
1726225713197108700,5.418108642578125,0.19813066720962524,0.5253804326057434,0.2565974295139313
1726225713207104800,5.428104736328125,0.2124030739068985,0.5792409777641296,0.20220103859901428
1726225713217101800,5.438101806640625,0.23613210022449493,0.5729886889457703,0.17352677881717682
1726225713227097900,5.448097900390625,0.2582874894142151,0.5580872297286987,0.16848142445087433
1726225713237095000,5.458094970703125,0.263679563999176,0.5208807587623596,0.19362139701843262
1726225713247091000,5.468091064453125,0.2627458870410919,0.5031810998916626,0.2238978147506714
1726225713257087700,5.478087646484375,0.27067676186561584,0.4741468131542206,0.23023906350135803
1726225713267083800,5.488083740234375,0.2700013816356659,0.46286138892173767,0.21142515540122986
1726225713277079800,5.498079833984375,0.26943865418434143,0.4550527334213257,0.1717033088207245
1726225713287076600,5.50807666015625,0.27297666668891907,0.4439646601676941,0.11789121478796005
1726225713297073000,5.518072998046875,0.3011515736579895,0.4284144639968872,0.07708972692489624
1726225713307069700,5.528069580078125,0.3128790855407715,0.4042414724826813,0.061715561896562576
1726225713317065700,5.538065673828125,0.2709904909133911,0.3902047574520111,0.07553283870220184
1726225713327062800,5.548062744140625,0.249315544962883,0.3877115249633789,0.10311626642942429
1726225713337058800,5.558058837890625,0.24528059363365173,0.35778290033340454,0.15568360686302185
1726225713347055600,5.5680556640625,0.2545452117919922,0.31007423996925354,0.21603775024414062
1726225713357052000,5.578052001953125,0.24072232842445374,0.27430853247642517,0.2858157753944397
1726225713367047700,5.588047607421875,0.23099753260612488,0.2678189277648926,0.35578206181526184
1726225713377044700,5.598044677734375,0.22648081183433533,0.31263992190361023,0.4059064984321594
1726225713387040800,5.608040771484375,0.2235044538974762,0.437990665435791,0.4218716025352478
1726225713397037800,5.618037841796875,0.18904688954353333,0.6020112633705139,0.4104618430137634
1726225713407033600,5.62803369140625,0.13920849561691284,0.7001165747642517,0.3669532239437103
1726225713417031000,5.638031005859375,0.11561021953821182,0.6571616530418396,0.320349782705307
1726225713427026700,5.648026611328125,0.10927482694387436,0.5226842164993286,0.2892184853553772
1726225713437024000,5.65802392578125,0.0781368762254715,0.4028867483139038,0.2902776300907135
1726225713447019800,5.668019775390625,0.059666525572538376,0.3222592771053314,0.30212604999542236
1726225713457016800,5.678016845703125,0.047274038195610046,0.3159286677837372,0.3107141852378845
1726225713467012900,5.688012939453125,0.05771256610751152,0.341532826423645,0.3042762577533722
1726225713477009000,5.6980087890625,0.053477607667446136,0.3827279508113861,0.3072480857372284
1726225713487005700,5.708005615234375,0.0405716598033905,0.42027556896209717,0.316200315952301
1726225713497002000,5.718001953125,0.06828717887401581,0.47323065996170044,0.32567983865737915
1726225713506998800,5.727998779296875,0.09434274584054947,0.4673472046852112,0.3113320469856262
1726225713516994800,5.737994873046875,0.09405618906021118,0.39816388487815857,0.263417512178421
1726225713526992000,5.747991943359375,0.08781853318214417,0.33609917759895325,0.20040899515151978
1726225713536988000,5.75798779296875,0.07582978159189224,0.3322583734989166,0.14345276355743408
1726225713546984700,5.767984619140625,0.06434463709592819,0.3119901120662689,0.09765651822090149
1726225713556980700,5.777980712890625,0.05109008029103279,0.2601410448551178,0.06776253879070282
1726225713566977800,5.787977783203125,0.060559749603271484,0.17379122972488403,0.07321775704622269
1726225713576973600,5.7979736328125,0.09503836184740067,0.05916132405400276,0.12332193553447723
1726225713586969900,5.807969970703125,0.1291196346282959,-0.06691378355026245,0.21558715403079987
1726225713596966700,5.817966552734375,0.15526601672172546,-0.14020930230617523,0.3555530309677124
1726225713606962700,5.827962646484375,0.225163072347641,-0.16263125836849213,0.541698157787323
1726225713616959700,5.837959716796875,0.30334335565567017,-0.15292111039161682,0.7541675567626953
1726225713626955800,5.847955810546875,0.3469454348087311,-0.1566029191017151,0.9564921259880066
1726225713636952800,5.857952880859375,0.3425893187522888,-0.188643679022789,1.1021153926849365
1726225713646948900,5.867948974609375,0.3291608393192291,-0.2444230616092682,1.1761577129364014
1726225713656945700,5.877945556640625,0.32173463702201843,-0.32119640707969666,1.1842379570007324
1726225713666942000,5.88794189453125,0.3310927152633667,-0.39663416147232056,1.1422146558761597
1726225713676938800,5.897938720703125,0.3355846703052521,-0.5003387331962585,1.0769282579421997
1726225713686934800,5.907934814453125,0.32631659507751465,-0.6121060252189636,0.9985969662666321
1726225713696931800,5.917931884765625,0.32982876896858215,-0.7359043955802917,0.9096860289573669
1726225713706927900,5.927927978515625,0.32388192415237427,-0.9023756384849548,0.817938506603241
1726225713716923600,5.937923583984375,0.27992725372314453,-1.0425018072128296,0.7200673818588257
1726225713726921000,5.9479208984375,0.19111323356628418,-1.0244336128234863,0.6159814596176147
1726225713736916700,5.957916748046875,0.08187010139226913,-0.8599381446838379,0.4959695339202881
1726225713746913800,5.967913818359375,0.02039608545601368,-0.66221684217453,0.3566201627254486
1726225713756909800,5.977909912109375,0.012683304958045483,-0.4887659549713135,0.21370668709278107
1726225713766906600,5.98790673828125,-0.006144445389509201,-0.42798861861228943,0.0473073273897171
1726225713776902700,5.997902587890625,-0.03833939880132675,-0.34293872117996216,-0.10826894640922546
1726225713786899700,6.007899658203125,-0.03550473228096962,-0.271931916475296,-0.22925475239753723
1726225713796895700,6.017895751953125,0.00606321869418025,-0.2099689394235611,-0.269649863243103
1726225713806891800,6.027891845703125,0.050870105624198914,-0.22426505386829376,-0.23547829687595367
1726225713816888800,6.037888916015625,0.08770934492349625,-0.33080241084098816,-0.14550873637199402
1726225713826884900,6.047884765625,0.09001857042312622,-0.45592519640922546,-0.039034485816955566
1726225713836882000,6.0578818359375,0.1132487952709198,-0.4895870089530945,0.05541878566145897
1726225713846877700,6.067877685546875,0.102773517370224,-0.4255952537059784,0.11312868446111679
1726225713856874800,6.077874755859375,0.1036510244011879,-0.36520859599113464,0.11425573378801346
1726225713866870800,6.087870849609375,0.08573620766401291,-0.3612822890281677,0.0663505271077156
1726225713876867800,6.097867919921875,0.07642633467912674,-0.3479712903499603,-0.02039741724729538
1726225713886863600,6.107863525390625,0.07763221114873886,-0.2713340222835541,-0.12063746899366379
1726225713896861000,6.11786083984375,0.046782951802015305,-0.20427963137626648,-0.23509107530117035
1726225713906856700,6.127856689453125,0.003653058083727956,-0.18871985375881195,-0.35443559288978577
1726225713916852700,6.137852783203125,-0.025409486144781113,-0.20526686310768127,-0.44967180490493774
1726225713926849800,6.147849853515625,-0.024566330015659332,-0.21077960729599,-0.5148095488548279
1726225713936845800,6.157845703125,-0.01703810505568981,-0.21791662275791168,-0.553661048412323
1726225713946842600,6.167842529296875,-0.019765183329582214,-0.2056943029165268,-0.5884062647819519
1726225713956839000,6.1778388671875,-0.056104280054569244,-0.17019516229629517,-0.6286354660987854
1726225713966835700,6.187835693359375,-0.08576284348964691,-0.13384221494197845,-0.6477712988853455
1726225713976831700,6.197831787109375,-0.09856705367565155,-0.13126641511917114,-0.6273459196090698
1726225713986828800,6.207828857421875,-0.10665853321552277,-0.14567092061042786,-0.5664732456207275
1726225713996824800,6.217824951171875,-0.1176115870475769,-0.11848856508731842,-0.46723881363868713
1726225714006822400,6.227822509765625,-0.13701245188713074,0.019572902470827103,-0.3383817672729492
1726225714016818200,6.237818115234375,-0.16515593230724335,0.26620373129844666,-0.19282804429531097
1726225714026814500,6.247814453125,-0.17809303104877472,0.5559868216514587,-0.028658010065555573
1726225714036811300,6.257811279296875,-0.15494830906391144,0.8592742681503296,0.16366083920001984
1726225714046807300,6.267807373046875,-0.14497476816177368,1.1425776481628418,0.3813106119632721
1726225714056804400,6.277804443359375,-0.12621305882930756,1.3899900913238525,0.5790042281150818
1726225714066800400,6.28780029296875,-0.12734223902225494,1.5185301303863525,0.7133412957191467
1726225714076797200,6.297797119140625,-0.21836748719215393,1.4717097282409668,0.7336039543151855
1726225714086793500,6.30779345703125,-0.35575276613235474,1.2190635204315186,0.6115262508392334
1726225714096790300,6.317790283203125,-0.4637586176395416,0.7709054946899414,0.3664554953575134
1726225714106786300,6.327786376953125,-0.47905153036117554,0.35369202494621277,0.0777488574385643
1726225714116782300,6.3377822265625,-0.4663354754447937,0.06677450239658356,-0.17527887225151062
1726225714126779400,6.347779296875,-0.46675705909729004,-0.046852726489305496,-0.34036317467689514
1726225714136775200,6.357775146484375,-0.468474805355072,-0.05724385008215904,-0.4268501102924347
1726225714146772500,6.3677724609375,-0.4773058295249939,-0.058635883033275604,-0.48103854060173035
1726225714156768300,6.377768310546875,-0.48864132165908813,-0.09683546423912048,-0.5432577133178711
1726225714166765600,6.387765625,-0.503748893737793,-0.18814140558242798,-0.6227146983146667
1726225714176761300,6.39776123046875,-0.5210325717926025,-0.301220566034317,-0.7100850343704224
1726225714186758400,6.40775830078125,-0.5311682820320129,-0.3988589644432068,-0.791191577911377
1726225714196754400,6.41775439453125,-0.5433722138404846,-0.4694814682006836,-0.8416973948478699
1726225714206751200,6.427751220703125,-0.5490260720252991,-0.5416272878646851,-0.8453906774520874
1726225714216747300,6.437747314453125,-0.5604742169380188,-0.6068856716156006,-0.799255907535553
1726225714226743600,6.44774365234375,-0.5867862701416016,-0.6604602336883545,-0.7147178649902344
1726225714236740400,6.457740234375,-0.6239360570907593,-0.726478099822998,-0.6132354736328125
1726225714246736400,6.467736328125,-0.6332669258117676,-0.7654479146003723,-0.5196226835250854
1726225714256733400,6.4777333984375,-0.6089642643928528,-0.7559534311294556,-0.4576684832572937
1726225714266729500,6.4877294921875,-0.5776920914649963,-0.7078218460083008,-0.4175106883049011
1726225714276726300,6.497726318359375,-0.566125214099884,-0.6642267107963562,-0.39226073026657104
1726225714286722300,6.507722412109375,-0.5766435861587524,-0.5960479378700256,-0.3712683618068695
1726225714296719400,6.51771923828125,-0.5760553479194641,-0.482596755027771,-0.36009931564331055
1726225714306715100,6.527715087890625,-0.5952932238578796,-0.3574068546295166,-0.36580196022987366
1726225714316712400,6.53771240234375,-0.6341822743415833,-0.2767581045627594,-0.3849644660949707
1726225714326708200,6.547708251953125,-0.6558873057365417,-0.2365209311246872,-0.40438368916511536
1726225714336704300,6.557704345703125,-0.6653785705566406,-0.18757176399230957,-0.412923127412796
1726225714346701300,6.567701416015625,-0.6851759552955627,-0.09825573116540909,-0.4069456458091736
1726225714356697300,6.577697265625,-0.7109702825546265,0.014080132357776165,-0.3845237195491791
1726225714366694400,6.5876943359375,-0.7311945557594299,0.10813871771097183,-0.3313606083393097
1726225714376690400,6.5976904296875,-0.7448350191116333,0.16843003034591675,-0.25734230875968933
1726225714386687200,6.607687255859375,-0.743884801864624,0.21442468464374542,-0.16757620871067047
1726225714396683500,6.61768359375,-0.7586213946342468,0.277505099773407,-0.09690950065851212
1726225714406680300,6.627680419921875,-0.7597020864486694,0.4218950569629669,-0.09805572777986526
1726225714416676400,6.63767626953125,-0.7102330923080444,0.6168916821479797,-0.18625561892986298
1726225714426673400,6.64767333984375,-0.5385292768478394,0.7962729334831238,-0.3291206359863281
1726225714436669400,6.65766943359375,-0.27733519673347473,0.909974992275238,-0.4431880712509155
1726225714446665200,6.667665283203125,-0.06579019874334335,0.8829556107521057,-0.41305840015411377
1726225714456662500,6.67766259765625,0.0827191174030304,0.6493442058563232,-0.22151987254619598
1726225714466658300,6.687658203125,-0.026138126850128174,0.24234898388385773,0.037144970148801804
1726225714476655400,6.6976552734375,-0.17517314851284027,-0.12017621099948883,0.31759634613990784
1726225714486651400,6.7076513671875,-0.22678734362125397,-0.4381895959377289,0.5426661968231201
1726225714496648200,6.717648193359375,-0.17691059410572052,-0.6419879794120789,0.6720108985900879
1726225714506644200,6.727644287109375,-0.04722104221582413,-0.7905295491218567,0.6713783740997314
1726225714516641300,6.737641357421875,0.007156978826969862,-0.8750763535499573,0.5649352669715881
1726225714526637300,6.74763720703125,-0.019246399402618408,-0.9609052538871765,0.35158973932266235
1726225714536633300,6.75763330078125,-0.06589139997959137,-1.0903465747833252,0.08085596561431885
1726225714546630400,6.76763037109375,-0.10155059397220612,-1.269742488861084,-0.18925487995147705
1726225714556626400,6.77762646484375,-0.12088940292596817,-1.4461404085159302,-0.3970373570919037
1726225714566623500,6.78762353515625,-0.14729464054107666,-1.578558087348938,-0.5283288359642029
1726225714576619300,6.797619384765625,-0.1688971370458603,-1.6181707382202148,-0.5788196921348572
1726225714586616300,6.8076162109375,-0.1853083372116089,-1.5984612703323364,-0.5786247253417969
1726225714596612400,6.8176123046875,-0.21963435411453247,-1.551146149635315,-0.5683422684669495
1726225714606609400,6.827609375,-0.23510625958442688,-1.4758716821670532,-0.5655518174171448
1726225714616605200,6.837605224609375,-0.24592188000679016,-1.3608180284500122,-0.5664836764335632
1726225714626601500,6.8476015625,-0.23228970170021057,-1.1903952360153198,-0.556784451007843
1726225714636598300,6.857598388671875,-0.22428156435489655,-1.0145562887191772,-0.5575578212738037
1726225714646594300,6.86759423828125,-0.224654421210289,-0.8371135592460632,-0.5620124936103821
1726225714656591400,6.87759130859375,-0.22172147035598755,-0.6346305012702942,-0.5713369846343994
1726225714666587400,6.88758740234375,-0.18501965701580048,-0.39038026332855225,-0.5838797092437744
1726225714676584200,6.897584228515625,-0.14729970693588257,-0.144878089427948,-0.5962538123130798
1726225714686580500,6.90758056640625,-0.057793259620666504,0.1408119797706604,-0.606474757194519
1726225714696577300,6.917577392578125,0.10302465409040451,0.4773111641407013,-0.6046616435050964
1726225714706573300,6.9275732421875,0.2994522154331207,0.8136186003684998,-0.5917741060256958
1726225714716570400,6.9375703125,0.49298518896102905,1.0408387184143066,-0.5541121959686279
1726225714726566400,6.94756640625,0.6597850918769836,1.1320456266403198,-0.507034420967102
1726225714736562200,6.957562255859375,0.6799865365028381,1.0578664541244507,-0.45674702525138855
1726225714746559500,6.9675595703125,0.528398871421814,0.7975946068763733,-0.43573737144470215
1726225714756555300,6.97755517578125,0.32400524616241455,0.4636760354042053,-0.37574511766433716
1726225714766552600,6.987552490234375,0.30742600560188293,0.07434453815221786,-0.2789056599140167
1726225714776548400,6.99754833984375,0.35918211936950684,-0.3573770523071289,-0.15577255189418793
1726225714786545200,7.007545166015625,0.3810908794403076,-0.7648446559906006,-0.02502412721514702
1726225714796541400,7.01754150390625,0.34534141421318054,-1.1326799392700195,0.04634859040379524
1726225714806538200,7.027538330078125,0.2750195860862732,-1.4494637250900269,0.02232767641544342
1726225714816534300,7.0375341796875,0.21073007583618164,-1.707421064376831,-0.1098463386297226
1726225714826531300,7.04753125,0.1601925939321518,-1.910666823387146,-0.3185825049877167
1726225714836527400,7.05752734375,0.14284875988960266,-2.0389842987060547,-0.5145586729049683
1726225714846523400,7.0675234375,0.1255616545677185,-2.0794546604156494,-0.628067135810852
1726225714856520400,7.0775205078125,0.12439705431461334,-2.009077310562134,-0.6197985410690308
1726225714866516200,7.08751611328125,0.11648080497980118,-1.8540964126586914,-0.4978491961956024
1726225714876513300,7.09751318359375,0.09736011177301407,-1.6729543209075928,-0.29548197984695435
1726225714886509300,7.10750927734375,0.08421261608600616,-1.456681728363037,-0.052129779011011124
1726225714896506400,7.11750634765625,0.07730703800916672,-1.1870193481445312,0.18230696022510529
1726225714906502100,7.127502197265625,0.06468471884727478,-0.8490192294120789,0.3865722119808197
1726225714916499500,7.13749951171875,0.044084370136260986,-0.4726543724536896,0.5535960793495178
1726225714926495200,7.1474951171875,0.02690351940691471,-0.09360159188508987,0.6915161609649658
1726225714936491300,7.1574912109375,0.020495953038334846,0.28037306666374207,0.791033923625946
1726225714946488300,7.16748828125,0.018028534948825836,0.6175013184547424,0.8593549132347107
1726225714956484400,7.177484375,0.026942402124404907,0.8853532671928406,0.8989095091819763
1726225714966481400,7.1874814453125,0.04905782267451286,1.073093295097351,0.9274306893348694
1726225714976477400,7.1974775390625,0.07886259257793427,1.1680264472961426,0.9526183009147644
1726225714986474200,7.20747412109375,0.12514273822307587,1.1879520416259766,0.9625931978225708
1726225714996470500,7.217470458984375,0.15020893514156342,1.0966594219207764,0.919023871421814
1726225715006467300,7.22746728515625,0.12374217808246613,0.8964914083480835,0.8061449527740479
1726225715016463400,7.23746337890625,0.05831124261021614,0.5861047506332397,0.6305529475212097
1726225715026460200,7.247460205078125,0.032584309577941895,0.2639120817184448,0.29987671971321106
1726225715036456400,7.25745654296875,0.004739094991236925,0.09156133979558945,-0.19141283631324768
1726225715046452200,7.2674521484375,-0.02937306836247444,0.048355814069509506,-0.6294469237327576
1726225715056449300,7.27744921875,-0.04771772027015686,0.07474295049905777,-0.8746609091758728
1726225715066445300,7.2874453125,-0.026989007368683815,0.13725106418132782,-0.9041120409965515
1726225715076442400,7.2974423828125,0.004568119999021292,0.19326452910900116,-0.7555824518203735
1726225715086438100,7.307438232421875,0.05353699252009392,0.27944254875183105,-0.48896142840385437
1726225715096435200,7.317435302734375,0.0696757510304451,0.45640829205513,-0.2026764154434204
1726225715106431200,7.32743115234375,0.06633321940898895,0.7075872421264648,0.048705752938985825
1726225715116428000,7.337427978515625,0.0852094367146492,0.9743342399597168,0.25550368428230286
1726225715126424300,7.34742431640625,0.12379863858222961,1.1581690311431885,0.4360335171222687
1726225715136420400,7.35742041015625,0.1186068058013916,1.2488209009170532,0.6028264760971069
1726225715146417200,7.367417236328125,0.09354912489652634,1.30598783493042,0.7442523241043091
1726225715156413400,7.377413330078125,0.07614616304636002,1.3442012071609497,0.8365905284881592
1726225715166410200,7.38741015625,0.08075716346502304,1.3506183624267578,0.859398603439331
1726225715176406300,7.39740625,0.09823335707187653,1.3305573463439941,0.8136383295059204
1726225715186403300,7.4074033203125,0.09083882719278336,1.2878836393356323,0.7272374033927917
1726225715196399000,7.417399169921875,0.06631617248058319,1.2492731809616089,0.6185111403465271
1726225715206396400,7.427396484375,0.05639749392867088,1.2315303087234497,0.5113775134086609
1726225715216392200,7.43739208984375,0.07663565874099731,1.2503628730773926,0.4187075197696686
1726225715226388200,7.44738818359375,0.12418879568576813,1.3024927377700806,0.3621017634868622
1726225715236385300,7.45738525390625,0.18423348665237427,1.3772830963134766,0.35842499136924744
1726225715246381300,7.46738134765625,0.22520701587200165,1.4741294384002686,0.39119091629981995
1726225715256378000,7.477378173828125,0.2697262763977051,1.5498074293136597,0.4304752051830292
1726225715266374400,7.48737451171875,0.33271804451942444,1.5908312797546387,0.4389171600341797
1726225715276371200,7.49737109375,0.40496134757995605,1.556436538696289,0.40357649326324463
1726225715286367200,7.5073671875,0.44591063261032104,1.4401378631591797,0.350056529045105
1726225715296364300,7.5173642578125,0.4487338662147522,1.2794427871704102,0.28290173411369324
1726225715306360300,7.5273603515625,0.44971656799316406,1.079221487045288,0.20816971361637115
1726225715316357000,7.537357177734375,0.4182033836841583,0.8194530606269836,0.10663936287164688
1726225715326353400,7.547353515625,0.3879821002483368,0.5420704483985901,-0.008085357025265694
1726225715336349200,7.55734912109375,0.3687697649002075,0.3229847252368927,-0.1161002442240715
1726225715346346200,7.56734619140625,0.35994407534599304,0.16198544204235077,-0.22134144604206085
1726225715356342300,7.57734228515625,0.2954532206058502,0.08500809967517853,-0.29411444067955017
1726225715366339300,7.58733935546875,0.22984625399112701,0.19693543016910553,-0.3618682026863098
1726225715376335000,7.597335205078125,0.22196941077709198,0.5445969700813293,-0.4198244512081146
1726225715386332200,7.607332275390625,0.20985150337219238,0.9420676827430725,-0.46390774846076965
1726225715396328200,7.617328125,0.20948877930641174,1.16477370262146,-0.4672470688819885
1726225715406325200,7.6273251953125,0.2190692275762558,1.1838147640228271,-0.4116344153881073
1726225715416321300,7.6373212890625,0.21315647661685944,1.0021920204162598,-0.3028720021247864
1726225715426317300,7.6473173828125,0.204294815659523,0.7401907444000244,-0.18073488771915436
1726225715436314400,7.657314453125,0.1889190524816513,0.5405932068824768,-0.09402769804000854
1726225715446310400,7.667310302734375,0.16863402724266052,0.47215208411216736,-0.05390824005007744
1726225715456307200,7.67730712890625,0.17988374829292297,0.5672503709793091,-0.04262096434831619
1726225715466303200,7.68730322265625,0.18986953794956207,0.7750619053840637,-0.05439852550625801
1726225715476300300,7.69730029296875,0.19382059574127197,0.9321218132972717,-0.062434881925582886
1726225715486296000,7.707296142578125,0.18022356927394867,0.9485719203948975,-0.05847981944680214
1726225715496293400,7.71729345703125,0.15858697891235352,0.843934953212738,-0.03416009992361069
1726225715506289200,7.7272890625,0.14279523491859436,0.7498441338539124,0.014092116616666317
1726225715516285200,7.73728515625,0.14015445113182068,0.720951497554779,0.047559261322021484
1726225715526282200,7.7472822265625,0.13680098950862885,0.7938268184661865,0.07574403285980225
1726225715536278300,7.7572783203125,0.10676159709692001,0.9168227314949036,0.08346906304359436
1726225715546275000,7.767275146484375,0.061109427362680435,1.0487288236618042,0.052979595959186554
1726225715556271400,7.777271240234375,0.00732395937666297,1.1260465383529663,0.001118793967179954
1726225715566268200,7.78726806640625,-0.038898929953575134,1.1886886358261108,-0.06483013182878494
1726225715576264200,7.79726416015625,-0.048165932297706604,1.2525248527526855,-0.11683154106140137
1726225715586261200,7.80726123046875,-0.01022920198738575,1.1988341808319092,-0.12897422909736633
1726225715596257300,7.81725732421875,0.047135286033153534,0.9952318072319031,-0.11335771530866623
1726225715606253000,7.827253173828125,0.07419619709253311,0.7672916054725647,-0.10045017302036285
1726225715616250400,7.83725048828125,0.057423077523708344,0.6061573028564453,-0.10089412331581116
1726225715626246100,7.84724609375,0.041305895894765854,0.408933162689209,-0.15701651573181152
1726225715636243500,7.857243408203125,-0.0030719563364982605,0.32926177978515625,-0.2016734629869461
1726225715646239200,7.8672392578125,-0.03063354268670082,0.23622505366802216,-0.22110602259635925
1726225715656236300,7.877236328125,-0.05312979593873024,0.12235360592603683,-0.21526624262332916
1726225715666232300,7.887232421875,-0.09128623455762863,0.02485528215765953,-0.18506892025470734
1726225715676229000,7.89722900390625,-0.11339287459850311,-0.07234956324100494,-0.144971564412117
1726225715686225200,7.90722509765625,-0.13466806709766388,-0.19073399901390076,-0.11609571427106857
1726225715696222200,7.91722216796875,-0.16504913568496704,-0.2914070785045624,-0.07983171194791794
1726225715706218200,7.92721826171875,-0.19663316011428833,-0.3582596182823181,-0.05644090473651886
1726225715716214300,7.93721435546875,-0.22164104878902435,-0.39734336733818054,-0.0507393442094326
1726225715726211300,7.94721142578125,-0.2564046084880829,-0.4065653681755066,-0.03903741389513016
1726225715736207400,7.957207275390625,-0.2799019515514374,-0.39685919880867004,-0.0008056062506511807
1726225715746204200,7.9672041015625,-0.28623735904693604,-0.40678319334983826,0.0755847692489624
1726225715756200200,7.9772001953125,-0.27135854959487915,-0.4380524456501007,0.1999669075012207
1726225715766197200,7.987197265625,-0.2606438398361206,-0.5016330480575562,0.3679628372192383
1726225715776193000,7.997193115234375,-0.281126469373703,-0.5663142800331116,0.5582403540611267
1726225715786190300,8.0071904296875,-0.3307177424430847,-0.5989435911178589,0.7421534657478333
1726225715796186000,8.01718603515625,-0.3896641433238983,-0.620237410068512,0.8790338635444641
1726225715806182100,8.02718212890625,-0.42408522963523865,-0.6773907542228699,0.9688079357147217
1726225715816179200,8.03717919921875,-0.4418988525867462,-0.6982707381248474,1.0234419107437134
1726225715826175200,8.04717529296875,-0.45555925369262695,-0.6028462052345276,1.068603515625
1726225715836172300,8.05717236328125,-0.4526071548461914,-0.39518725872039795,1.1088720560073853
1726225715846168300,8.067168212890625,-0.43053141236305237,-0.19121097028255463,1.1391162872314453
1726225715856165000,8.0771650390625,-0.33993253111839294,-0.03851703181862831,1.1819257736206055
1726225715866161400,8.087161376953125,-0.2296835333108902,0.05657246708869934,1.2503365278244019
1726225715876158200,8.097158203125,-0.12832574546337128,0.07572778314352036,1.3238868713378906
1726225715886154200,8.107154296875,-0.030899591743946075,0.049908172339200974,1.3591303825378418
1726225715896150300,8.117150390625,0.05103841796517372,-0.031088409945368767,1.3279075622558594
1726225715906147300,8.127147216796875,0.1496451497077942,-0.17235659062862396,1.2198013067245483
1726225715916143000,8.13714306640625,0.2121652513742447,-0.32414957880973816,1.077863097190857
1726225715926140400,8.147140380859375,0.22511860728263855,-0.47109270095825195,0.8905853033065796
1726225715936136200,8.15713623046875,0.25229936838150024,-0.5884501934051514,0.6710979342460632
1726225715946133200,8.16713330078125,0.3075234591960907,-0.6662536859512329,0.441692978143692
1726225715956129300,8.17712939453125,0.38206613063812256,-0.7136560678482056,0.24920769035816193
1726225715966126000,8.1871259765625,0.41726967692375183,-0.7666428685188293,0.08279288560152054
1726225715976122000,8.1971220703125,0.42909303307533264,-0.7379941344261169,-0.0562124066054821
1726225715986118400,8.207118408203126,0.4464067816734314,-0.6704289317131042,-0.19018085300922394
1726225715996115200,8.217115234375,0.45470839738845825,-0.6659317016601562,-0.329576313495636
1726225716006111700,8.22711181640625,0.4492827355861664,-0.7567721009254456,-0.4613356590270996
1726225716016108500,8.237108642578125,0.4286040961742401,-0.8620319366455078,-0.5628987550735474
1726225716026104600,8.2471044921875,0.38629150390625,-0.96782386302948,-0.6351484656333923
1726225716036101600,8.2571015625,0.3233162760734558,-1.0687878131866455,-0.6741201281547546
1726225716046097400,8.267097412109376,0.2635248601436615,-1.1368565559387207,-0.6821990609169006
1726225716056094500,8.277094482421875,0.20850206911563873,-1.2166541814804077,-0.6514914631843567
1726225716066090500,8.287090576171876,0.15550117194652557,-1.2833256721496582,-0.5838594436645508
1726225716076086500,8.29708642578125,0.0925736129283905,-1.3224672079086304,-0.4950571358203888
1726225716086083300,8.307083251953125,0.01877901330590248,-1.3110768795013428,-0.39470362663269043
1726225716096079600,8.31707958984375,-0.060859356075525284,-1.2808667421340942,-0.2972167730331421
1726225716106076400,8.327076416015625,-0.1287265568971634,-1.232246994972229,-0.20486445724964142
1726225716116072400,8.337072509765624,-0.18625536561012268,-1.154815912246704,-0.129539355635643
1726225716126069500,8.347069580078125,-0.2297479808330536,-1.0276433229446411,-0.07980641722679138
1726225716136065500,8.3570654296875,-0.2557643949985504,-0.8672376275062561,-0.08404909819364548
1726225716146062600,8.3670625,-0.2911309003829956,-0.7042732238769531,-0.1104612648487091
1726225716156058600,8.37705859375,-0.3388478457927704,-0.5703377723693848,-0.14038507640361786
1726225716166055400,8.387055419921875,-0.3581746518611908,-0.4635801613330841,-0.15406440198421478
1726225716176051700,8.3970517578125,-0.32990574836730957,-0.3822709321975708,-0.12931963801383972
1726225716186047500,8.407047607421875,-0.3219705820083618,-0.3542121350765228,-0.04165104031562805
1726225716196044500,8.41704443359375,-0.36668533086776733,-0.3469550311565399,0.056470733135938644
1726225716206040600,8.42704052734375,-0.3962131142616272,-0.3015180230140686,0.12536032497882843
1726225716216037600,8.43703759765625,-0.39569538831710815,-0.18846045434474945,0.14983609318733215
1726225716226033400,8.447033447265625,-0.3928721845149994,-0.04652222990989685,0.14467568695545197
1726225716236030500,8.457030517578126,-0.40311896800994873,0.07712168246507645,0.1349402368068695
1726225716246026500,8.467026611328125,-0.43890172243118286,0.1394636183977127,0.14815057814121246
1726225716256022500,8.4770224609375,-0.4709331691265106,0.1665509045124054,0.1816941648721695
1726225716266019600,8.48701953125,-0.4980792999267578,0.2543473243713379,0.2090381681919098
1726225716276015600,8.497015625,-0.49047383666038513,0.42721232771873474,0.23931005597114563
1726225716286012400,8.507012451171875,-0.45735636353492737,0.6411163210868835,0.280861496925354
1726225716296008700,8.5170087890625,-0.41546431183815,0.872032642364502,0.33186396956443787
1726225716306005500,8.527005615234375,-0.39105457067489624,1.1098198890686035,0.37706393003463745
1726225716316001500,8.53700146484375,-0.39822033047676086,1.315092921257019,0.4043717086315155
1726225716325998600,8.54699853515625,-0.3939438462257385,1.4533610343933105,0.41816556453704834
1726225716335994400,8.556994384765625,-0.3700837790966034,1.503535509109497,0.4010166525840759
1726225716345990400,8.566990478515624,-0.348966509103775,1.450725793838501,0.3324839472770691
1726225716355987500,8.576987548828125,-0.3143310248851776,1.351115107536316,0.21155086159706116
1726225716365983500,8.5869833984375,-0.2635331153869629,1.2087587118148804,0.03320455923676491
1726225716375980500,8.59698046875,-0.19812986254692078,1.0303288698196411,-0.20711590349674225
1726225716385976600,8.6069765625,-0.1526545286178589,0.8065940141677856,-0.4625133275985718
1726225716395973400,8.616973388671875,-0.15004383027553558,0.5596345663070679,-0.679109513759613
1726225716405969700,8.6269697265625,-0.16283711791038513,0.3013899326324463,-0.8520117998123169
1726225716415966500,8.636966552734375,-0.17372332513332367,0.05510985851287842,-0.986129105091095
1726225716425962500,8.64696240234375,-0.18018095195293427,-0.19218036532402039,-1.1038925647735596
1726225716435959600,8.65695947265625,-0.1848614662885666,-0.4278874397277832,-1.2383414506912231
1726225716445955600,8.66695556640625,-0.18844980001449585,-0.6361596584320068,-1.3970743417739868
1726225716455951400,8.676951416015624,-0.21392160654067993,-0.8293054103851318,-1.5754680633544922
1726225716465948700,8.68694873046875,-0.24037185311317444,-1.0092201232910156,-1.7356563806533813
1726225716475944400,8.6969443359375,-0.2676093280315399,-1.16983163356781,-1.8560714721679688
1726225716485941500,8.70694140625,-0.3083304166793823,-1.3182806968688965,-1.8727545738220215
1726225716495937500,8.7169375,-0.3333289623260498,-1.430306315422058,-1.757122278213501
1726225716505934600,8.7269345703125,-0.341383159160614,-1.5354760885238647,-1.5398666858673096
1726225716515930400,8.736930419921874,-0.34669697284698486,-1.5761407613754272,-1.2684167623519897
1726225716525927400,8.746927490234375,-0.34998250007629395,-1.5075830221176147,-0.9694143533706665
1726225716535923500,8.75692333984375,-0.34213683009147644,-1.325852870941162,-0.6700345277786255
1726225716545919500,8.76691943359375,-0.3147430419921875,-1.0361480712890625,-0.41685235500335693
1726225716555916500,8.77691650390625,-0.2819286286830902,-0.630320131778717,-0.23037008941173553
1726225716565912600,8.78691259765625,-0.2642441689968109,-0.16525207459926605,-0.09329479187726974
1726225716575909600,8.79690966796875,-0.2413708120584488,0.3297206461429596,0.009996707551181316
1726225716585905700,8.80690576171875,-0.2585170269012451,0.7863819003105164,0.1100066602230072
1726225716595902500,8.81690234375,-0.3003539741039276,1.0983654260635376,0.19333936274051666
1726225716605898500,8.8268984375,-0.34350916743278503,1.2306156158447266,0.2536093592643738
1726225716615894500,8.83689453125,-0.37535470724105835,1.2259880304336548,0.26602768898010254
1726225716625891300,8.846891357421875,-0.386928528547287,1.1061482429504395,0.21540232002735138
1726225716635887600,8.8568876953125,-0.35224005579948425,0.9220324158668518,0.10699356347322464
1726225716645884400,8.866884521484375,-0.29539036750793457,0.6984030604362488,-0.054188936948776245
1726225716655880400,8.87688037109375,-0.2670695185661316,0.4401443600654602,-0.253365159034729
1726225716665877500,8.88687744140625,-0.28110170364379883,0.11086712777614594,-0.44194573163986206
1726225716675873500,8.89687353515625,-0.3158072233200073,-0.27195054292678833,-0.5769096612930298
1726225716685870300,8.906870361328124,-0.3438495099544525,-0.6979644298553467,-0.6625180244445801
1726225716695866600,8.91686669921875,-0.36663684248924255,-1.1408153772354126,-0.6921182870864868
1726225716705862400,8.9268623046875,-0.3840126395225525,-1.5518122911453247,-0.6712273955345154
1726225716715859500,8.936859375,-0.39112940430641174,-1.8644154071807861,-0.6170703768730164
1726225716725855500,8.94685546875,-0.39343199133872986,-2.0423407554626465,-0.5547130107879639
1726225716735852500,8.9568525390625,-0.39013952016830444,-2.0988271236419678,-0.5000340342521667
1726225716745848300,8.966848388671876,-0.37606045603752136,-2.05914306640625,-0.4595974087715149
1726225716755845600,8.976845703125,-0.353231817483902,-1.9214155673980713,-0.44446587562561035
1726225716765841400,8.98684130859375,-0.32640501856803894,-1.6996288299560547,-0.4414525032043457
1726225716775838700,8.996838623046875,-0.2929746210575104,-1.4091930389404297,-0.42729780077934265
1726225716785834500,9.00683447265625,-0.24871553480625153,-1.0778484344482422,-0.40935927629470825
1726225716795830500,9.01683056640625,-0.20513370633125305,-0.7278083562850952,-0.3788850009441376
1726225716805827600,9.02682763671875,-0.1690196543931961,-0.38963431119918823,-0.32941970229148865
1726225716815823600,9.03682373046875,-0.133092001080513,-0.10130292177200317,-0.2715124785900116
1726225716825820400,9.0468203125,-0.094927579164505,0.13346165418624878,-0.24047546088695526
1726225716835816700,9.056816650390624,-0.020729513838887215,0.32373759150505066,-0.2829448878765106
1726225716845813500,9.0668134765625,0.09925547987222672,0.37981125712394714,-0.3906409740447998
1726225716855809500,9.0768095703125,0.23621758818626404,0.20199517905712128,-0.4488939046859741
1726225716865806600,9.086806640625,0.28290387988090515,-0.1891145259141922,-0.32366809248924255
1726225716875802600,9.096802734375,0.23161645233631134,-0.6484216451644897,0.0014682007022202015
1726225716885798400,9.10679833984375,0.195665642619133,-1.1289418935775757,0.42969757318496704
1726225716895795500,9.11679541015625,0.14282479882240295,-1.5614776611328125,0.8582819700241089
1726225716905791500,9.12679150390625,0.07814433425664902,-1.897895097732544,1.214382290840149
1726225716915788300,9.136788330078126,0.04484177380800247,-2.124199151992798,1.4247757196426392
1726225716925784600,9.14678466796875,0.04381272941827774,-2.2733523845672607,1.4833890199661255
1726225716935781400,9.156781494140626,0.04326145350933075,-2.463730812072754,1.3900967836380005
1726225716945777400,9.16677734375,0.036375585943460464,-2.6446354389190674,1.1914420127868652
1726225716955774500,9.1767744140625,0.0008255799184553325,-2.7436232566833496,0.926790714263916
1726225716965770500,9.1867705078125,-0.02629445493221283,-2.690423011779785,0.6819271445274353
1726225716975766500,9.1967666015625,-0.037466149777173996,-2.500757932662964,0.46453118324279785
1726225716985763600,9.206763671875,-0.038903191685676575,-2.222900867462158,0.2993651330471039
1726225716995759400,9.21675927734375,-0.046548593789339066,-1.9458072185516357,0.1811295747756958
1726225717005757000,9.2267568359375,-0.0575714185833931,-1.6542494297027588,-0.03636066988110542
1726225717015752700,9.236752685546875,-0.06566103547811508,-1.2812124490737915,-0.5076251029968262
1726225717025750000,9.24675,-0.009245163761079311,-0.903333842754364,-1.0053281784057617
1726225717035745800,9.256745849609375,0.016211725771427155,-0.6303747296333313,-1.248593807220459
1726225717045742800,9.266742919921874,0.0012141350889578462,-0.34182605147361755,-1.3099772930145264
1726225717055739000,9.27673876953125,-0.05465871840715408,-0.007443268783390522,-1.2548799514770508
1726225717065735000,9.28673486328125,-0.12256240099668503,0.3616945445537567,-1.1425634622573853
1726225717075731700,9.296731689453125,-0.15145955979824066,0.734035074710846,-1.0457426309585571
1726225717085728000,9.30672802734375,-0.16030073165893555,1.1346653699874878,-0.9751009941101074
1726225717095724800,9.316724853515625,-0.12192030996084213,1.5815786123275757,-0.9279009699821472
1726225717105720800,9.326720947265626,-0.05905000492930412,2.056159257888794,-0.8338575959205627
1726225717115718000,9.3367177734375,0.06362611055374146,2.5349903106689453,-0.6481875777244568
1726225717125714000,9.3467138671875,0.23681999742984772,2.9848341941833496,-0.35572001338005066
1726225717135709700,9.356709716796875,0.4757888913154602,3.2273778915405273,0.03408074006438255
1726225717145707000,9.36670703125,0.6844537258148193,3.2249202728271484,0.46424782276153564
1726225717155702800,9.376702880859375,0.858727216720581,2.9843862056732178,0.9019458293914795
1726225717165699800,9.386699951171876,0.9601433277130127,2.5410542488098145,1.3390120267868042
1726225717175696000,9.39669580078125,0.9924882054328918,2.0287766456604004,1.7154788970947266
1726225717185692700,9.406692626953125,0.8873564600944519,1.6511212587356567,1.9741765260696411
1726225717195689000,9.41668896484375,0.7420562505722046,1.4789345264434814,2.106212854385376
1726225717205685800,9.426685791015625,0.6046307682991028,1.4979138374328613,2.1073079109191895
1726225717215681800,9.436681884765624,0.5524802207946777,1.5527589321136475,2.010648012161255
1726225717225678000,9.446677978515625,0.5785254240036011,1.5056567192077637,1.8442654609680176
1726225717235675000,9.4566748046875,0.6014469861984253,1.4780207872390747,1.6117652654647827
1726225717245671000,9.4666708984375,0.5978676676750183,1.5116959810256958,1.2917306423187256
1726225717255668000,9.47666796875,0.5894198417663574,1.603872299194336,0.8702507019042969
1726225717265663700,9.486663818359375,0.5982365012168884,1.700500249862671,0.39578649401664734
1726225717275660800,9.496660888671874,0.6007127165794373,1.7187237739562988,-0.09180501848459244
1726225717285656800,9.50665673828125,0.6029481887817383,1.7066174745559692,-0.5134508013725281
1726225717295654000,9.51665380859375,0.582564115524292,1.6929893493652344,-0.8436039686203003
1726225717305649700,9.526649658203125,0.537736713886261,1.5432534217834473,-1.0850937366485596
1726225717315646000,9.53664599609375,0.46937042474746704,1.234423041343689,-1.2576740980148315
1726225717325642800,9.546642822265625,0.3954242765903473,0.8672826290130615,-1.3716914653778076
1726225717335638800,9.556638671875,0.32506197690963745,0.5217060446739197,-1.410204291343689
1726225717345635800,9.5666357421875,0.24932646751403809,0.23127290606498718,-1.3727079629898071
1726225717355631900,9.5766318359375,0.18703140318393707,-0.004466121084988117,-1.2706692218780518
1726225717365629000,9.58662890625,0.13449415564537048,-0.18496133387088776,-1.105977177619934
1726225717375625000,9.596625,0.09118903428316116,-0.3004647493362427,-0.8924023509025574
1726225717385621800,9.606621826171875,0.09523198008537292,-0.3610897660255432,-0.6600213050842285
1726225717395618000,9.6166181640625,0.1258559376001358,-0.344633549451828,-0.42531827092170715
1726225717405613800,9.62661376953125,0.17469005286693573,-0.2037118524312973,-0.19894319772720337
1726225717415611000,9.63661083984375,0.21554693579673767,0.07449553906917572,0.02725612185895443
1726225717425607000,9.64660693359375,0.250824511051178,0.46247628331184387,0.26929378509521484
1726225717435604000,9.65660400390625,0.29169443249702454,0.9087123870849609,0.5093364715576172
1726225717445599700,9.666599853515624,0.33756765723228455,1.3653172254562378,0.7208133339881897
1726225717455596800,9.6765966796875,0.37274080514907837,1.7716783285140991,0.8898425698280334
1726225717465592800,9.6865927734375,0.395445317029953,2.0592803955078125,1.011760950088501
1726225717475589600,9.696589599609375,0.4048905074596405,2.2131786346435547,1.0913079977035522
1726225717485586000,9.7065859375,0.40912118554115295,2.2421083450317383,1.1493721008300781
1726225717495582000,9.71658203125,0.39503014087677,2.114867687225342,1.2044225931167603
1726225717505578800,9.726578857421876,0.34745943546295166,1.8368146419525146,1.2491964101791382
1726225717515575000,9.736574951171875,0.29921066761016846,1.457220196723938,1.2714399099349976
1726225717525571800,9.74657177734375,0.2691984474658966,1.025725245475769,1.259307622909546
1726225717535568000,9.75656787109375,0.26451048254966736,0.5991776585578918,1.185820460319519
1726225717545565000,9.76656494140625,0.25099653005599976,0.18941999971866608,1.0383023023605347
1726225717555560700,9.776560791015624,0.1987551748752594,-0.18559595942497253,0.8215007781982422
1726225717565556700,9.786556640625,0.135390043258667,-0.5475949048995972,0.5678884983062744
1726225717575553800,9.7965537109375,0.08139392733573914,-0.9175093173980713,0.31554651260375977
1726225717585549800,9.8065498046875,0.022955648601055145,-1.2669082880020142,0.08301205933094025
1726225717595547000,9.816546875,-0.04890123009681702,-1.5412712097167969,-0.12433766573667526
1726225717605543000,9.82654296875,-0.11818602681159973,-1.6818538904190063,-0.27964869141578674
1726225717615539700,9.836539794921874,-0.18059533834457397,-1.4969569444656372,-0.3183092772960663
1726225717625536000,9.846535888671875,-0.2641749382019043,-0.6046954989433289,-0.07749159634113312
1726225717635532800,9.85653271484375,-0.3676382005214691,0.3234174847602844,0.29598426818847656
1726225717645528800,9.86652880859375,-0.4071435332298279,0.667380154132843,0.5912070870399475
1726225717655524900,9.87652490234375,-0.31905442476272583,0.5587080121040344,0.7245388031005859
1726225717665522000,9.88652197265625,-0.16906066238880157,0.26527586579322815,0.6910053491592407
1726225717675517700,9.896517578125,-0.0624585822224617,0.1177854910492897,0.5368016362190247
1726225717685515000,9.906514892578125,-0.03086896613240242,0.1264498233795166,0.3105091452598572
1726225717695510800,9.9165107421875,-0.050345197319984436,0.2048972249031067,0.06771353632211685
1726225717705507800,9.9265078125,-0.08319316059350967,0.27582305669784546,-0.13691124320030212
1726225717715503900,9.93650390625,-0.09206601232290268,0.2814367413520813,-0.26157090067863464
1726225717725501000,9.9465009765625,-0.06555184721946716,0.18575628101825714,-0.28022900223731995
1726225717735496700,9.95649658203125,-0.023970313370227814,0.022955117747187614,-0.22608213126659393
1726225717745493000,9.966492919921874,0.0017044231062754989,-0.1543826460838318,-0.14464160799980164
1726225717755489800,9.97648974609375,0.023543940857052803,-0.320050984621048,-0.05649576708674431
1726225717765485800,9.98648583984375,0.06192062422633171,-0.47829973697662354,0.02401265874505043
1726225717775483000,9.99648291015625,0.10042300820350647,-0.5462779998779297,0.11005645990371704
1726225717785479000,10.00647900390625,0.13976483047008514,-0.5045438408851624,0.1942962408065796
1726225717795476000,10.01647607421875,0.1517740786075592,-0.3699663281440735,0.2801712155342102
1726225717805472000,10.026471923828124,0.1371791660785675,-0.18882158398628235,0.36190733313560486
1726225717815467800,10.0364677734375,0.13998347520828247,-0.0014455638593062758,0.41458627581596375
1726225717825465000,10.046465087890626,0.15987089276313782,0.131709024310112,0.44510236382484436
1726225717835460900,10.0564609375,0.14854100346565247,0.1651277095079422,0.45826104283332825
1726225717845458000,10.0664580078125,0.11616895347833633,0.08680067211389542,0.44726458191871643
1726225717855454000,10.076453857421875,0.08796234428882599,-0.06692656874656677,0.4333687424659729
1726225717865450800,10.08645068359375,0.07914169132709503,-0.27209222316741943,0.4065786898136139
1726225717875446800,10.09644677734375,0.07306515425443649,-0.4754195213317871,0.35673388838768005
1726225717885443800,10.10644384765625,0.05443234741687775,-0.6594365239143372,0.2818966507911682
1726225717895440000,10.11643994140625,0.03647332265973091,-0.7916115522384644,0.16649283468723297
1726225717905436000,10.126435791015625,0.028072914108633995,-0.8818658590316772,0.025911757722496986
1726225717915433000,10.136432861328124,0.026101641356945038,-0.9751558303833008,-0.10895897448062897
1726225717925429000,10.146428955078125,0.034026142209768295,-1.0843994617462158,-0.19596657156944275
1726225717935425800,10.15642578125,0.040777258574962616,-1.1742808818817139,-0.21344304084777832
1726225717945421800,10.166421875,0.04424202814698219,-1.253084659576416,-0.1984795331954956
1726225717955419000,10.1764189453125,0.04945782944560051,-1.3016670942306519,-0.1786256730556488
1726225717965414700,10.18641455078125,0.05188663303852081,-1.274990439414978,-0.1461782455444336
1726225717975411000,10.196410888671876,0.03459366410970688,-1.1534364223480225,-0.10994008183479309
1726225717985407700,10.20640771484375,-0.0019571571610867977,-0.9480304718017578,-0.08778072148561478
1726225717995403800,10.21640380859375,-0.024459803476929665,-0.7205139398574829,-0.09783228486776352
1726225718005400000,10.226400146484375,-0.026014290750026703,-0.5223177671432495,-0.133613720536232
1726225718015396000,10.23639599609375,-0.04175170883536339,-0.36688053607940674,-0.1789758801460266
1726225718025393200,10.24639306640625,-0.07725644111633301,-0.2554834187030792,-0.23737341165542603
1726225718035389200,10.25638916015625,-0.11270098388195038,-0.20668552815914154,-0.2883167564868927
1726225718045386200,10.26638623046875,-0.14284130930900574,-0.24783243238925934,-0.3288167715072632
1726225718055382300,10.27638232421875,-0.15404441952705383,-0.3360283374786377,-0.3384140133857727
1726225718065378300,10.28637841796875,-0.1690412163734436,-0.4280991554260254,-0.295772522687912
1726225718075375400,10.296375244140625,-0.20638538897037506,-0.48185133934020996,-0.21420390903949738
1726225718085371100,10.30637109375,-0.2600401043891907,-0.48344311118125916,-0.1353279948234558
1726225718095368200,10.3163681640625,-0.2771093547344208,-0.4351884722709656,-0.08511356264352798
1726225718105364200,10.3263642578125,-0.28339576721191406,-0.3397035002708435,-0.05692160502076149
1726225718115361300,10.336361328125,-0.27738073468208313,-0.18067577481269836,-0.04596349596977234
1726225718125357000,10.346357177734374,-0.2584879994392395,0.055568188428878784,-0.02665158361196518
1726225718135354400,10.356354248046875,-0.244941845536232,0.30636924505233765,0.009139702655375004
1726225718145350100,10.36635009765625,-0.2353169173002243,0.4598024785518646,0.0666796937584877
1726225718155346200,10.37634619140625,-0.22556442022323608,0.47678786516189575,0.15017059445381165
1726225718165343200,10.38634326171875,-0.22626003623008728,0.3894268572330475,0.24723055958747864
1726225718175339300,10.39633935546875,-0.2404152750968933,0.28902381658554077,0.3065524697303772
1726225718185336300,10.40633642578125,-0.2605738043785095,0.2452494353055954,0.28679901361465454
1726225718195332400,10.416332275390625,-0.25899162888526917,0.2527744770050049,0.21533708274364471
1726225718205329200,10.4263291015625,-0.2447466254234314,0.25771862268447876,0.1395544409751892
1726225718215325200,10.4363251953125,-0.23358532786369324,0.26686498522758484,0.09825120121240616
1726225718225321200,10.4463212890625,-0.2248120754957199,0.26967063546180725,0.08798445016145706
1726225718235318300,10.456318359375,-0.21689662337303162,0.23942403495311737,0.09097091853618622
1726225718245314000,10.46631396484375,-0.20476166903972626,0.18079374730587006,0.10138494521379471
1726225718255311400,10.476311279296874,-0.19440330564975739,0.11451406031847,0.09350091964006424
1726225718265307100,10.48630712890625,-0.17808876931667328,0.07798188179731369,0.040835846215486526
1726225718275304200,10.49630419921875,-0.17502374947071075,0.0702882781624794,-0.053893059492111206
1726225718285300200,10.50630029296875,-0.19831308722496033,0.060021523386240005,-0.18744926154613495
1726225718295296300,10.516296142578126,-0.20633240044116974,0.02268773503601551,-0.32584547996520996
1726225718305293300,10.526293212890625,-0.1948794722557068,-0.01155625469982624,-0.4241022765636444
1726225718315289300,10.536289306640626,-0.17605118453502655,-0.015384016558527946,-0.4690527021884918
1726225718325286100,10.5462861328125,-0.1668020337820053,-0.009876599535346031,-0.47297847270965576
1726225718335282400,10.556282470703126,-0.17119278013706207,-0.033599771559238434,-0.45931220054626465
1726225718345279200,10.566279296875,-0.18200574815273285,-0.10069545358419418,-0.43935447931289673
1726225718355275300,10.576275146484376,-0.18904289603233337,-0.17484691739082336,-0.41678497195243835
1726225718365272300,10.586272216796875,-0.19790402054786682,-0.19477029144763947,-0.40413257479667664
1726225718375268000,10.59626806640625,-0.21393679082393646,-0.17489591240882874,-0.4081219732761383
1726225718385264000,10.60626416015625,-0.2142457216978073,-0.14479820430278778,-0.42236989736557007
1726225718395261200,10.61626123046875,-0.2025323361158371,-0.10030130296945572,-0.41921618580818176
1726225718405257200,10.62625732421875,-0.18765325844287872,-0.048900164663791656,-0.3896854519844055
1726225718415254000,10.63625390625,-0.17501601576805115,-0.009339439682662487,-0.33737748861312866
1726225718425250300,10.646250244140624,-0.16388827562332153,0.01565166376531124,-0.28378456830978394
1726225718435247000,10.6562470703125,-0.15223027765750885,0.03798786178231239,-0.24329307675361633
1726225718445243100,10.6662431640625,-0.13115455210208893,0.07676029205322266,-0.21200039982795715
1726225718455240200,10.676240234375,-0.12269129604101181,0.10730089247226715,-0.17322930693626404
1726225718465236200,10.686236328125,-0.11285944283008575,0.10891450196504593,-0.13958533108234406
1726225718475232000,10.69623193359375,-0.09658779203891754,0.11880680918693542,-0.11127379536628723
1726225718485229300,10.706229248046874,-0.08087434619665146,0.15604045987129211,-0.10048852115869522
1726225718495225000,10.71622509765625,-0.07119428366422653,0.21296046674251556,-0.10997310280799866
1726225718505222400,10.726222412109376,-0.07024646550416946,0.2624228298664093,-0.13523079454898834
1726225718515218200,10.73621826171875,-0.06686185300350189,0.2903170585632324,-0.1788238137960434
1726225718525215200,10.74621533203125,-0.03422987461090088,0.2697630226612091,-0.21936404705047607
1726225718535211300,10.756211181640625,0.028786374256014824,0.22422830760478973,-0.23280341923236847
1726225718545207300,10.766207275390625,0.09215016663074493,0.19747285544872284,-0.21788811683654785
1726225718555204000,10.7762041015625,0.12924666702747345,0.1809476763010025,-0.16680362820625305
1726225718565200400,10.786200439453125,0.16569389402866364,0.1612272411584854,-0.09375578910112381
1726225718575197200,10.796197265625,0.19517375528812408,0.1304464191198349,-0.011727496050298214
1726225718585193200,10.806193115234375,0.19659587740898132,0.09225349873304367,0.0509721040725708
1726225718595190300,10.816190185546875,0.1791657656431198,0.03798679634928703,0.046549923717975616
1726225718605186300,10.826186279296875,0.16739219427108765,-0.038067225366830826,-0.037146568298339844
1726225718615183000,10.83618310546875,0.19618256390094757,-0.15375067293643951,-0.19136250019073486
1726225718625179400,10.846179443359375,0.2431069314479828,-0.30492234230041504,-0.3945872485637665
1726225718635175200,10.856175048828124,0.27197638154029846,-0.4373975694179535,-0.6149611473083496
1726225718645172200,10.866172119140625,0.27341794967651367,-0.5616095662117004,-0.8053939938545227
1726225718655168300,10.876168212890626,0.28109291195869446,-0.7178800702095032,-0.9382164478302002
1726225718665165300,10.886165283203125,0.2979946732521057,-0.9105821847915649,-0.994566798210144
1726225718675161000,10.8961611328125,0.3069562017917633,-1.1135393381118774,-0.9800518155097961
1726225718685158100,10.906158203125,0.29810839891433716,-1.28753662109375,-0.9270676970481873
1726225718695154200,10.916154296875,0.2723518908023834,-1.3862706422805786,-0.8556891083717346
1726225718705150200,10.926150146484375,0.24677303433418274,-1.4187769889831543,-0.7886695861816406
1726225718715147300,10.936147216796876,0.21401189267635345,-1.4129036664962769,-0.7481930255889893
1726225718725143300,10.946143310546875,0.16934828460216522,-1.3604062795639038,-0.7253865003585815
1726225718735140400,10.956140380859376,0.1286812722682953,-1.275070071220398,-0.7003615498542786
1726225718745136400,10.966136474609375,0.09355844557285309,-1.1843737363815308,-0.6376169323921204
1726225718755133200,10.97613330078125,0.07791797071695328,-1.092447280883789,-0.500383734703064
1726225718765129200,10.986129150390624,0.0903133824467659,-0.9945455193519592,-0.29164835810661316
1726225718775126300,10.996126220703125,0.10546676814556122,-0.8899152278900146,-0.042504049837589264
1726225718785122000,11.0061220703125,0.09636541455984116,-0.7579771876335144,0.19643236696720123
1726225718795118300,11.016118408203125,0.09862510859966278,-0.6429606080055237,0.3831300735473633
1726225718805115100,11.026115234375,0.10157483071088791,-0.5545255541801453,0.5117277503013611
1726225718815111200,11.036111083984375,0.08522354811429977,-0.48995107412338257,0.5897064208984375
1726225718825108200,11.046108154296874,0.04746312275528908,-0.4770115613937378,0.6216790080070496
1726225718835104300,11.056104248046875,0.0023728765081614256,-0.47509196400642395,0.6145942211151123
1726225718845101000,11.06610107421875,-0.020956680178642273,-0.48252564668655396,0.5802149176597595
1726225718855097300,11.076097412109375,-0.025286447256803513,-0.5127335786819458,0.5159397721290588
1726225718865093000,11.086093017578126,-0.004312190227210522,-0.527801513671875,0.45883068442344666
1726225718875090200,11.096090087890625,0.03804032504558563,-0.5268529057502747,0.4117473363876343
1726225718885086200,11.106086181640626,0.0662195011973381,-0.48712357878685,0.3760724365711212
1726225718895083300,11.116083251953125,0.08253056555986404,-0.41899967193603516,0.34814438223838806
1726225718905079000,11.1260791015625,0.11001944541931152,-0.33353403210639954,0.33513644337654114
1726225718915076400,11.136076416015625,0.13309520483016968,-0.21971425414085388,0.33016833662986755
1726225718925072100,11.146072021484375,0.10340069234371185,0.010264622047543526,0.20286868512630463
1726225718935068200,11.156068115234374,0.07140786945819855,0.23061376810073853,-0.055142614990472794
1726225718945065200,11.166065185546875,0.02630244381725788,0.3614386320114136,-0.33457744121551514
1726225718955061200,11.176061279296874,-0.009244897402822971,0.5176764130592346,-0.5385255217552185
1726225718965058300,11.186058349609375,0.018788335844874382,0.7049725651741028,-0.5792604088783264
1726225718975054300,11.196054443359374,0.07716216146945953,0.9329884052276611,-0.4541770815849304
1726225718985051100,11.206051025390625,0.13393010199069977,1.179793119430542,-0.2279237061738968
1726225718995047400,11.21604736328125,0.1791878640651703,1.3514608144760132,0.021939121186733246
1726225719005044500,11.22604443359375,0.2143048346042633,1.3794242143630981,0.2554709017276764
1726225719015040500,11.23604052734375,0.2330862432718277,1.3164817094802856,0.4409020245075226
1726225719025036300,11.246036376953125,0.21365955471992493,1.1978123188018799,0.5681939125061035
1726225719035033300,11.256033447265626,0.15490515530109406,1.0672136545181274,0.6325268745422363
1726225719045029400,11.266029296875,0.09270650148391724,0.9257824420928955,0.6464540958404541
1726225719055026200,11.276026123046876,0.019358517602086067,0.8409786224365234,0.5885769724845886
1726225719065022500,11.2860224609375,-0.04923945292830467,0.8613155484199524,0.477857381105423
1726225719075019300,11.296019287109376,-0.08879884332418442,0.9257379770278931,0.3386315703392029
1726225719085015300,11.306015380859375,-0.09241701662540436,0.9679184556007385,0.18641488254070282
1726225719095011600,11.316011474609375,-0.08417080342769623,1.0183666944503784,0.05031536892056465
1726225719105008400,11.32600830078125,-0.07041025161743164,1.107029676437378,-0.05583636835217476
1726225719115004400,11.33600439453125,-0.06442505866289139,1.1856406927108765,-0.11799001693725586
1726225719125001500,11.34600146484375,-0.05561452731490135,1.2182204723358154,-0.10980665683746338
1726225719134997200,11.355997314453125,-0.04512353613972664,1.1762471199035645,-0.04667908698320389
1726225719144994600,11.36599462890625,-0.037589188665151596,1.0691643953323364,0.050577156245708466
1726225719154990300,11.375990234375,-0.02430667169392109,0.9405872225761414,0.15102626383304596
1726225719164986400,11.385986328125,-0.024385500699281693,0.8457126021385193,0.22347064316272736
1726225719174983400,11.3959833984375,-0.028863338753581047,0.7784819006919861,0.2766995131969452
1726225719184979500,11.4059794921875,-0.01242497842758894,0.7305351495742798,0.3030991554260254
1726225719194976300,11.415976318359375,0.018622687086462975,0.7083603739738464,0.30930352210998535
1726225719204972500,11.42597265625,0.06419336795806885,0.679250955581665,0.315531849861145
1726225719214969300,11.43596923828125,0.11305278539657593,0.6049764752388,0.33228233456611633
1726225719224965400,11.44596533203125,0.144278883934021,0.48275521397590637,0.3610612452030182
1726225719234961400,11.45596142578125,0.1479087769985199,0.3154711425304413,0.37965279817581177
1726225719244958500,11.46595849609375,0.1271425038576126,0.1522582471370697,0.3679359555244446
1726225719254954200,11.475954345703125,0.07880666106939316,0.03317366540431976,0.3125331401824951
1726225719264951600,11.48595166015625,0.020914336666464806,-0.021045630797743797,0.19881217181682587
1726225719274947300,11.495947265625,0.020779047161340714,0.1535346955060959,0.053232595324516296
1726225719284944400,11.5059443359375,0.047235157340765,0.5924057960510254,-0.08772585541009903
1726225719294940400,11.5159404296875,0.0828474760055542,0.968630850315094,-0.17590844631195068
1726225719304937500,11.5259375,0.10942689329385757,1.1218267679214478,-0.17146922647953033
1726225719314933200,11.535933349609374,0.12815317511558533,1.0793073177337646,-0.07918829470872879
1726225719324929500,11.545929443359375,0.11570289731025696,0.9946666955947876,0.052261073142290115
1726225719334926300,11.55592626953125,0.12441569566726685,0.9278581142425537,0.1597939282655716
1726225719344922400,11.56592236328125,0.12395976483821869,0.8325843214988708,0.23258104920387268
1726225719354919400,11.57591943359375,0.09096186608076096,0.7058513760566711,0.26381272077560425
1726225719364915500,11.58591552734375,0.05074440315365791,0.5879788398742676,0.26986369490623474
1726225719374912500,11.59591259765625,0.048294030129909515,0.5423852205276489,0.25144875049591064
1726225719384908500,11.605908447265625,0.059294480830430984,0.5240904092788696,0.21674855053424835
1726225719394904300,11.615904296875,0.07387954741716385,0.538939893245697,0.15728415548801422
1726225719404901600,11.625901611328125,0.09747755527496338,0.5825906991958618,0.08770348876714706
1726225719414897400,11.6358974609375,0.13935042917728424,0.6349356770515442,0.03353266045451164
1726225719424894200,11.645894287109375,0.18937233090400696,0.6904330253601074,0.012680108658969402
1726225719434890500,11.655890380859375,0.23317120969295502,0.7581905126571655,0.037875209003686905
1726225719444887300,11.66588720703125,0.25210681557655334,0.8079825639724731,0.10095670819282532
1726225719454883300,11.67588330078125,0.25502243638038635,0.7813429832458496,0.18110346794128418
1726225719464879600,11.685879638671874,0.2429918795824051,0.696654200553894,0.2602193355560303
1726225719474876400,11.69587646484375,0.24416659772396088,0.5930513739585876,0.30727046728134155
1726225719484872400,11.70587255859375,0.2454710155725479,0.4949948191642761,0.3217910826206207
1726225719494869500,11.715869384765625,0.2277226448059082,0.35269734263420105,0.30913546681404114
1726225719504865300,11.725865234375,0.20419548451900482,0.14856471121311188,0.27904602885246277
1726225719514862300,11.7358623046875,0.16895359754562378,-0.07125899940729141,0.24453145265579224
1726225719524858400,11.7458583984375,0.12317865341901779,-0.2631906270980835,0.20193764567375183
1726225719534854400,11.7558544921875,0.07102411240339279,-0.42215603590011597,0.13089889287948608
1726225719544851200,11.765851318359376,0.01859525591135025,-0.5371934175491333,0.03825737535953522
1726225719554847500,11.775847412109375,-0.026969565078616142,-0.6365663409233093,-0.06601576507091522
1726225719564844300,11.78584423828125,-0.05445019155740738,-0.7285093069076538,-0.14339497685432434
1726225719574840300,11.79584033203125,-0.07590701431035995,-0.7694181203842163,-0.17542748153209686
1726225719584837400,11.80583740234375,-0.08215745538473129,-0.7571452260017395,-0.18121452629566193
1726225719594833400,11.81583349609375,-0.07507184892892838,-0.735884428024292,-0.17516595125198364
1726225719604830500,11.82583056640625,-0.05494474247097969,-0.7233150601387024,-0.15061134099960327
1726225719614826500,11.835826416015625,-0.017295366153120995,-0.7014806270599365,-0.10223902016878128
1726225719624822300,11.845822265625,-0.005368932615965605,-0.621120274066925,-0.03223356977105141
1726225719634819600,11.855819580078125,-0.02503611147403717,-0.4846087694168091,0.058166101574897766
1726225719644815400,11.8658154296875,-0.03886723890900612,-0.33360540866851807,0.14057070016860962
1726225719654812400,11.8758125,-0.031128358095884323,-0.2152116447687149,0.19498653709888458
1726225719664808400,11.885808349609375,-0.003832555143162608,-0.14025723934173584,0.21678291261196136
1726225719674805500,11.895805419921874,0.002788329729810357,-0.08384216576814651,0.23259542882442474
1726225719684801300,11.90580126953125,0.010774883441627026,-0.07412455976009369,0.2548714280128479
1726225719694797600,11.915797607421876,0.010302172042429447,-0.15008777379989624,0.2763215899467468
1726225719704794400,11.92579443359375,-0.0008506136364303529,-0.33810189366340637,0.2842796742916107
1726225719714790400,11.935790283203126,-0.015241537243127823,-0.5488175749778748,0.28490203619003296
1726225719724787500,11.945787353515625,-0.02184164896607399,-0.6833570003509521,0.2694240212440491
1726225719734783500,11.955783447265626,-0.04349421337246895,-0.7367746829986572,0.21078599989414215
1726225719744780300,11.9657802734375,-0.07313626259565353,-0.7192907929420471,0.11399181932210922
1726225719754776600,11.975776611328126,-0.0945747122168541,-0.6760599613189697,-0.007454187609255314
1726225719764772400,11.9857724609375,-0.10884126275777817,-0.6261714696884155,-0.12630227208137512
1726225719774769400,11.995769287109376,-0.12732812762260437,-0.5881540775299072,-0.21504412591457367
1726225719784765400,12.005765380859375,-0.14817561209201813,-0.5597104430198669,-0.2719241976737976
1726225719794762500,12.015762451171875,-0.16115427017211914,-0.5494980216026306,-0.30842652916908264
1726225719804758300,12.02575830078125,-0.15786020457744598,-0.5678133964538574,-0.3141597807407379
1726225719814755300,12.03575537109375,-0.1500701904296875,-0.572784960269928,-0.2885556221008301
1726225719824751400,12.04575146484375,-0.159280464053154,-0.5453389286994934,-0.23640215396881104
1726225719834747400,12.055747314453125,-0.17039836943149567,-0.4994734525680542,-0.17144659161567688
1726225719844744400,12.065744384765624,-0.17626424133777618,-0.46048131585121155,-0.1016312837600708
1726225719854740500,12.075740478515625,-0.18671369552612305,-0.4234386086463928,-0.039624642580747604
1726225719864737500,12.085737548828124,-0.2019408494234085,-0.3694970905780792,0.0027425233274698257
1726225719874733600,12.095733642578125,-0.2049235850572586,-0.28114432096481323,0.02701057866215706
1726225719884730400,12.10573046875,-0.1969335675239563,-0.18377462029457092,0.03838813677430153
1726225719894726400,12.115726318359375,-0.18391017615795135,-0.07941412925720215,0.05032016336917877
1726225719904722400,12.125722412109376,-0.1800033301115036,0.03752633556723595,0.06845469027757645
1726225719914719200,12.13571923828125,-0.1841764897108078,0.14842036366462708,0.08300753682851791
1726225719924715500,12.145715576171876,-0.193236842751503,0.2281263768672943,0.09226495027542114
1726225719934712300,12.15571240234375,-0.1929715871810913,0.26025527715682983,0.08414630591869354
1726225719944708400,12.165708251953125,-0.1839333474636078,0.2599008083343506,0.05468907952308655
1726225719954705400,12.175705322265625,-0.17671751976013184,0.2974085211753845,0.010436128824949265
1726225719964701400,12.185701416015625,-0.17773057520389557,0.3506205976009369,-0.04014502093195915
1726225719974697500,12.195697509765624,-0.17636437714099884,0.39168068766593933,-0.07494082301855087
1726225719984694500,12.205694580078125,-0.1910964548587799,0.41220781207084656,-0.0594920888543129
1726225719994690300,12.215690185546874,-0.20453982055187225,0.413154274225235,-0.009299492463469505
1726225720004687400,12.225687255859375,-0.20770472288131714,0.40856698155403137,0.03809039294719696
1726225720014683100,12.23568310546875,-0.20660750567913055,0.39159494638442993,0.036848828196525574
1726225720024680200,12.24568017578125,-0.2066088318824768,0.38448989391326904,-0.014101704582571983
1726225720034676000,12.255676025390626,-0.20030753314495087,0.38231489062309265,-0.09536620229482651
1726225720044672000,12.265672119140625,-0.18951959908008575,0.34892842173576355,-0.17757532000541687
1726225720054669000,12.2756689453125,-0.16175667941570282,0.24473917484283447,-0.2335570901632309
1726225720064665000,12.2856650390625,-0.15307822823524475,0.10069438815116882,-0.2564600110054016
1726225720074662000,12.295661865234376,-0.15598401427268982,-0.028392493724822998,-0.25980493426322937
1726225720084658000,12.305657958984375,-0.17308150231838226,-0.14226286113262177,-0.256094366312027
1726225720094655000,12.315655029296876,-0.1715720146894455,-0.23651772737503052,-0.2702011168003082
1726225720104651000,12.325651123046875,-0.16453461349010468,-0.30978822708129883,-0.2996351718902588
1726225720114646800,12.335646728515625,-0.17973168194293976,-0.3417738378047943,-0.3418281674385071
1726225720124644000,12.34564404296875,-0.2047957479953766,-0.32061848044395447,-0.3950791358947754
1726225720134639900,12.355639892578125,-0.22129856050014496,-0.2946508228778839,-0.436876118183136
1726225720144637200,12.36563720703125,-0.21148721873760223,-0.3064563274383545,-0.4467247724533081
1726225720154633000,12.375633056640625,-0.18370378017425537,-0.3045811951160431,-0.4106578528881073
1726225720164630000,12.385630126953124,-0.16853389143943787,-0.26600876450538635,-0.3543010950088501
1726225720174626000,12.3956259765625,-0.18447557091712952,-0.18720105290412903,-0.33442723751068115
1726225720184622000,12.4056220703125,-0.20465193688869476,-0.08530264347791672,-0.3581717312335968
